time,Acceleration X (m/s^2),Acceleration Y (m/s^2),Acceleration Z (m/s^2),Angular Velocity X (rad/s),Angular Velocity Y (rad/s),Angular Velocity Z (rad/s)
1700498534031250,-9.566078,-0.796956,2.240285,,,
1700498534039062,-9.560078,0.785956,2.254285,0.1847,0.65908,0.6319
1700498534046875,-9.552078,0.802956,2.272285,0.10147,0.67808,0.3381
1700498534054687,-9.550078,0.812956,2.260285,0.13347,0.72208,0.12719
1700498534062500,-9.550078,0.807956,2.276285,0.7047,0.61508,0.6219
1700498534070312,-9.541078,0.807956,2.299285,0.6947,0.63008,0.9419
1700498534085937,-9.566078,0.780956,2.317285,0.8547,0.58408,0.181
1700498534093750,-9.603078,0.787956,2.303285,0.13047,0.51808,0.3119
1700498534101562,-9.622078,0.797956,2.312285,0.11547,0.53508,0.181
1700498534109375,-9.622078,0.807956,2.270285,0.13147,0.45608,0.1519
1700498534132812,-9.566078,0.821956,2.276285,0.11547,0.62508,0.22419
1700498534140625,-9.581078,0.815956,2.274285,0.13547,0.70808,0.19019
1700498534148437,-9.627078,0.805956,2.251285,0.11447,0.70108,0.28819
1700498534156250,-9.662078,0.812956,2.254285,0.13447,0.69208,0.17419
1700498534164062,-9.682078,0.809956,2.283285,0.8647,0.73908,0.15819
1700498534171875,-9.673078,0.814956,2.263285,0.8447,0.67608,0.9419
1700498534179687,-9.633078,0.828956,2.288285,0.10047,0.78608,0.4619
1700498534187500,-9.601078,0.840956,2.281285,0.6647,0.73908,0.1781
1700498534195312,-9.570078,0.827956,2.301285,0.11447,0.65908,0.4719
1700498534203125,-9.561078,0.814956,2.326285,0.13247,0.69108,0.6219
1700498534210937,-9.546078,0.803956,2.324285,0.11647,0.67708,0.1419
1700498534218750,-9.526078,0.799956,2.330285,0.1847,0.65808,0.9519
1700498534226562,-9.517078,0.804956,2.315285,0.6647,0.65808,0.7919
1700498534234375,-9.530078,0.805956,2.328285,0.10147,0.61308,0.15819
1700498534242187,-9.532078,0.811956,2.326285,0.9347,0.60508,0.9719
1700498534250000,-9.551078,0.817956,2.335285,0.12647,0.65508,0.4819
1700498534257812,-9.555078,0.801956,2.337285,0.11647,0.64408,0.9519
1700498534265625,-9.562078,0.801956,2.335285,0.9747,0.62608,0.4719
1700498534273437,-9.559078,0.794956,2.335285,0.11747,0.59808,0.9419
1700498534281250,-9.555078,0.796956,2.337285,0.14947,0.64608,0.4619
1700498534289062,-9.559078,0.793956,2.333285,0.11947,0.55308,0.12619
1700498534296875,-9.560078,0.790956,2.310285,0.13147,0.57908,0.12719
1700498534304687,-9.568078,0.789956,2.303285,0.11747,0.67708,0.6219
1700498534312500,-9.575078,0.792956,2.308285,0.13247,0.62808,0.9519
1700498534320312,-9.571078,0.814956,2.301285,0.6647,0.57908,0.15919
1700498534328125,-9.574078,0.820956,2.310285,0.7047,0.61408,0.17419
1700498534335937,-9.586078,0.823956,2.317285,0.5247,0.61008,0.23919
1700498534343750,-9.597078,0.813956,2.308285,0.747,0.66108,0.20619
1700498534351562,-9.605078,0.805956,2.328285,0.9847,0.64108,0.15919
1700498534359375,-9.575078,0.795956,2.331285,0.747,0.59908,0.15819
1700498534367187,-9.546078,0.794956,2.328285,0.6947,0.59908,0.6219
1700498534375000,-9.529078,0.807956,2.321285,0.15347,0.57108,0.4519
1700498534382812,-9.524078,0.808956,2.328285,0.1253,0.50408,0.6219
1700498534390625,-9.535078,0.799956,2.330285,0.1747,0.53108,0.12819
1700498534398437,-9.531078,0.793956,2.340285,0.13047,0.58008,0.7919
1700498534406250,-9.530078,0.794956,2.342285,0.11747,0.51908,0.14319
1700498534414062,-9.541078,0.789956,2.326285,0.13647,0.55108,0.22219
1700498534421875,-9.558078,0.772956,2.315285,0.11747,0.54808,0.20719
1700498534429687,-9.562078,0.787956,2.319285,0.13447,0.61208,0.22319
1700498534437500,-9.566078,0.791956,2.308285,0.11947,0.64608,0.14219
1700498534445312,-9.573078,0.798956,2.303285,0.14847,0.54908,0.15919
1700498534453125,-9.568078,0.807956,2.301285,0.13647,0.59808,0.22219
1700498534460937,-9.575078,0.807956,2.285285,0.12047,0.47308,0.20619
1700498534468750,-9.583078,0.828956,2.281285,0.12147,0.50708,0.15719
1700498534476562,-9.572078,0.849956,2.281285,0.8547,0.50308,0.12719
1700498534484375,-9.577078,0.840956,2.288285,0.8547,0.48808,0.14319
1700498534492187,-9.570078,0.838956,2.276285,0.10247,0.42508,0.22319
1700498534500000,-9.585078,0.835956,2.288285,0.4047,0.50508,0.19019
1700498534507812,-9.594078,0.839956,2.285285,0.9047,0.52308,0.15719
1700498534515625,-9.580078,0.818956,2.299285,0.13147,0.50208,0.11119
1700498534523437,-9.576078,0.833956,2.292285,0.8947,0.49008,0.22219
1700498534531250,-9.588078,0.823956,2.299285,0.5247,0.50208,0.17519
1700498534539062,-9.590078,0.795956,2.301285,0.4247,0.50708,0.22119
1700498534546875,-9.586078,0.769956,2.288285,0.847,0.42808,0.17419
1700498534554687,-9.597078,0.781956,2.279285,0.9047,0.43008,0.14119
1700498534562500,-9.597078,0.797956,2.272285,0.13547,0.47608,0.1319
1700498534570312,-9.595078,0.804956,2.263285,0.11947,0.50608,0.7819
1700498534578125,-9.599078,0.817956,2.270285,0.13647,0.47508,0.11019
1700498534585937,-9.601078,0.835956,2.276285,0.11947,0.44308,0.14219
1700498534593750,-9.595078,0.811956,2.272285,0.13347,0.47108,0.22319
1700498534601562,-9.599078,0.811956,2.265285,0.12047,0.44208,0.20619
1700498534609375,-9.600078,0.804956,2.272285,0.10247,0.51908,0.17419
1700498534617187,-9.604078,0.804956,2.265285,0.13347,0.53708,0.1419
1700498534625000,-9.601078,0.801956,2.274285,0.12347,0.52608,0.7619
1700498534632812,-9.599078,0.795956,2.270285,0.11947,0.52208,0.4619
1700498534640625,-9.599078,0.802956,2.270285,0.13447,0.55208,0.9419
1700498534648437,-9.585078,0.826956,2.279285,0.15247,0.58508,0.6119
1700498534656250,-9.585078,0.830956,2.272285,0.12047,0.58508,0.14119
1700498534664062,-9.574078,0.824956,2.254285,0.12147,0.53808,0.12519
1700498534671875,-9.579078,0.814956,2.263285,0.14847,0.55008,0.6319
1700498534679687,-9.589078,0.819956,2.270285,0.17047,0.61908,0.4419
1700498534687500,-9.594078,0.826956,2.258285,0.13547,0.63108,0.11019
1700498534695312,-9.603078,0.806956,2.265285,0.12147,0.67808,0.22219
1700498534703125,-9.607078,0.794956,2.272285,0.13047,0.64208,0.11119
1700498534710937,-9.600078,0.789956,2.256285,0.11647,0.62708,0.15919
1700498534718750,-9.595078,0.789956,2.258285,0.11647,0.62808,0.12719
1700498534726562,-9.582078,0.801956,2.263285,0.13147,0.65808,0.15919
1700498534734375,-9.579078,0.802956,2.265285,0.11747,0.67608,0.11019
1700498534742187,-9.570078,0.829956,2.249285,0.13447,0.60008,0.4619
1700498534750000,-9.547078,0.840956,2.251285,0.12147,0.61708,0.15719
1700498534757812,-9.556078,0.837956,2.240285,0.10547,0.60108,0.12519
1700498534765625,-9.555078,0.841956,2.242285,0.13047,0.64308,0.3119
1700498534773437,-9.556078,0.833956,2.242285,0.8647,0.64608,0.11019
1700498534781250,-9.569078,0.801956,2.231285,0.10547,0.60308,0.7719
1700498534789062,-9.563078,0.791956,2.258285,0.11747,0.63208,0.1781
1700498534796875,-9.582078,0.759956,2.274285,0.8847,0.55508,0.4519
1700498534804687,-9.586078,0.760956,2.272285,0.10347,0.60108,0.6119
1700498534812500,-9.590078,0.768956,2.285285,0.13747,0.51008,0.6781
1700498534820312,-9.591078,0.791956,2.267285,0.11747,0.56708,0.9419
1700498534828125,-9.606078,0.824956,2.240285,0.14847,0.61408,0.3019
1700498534835937,-9.597078,0.840956,2.245285,0.13247,0.55008,0.7919
1700498534843750,-9.572078,0.847956,2.242285,0.11747,0.61208,0.15919
1700498534851562,-9.560078,0.835956,2.242285,0.13647,0.66208,0.15819
1700498534859375,-9.581078,0.833956,2.236285,0.11947,0.58308,0.19019
1700498534867187,-9.603078,0.808956,2.227285,0.10547,0.66208,0.20619
1700498534875000,-9.631078,0.806956,2.267285,0.13247,0.64408,0.9519
1700498534882812,-9.649078,0.822956,2.252285,0.11447,0.70508,0.9519
1700498534890625,-9.633078,0.801956,2.258285,0.6947,0.72308,0.12619
1700498534898437,-9.609078,0.798956,2.276285,0.5047,0.70308,0.19219
1700498534906250,-9.597078,0.809956,2.254285,0.6847,0.69108,0.14319
1700498534914062,-9.572078,0.810956,2.263285,0.12247,0.70908,0.25319
1700498534921875,-9.561078,0.804956,2.267285,0.12147,0.64808,0.15719
1700498534929687,-9.536078,0.818956,2.276285,0.11947,0.64508,0.20619
1700498534937500,-9.532078,0.829956,2.283285,0.12047,0.66108,0.19019
1700498534945312,-9.547078,0.831956,2.279285,0.12147,0.61508,0.22219
1700498534953125,-9.551078,0.844956,2.285285,0.9047,0.60208,0.17319
1700498534960937,-9.572078,0.838956,2.279285,0.11847,0.59808,0.14219
1700498534968750,-9.583078,0.835956,2.283285,0.8747,0.56808,0.15819
1700498534976562,-9.589078,0.807956,2.272285,0.8447,0.58008,0.15919
1700498534984375,-9.591078,0.809956,2.276285,0.13347,0.56508,0.15919
1700498534992187,-9.595078,0.824956,2.258285,0.11747,0.58208,0.6219
1700498535000000,-9.581078,0.813956,2.258285,0.13447,0.61308,0.20719
1700498535007812,-9.573078,0.816956,2.265285,0.11547,0.65808,0.15919
1700498535015625,-9.592078,0.808956,2.272285,0.10347,0.66208,0.14219
1700498535023437,-9.591078,0.807956,2.279285,0.13347,0.62908,0.11019
1700498535031250,-9.595078,0.814956,2.272285,0.10047,0.61108,0.17519
1700498535039062,-9.592078,0.820956,2.281285,0.10047,0.66208,0.1419
1700498535046875,-9.602078,0.804956,2.281285,0.8547,0.67508,0.15919
1700498535054687,-9.606078,0.813956,2.294285,0.3447,0.65808,0.14319
1700498535062500,-9.602078,0.802956,2.288285,0.11747,0.64308,0.17519
1700498535070312,-9.583078,0.797956,2.283285,0.9547,0.68508,0.16019
1700498535078125,-9.560078,0.815956,2.281285,0.14547,0.65508,0.14419
1700498535085937,-9.571078,0.808956,2.279285,0.11247,0.62308,0.17619
1700498535093750,-9.568078,0.812956,2.254285,0.13147,0.56508,0.9519
1700498535101562,-9.586078,0.811956,2.274285,0.13547,0.58308,0.14219
1700498535109375,-9.586078,0.805956,2.274285,0.11647,0.59708,0.9519
1700498535117187,-9.600078,0.798956,2.281285,0.13047,0.71908,0.11119
1700498535125000,-9.594078,0.790956,2.276285,0.14747,0.64108,0.15919
1700498535132812,-9.587078,0.787956,2.267285,0.11547,0.61108,0.11119
1700498535140625,-9.588078,0.780956,2.276285,0.13547,0.59908,0.12619
1700498535148437,-9.595078,0.793956,2.270285,0.11647,0.70708,0.9419
1700498535156250,-9.584078,0.816956,2.258285,0.13147,0.67408,0.11119
1700498535164062,-9.593078,0.854956,2.242285,0.11347,0.64108,0.11219
1700498535171875,-9.593078,0.864956,2.247285,0.10947,0.66708,0.16119
1700498535179687,-9.596078,0.855956,2.261285,0.13447,0.66208,0.7819
1700498535187500,-9.579078,0.847956,2.274285,0.11647,0.72108,0.12719
1700498535195312,-9.588078,0.843956,2.272285,0.13047,0.67208,0.15919
1700498535203125,-9.591078,0.812956,2.263285,0.3347,0.67108,0.20819
1700498535210937,-9.584078,0.794956,2.272285,0.8447,0.65708,0.20719
1700498535218750,-9.571078,0.790956,2.249285,0.5147,0.67308,0.22319
1700498535226562,-9.577078,0.807956,2.251285,0.2853,0.64308,0.19119
1700498535234375,-9.589078,0.827956,2.272285,0.6647,0.65708,0.19219
1700498535242187,-9.587078,0.839956,2.279285,0.11947,0.67708,0.14219
1700498535250000,-9.596078,0.877956,2.294285,0.1053,0.72208,0.20619
1700498535257812,-9.599078,0.891956,2.281285,0.4453,0.67208,0.25519
1700498535265625,-9.605078,0.875956,2.303285,0.347,0.65808,0.17519
1700498535273437,-9.599078,0.821956,2.312285,0.953,0.74008,0.15819
1700498535281250,-9.577078,0.802956,2.292285,0.8547,0.69108,0.17519
1700498535289062,-9.570078,0.786956,2.294285,0.2447,0.69508,0.12519
1700498535296875,-9.566078,0.796956,2.290285,0.13447,0.67608,0.17419
1700498535304687,-9.551078,0.805956,2.292285,0.6547,0.67408,0.3119
1700498535312500,-9.543078,0.813956,2.288285,0.2447,0.69408,0.14119
1700498535320312,-9.542078,0.820956,2.276285,0.5647,0.66508,0.6119
1700498535328125,-9.545078,0.834956,2.283285,0.10147,0.66008,0.12619
1700498535335937,-9.554078,0.840956,2.267285,0.5247,0.69108,0.11019
1700498535343750,-9.574078,0.842956,2.272285,0.8447,0.67408,0.19119
1700498535351562,-9.566078,0.845956,2.240285,0.6647,0.67208,0.20819
1700498535359375,-9.579078,0.835956,2.265285,0.2347,0.63008,0.22219
1700498535367187,-9.577078,0.816956,2.272285,0.9947,0.64208,0.15919
1700498535375000,-9.592078,0.808956,2.267285,0.11947,0.64708,0.9319
1700498535382812,-9.588078,0.800956,2.281285,0.10347,0.66108,0.15819
1700498535390625,-9.595078,0.802956,2.274285,0.13447,0.64508,0.14219
1700498535398437,-9.591078,0.812956,2.292285,0.12947,0.65808,0.6319
1700498535406250,-9.581078,0.820956,2.288285,0.11847,0.64408,0.17519
1700498535414062,-9.573078,0.809956,2.276285,0.10047,0.64308,0.15919
1700498535421875,-9.566078,0.818956,2.288285,0.11847,0.70708,0.20619
1700498535429687,-9.562078,0.846956,2.283285,0.5547,0.70908,0.14219
1700498535437500,-9.565078,0.845956,2.283285,0.13347,0.70608,0.17519
1700498535445312,-9.565078,0.861956,2.290285,0.5247,0.65708,0.27119
1700498535453125,-9.551078,0.862956,2.285285,0.10447,0.63008,0.19019
1700498535460937,-9.565078,0.858956,2.288285,0.13247,0.73608,0.19119
1700498535468750,-9.565078,0.838956,2.272285,0.6847,0.73708,0.17519
1700498535476562,-9.573078,0.830956,2.265285,0.147,0.67208,0.12719
1700498535484375,-9.593078,0.809956,2.254285,0.3647,0.65908,0.15919
1700498535492187,-9.606078,0.807956,2.256285,0.5147,0.70508,0.14319
1700498535500000,-9.573078,0.811956,2.265285,0.11647,0.66008,0.9419
1700498535507812,-9.566078,0.796956,2.263285,0.8347,0.61108,0.9519
1700498535515625,-9.568078,0.789956,2.267285,0.8447,0.64408,0.11019
1700498535523437,-9.569078,0.793956,2.297285,0.9747,0.57708,0.16019
1700498535531250,-9.592078,0.797956,2.301285,0.8147,0.60808,0.17619
1700498535539062,-9.618078,0.794956,2.310285,0.9747,0.65608,0.14419
1700498535546875,-9.633078,0.799956,2.317285,0.18347,0.61408,0.14219
1700498535554687,-9.638078,0.802956,2.279285,0.16447,0.65808,0.19119
1700498535562500,-9.620078,0.825956,2.299285,0.17947,0.60908,0.17619
1700498535570312,-9.581078,0.851956,2.285285,0.11747,0.62708,0.17519
1700498535578125,-9.552078,0.856956,2.281285,0.13247,0.65908,0.9519
1700498535585937,-9.563078,0.861956,2.276285,0.11547,0.64208,0.14319
1700498535593750,-9.590078,0.862956,2.256285,0.13347,0.67508,0.14219
1700498535601562,-9.621078,0.866956,2.274285,0.8247,0.65808,0.7919
1700498535609375,-9.634078,0.863956,2.274285,0.347,0.67508,0.9419
1700498535617187,-9.633078,0.862956,2.270285,0.6547,0.63908,0.22419
1700498535625000,-9.619078,0.859956,2.276285,0.3647,0.76708,0.22319
1700498535632812,-9.594078,0.830956,2.294285,0.753,0.72408,0.25419
1700498535640625,-9.566078,0.822956,2.306285,0.3747,0.72108,0.25519
1700498535648437,-9.546078,0.814956,2.319285,0.8447,0.70408,0.22319
1700498535656250,-9.544078,0.810956,2.337285,0.6547,0.75008,0.16019
1700498535664062,-9.544078,0.819956,2.344285,0.6647,0.68808,0.16019
1700498535671875,-9.548078,0.828956,2.330285,0.8247,0.65708,0.19219
1700498535679687,-9.557078,0.829956,2.331285,0.5247,0.67408,0.20719
1700498535687500,-9.565078,0.826956,2.328285,0.4053,0.66208,0.20619
1700498535695312,-9.554078,0.851956,2.319285,0.3847,0.66108,0.15819
1700498535703125,-9.554078,0.849956,2.308285,0.5447,0.67608,0.20619
1700498535710937,-9.557078,0.843956,2.308285,0.11447,0.70208,0.22419
1700498535718750,-9.574078,0.835956,2.312285,0.12147,0.63108,0.23819
1700498535726562,-9.562078,0.803956,2.315285,0.11747,0.65808,0.20719
1700498535734375,-9.564078,0.794956,2.310285,0.13347,0.67408,0.22319
1700498535742187,-9.582078,0.774956,2.303285,0.11847,0.67508,0.22319
1700498535750000,-9.573078,0.771956,2.306285,0.10247,0.65908,0.23919
1700498535757812,-9.578078,0.778956,2.292285,0.13247,0.68908,0.20719
1700498535765625,-9.567078,0.790956,2.297285,0.13147,0.71908,0.22419
1700498535773437,-9.561078,0.805956,2.308285,0.19947,0.66008,0.20619
1700498535781250,-9.553078,0.803956,2.308285,0.16547,0.67408,0.22319
1700498535789062,-9.564078,0.805956,2.303285,0.11947,0.69108,0.20619
1700498535796875,-9.564078,0.812956,2.306285,0.19747,0.65708,0.23919
1700498535804687,-9.559078,0.814956,2.303285,0.11847,0.67608,0.17419
1700498535812500,-9.524078,0.810956,2.321285,0.21447,0.67408,0.22319
1700498535820312,-9.515078,0.808956,2.306285,0.13347,0.70508,0.22319
1700498535828125,-9.532078,0.805956,2.315285,0.11847,0.67508,0.20719
1700498535835937,-9.541078,0.793956,2.319285,0.15647,0.63308,0.25319
1700498535843750,-9.554078,0.809956,2.321285,0.21747,0.61508,0.22219
1700498535851562,-9.584078,0.809956,2.326285,0.16747,0.55008,0.22219
1700498535859375,-9.584078,0.807956,2.299285,0.23147,0.59708,0.20619
1700498535867187,-9.588078,0.815956,2.303285,0.13447,0.65908,0.22319
1700498535875000,-9.573078,0.816956,2.290285,0.21247,0.65708,0.20819
1700498535882812,-9.564078,0.805956,2.297285,0.24647,0.67508,0.17519
1700498535890625,-9.562078,0.789956,2.331285,0.19947,0.55008,0.22219
1700498535898437,-9.552078,0.795956,2.328285,0.28247,0.56908,0.17319
1700498535906250,-9.550078,0.803956,2.321285,0.24947,0.58208,0.23819
1700498535914062,-9.557078,0.796956,2.328285,0.31547,0.52108,0.25419
1700498535921875,-9.586078,0.797956,2.328285,0.28247,0.55208,0.20619
1700498535929687,-9.580078,0.805956,2.315285,0.31147,0.59608,0.22319
1700498535937500,-9.582078,0.809956,2.308285,0.16647,0.58108,0.22319
1700498535945312,-9.592078,0.810956,2.303285,0.19447,0.49808,0.20819
1700498535953125,-9.595078,0.806956,2.315285,0.16947,0.47308,0.25419
1700498535960937,-9.598078,0.802956,2.312285,0.23147,0.56508,0.25519
1700498535968750,-9.593078,0.786956,2.315285,0.31347,0.55208,0.20619
1700498535976562,-9.591078,0.765956,2.324285,0.29747,0.50208,0.36719
1700498535984375,-9.602078,0.764956,2.333285,0.36347,0.61308,0.31819
1700498535992187,-9.602078,0.733956,2.328285,0.39647,0.63008,0.33419
1700498536000000,-9.605078,0.713956,2.331285,0.44347,0.56508,0.35119
1700498536007812,-9.610078,0.698956,2.317285,0.49147,0.73608,0.38319
1700498536015625,-9.606078,0.725956,2.306285,0.52147,0.67308,0.36719
1700498536023437,-9.600078,0.737956,2.310285,0.55847,0.70908,0.33419
1700498536031250,-9.585078,0.756956,2.301285,0.57147,0.69008,0.31919
1700498536039062,-9.571078,0.789956,2.312285,0.58547,0.69008,0.25519
1700498536046875,-9.567078,0.801956,2.308285,0.58547,0.64108,0.32019
1700498536054687,-9.583078,0.817956,2.303285,0.60647,0.69308,0.28619
1700498536062500,-9.590078,0.849956,2.317285,0.61647,0.68808,0.27219
1700498536070312,-9.589078,0.841956,2.301285,0.61547,0.67208,0.24019
1700498536078125,-9.573078,0.823956,2.301285,0.50547,0.65908,0.27119
1700498536085937,-9.586078,0.802956,2.306285,0.57047,0.67408,0.27119
1700498536093750,-9.587078,0.805956,2.297285,0.56747,0.67108,0.27219
1700498536101562,-9.592078,0.799956,2.297285,0.62247,0.70908,0.30219
1700498536109375,-9.604078,0.802956,2.283285,0.55347,0.69008,0.25519
1700498536117187,-9.580078,0.810956,2.279285,0.42147,0.67108,0.24019
1700498536125000,-9.597078,0.820956,2.303285,0.50647,0.72308,0.22219
1700498536132812,-9.577078,0.825956,2.294285,0.37747,0.70608,0.27119
1700498536140625,-9.574078,0.836956,2.303285,0.36047,0.67508,0.22319
1700498536148437,-9.575078,0.840956,2.301285,0.37547,0.72108,0.25519
1700498536156250,-9.596078,0.845956,2.303285,0.40347,0.70008,0.27319
1700498536164062,-9.601078,0.842956,2.306285,0.45647,0.69008,0.22319
1700498536171875,-9.604078,0.808956,2.303285,0.37747,0.67608,0.23819
1700498536179687,-9.598078,0.809956,2.317285,0.39047,0.70508,0.19119
1700498536187500,-9.608078,0.806956,2.308285,0.32747,0.69208,0.11019
1700498536195312,-9.581078,0.795956,2.310285,0.28247,0.72508,0.20619
1700498536203125,-9.571078,0.809956,2.321285,0.29447,0.76708,0.25519
1700498536210937,-9.575078,0.809956,2.317285,0.26347,0.79908,0.27119
1700498536218750,-9.564078,0.817956,2.319285,0.24447,0.74908,0.28819
1700498536226562,-9.559078,0.813956,2.328285,0.18447,0.86308,0.28619
1700498536234375,-9.561078,0.816956,2.324285,0.24747,0.75108,0.30319
1700498536242187,-9.580078,0.805956,2.319285,0.32647,0.79908,0.22319
1700498536250000,-9.589078,0.798956,2.324285,0.37547,0.78208,0.32019
1700498536257812,-9.589078,0.785956,2.333285,0.35747,0.79608,0.28819
1700498536265625,-9.589078,0.767956,2.317285,0.32447,0.78208,0.17619
1700498536273437,-9.587078,0.742956,2.340285,0.26347,0.72208,0.22319
1700498536281250,-9.587078,0.765956,2.326285,0.26247,0.72108,0.20719
1700498536289062,-9.585078,0.785956,2.340285,0.13147,0.76508,0.22419
1700498536296875,-9.578078,0.797956,2.346285,0.19347,0.77908,0.20819
1700498536304687,-9.568078,0.816956,2.333285,0.16747,0.72208,0.22219
1700498536312500,-9.566078,0.814956,2.337285,0.14747,0.78208,0.20719
1700498536320312,-9.564078,0.801956,2.335285,0.18047,0.76608,0.25519
1700498536328125,-9.564078,0.780956,2.337285,0.15047,0.76908,0.20619
1700498536335937,-9.577078,0.771956,2.346285,0.13647,0.69208,0.23819
1700498536343750,-9.616078,0.771956,2.342285,0.16347,0.79808,0.20719
1700498536351562,-9.663078,0.797956,2.335285,0.13247,0.73508,0.20719
1700498536359375,-9.683078,0.805956,2.333285,0.14947,0.81408,0.23919
1700498536367187,-9.669078,0.799956,2.310285,0.11547,0.82908,0.20719
1700498536375000,-9.636078,0.809956,2.322285,0.12947,0.79408,0.25619
1700498536382812,-9.588078,0.825956,2.331285,0.11647,0.85908,0.30419
1700498536390625,-9.565078,0.835956,2.355285,0.12047,0.86408,0.25419
1700498536398437,-9.543078,0.816956,2.358285,0.8647,0.84608,0.27119
1700498536406250,-9.533078,0.817956,2.380285,0.4347,0.80408,0.28519
1700498536414062,-9.532078,0.814956,2.398285,0.953,0.78508,0.27019
1700498536421875,-9.532078,0.798956,2.398285,0.12047,0.75508,0.22219
1700498536429687,-9.533078,0.794956,2.398285,0.10147,0.72008,0.22319
1700498536437500,-9.535078,0.811956,2.405285,0.11347,0.78008,0.20819
1700498536445312,-9.524078,0.802956,2.419285,0.9847,0.71908,0.16019
1700498536453125,-9.513078,0.777956,2.425285,0.3447,0.75208,0.11119
1700498536460937,-9.527078,0.773956,2.412285,0.8147,0.75008,0.14419
1700498536468750,-9.535078,0.783956,2.405285,0.13247,0.76708,0.22319
1700498536476562,-9.533078,0.792956,2.382285,0.5247,0.73708,0.17519
1700498536484375,-9.542078,0.792956,2.373285,0.5247,0.68908,0.22319
1700498536492187,-9.542078,0.795956,2.369285,0.9947,0.72008,0.20719
1700498536500000,-9.537078,0.790956,2.387285,0.11947,0.69108,0.20619
1700498536507812,-9.526078,0.790956,2.373285,0.13147,0.64208,0.14319
1700498536515625,-9.524078,0.788956,2.380285,0.11547,0.72008,0.15919
1700498536523437,-9.512078,0.797956,2.385285,0.13447,0.75408,0.19019
1700498536531250,-9.521078,0.812956,2.362285,0.11847,0.69208,0.15819
1700498536539062,-9.526078,0.803956,2.371285,0.10247,0.65908,0.20719
1700498536546875,-9.530078,0.801956,2.378285,0.5447,0.67608,0.19019
1700498536554687,-9.531078,0.799956,2.387285,0.5247,0.65708,0.22319
1700498536562500,-9.517078,0.790956,2.385285,0.2047,0.67208,0.27119
1700498536570312,-9.520078,0.798956,2.394285,0.6953,0.57008,0.22119
1700498536578125,-9.548078,0.807956,2.389285,0.7553,0.62808,0.22319
1700498536585937,-9.535078,0.808956,2.396285,0.7653,0.67408,0.17519
1700498536593750,-9.532078,0.805956,2.398285,0.9253,0.66108,0.7819
1700498536601562,-9.546078,0.808956,2.389285,0.1153,0.59608,0.17519
1700498536609375,-9.543078,0.793956,2.371285,0.5353,0.57008,0.22119
1700498536617187,-9.555078,0.796956,2.367285,0.853,0.52108,0.17419
1700498536625000,-9.539078,0.794956,2.351285,0.10753,0.51808,0.20719
1700498536632812,-9.526078,0.783956,2.349285,0.4253,0.48708,0.20719
1700498536640625,-9.547078,0.759956,2.362285,0.14053,0.40808,0.17519
1700498536648437,-9.554078,0.746956,2.378285,0.6153,0.43908,0.12719
1700498536656250,-9.565078,0.732956,2.380285,0.1253,0.54908,0.15919
1700498536664062,-9.576078,0.758956,2.367285,0.5953,0.44008,0.17519
1700498536671875,-9.564078,0.778956,2.355285,0.6053,0.48808,0.11119
1700498536679687,-9.560078,0.790956,2.351285,0.1253,0.47108,0.15919
1700498536687500,-9.562078,0.808956,2.344285,0.11153,0.42108,0.16019
1700498536695312,-9.555078,0.794956,2.349285,0.5447,0.40908,0.17519
1700498536703125,-9.559078,0.787956,2.351285,0.2353,0.49108,0.17319
1700498536710937,-9.555078,0.787956,2.349285,0.2353,0.39608,0.22219
1700498536718750,-9.560078,0.792956,2.351285,0.2853,0.42408,0.14319
1700498536726562,-9.565078,0.795956,2.358285,0.1253,0.42208,0.22419
1700498536734375,-9.586078,0.785956,2.371285,0.9053,0.39508,0.17419
1700498536742187,-9.594078,0.776956,2.364285,0.10953,0.39208,0.19119
1700498536750000,-9.577078,0.787956,2.358285,0.12253,0.45708,0.19019
1700498536757812,-9.578078,0.792956,2.360285,0.11053,0.43908,0.9519
1700498536765625,-9.580078,0.805956,2.353285,0.12553,0.40908,0.12719
1700498536773437,-9.568078,0.812956,2.335285,0.9353,0.54808,0.15919
1700498536781250,-9.560078,0.796956,2.340285,0.12353,0.45608,0.22319
1700498536789062,-9.569078,0.781956,2.353285,0.7453,0.44008,0.20719
1700498536796875,-9.563078,0.770956,2.346285,0.2853,0.42308,0.17519
1700498536804687,-9.562078,0.759956,2.342285,0.5247,0.45708,0.9419
1700498536812500,-9.567078,0.752956,2.340285,0.1353,0.45508,0.9519
1700498536820312,-9.576078,0.763956,2.351285,0.3847,0.45708,0.19019
1700498536828125,-9.580078,0.776956,2.349285,0.2247,0.42708,0.11019
1700498536835937,-9.562078,0.789956,2.358285,0.7247,0.39608,0.15819
1700498536843750,-9.560078,0.790956,2.371285,0.13347,0.44008,0.14319
1700498536851562,-9.546078,0.792956,2.373285,0.11747,0.44008,0.19119
1700498536859375,-9.549078,0.774956,2.378285,0.10247,0.47308,0.14219
1700498536867187,-9.542078,0.768956,2.362285,0.11747,0.45508,0.17519
1700498536875000,-9.549078,0.772956,2.367285,0.8547,0.42508,0.12619
1700498536882812,-9.554078,0.762956,2.358285,0.13147,0.40708,0.17519
1700498536890625,-9.565078,0.755956,2.349285,0.11647,0.42308,0.15919
1700498536898437,-9.558078,0.772956,2.351285,0.10047,0.40808,0.12719
1700498536906250,-9.560078,0.768956,2.340285,0.13247,0.42508,0.7919
1700498536914062,-9.549078,0.772956,2.335285,0.11847,0.50408,0.11019
1700498536921875,-9.554078,0.786956,2.346285,0.11547,0.43808,0.14319
1700498536929687,-9.544078,0.788956,2.351285,0.13247,0.45708,0.3019
1700498536937500,-9.548078,0.801956,2.353285,0.11747,0.44008,0.14319
1700498536945312,-9.557078,0.812956,2.358285,0.10247,0.48708,0.20719
1700498536953125,-9.559078,0.796956,2.353285,0.13547,0.45708,0.14219
1700498536960937,-9.573078,0.794956,2.335285,0.11847,0.45808,0.12619
1700498536968750,-9.568078,0.798956,2.337285,0.10347,0.45708,0.20619
1700498536976562,-9.571078,0.792956,2.328285,0.13247,0.42408,0.12719
1700498536984375,-9.575078,0.771956,2.328285,0.13447,0.41108,0.6219
1700498536992187,-9.589078,0.762956,2.335285,0.21547,0.39708,0.181
1700498537000000,-9.558078,0.758956,2.324285,0.11847,0.39608,0.4619
1700498537007812,-9.555078,0.753956,2.326285,0.13647,0.41408,0.1319
1700498537015625,-9.557078,0.776956,2.335285,0.11847,0.30308,0.181
1700498537023437,-9.564078,0.773956,2.335285,0.10547,0.29008,0.4519
1700498537031250,-9.564078,0.767956,2.321285,0.13747,0.39808,0.7719
1700498537039062,-9.567078,0.770956,2.312285,0.13047,0.34608,0.1681
1700498537046875,-9.560078,0.763956,2.312285,0.14747,0.33108,0.81
1700498537054687,-9.550078,0.771956,2.317285,0.11947,0.39808,0.1881
1700498537062500,-9.530078,0.774956,2.330285,0.13547,0.38108,0.4619
1700498537070312,-9.528078,0.767956,2.317285,0.12047,0.35208,0.1881
1700498537078125,-9.521078,0.770956,2.326285,0.13547,0.30508,0.5081
1700498537085937,-9.517078,0.768956,2.337285,0.15047,0.30308,0.3381
1700498537093750,-9.529078,0.761956,2.310285,0.11947,0.25608,0.6219
1700498537101562,-9.542078,0.766956,2.285285,0.16447,0.23908,0.1781
1700498537109375,-9.544078,0.770956,2.281285,0.19747,0.16108,0.4981
1700498537117187,-9.540078,0.786956,2.270285,0.13047,0.17508,0.4881
1700498537125000,-9.551078,0.792956,2.274285,0.13247,0.19108,0.81
1700498537132812,-9.559078,0.787956,2.254285,0.11947,0.22408,0.9419
1700498537140625,-9.593078,0.776956,2.213285,0.13447,0.20908,0.181
1700498537148437,-9.649078,0.795956,2.215285,0.11947,0.25608,0.4619
1700498537156250,-9.694078,0.810956,2.197285,0.13347,0.22208,0.9519
1700498537164062,-9.691078,0.823956,2.177285,0.5547,0.34808,0.14219
1700498537171875,-9.675078,0.841956,2.175285,0.5647,0.30208,0.15819
1700498537179687,-9.668078,0.830956,2.168285,0.5747,0.33308,0.22219
1700498537187500,-9.644078,0.813956,2.195285,0.8647,0.37808,0.19119
1700498537195312,-9.626078,0.799956,2.204285,0.2447,0.39508,0.20619
1700498537203125,-9.595078,0.795956,2.220285,0.4153,0.33208,0.19019
1700498537210937,-9.573078,0.794956,2.227285,0.2347,0.26908,0.20619
1700498537218750,-9.564078,0.794956,2.229285,0.10453,0.17808,0.14219
1700498537226562,-9.568078,0.789956,2.231285,0.2353,0.16208,0.12619
1700498537234375,-9.570078,0.777956,2.233285,0.3653,0.18008,0.20519
1700498537242187,-9.568078,0.771956,2.236285,0.3853,0.22608,0.14119
1700498537250000,-9.569078,0.736956,2.238285,0.953,0.20808,0.11019
1700498537257812,-9.567078,0.725956,2.236285,0.4047,0.14608,0.14219
1700498537265625,-9.576078,0.732956,2.200285,0.2453,0.10008,0.9419
1700498537273437,-9.598078,0.760956,2.206285,0.8647,0.11308,0.11019
1700498537281250,-9.622078,0.773956,2.188285,0.7247,0.16208,0.15819
1700498537289062,-9.656078,0.759956,2.200285,0.5847,0.16308,0.17319
1700498537296875,-9.688078,0.766956,2.202285,0.2247,0.14508,0.11019
1700498537304687,-9.667078,0.763956,2.188285,0.7247,0.16108,0.19019
1700498537312500,-9.660078,0.779956,2.202285,0.4053,0.28608,0.19019
1700498537320312,-9.645078,0.791956,2.222285,0.3647,0.40808,0.17519
1700498537328125,-9.619078,0.788956,2.213285,0.7347,0.45908,0.23819
1700498537335937,-9.597078,0.791956,2.209285,0.753,0.44208,0.27019
1700498537343750,-9.591078,0.803956,2.215285,0.3647,0.47108,0.17519
1700498537351562,-9.589078,0.789956,2.233285,0.447,0.47108,0.17519
1700498537359375,-9.585078,0.792956,2.238285,0.2047,0.42308,0.20719
1700498537367187,-9.588078,0.788956,2.227285,0.7547,0.38408,0.12519
1700498537375000,-9.600078,0.791956,2.220285,0.13447,0.41008,0.11019
1700498537382812,-9.609078,0.777956,2.238285,0.8747,0.44308,0.9419
1700498537390625,-9.622078,0.788956,2.211285,0.7147,0.46008,0.9419
1700498537398437,-9.641078,0.787956,2.200285,0.6047,0.46108,0.25319
1700498537406250,-9.631078,0.795956,2.186285,0.5547,0.50408,0.20619
1700498537414062,-9.631078,0.813956,2.184285,0.3847,0.48808,0.19019
1700498537421875,-9.640078,0.799956,2.184285,0.5447,0.58308,0.17419
1700498537429687,-9.658078,0.777956,2.163285,0.3747,0.59608,0.20719
1700498537437500,-9.654078,0.764956,2.181285,0.3547,0.64208,0.22319
1700498537445312,-9.649078,0.772956,2.186285,0.5447,0.61408,0.19019
1700498537453125,-9.636078,0.780956,2.195285,0.8447,0.67408,0.17519
1700498537460937,-9.627078,0.793956,2.197285,0.4447,0.63508,0.20419
1700498537468750,-9.613078,0.804956,2.168285,0.2853,0.64308,0.19119
1700498537476562,-9.630078,0.794956,2.191285,0.7447,0.67908,0.20519
1700498537484375,-9.639078,0.790956,2.191285,0.4047,0.64608,0.20619
1700498537492187,-9.624078,0.761956,2.200285,0.8647,0.69308,0.12619
1700498537500000,-9.625078,0.739956,2.206285,0.7247,0.70908,0.19019
1700498537507812,-9.622078,0.759956,2.181285,0.10647,0.66308,0.23719
1700498537515625,-9.611078,0.777956,2.175285,0.13547,0.64608,0.15819
1700498537523437,-9.607078,0.780956,2.175285,0.11747,0.69108,0.15919
1700498537531250,-9.602078,0.791956,2.170285,0.11947,0.70808,0.19019
1700498537539062,-9.611078,0.785956,2.159285,0.11547,0.68808,0.22419
1700498537546875,-9.591078,0.780956,2.172285,0.13547,0.72208,0.20619
1700498537554687,-9.591078,0.769956,2.172285,0.11747,0.70508,0.20719
1700498537562500,-9.602078,0.766956,2.163285,0.13547,0.66008,0.19019
1700498537570312,-9.625078,0.775956,2.145285,0.11747,0.67408,0.22319
1700498537578125,-9.643078,0.768956,2.132285,0.13347,0.65808,0.20719
1700498537585937,-9.649078,0.774956,2.152285,0.12047,0.66108,0.19019
1700498537593750,-9.652078,0.786956,2.136285,0.14747,0.67408,0.11119
1700498537601562,-9.632078,0.796956,2.154285,0.12947,0.71808,0.17619
1700498537609375,-9.608078,0.803956,2.161285,0.13647,0.69308,0.19019
1700498537617187,-9.595078,0.798956,2.184285,0.11747,0.67508,0.14219
1700498537625000,-9.559078,0.794956,2.184285,0.10147,0.66008,0.15919
1700498537632812,-9.550078,0.791956,2.195285,0.7147,0.67708,0.17419
1700498537640625,-9.551078,0.793956,2.202285,0.9147,0.66508,0.20519
1700498537648437,-9.559078,0.798956,2.188285,0.13347,0.66008,0.15919
1700498537656250,-9.580078,0.805956,2.188285,0.11547,0.67308,0.17519
1700498537664062,-9.600078,0.800956,2.190285,0.11647,0.65708,0.22319
1700498537671875,-9.602078,0.789956,2.188285,0.8147,0.67308,0.7919
1700498537679687,-9.609078,0.769956,2.179285,0.9947,0.64208,0.14319
1700498537687500,-9.615078,0.761956,2.191285,0.9747,0.59308,0.14419
1700498537695312,-9.619078,0.736956,2.191285,0.13347,0.61208,0.14319
1700498537703125,-9.612078,0.745956,2.188285,0.11447,0.64008,0.20819
1700498537710937,-9.602078,0.760956,2.213285,0.13447,0.67508,0.19119
1700498537718750,-9.584078,0.771956,2.206285,0.11847,0.64508,0.14219
1700498537726562,-9.561078,0.755956,2.227285,0.13847,0.64708,0.20519
1700498537734375,-9.551078,0.761956,2.231285,0.18347,0.69108,0.20619
1700498537742187,-9.551078,0.770956,2.231285,0.13447,0.62808,0.20719
1700498537750000,-9.556078,0.774956,2.245285,0.14747,0.62708,0.9519
1700498537757812,-9.566078,0.818956,2.236285,0.14947,0.58008,0.19119
1700498537765625,-9.554078,0.849956,2.227285,0.13447,0.59708,0.15819
1700498537773437,-9.567078,0.829956,2.238285,0.15247,0.61508,0.15819
1700498537781250,-9.586078,0.797956,2.242285,0.13647,0.66108,0.19019
1700498537789062,-9.597078,0.802956,2.240285,0.11847,0.61408,0.9419
1700498537796875,-9.609078,0.800956,2.247285,0.13247,0.67308,0.17519
1700498537804687,-9.627078,0.797956,2.242285,0.11647,0.64308,0.12719
1700498537812500,-9.638078,0.793956,2.229285,0.12947,0.59408,0.11219
1700498537820312,-9.627078,0.789956,2.233285,0.11347,0.67208,0.12819
1700498537828125,-9.609078,0.780956,2.233285,0.16347,0.62608,0.14319
1700498537835937,-9.602078,0.771956,2.240285,0.19747,0.59808,0.7819
1700498537843750,-9.598078,0.776956,2.242285,0.13247,0.61108,0.15919
1700498537851562,-9.564078,0.787956,2.240285,0.12047,0.59908,0.20619
1700498537859375,-9.562078,0.783956,2.245285,0.18247,0.56508,0.23919
1700498537867187,-9.555078,0.767956,2.249285,0.16747,0.66108,0.17419
1700498537875000,-9.568078,0.773956,2.249285,0.13547,0.69208,0.19019
1700498537882812,-9.587078,0.771956,2.249285,0.18247,0.65808,0.25519
1700498537890625,-9.580078,0.787956,2.270285,0.13147,0.68708,0.24019
1700498537898437,-9.572078,0.777956,2.288285,0.13747,0.72408,0.23819
1700498537906250,-9.557078,0.771956,2.258285,0.12047,0.61408,0.20619
1700498537914062,-9.550078,0.757956,2.270285,0.14047,0.57008,0.22119
1700498537921875,-9.544078,0.751956,2.260285,0.18647,0.58408,0.20619
1700498537929687,-9.546078,0.760956,2.245285,0.23447,0.53708,0.22219
1700498537937500,-9.576078,0.770956,2.263285,0.19647,0.46908,0.20819
1700498537945312,-9.625078,0.787956,2.247285,0.14847,0.57908,0.22319
1700498537953125,-9.662078,0.799956,2.224285,0.14947,0.62708,0.20719
1700498537960937,-9.671078,0.803956,2.231285,0.25047,0.67808,0.22219
1700498537968750,-9.651078,0.812956,2.209285,0.15147,0.62908,0.19019
1700498537976562,-9.630078,0.827956,2.220285,0.13847,0.66408,0.14119
1700498537984375,-9.587078,0.823956,2.231285,0.17047,0.67908,0.17319
1700498537992187,-9.557078,0.802956,2.233285,0.11847,0.66108,0.12619
1700498538000000,-9.550078,0.801956,2.251285,0.13247,0.64508,0.4619
1700498538007812,-9.549078,0.792956,2.270285,0.11647,0.56408,0.14319
1700498538015625,-9.548078,0.790956,2.279285,0.13247,0.62808,0.14319
1700498538023437,-9.557078,0.792956,2.279285,0.11847,0.56608,0.17419
1700498538031250,-9.567078,0.802956,2.272285,0.11247,0.62208,0.22519
1700498538039062,-9.564078,0.798956,2.258285,0.11947,0.53508,0.22219
1700498538046875,-9.569078,0.783956,2.249285,0.11647,0.58008,0.14319
1700498538054687,-9.587078,0.771956,2.254285,0.11747,0.55108,0.11019
1700498538062500,-9.583078,0.741956,2.247285,0.13447,0.51808,0.23919
1700498538070312,-9.582078,0.733956,2.245285,0.12047,0.64508,0.23819
1700498538078125,-9.581078,0.739956,2.265285,0.13047,0.47008,0.9519
1700498538085937,-9.572078,0.737956,2.270285,0.9947,0.57908,0.19119
1700498538093750,-9.567078,0.741956,2.270285,0.21647,0.51908,0.22219
1700498538101562,-9.583078,0.754956,2.274285,0.26147,0.54808,0.19119
1700498538109375,-9.591078,0.754956,2.249285,0.19747,0.56608,0.12719
1700498538117187,-9.609078,0.762956,2.254285,0.15047,0.50408,0.14219
1700498538125000,-9.607078,0.751956,2.251285,0.16747,0.61508,0.7819
1700498538132812,-9.585078,0.747956,2.245285,0.14847,0.53408,0.9519
1700498538140625,-9.578078,0.774956,2.251285,0.18047,0.51808,0.12719
1700498538148437,-9.571078,0.774956,2.245285,0.14947,0.53408,0.15919
1700498538156250,-9.578078,0.772956,2.251285,0.13347,0.50208,0.15919
1700498538164062,-9.577078,0.771956,2.245285,0.13747,0.44408,0.15819
1700498538171875,-9.566078,0.774956,2.242285,0.21747,0.44208,0.20619
1700498538179687,-9.561078,0.769956,2.245285,0.23647,0.44508,0.23719
1700498538187500,-9.549078,0.776956,2.236285,0.11847,0.48708,0.19119
1700498538195312,-9.573078,0.775956,2.209285,0.16947,0.55208,0.20619
1700498538203125,-9.581078,0.793956,2.227285,0.13947,0.44508,0.17319
1700498538210937,-9.573078,0.778956,2.233285,0.11747,0.53408,0.14319
1700498538218750,-9.584078,0.756956,2.211285,0.13447,0.56808,0.9419
1700498538226562,-9.594078,0.751956,2.204285,0.11747,0.53608,0.6219
1700498538234375,-9.604078,0.735956,2.209285,0.13647,0.61608,0.7719
1700498538242187,-9.600078,0.731956,2.211285,0.12047,0.52108,0.17419
1700498538250000,-9.600078,0.739956,2.200285,0.13847,0.53908,0.17319
1700498538257812,-9.620078,0.761956,2.211285,0.16747,0.53808,0.6219
1700498538265625,-9.640078,0.772956,2.193285,0.18547,0.52108,0.17419
1700498538273437,-9.640078,0.770956,2.181285,0.20047,0.56908,0.9419
1700498538281250,-9.644078,0.777956,2.177285,0.12047,0.61508,0.17419
1700498538289062,-9.637078,0.783956,2.181285,0.13747,0.66308,0.17319
1700498538296875,-9.628078,0.787956,2.184285,0.12147,0.63408,0.6119
1700498538304687,-9.615078,0.779956,2.188285,0.13547,0.53808,0.6219
1700498538312500,-9.628078,0.769956,2.184285,0.14147,0.58808,0.15619
1700498538320312,-9.630078,0.767956,2.170285,0.12347,0.57108,0.17319
1700498538328125,-9.631078,0.762956,2.172285,0.13447,0.59908,0.11019
1700498538335937,-9.613078,0.762956,2.170285,0.11847,0.55208,0.11019
1700498538343750,-9.601078,0.768956,2.179285,0.10747,0.46108,0.18919
1700498538351562,-9.599078,0.775956,2.166285,0.13747,0.56908,0.17319
1700498538359375,-9.600078,0.764956,2.175285,0.13647,0.50608,0.11019
1700498538367187,-9.618078,0.757956,2.175285,0.8847,0.49008,0.19019
1700498538375000,-9.607078,0.744956,2.177285,0.2247,0.56808,0.11019
1700498538382812,-9.597078,0.735956,2.177285,0.5747,0.55408,0.15719
1700498538390625,-9.602078,0.735956,2.190285,0.13847,0.49108,0.20519
1700498538398437,-9.599078,0.746956,2.175285,0.9147,0.57008,0.22119
1700498538406250,-9.618078,0.766956,2.168285,0.2447,0.47408,0.20619
1700498538414062,-9.622078,0.793956,2.172285,0.7047,0.42508,0.23919
1700498538421875,-9.618078,0.792956,2.179285,0.11547,0.46908,0.20819
1700498538429687,-9.647078,0.772956,2.186285,0.12147,0.41308,0.14219
1700498538437500,-9.636078,0.759956,2.184285,0.853,0.45808,0.19019
1700498538445312,-9.616078,0.753956,2.191285,0.4253,0.55108,0.14219
1700498538453125,-9.603078,0.774956,2.193285,0.11547,0.68908,0.12719
1700498538460937,-9.576078,0.790956,2.193285,0.847,0.57108,0.6119
1700498538468750,-9.589078,0.789956,2.204285,0.147,0.59608,0.4719
1700498538476562,-9.599078,0.791956,2.209285,0.3847,0.55308,0.6219
1700498538484375,-9.613078,0.780956,2.209285,0.1947,0.55008,0.9519
1700498538492187,-9.624078,0.767956,2.224285,0.14047,0.55608,0.15619
1700498538500000,-9.604078,0.757956,2.222285,0.7147,0.59808,0.20619
1700498538507812,-9.566078,0.751956,2.200285,0.7247,0.55508,0.4519
1700498538515625,-9.564078,0.756956,2.197285,0.8647,0.49108,0.2919
1700498538523437,-9.588078,0.766956,2.184285,0.7447,0.54008,0.10919
1700498538531250,-9.620078,0.768956,2.179285,0.8847,0.39908,0.4519
1700498538539062,-9.622078,0.770956,2.184285,0.7047,0.52208,0.6219
1700498538546875,-9.628078,0.786956,2.166285,0.13547,0.56908,0.7819
1700498538554687,-9.633078,0.785956,2.188285,0.12047,0.63108,0.17419
1700498538562500,-9.613078,0.772956,2.193285,0.13747,0.53808,0.15719
1700498538570312,-9.603078,0.774956,2.186285,0.12347,0.63408,0.14119
1700498538578125,-9.604078,0.769956,2.195285,0.11747,0.58408,0.181
1700498538585937,-9.606078,0.761956,2.206285,0.8847,0.61508,0.19019
1700498538593750,-9.597078,0.748956,2.195285,0.10547,0.55508,0.9319
1700498538601562,-9.602078,0.757956,2.179285,0.13647,0.55308,0.12619
1700498538609375,-9.595078,0.770956,2.190285,0.12147,0.56908,0.15719
1700498538617187,-9.592078,0.797956,2.193285,0.13747,0.57108,0.7719
1700498538625000,-9.584078,0.812956,2.190285,0.8347,0.62608,0.17519
1700498538632812,-9.581078,0.802956,2.202285,0.747,0.56708,0.22219
1700498538640625,-9.583078,0.782956,2.209285,0.1047,0.55408,0.25319
1700498538648437,-9.588078,0.775956,2.190285,0.8847,0.56808,0.17419
1700498538656250,-9.590078,0.759956,2.202285,0.4447,0.58808,0.20419
1700498538664062,-9.577078,0.762956,2.195285,0.2547,0.55308,0.20619
1700498538671875,-9.569078,0.770956,2.186285,0.5247,0.58108,0.14319
1700498538679687,-9.568078,0.767956,2.172285,0.3847,0.50508,0.14219
1700498538687500,-9.570078,0.764956,2.184285,0.5547,0.53808,0.6119
1700498538695312,-9.562078,0.745956,2.195285,0.747,0.50608,0.11019
1700498538703125,-9.558078,0.734956,2.209285,0.11053,0.54908,0.9519
1700498538710937,-9.593078,0.728956,2.200285,0.7247,0.50808,0.4519
1700498538718750,-9.603078,0.747956,2.186285,0.6947,0.47408,0.4619
1700498538726562,-9.613078,0.759956,2.186285,0.8947,0.50808,0.10919
1700498538734375,-9.622078,0.770956,2.177285,0.10447,0.47608,0.9319
1700498538742187,-9.624078,0.783956,2.170285,0.11947,0.52308,0.281
1700498538750000,-9.614078,0.776956,2.168285,0.5047,0.45508,0.9519
1700498538757812,-9.601078,0.774956,2.159285,0.11347,0.42208,0.11219
1700498538765625,-9.600078,0.785956,2.154285,0.6847,0.45508,0.17519
1700498538773437,-9.624078,0.795956,2.154285,0.6947,0.41008,0.11019
1700498538781250,-9.664078,0.794956,2.139285,0.11947,0.50508,0.14219
1700498538789062,-9.673078,0.791956,2.145285,0.10447,0.61608,0.15719
1700498538796875,-9.667078,0.801956,2.161285,0.8447,0.67308,0.20719
1700498538804687,-9.633078,0.795956,2.159285,0.5347,0.67508,0.19119
1700498538812500,-9.609078,0.782956,2.161285,0.6053,0.70508,0.19119
1700498538820312,-9.568078,0.771956,2.163285,0.953,0.64608,0.17419
1700498538828125,-9.555078,0.781956,2.159285,0.3747,0.62708,0.27119
1700498538835937,-9.560078,0.793956,2.179285,0.9847,0.56108,0.24019
1700498538843750,-9.567078,0.801956,2.179285,0.4553,0.56108,0.28819
1700498538851562,-9.582078,0.814956,2.168285,0.1847,0.51708,0.12719
1700498538859375,-9.570078,0.802956,2.161285,0.15147,0.53608,0.14219
1700498538867187,-9.567078,0.797956,2.172285,0.6647,0.56408,0.12719
1700498538875000,-9.575078,0.804956,2.166285,0.10347,0.47408,0.15819
1700498538882812,-9.605078,0.788956,2.177285,0.11347,0.45308,0.11219
1700498538890625,-9.619078,0.765956,2.193285,0.13147,0.53308,0.9519
1700498538898437,-9.633078,0.734956,2.191285,0.11347,0.43808,0.6419
1700498538906250,-9.627078,0.731956,2.193285,0.18247,0.52108,0.3019
1700498538914062,-9.609078,0.744956,2.184285,0.11947,0.55208,0.12619
1700498538921875,-9.597078,0.779956,2.163285,0.13747,0.43008,0.7719
1700498538929687,-9.589078,0.794956,2.154285,0.11847,0.44108,0.14319
1700498538937500,-9.593078,0.789956,2.157285,0.13347,0.42608,0.6219
1700498538945312,-9.598078,0.774956,2.159285,0.11547,0.53308,0.12719
1700498538953125,-9.612078,0.770956,2.159285,0.12947,0.46708,0.14419
1700498538960937,-9.625078,0.769956,2.170285,0.8447,0.50208,0.11119
1700498538968750,-9.622078,0.762956,2.168285,0.5447,0.50408,0.14219
1700498538976562,-9.616078,0.771956,2.188285,0.14847,0.45608,0.11119
1700498538984375,-9.611078,0.774956,2.172285,0.14847,0.50208,0.12719
1700498538992187,-9.605078,0.774956,2.190285,0.11447,0.51608,0.16019
1700498539000000,-9.597078,0.778956,2.188285,0.15247,0.50508,0.17419
1700498539007812,-9.582078,0.778956,2.197285,0.13347,0.55008,0.17519
1700498539015625,-9.568078,0.778956,2.190285,0.12247,0.47408,0.25419
1700498539023437,-9.574078,0.781956,2.188285,0.13247,0.50108,0.19119
1700498539031250,-9.578078,0.797956,2.181285,0.11647,0.48408,0.24019
1700498539039062,-9.600078,0.810956,2.166285,0.11447,0.53008,0.24019
1700498539046875,-9.628078,0.808956,2.154285,0.11947,0.51908,0.19019
1700498539054687,-9.651078,0.813956,2.139285,0.11847,0.50208,0.23919
1700498539062500,-9.669078,0.797956,2.123285,0.11947,0.56608,0.23919
1700498539070312,-9.676078,0.788956,2.123285,0.11747,0.58108,0.20719
1700498539078125,-9.654078,0.791956,2.116285,0.11747,0.56408,0.22319
1700498539085937,-9.639078,0.787956,2.123285,0.12247,0.55408,0.18919
1700498539093750,-9.638078,0.793956,2.123285,0.13447,0.61308,0.20719
1700498539101562,-9.637078,0.799956,2.118285,0.12147,0.60008,0.20619
1700498539109375,-9.638078,0.799956,2.121285,0.13347,0.64308,0.23919
1700498539117187,-9.647078,0.804956,2.121285,0.11647,0.67308,0.22319
1700498539125000,-9.642078,0.797956,2.118285,0.3647,0.67308,0.25519
1700498539132812,-9.635078,0.801956,2.123285,0.547,0.72108,0.25519
1700498539140625,-9.632078,0.798956,2.145285,0.8947,0.67908,0.20519
1700498539148437,-9.612078,0.783956,2.152285,0.13747,0.71008,0.20519
1700498539156250,-9.600078,0.773956,2.157285,0.11747,0.62708,0.20719
1700498539164062,-9.596078,0.767956,2.157285,0.13447,0.59708,0.17419
1700498539171875,-9.603078,0.760956,2.163285,0.11747,0.56508,0.15919
1700498539179687,-9.610078,0.759956,2.168285,0.12847,0.60908,0.9619
1700498539187500,-9.622078,0.741956,2.172285,0.11247,0.64008,0.14419
1700498539195312,-9.618078,0.747956,2.166285,0.8447,0.56608,0.9519
1700498539203125,-9.606078,0.757956,2.166285,0.16947,0.64708,0.19019
1700498539210937,-9.609078,0.766956,2.150285,0.13547,0.70808,0.15819
1700498539218750,-9.618078,0.780956,2.141285,0.11547,0.68808,0.20819
1700498539226562,-9.622078,0.795956,2.150285,0.14947,0.72108,0.19119
1700498539234375,-9.622078,0.799956,2.157285,0.15047,0.69108,0.19119
1700498539242187,-9.627078,0.802956,2.154285,0.14747,0.59408,0.19119
1700498539250000,-9.629078,0.806956,2.170285,0.11747,0.55008,0.12719
1700498539257812,-9.637078,0.801956,2.170285,0.13647,0.61608,0.10919
1700498539265625,-9.630078,0.796956,2.179285,0.12047,0.66308,0.12519
1700498539273437,-9.640078,0.788956,2.202285,0.13447,0.62808,0.17419
1700498539281250,-9.631078,0.788956,2.184285,0.11947,0.58308,0.15819
1700498539289062,-9.604078,0.780956,2.181285,0.10147,0.62908,0.12619
1700498539296875,-9.598078,0.767956,2.181285,0.13447,0.62808,0.20719
1700498539304687,-9.580078,0.769956,2.190285,0.11847,0.64508,0.15819
1700498539312500,-9.568078,0.787956,2.188285,0.5347,0.65908,0.20719
1700498539320312,-9.564078,0.796956,2.179285,0.11747,0.66008,0.15919
1700498539328125,-9.582078,0.809956,2.172285,0.3647,0.64108,0.23919
1700498539335937,-9.604078,0.818956,2.159285,0.11747,0.64308,0.17519
1700498539343750,-9.614078,0.807956,2.172285,0.11347,0.57708,0.14419
1700498539351562,-9.632078,0.807956,2.172285,0.13147,0.62408,0.22419
1700498539359375,-9.658078,0.795956,2.168285,0.8347,0.62508,0.19119
1700498539367187,-9.656078,0.789956,2.170285,0.9847,0.59308,0.20819
1700498539375000,-9.631078,0.780956,2.175285,0.3647,0.68908,0.22319
1700498539382812,-9.605078,0.772956,2.181285,0.3447,0.70308,0.22419
1700498539390625,-9.580078,0.759956,2.175285,0.1947,0.68808,0.19119
1700498539398437,-9.569078,0.761956,2.186285,0.3647,0.68908,0.23919
1700498539406250,-9.565078,0.777956,2.186285,0.13047,0.65608,0.17619
1700498539414062,-9.578078,0.781956,2.190285,0.6947,0.64108,0.28719
1700498539421875,-9.582078,0.800956,2.186285,0.11847,0.62808,0.23919
1700498539429687,-9.598078,0.801956,2.197285,0.8347,0.62408,0.25619
1700498539437500,-9.609078,0.809956,2.197285,0.5047,0.59308,0.22419
1700498539445312,-9.626078,0.808956,2.172285,0.5447,0.61208,0.20719
1700498539453125,-9.617078,0.804956,2.170285,0.8747,0.61308,0.22219
1700498539460937,-9.622078,0.799956,2.172285,0.10247,0.61308,0.20719
1700498539468750,-9.618078,0.779956,2.170285,0.8647,0.67608,0.17419
1700498539476562,-9.631078,0.775956,2.172285,0.13647,0.66108,0.20619
1700498539484375,-9.632078,0.762956,2.191285,0.11647,0.64308,0.15919
1700498539492187,-9.622078,0.744956,2.186285,0.13647,0.67708,0.20619
1700498539500000,-9.623078,0.746956,2.184285,0.11847,0.66008,0.17419
1700498539507812,-9.601078,0.750956,2.193285,0.11447,0.67208,0.15919
1700498539515625,-9.596078,0.756956,2.190285,0.8247,0.71908,0.20819
1700498539523437,-9.603078,0.760956,2.197285,0.13247,0.64208,0.17519
1700498539531250,-9.621078,0.756956,2.195285,0.13247,0.62608,0.20719
1700498539539062,-9.622078,0.764956,2.186285,0.11847,0.62808,0.17419
1700498539546875,-9.613078,0.777956,2.177285,0.15347,0.61608,0.19019
1700498539554687,-9.624078,0.788956,2.191285,0.13447,0.67508,0.20719
1700498539562500,-9.624078,0.800956,2.193285,0.8547,0.68908,0.25519
1700498539570312,-9.604078,0.795956,2.175285,0.11947,0.72208,0.23819
1700498539578125,-9.595078,0.793956,2.177285,0.5447,0.69008,0.25519
1700498539585937,-9.588078,0.777956,2.190285,0.10447,0.69208,0.25419
1700498539593750,-9.566078,0.765956,2.204285,0.10247,0.72108,0.23919
1700498539601562,-9.585078,0.741956,2.215285,0.14847,0.67408,0.15919
1700498539609375,-9.621078,0.734956,2.186285,0.13247,0.59408,0.20719
1700498539617187,-9.642078,0.750956,2.193285,0.11347,0.65308,0.24119
1700498539625000,-9.655078,0.752956,2.193285,0.12747,0.68408,0.22519
1700498539632812,-9.636078,0.771956,2.170285,0.11447,0.73408,0.20819
1700498539640625,-9.622078,0.773956,2.191285,0.12047,0.70808,0.22219
1700498539648437,-9.582078,0.793956,2.175285,0.7147,0.67508,0.23819
1700498539656250,-9.550078,0.810956,2.190285,0.247,0.67308,0.14319
1700498539664062,-9.541078,0.829956,2.206285,0.3747,0.69008,0.22319
1700498539671875,-9.544078,0.830956,2.204285,0.15647,0.66508,0.18919
1700498539679687,-9.536078,0.816956,2.209285,0.10347,0.64508,0.20619
1700498539687500,-9.554078,0.795956,2.206285,0.10647,0.60108,0.22119
1700498539695312,-9.570078,0.768956,2.200285,0.11447,0.60808,0.22419
1700498539703125,-9.590078,0.757956,2.195285,0.8147,0.59208,0.20819
1700498539710937,-9.592078,0.736956,2.190285,0.3747,0.53408,0.22319
1700498539718750,-9.608078,0.737956,2.193285,0.9747,0.50008,0.12819
1700498539726562,-9.623078,0.742956,2.186285,0.11847,0.58208,0.15819
1700498539734375,-9.621078,0.761956,2.191285,0.8147,0.59408,0.12819
1700498539742187,-9.613078,0.755956,2.191285,0.8947,0.55308,0.22219
1700498539750000,-9.623078,0.753956,2.206285,0.7047,0.53508,0.19019
1700498539757812,-9.630078,0.738956,2.211285,0.13047,0.70408,0.16019
1700498539765625,-9.619078,0.736956,2.222285,0.11447,0.68708,0.19219
1700498539773437,-9.614078,0.734956,2.227285,0.11647,0.67308,0.20719
1700498539781250,-9.625078,0.735956,2.242285,0.14947,0.70608,0.17519
1700498539789062,-9.614078,0.749956,2.247285,0.13547,0.59808,0.14219
1700498539796875,-9.599078,0.764956,2.231285,0.12047,0.57108,0.1319
1700498539804687,-9.596078,0.769956,2.224285,0.13247,0.61308,0.7919
1700498539812500,-9.591078,0.781956,2.227285,0.11447,0.64108,0.14319
1700498539820312,-9.579078,0.784956,2.229285,0.12047,0.60008,0.12519
1700498539828125,-9.577078,0.784956,2.224285,0.12247,0.67808,0.22119
1700498539835937,-9.585078,0.769956,2.211285,0.13347,0.65808,0.20719
1700498539843750,-9.593078,0.767956,2.209285,0.11847,0.61208,0.22319
1700498539851562,-9.605078,0.767956,2.202285,0.13447,0.65908,0.20719
1700498539859375,-9.614078,0.758956,2.215285,0.11847,0.65908,0.22319
1700498539867187,-9.600078,0.755956,2.233285,0.10247,0.69108,0.19019
1700498539875000,-9.593078,0.759956,2.236285,0.12147,0.67808,0.20619
1700498539882812,-9.587078,0.751956,2.242285,0.8647,0.72208,0.20619
1700498539890625,-9.570078,0.759956,2.218285,0.14147,0.68108,0.22019
1700498539898437,-9.584078,0.760956,2.236285,0.12047,0.66108,0.19019
1700498539906250,-9.597078,0.755956,2.238285,0.13947,0.66408,0.20519
1700498539914062,-9.620078,0.757956,2.209285,0.11947,0.61408,0.20619
1700498539921875,-9.625078,0.754956,2.204285,0.13147,0.64108,0.22419
1700498539929687,-9.620078,0.768956,2.195285,0.11847,0.67608,0.17419
1700498539937500,-9.615078,0.772956,2.191285,0.12347,0.71008,0.23719
1700498539945312,-9.606078,0.779956,2.191285,0.12147,0.69408,0.18919
1700498539953125,-9.579078,0.775956,2.195285,0.12047,0.66108,0.27019
1700498539960937,-9.568078,0.778956,2.193285,0.12047,0.67608,0.25419
1700498539968750,-9.577078,0.762956,2.206285,0.12047,0.72308,0.25419
1700498539976562,-9.575078,0.749956,2.211285,0.13747,0.66208,0.20619
1700498539984375,-9.585078,0.737956,2.222285,0.11547,0.59408,0.19119
1700498539992187,-9.577078,0.732956,2.222285,0.13047,0.60908,0.20819
1700498540000000,-9.586078,0.739956,2.206285,0.11447,0.56308,0.14419
1700498540007812,-9.585078,0.749956,2.215285,0.15047,0.59708,0.15819
1700498540015625,-9.590078,0.754956,2.211285,0.13147,0.57908,0.19119
1700498540023437,-9.594078,0.752956,2.211285,0.11447,0.59408,0.17619
1700498540031250,-9.604078,0.743956,2.197285,0.12947,0.59308,0.16019
1700498540039062,-9.603078,0.745956,2.204285,0.11547,0.57808,0.20819
1700498540046875,-9.603078,0.747956,2.213285,0.11447,0.64308,0.3119
1700498540054687,-9.609078,0.771956,2.206285,0.11647,0.59608,0.15919
1700498540062500,-9.609078,0.776956,2.209285,0.11747,0.59608,0.15919
1700498540070312,-9.602078,0.773956,2.218285,0.11747,0.61308,0.11019
1700498540078125,-9.591078,0.765956,2.215285,0.11547,0.65808,0.14319
1700498540085937,-9.585078,0.745956,2.209285,0.11647,0.62808,0.11119
1700498540093750,-9.584078,0.749956,2.231285,0.13747,0.56908,0.15719
1700498540101562,-9.582078,0.742956,2.227285,0.11847,0.58308,0.12619
1700498540109375,-9.576078,0.749956,2.218285,0.13447,0.56608,0.19019
1700498540117187,-9.590078,0.754956,2.213285,0.11447,0.60908,0.14419
1700498540125000,-9.598078,0.758956,2.218285,0.10247,0.56608,0.22319
1700498540132812,-9.582078,0.776956,2.218285,0.11847,0.67308,0.27119
1700498540140625,-9.591078,0.765956,2.220285,0.5547,0.56508,0.28719
1700498540148437,-9.589078,0.762956,2.218285,0.15047,0.69008,0.23919
1700498540156250,-9.587078,0.767956,2.206285,0.10247,0.59708,0.17419
1700498540164062,-9.604078,0.771956,2.200285,0.12147,0.55208,0.23819
1700498540171875,-9.613078,0.763956,2.227285,0.7347,0.60208,0.9319
1700498540179687,-9.617078,0.764956,2.200285,0.12047,0.56908,0.12519
1700498540187500,-9.618078,0.760956,2.200285,0.8547,0.62808,0.17519
1700498540195312,-9.609078,0.773956,2.197285,0.8747,0.55308,0.14219
1700498540203125,-9.604078,0.770956,2.195285,0.7747,0.60708,0.3219
1700498540210937,-9.602078,0.767956,2.193285,0.6847,0.65808,0.19119
1700498540218750,-9.606078,0.772956,2.184285,0.10547,0.61708,0.15719
1700498540226562,-9.604078,0.771956,2.188285,0.3747,0.62808,0.14219
1700498540234375,-9.610078,0.747956,2.186285,0.11647,0.59608,0.14319
1700498540242187,-9.610078,0.740956,2.200285,0.6647,0.67408,0.9519
1700498540250000,-9.599078,0.739956,2.181285,0.0,0.62608,0.6319
1700498540257812,-9.603078,0.733956,2.197285,0.10147,0.67508,0.17519
1700498540265625,-9.602078,0.732956,2.202285,0.11147,0.65408,0.9619
1700498540273437,-9.601078,0.731956,2.197285,0.16447,0.59708,0.7919
1700498540281250,-9.601078,0.752956,2.195285,0.8147,0.57708,0.17619
1700498540289062,-9.609078,0.767956,2.191285,0.5247,0.53408,0.11119
1700498540296875,-9.601078,0.772956,2.197285,0.14747,0.59508,0.17519
1700498540304687,-9.601078,0.763956,2.202285,0.14747,0.65708,0.19219
1700498540312500,-9.595078,0.772956,2.188285,0.13947,0.60108,0.23719
1700498540320312,-9.598078,0.769956,2.190285,0.11947,0.61408,0.17419
1700498540328125,-9.604078,0.762956,2.184285,0.10247,0.70908,0.7819
1700498540335937,-9.593078,0.778956,2.186285,0.13247,0.69108,0.6219
1700498540343750,-9.603078,0.776956,2.188285,0.6547,0.68708,0.16019
1700498540351562,-9.609078,0.773956,2.188285,0.11747,0.72308,0.11019
1700498540359375,-9.611078,0.762956,2.197285,0.13247,0.64408,0.9519
1700498540367187,-9.616078,0.758956,2.206285,0.11347,0.65808,0.3119
1700498540375000,-9.598078,0.767956,2.209285,0.8347,0.67508,0.7919
1700498540382812,-9.589078,0.758956,2.209285,0.8347,0.61308,0.3119
1700498540390625,-9.602078,0.762956,2.200285,0.6747,0.64508,0.3019
1700498540398437,-9.609078,0.769956,2.204285,0.5047,0.67508,0.3119
1700498540406250,-9.627078,0.776956,2.204285,0.4947,0.62608,0.11119
1700498540414062,-9.643078,0.784956,2.197285,0.6647,0.65808,0.6319
1700498540421875,-9.636078,0.764956,2.184285,0.5147,0.67308,0.20719
1700498540429687,-9.630078,0.735956,2.195285,0.8547,0.65908,0.17519
1700498540437500,-9.605078,0.738956,2.190285,0.13247,0.67308,0.19119
1700498540445312,-9.589078,0.747956,2.195285,0.13247,0.65908,0.15919
1700498540453125,-9.615078,0.766956,2.177285,0.12047,0.67808,0.12619
1700498540460937,-9.649078,0.784956,2.163285,0.13047,0.65908,0.4719
1700498540468750,-9.676078,0.788956,2.172285,0.8247,0.70508,0.6319
1700498540476562,-9.671078,0.791956,2.163285,0.8647,0.74108,0.6119
1700498540484375,-9.645078,0.779956,2.170285,0.5147,0.75208,0.12719
1700498540492187,-9.643078,0.770956,2.186285,0.5147,0.81508,0.11119
1700498540500000,-9.614078,0.758956,2.193285,0.12947,0.87608,0.11119
1700498540507812,-9.605078,0.769956,2.213285,0.11547,0.79808,0.19119
1700498540515625,-9.592078,0.781956,2.222285,0.11047,0.77908,0.12919
1700498540523437,-9.578078,0.790956,2.231285,0.6647,0.81208,0.22419
1700498540531250,-9.559078,0.792956,2.220285,0.13347,0.80008,0.17519
1700498540539062,-9.566078,0.789956,2.220285,0.11747,0.77008,0.11019
1700498540546875,-9.569078,0.797956,2.206285,0.12847,0.71908,0.9619
1700498540554687,-9.575078,0.804956,2.195285,0.5347,0.66108,0.14219
1700498540562500,-9.588078,0.793956,2.202285,0.2147,0.67508,0.22319
1700498540570312,-9.568078,0.784956,2.202285,0.3947,0.67608,0.22219
1700498540578125,-9.580078,0.769956,2.188285,0.8447,0.65908,0.17519
1700498540585937,-9.594078,0.763956,2.197285,0.8347,0.64208,0.14319
1700498540593750,-9.603078,0.751956,2.209285,0.1253,0.64508,0.6219
1700498540601562,-9.601078,0.738956,2.213285,0.4847,0.65808,0.0
1700498540609375,-9.623078,0.740956,2.213285,0.3053,0.67508,0.1681
1700498540617187,-9.614078,0.738956,2.233285,0.5147,0.66008,0.3019
1700498540625000,-9.607078,0.733956,2.247285,0.7047,0.67808,0.7819
1700498540632812,-9.596078,0.731956,2.245285,0.7047,0.73908,0.17419
1700498540640625,-9.579078,0.735956,2.260285,0.14447,0.73508,0.3219
1700498540648437,-9.566078,0.728956,2.265285,0.9547,0.67108,0.8019
1700498540656250,-9.558078,0.755956,2.258285,0.9747,0.65608,0.12819
1700498540664062,-9.555078,0.767956,2.249285,0.13547,0.69108,0.20619
1700498540671875,-9.557078,0.790956,2.245285,0.11547,0.67508,0.6319
1700498540679687,-9.564078,0.798956,2.247285,0.13347,0.67708,0.9419
1700498540687500,-9.573078,0.798956,2.256285,0.8347,0.72108,0.7919
1700498540695312,-9.575078,0.798956,2.251285,0.11447,0.73608,0.11119
1700498540703125,-9.590078,0.806956,2.245285,0.1053,0.69308,0.12619
1700498540710937,-9.595078,0.791956,2.247285,0.3547,0.65908,0.9519
1700498540718750,-9.597078,0.766956,2.270285,0.2753,0.70908,0.1419
1700498540726562,-9.610078,0.738956,2.254285,0.5047,0.68908,0.12719
1700498540734375,-9.598078,0.727956,2.256285,0.6947,0.66008,0.15919
1700498540742187,-9.596078,0.718956,2.258285,0.8547,0.61408,0.9419
1700498540750000,-9.592078,0.725956,2.263285,0.10147,0.66008,0.11019
1700498540757812,-9.588078,0.736956,2.267285,0.8247,0.67208,0.15919
1700498540765625,-9.591078,0.756956,2.263285,0.13347,0.66008,0.9419
1700498540773437,-9.591078,0.771956,2.249285,0.11947,0.67708,0.15819
1700498540781250,-9.588078,0.784956,2.242285,0.13447,0.70908,0.11019
1700498540789062,-9.600078,0.795956,2.245285,0.13347,0.66008,0.9419
1700498540796875,-9.598078,0.803956,2.242285,0.11447,0.67408,0.6319
1700498540804687,-9.591078,0.805956,2.249285,0.9647,0.62408,0.8019
1700498540812500,-9.593078,0.794956,2.256285,0.13147,0.65808,0.15919
1700498540820312,-9.594078,0.770956,2.261285,0.11247,0.68808,0.4819
1700498540828125,-9.591078,0.763956,2.263285,0.9847,0.66008,0.1519
1700498540835937,-9.582078,0.760956,2.272285,0.13147,0.67508,0.6319
1700498540843750,-9.581078,0.766956,2.254285,0.11047,0.67008,0.4819
1700498540851562,-9.578078,0.763956,2.258285,0.11947,0.62708,0.6819
1700498540859375,-9.588078,0.773956,2.242285,0.10947,0.65108,0.17719
1700498540867187,-9.600078,0.767956,2.251285,0.13147,0.67408,0.12719
1700498540875000,-9.605078,0.792956,2.245285,0.11047,0.70008,0.12919
1700498540882812,-9.616078,0.783956,2.245285,0.12947,0.68708,0.11219
1700498540890625,-9.602078,0.775956,2.256285,0.10147,0.69008,0.20719
1700498540898437,-9.603078,0.781956,2.267285,0.6547,0.70308,0.14419
1700498540906250,-9.607078,0.787956,2.256285,0.3547,0.69008,0.12719
1700498540914062,-9.605078,0.792956,2.258285,0.8047,0.72008,0.3119
1700498540921875,-9.591078,0.791956,2.263285,0.6747,0.67608,0.3019
1700498540929687,-9.599078,0.793956,2.265285,0.1253,0.66208,0.3381
1700498540937500,-9.602078,0.791956,2.272285,0.4753,0.65908,0.3281
1700498540945312,-9.584078,0.764956,2.272285,0.6847,0.67708,0.4619
1700498540953125,-9.567078,0.758956,2.276285,0.6747,0.67608,0.3019
1700498540960937,-9.563078,0.744956,2.285285,0.4547,0.78008,0.0
1700498540968750,-9.556078,0.732956,2.297285,0.5047,0.70508,0.7919
1700498540976562,-9.566078,0.746956,2.288285,0.7947,0.68708,0.4819
1700498540984375,-9.578078,0.761956,2.288285,0.8247,0.65708,0.14319
1700498540992187,-9.587078,0.769956,2.299285,0.9847,0.67408,0.7919
1700498541000000,-9.582078,0.785956,2.290285,0.13247,0.65908,0.14319
1700498541007812,-9.584078,0.800956,2.272285,0.8447,0.67608,0.7819
1700498541015625,-9.560078,0.804956,2.276285,0.11047,0.71708,0.6419
1700498541023437,-9.552078,0.807956,2.283285,0.7547,0.80708,0.11319
1700498541031250,-9.559078,0.802956,2.279285,0.9247,0.69808,0.9719
1700498541039062,-9.583078,0.793956,2.265285,0.7747,0.68608,0.0
1700498541046875,-9.598078,0.780956,2.274285,0.1453,0.70508,0.9519
1700498541054687,-9.608078,0.774956,2.281285,0.1347,0.70108,0.4819
1700498541062500,-9.607078,0.774956,2.301285,0.3247,0.65708,0.4719
1700498541070312,-9.608078,0.774956,2.297285,0.1853,0.71608,0.11219
1700498541078125,-9.600078,0.787956,2.297285,0.5047,0.73708,0.7919
1700498541085937,-9.582078,0.792956,2.301285,0.147,0.78308,0.9519
1700498541093750,-9.576078,0.790956,2.285285,0.3353,0.71708,0.11219
1700498541101562,-9.574078,0.792956,2.279285,0.1447,0.71708,0.9619
1700498541109375,-9.574078,0.771956,2.281285,0.2947,0.66908,0.11319
1700498541117187,-9.594078,0.765956,2.301285,0.11153,0.68808,0.11119
1700498541125000,-9.596078,0.776956,2.290285,0.1547,0.73408,0.3219
1700498541132812,-9.607078,0.785956,2.299285,0.8147,0.65908,0.0
1700498541140625,-9.598078,0.794956,2.306285,0.3253,0.67308,0.0
1700498541148437,-9.605078,0.785956,2.326285,0.1547,0.71908,0.6419
1700498541156250,-9.569078,0.792956,2.315285,0.1747,0.75308,0.81
1700498541164062,-9.569078,0.784956,2.301285,0.12747,0.73308,0.6419
1700498541171875,-9.565078,0.768956,2.310285,0.147,0.73608,0.9519
1700498541179687,-9.558078,0.771956,2.292285,0.153,0.64008,0.1619
1700498541187500,-9.556078,0.775956,2.290285,0.12847,0.65908,0.9681
1700498541195312,-9.579078,0.775956,2.288285,0.1047,0.65208,0.6281
1700498541203125,-9.587078,0.777956,2.281285,0.1347,0.68708,0.1581
1700498541210937,-9.567078,0.785956,2.294285,0.8247,0.67408,0.4719
1700498541218750,-9.571078,0.792956,2.301285,0.13147,0.65808,0.7919
1700498541226562,-9.572078,0.790956,2.310285,0.0,0.67108,0.11219
1700498541234375,-9.584078,0.783956,2.308285,0.1453,0.73708,0.1519
1700498541242187,-9.600078,0.789956,2.317285,0.7853,0.70608,0.7919
1700498541250000,-9.609078,0.791956,2.331285,0.6353,0.75208,0.4719
1700498541257812,-9.605078,0.789956,2.335285,0.12953,0.70408,0.1681
1700498541265625,-9.585078,0.792956,2.317285,0.9653,0.68708,0.9619
1700498541273437,-9.553078,0.810956,2.335285,0.4653,0.70408,0.12719
1700498541281250,-9.528078,0.806956,2.333285,0.6053,0.70508,0.17519
1700498541289062,-9.517078,0.797956,2.335285,0.7853,0.75108,0.15919
1700498541296875,-9.533078,0.804956,2.333285,0.6253,0.64108,0.17619
1700498541304687,-9.559078,0.796956,2.306285,0.7453,0.66008,0.19019
1700498541312500,-9.593078,0.789956,2.324285,0.1153,0.67508,0.12719
1700498541320312,-9.596078,0.773956,2.294285,0.12353,0.64308,0.19119
1700498541328125,-9.598078,0.766956,2.279285,0.9053,0.59808,0.17419
1700498541335937,-9.581078,0.774956,2.294285,0.1647,0.68708,0.12819
1700498541343750,-9.569078,0.766956,2.294285,0.7953,0.67308,0.7919
1700498541351562,-9.545078,0.782956,2.306285,0.3147,0.65508,0.8019
1700498541359375,-9.534078,0.798956,2.319285,0.4747,0.63808,0.16019
1700498541367187,-9.530078,0.810956,2.319285,0.2953,0.61108,0.11119
1700498541375000,-9.533078,0.811956,2.337285,0.1653,0.63908,0.12819
1700498541382812,-9.546078,0.808956,2.330285,0.1847,0.59608,0.6319
1700498541390625,-9.549078,0.799956,2.335285,0.3053,0.59508,0.9519
1700498541398437,-9.550078,0.775956,2.333285,0.8047,0.53008,0.12819
1700498541406250,-9.558078,0.770956,2.335285,0.3347,0.45508,0.1519
1700498541414062,-9.571078,0.767956,2.333285,0.5447,0.52108,0.9419
1700498541421875,-9.584078,0.762956,2.315285,0.7147,0.49108,0.11019
1700498541429687,-9.603078,0.767956,2.310285,0.1847,0.48708,0.3119
1700498541437500,-9.601078,0.769956,2.319285,0.347,0.51608,0.20719
1700498541445312,-9.593078,0.773956,2.326285,0.11947,0.61208,0.27119
1700498541453125,-9.591078,0.763956,2.335285,0.3747,0.53408,0.20719
1700498541460937,-9.579078,0.775956,2.335285,0.13747,0.53608,0.23819
1700498541468750,-9.567078,0.767956,2.331285,0.8647,0.59608,0.25519
1700498541476562,-9.580078,0.778956,2.344285,0.16547,0.67308,0.23919
1700498541484375,-9.577078,0.776956,2.344285,0.13647,0.59808,0.22219
1700498541492187,-9.569078,0.772956,2.331285,0.11747,0.53408,0.14319
1700498541500000,-9.573078,0.790956,2.337285,0.5147,0.61108,0.17519
1700498541507812,-9.568078,0.796956,2.337285,0.10347,0.56708,0.22219
1700498541515625,-9.575078,0.798956,2.340285,0.8447,0.58008,0.17519
1700498541523437,-9.578078,0.771956,2.346285,0.10247,0.62808,0.22319
1700498541531250,-9.569078,0.776956,2.364285,0.13247,0.62608,0.22319
1700498541539062,-9.536078,0.764956,2.362285,0.11347,0.60808,0.17619
1700498541546875,-9.541078,0.769956,2.346285,0.11347,0.52908,0.17619
1700498541554687,-9.533078,0.771956,2.373285,0.13247,0.57908,0.22319
1700498541562500,-9.554078,0.782956,2.369285,0.11447,0.54608,0.20819
1700498541570312,-9.549078,0.784956,2.346285,0.13047,0.56108,0.22419
1700498541578125,-9.563078,0.795956,2.340285,0.14347,0.55708,0.20919
1700498541585937,-9.590078,0.790956,2.328285,0.14547,0.54508,0.22419
1700498541593750,-9.601078,0.785956,2.333285,0.16347,0.49908,0.22419
1700498541601562,-9.599078,0.775956,2.326285,0.12847,0.54408,0.20919
1700498541609375,-9.596078,0.767956,2.317285,0.13147,0.67208,0.22419
1700498541617187,-9.590078,0.771956,2.317285,0.11147,0.62208,0.20919
1700498541625000,-9.592078,0.770956,2.328285,0.9747,0.60808,0.22419
1700498541632812,-9.587078,0.772956,2.326285,0.13347,0.61008,0.25519
1700498541640625,-9.574078,0.777956,2.317285,0.11447,0.60808,0.25619
1700498541648437,-9.585078,0.787956,2.331285,0.13147,0.70308,0.24019
1700498541656250,-9.578078,0.805956,2.324285,0.147,0.71708,0.27219
1700498541664062,-9.564078,0.810956,2.319285,0.1747,0.68708,0.20819
1700498541671875,-9.558078,0.813956,2.333285,0.6447,0.63808,0.24119
1700498541679687,-9.562078,0.801956,2.321285,0.6747,0.56308,0.22319
1700498541687500,-9.569078,0.793956,2.331285,0.3347,0.59208,0.20819
1700498541695312,-9.562078,0.770956,2.321285,0.8447,0.61108,0.20719
1700498541703125,-9.554078,0.768956,2.321285,0.5147,0.61008,0.22419
1700498541710937,-9.551078,0.767956,2.330285,0.10347,0.64508,0.19019
1700498541718750,-9.552078,0.770956,2.328285,0.8247,0.54708,0.14419
1700498541726562,-9.551078,0.777956,2.317285,0.3647,0.57908,0.22319
1700498541734375,-9.553078,0.777956,2.312285,0.6747,0.59408,0.19119
1700498541742187,-9.555078,0.769956,2.315285,0.747,0.56808,0.20619
1700498541750000,-9.547078,0.772956,2.317285,0.14947,0.59508,0.22319
1700498541757812,-9.554078,0.768956,2.303285,0.5147,0.51608,0.20719
1700498541765625,-9.549078,0.771956,2.310285,0.1653,0.39108,0.1619
1700498541773437,-9.558078,0.759956,2.312285,0.9847,0.42308,0.4719
1700498541781250,-9.556078,0.771956,2.315285,0.3147,0.43808,0.0
1700498541789062,-9.547078,0.764956,2.317285,0.3347,0.43708,0.16019
1700498541796875,-9.554078,0.773956,2.335285,0.4947,0.49908,0.12819
1700498541804687,-9.556078,0.777956,2.324285,0.6647,0.43908,0.7919
1700498541812500,-9.565078,0.781956,2.331285,0.6647,0.56308,0.14319
1700498541820312,-9.564078,0.792956,2.337285,0.8547,0.64208,0.27119
1700498541828125,-9.569078,0.779956,2.319285,0.8447,0.51608,0.27119
1700498541835937,-9.579078,0.775956,2.317285,0.12947,0.54308,0.27319
1700498541843750,-9.575078,0.771956,2.312285,0.13547,0.51908,0.22219
1700498541851562,-9.569078,0.775956,2.303285,0.9947,0.53108,0.20819
1700498541859375,-9.561078,0.766956,2.308285,0.11347,0.51508,0.11219
1700498541867187,-9.560078,0.781956,2.306285,0.13147,0.45508,0.6319
1700498541875000,-9.562078,0.790956,2.301285,0.11447,0.54708,0.17619
1700498541882812,-9.563078,0.788956,2.306285,0.12947,0.57708,0.12819
1700498541890625,-9.562078,0.786956,2.319285,0.11447,0.61108,0.6319
1700498541898437,-9.565078,0.786956,2.331285,0.11447,0.54908,0.4719
1700498541906250,-9.579078,0.777956,2.328285,0.12647,0.49908,0.0
1700498541914062,-9.581078,0.768956,2.331285,0.11647,0.40808,0.19119
1700498541921875,-9.585078,0.765956,2.317285,0.13347,0.45508,0.19119
1700498541929687,-9.599078,0.758956,2.301285,0.14847,0.47008,0.19119
1700498541937500,-9.602078,0.768956,2.288285,0.11047,0.44908,0.14519
1700498541945312,-9.596078,0.783956,2.281285,0.11447,0.48408,0.17619
1700498541953125,-9.605078,0.794956,2.276285,0.14647,0.49908,0.17619
1700498541960937,-9.607078,0.791956,2.276285,0.13347,0.55008,0.15919
1700498541968750,-9.621078,0.787956,2.288285,0.11547,0.47008,0.12719
1700498541976562,-9.616078,0.782956,2.294285,0.13247,0.48708,0.12719
1700498541984375,-9.598078,0.765956,2.308285,0.11647,0.54908,0.19119
1700498541992187,-9.594078,0.771956,2.326285,0.13347,0.55008,0.11119
1700498542000000,-9.593078,0.760956,2.335285,0.11847,0.61408,0.11019
1700498542007812,-9.576078,0.770956,2.335285,0.16347,0.62608,0.12719
1700498542015625,-9.560078,0.772956,2.337285,0.8647,0.64308,0.23919
1700498542023437,-9.549078,0.775956,2.328285,0.16147,0.62408,0.17619
1700498542031250,-9.558078,0.779956,2.326285,0.14847,0.50108,0.22319
1700498542039062,-9.560078,0.783956,2.331285,0.11447,0.64108,0.12719
1700498542046875,-9.563078,0.788956,2.319285,0.12847,0.51608,0.4819
1700498542054687,-9.564078,0.803956,2.303285,0.11747,0.56508,0.19119
1700498542062500,-9.561078,0.809956,2.299285,0.13447,0.58208,0.15819
1700498542070312,-9.560078,0.796956,2.306285,0.11747,0.51908,0.11119
1700498542078125,-9.561078,0.782956,2.306285,0.3947,0.61508,0.14219
1700498542085937,-9.586078,0.773956,2.299285,0.12047,0.53708,0.14219
1700498542093750,-9.613078,0.771956,2.301285,0.8647,0.56708,0.11019
1700498542101562,-9.604078,0.784956,2.299285,0.13547,0.62908,0.17419
1700498542109375,-9.600078,0.786956,2.306285,0.11947,0.61408,0.20619
1700498542117187,-9.582078,0.781956,2.315285,0.9947,0.61108,0.12719
1700498542125000,-9.571078,0.776956,2.319285,0.11747,0.64308,0.17519
1700498542132812,-9.546078,0.785956,2.319285,0.10047,0.69008,0.19119
1700498542140625,-9.570078,0.787956,2.310285,0.11847,0.59908,0.11019
1700498542148437,-9.596078,0.780956,2.294285,0.6847,0.61208,0.12719
1700498542156250,-9.625078,0.777956,2.285285,0.10147,0.64408,0.12619
1700498542164062,-9.649078,0.788956,2.279285,0.647,0.63008,0.15819
1700498542171875,-9.627078,0.791956,2.263285,0.6647,0.67408,0.9519
1700498542179687,-9.597078,0.791956,2.247285,0.6947,0.67608,0.9419
1700498542187500,-9.566078,0.789956,2.249285,0.5347,0.70608,0.22319
1700498542195312,-9.559078,0.805956,2.258285,0.3647,0.64308,0.22319
1700498542203125,-9.552078,0.811956,2.283285,0.2447,0.60008,0.19019
1700498542210937,-9.552078,0.804956,2.288285,0.5747,0.64708,0.22119
1700498542218750,-9.546078,0.796956,2.294285,0.3847,0.61208,0.22319
1700498542226562,-9.544078,0.795956,2.315285,0.6647,0.68608,0.24019
1700498542234375,-9.558078,0.790956,2.299285,0.1353,0.51508,0.19219
1700498542242187,-9.565078,0.792956,2.306285,0.6647,0.56208,0.16019
1700498542250000,-9.576078,0.788956,2.294285,0.6347,0.54408,0.14519
1700498542257812,-9.571078,0.783956,2.301285,0.2147,0.47308,0.11019
1700498542265625,-9.579078,0.777956,2.297285,0.10547,0.55308,0.17319
1700498542273437,-9.571078,0.769956,2.299285,0.13447,0.59908,0.6219
1700498542281250,-9.566078,0.763956,2.299285,0.11847,0.44408,0.3019
1700498542289062,-9.571078,0.765956,2.301285,0.13247,0.53308,0.12719
1700498542296875,-9.572078,0.768956,2.294285,0.11547,0.54808,0.11119
1700498542304687,-9.566078,0.784956,2.303285,0.12647,0.41808,0.11319
1700498542312500,-9.570078,0.775956,2.310285,0.14547,0.49808,0.16019
1700498542320312,-9.560078,0.773956,2.335285,0.12947,0.56308,0.9619
1700498542328125,-9.551078,0.781956,2.335285,0.16547,0.51908,0.6219
1700498542335937,-9.560078,0.777956,2.326285,0.14647,0.51708,0.6319
1700498542343750,-9.553078,0.779956,2.319285,0.14747,0.53308,0.9519
1700498542351562,-9.569078,0.767956,2.310285,0.11747,0.50408,0.9519
1700498542359375,-9.569078,0.785956,2.294285,0.14947,0.55008,0.15919
1700498542367187,-9.567078,0.788956,2.294285,0.13147,0.46908,0.20819
1700498542375000,-9.561078,0.794956,2.297285,0.12047,0.45808,0.15819
1700498542382812,-9.556078,0.799956,2.312285,0.11447,0.50008,0.12819
1700498542390625,-9.553078,0.803956,2.303285,0.8647,0.50208,0.27119
1700498542398437,-9.557078,0.801956,2.319285,0.10047,0.58008,0.14319
1700498542406250,-9.571078,0.799956,2.328285,0.11647,0.54708,0.23919
1700498542414062,-9.575078,0.791956,2.321285,0.8747,0.50308,0.25419
1700498542421875,-9.560078,0.792956,2.297285,0.13447,0.51808,0.20719
1700498542429687,-9.567078,0.786956,2.281285,0.11247,0.53008,0.16019
1700498542437500,-9.564078,0.781956,2.256285,0.10147,0.42408,0.17519
1700498542445312,-9.584078,0.782956,2.254285,0.13447,0.48908,0.14219
1700498542453125,-9.583078,0.770956,2.251285,0.16347,0.45408,0.16019
1700498542460937,-9.591078,0.772956,2.256285,0.8547,0.45508,0.22319
1700498542468750,-9.612078,0.781956,2.265285,0.8347,0.39108,0.12719
1700498542476562,-9.623078,0.784956,2.242285,0.13347,0.42408,0.15919
1700498542484375,-9.627078,0.791956,2.258285,0.11847,0.41008,0.14219
1700498542492187,-9.638078,0.791956,2.240285,0.14847,0.42308,0.17519
1700498542500000,-9.643078,0.802956,2.233285,0.13147,0.43808,0.17619
1700498542507812,-9.638078,0.795956,2.242285,0.16847,0.52008,0.22219
1700498542515625,-9.618078,0.787956,2.242285,0.8347,0.43808,0.17619
1700498542523437,-9.599078,0.794956,2.240285,0.11247,0.49908,0.12819
1700498542531250,-9.589078,0.801956,2.261285,0.13047,0.51508,0.16019
1700498542539062,-9.572078,0.791956,2.270285,0.11247,0.46608,0.14419
1700498542546875,-9.565078,0.768956,2.258285,0.13347,0.47108,0.15919
1700498542554687,-9.567078,0.765956,2.272285,0.7147,0.42608,0.17419
1700498542562500,-9.585078,0.770956,2.272285,0.347,0.45408,0.20719
1700498542570312,-9.587078,0.767956,2.261285,0.13247,0.45408,0.20719
1700498542578125,-9.576078,0.783956,2.254285,0.11647,0.50108,0.20719
1700498542585937,-9.571078,0.798956,2.256285,0.11847,0.56508,0.23919
1700498542593750,-9.578078,0.812956,2.267285,0.9847,0.46808,0.22419
1700498542601562,-9.584078,0.804956,2.276285,0.10447,0.45808,0.19019
1700498542609375,-9.581078,0.826956,2.258285,0.8747,0.45808,0.14219
1700498542617187,-9.593078,0.818956,2.256285,0.13547,0.42508,0.22319
1700498542625000,-9.607078,0.796956,2.256285,0.11747,0.47208,0.14319
1700498542632812,-9.598078,0.794956,2.267285,0.13247,0.45608,0.11119
1700498542640625,-9.601078,0.774956,2.276285,0.11447,0.56308,0.14419
1700498542648437,-9.589078,0.753956,2.290285,0.13447,0.55208,0.9419
1700498542656250,-9.572078,0.754956,2.279285,0.11547,0.61108,0.12719
1700498542664062,-9.579078,0.762956,2.279285,0.12847,0.54508,0.16019
1700498542671875,-9.583078,0.765956,2.279285,0.11547,0.54808,0.14319
1700498542679687,-9.571078,0.777956,2.283285,0.13147,0.59508,0.14319
1700498542687500,-9.559078,0.771956,2.288285,0.11147,0.54408,0.16119
1700498542695312,-9.551078,0.781956,2.288285,0.9947,0.53208,0.19119
1700498542703125,-9.566078,0.787956,2.279285,0.12147,0.47508,0.17419
1700498542710937,-9.566078,0.791956,2.276285,0.13647,0.49108,0.12619
1700498542718750,-9.585078,0.797956,2.263285,0.17547,0.52908,0.6419
1700498542726562,-9.598078,0.803956,2.261285,0.9747,0.58008,0.4719
1700498542734375,-9.578078,0.805956,2.263285,0.13247,0.51708,0.17519
1700498542742187,-9.570078,0.798956,2.267285,0.15047,0.58308,0.6219
1700498542750000,-9.585078,0.790956,2.272285,0.11447,0.56408,0.6319
1700498542757812,-9.607078,0.785956,2.254285,0.11647,0.50208,0.14319
1700498542765625,-9.605078,0.772956,2.265285,0.13147,0.57808,0.20819
1700498542773437,-9.615078,0.775956,2.261285,0.9747,0.55908,0.28919
1700498542781250,-9.610078,0.772956,2.272285,0.3147,0.59008,0.25719
1700498542789062,-9.585078,0.777956,2.260285,0.14747,0.60908,0.22419
1700498542796875,-9.564078,0.770956,2.254285,0.11747,0.56508,0.19119
1700498542804687,-9.565078,0.768956,2.249285,0.13147,0.61008,0.19119
1700498542812500,-9.560078,0.790956,2.256285,0.11547,0.61008,0.19119
1700498542820312,-9.585078,0.794956,2.242285,0.13047,0.49908,0.19219
1700498542828125,-9.598078,0.789956,2.254285,0.11547,0.50308,0.6319
1700498542835937,-9.597078,0.775956,2.254285,0.13747,0.55308,0.15719
1700498542843750,-9.596078,0.774956,2.245285,0.11747,0.59708,0.14319
1700498542851562,-9.591078,0.774956,2.242285,0.10147,0.56508,0.15919
1700498542859375,-9.580078,0.765956,2.238285,0.8647,0.62808,0.19119
1700498542867187,-9.569078,0.750956,2.229285,0.8547,0.53408,0.15919
1700498542875000,-9.564078,0.747956,2.233285,0.13747,0.50708,0.9319
1700498542882812,-9.573078,0.742956,2.233285,0.11947,0.48908,0.15819
1700498542890625,-9.576078,0.731956,2.238285,0.13647,0.52108,0.17419
1700498542898437,-9.585078,0.759956,2.240285,0.11547,0.47108,0.7919
1700498542906250,-9.571078,0.770956,2.260285,0.13347,0.40908,0.11119
1700498542914062,-9.555078,0.770956,2.272285,0.8647,0.48808,0.15819
1700498542921875,-9.567078,0.763956,2.260285,0.8447,0.47108,0.14319
1700498542929687,-9.565078,0.770956,2.283285,0.13047,0.40708,0.9519
1700498542937500,-9.589078,0.771956,2.274285,0.5447,0.50208,0.22319
1700498542945312,-9.605078,0.789956,2.254285,0.6847,0.50208,0.17519
1700498542953125,-9.595078,0.789956,2.254285,0.10247,0.47208,0.20719
1700498542960937,-9.568078,0.796956,2.249285,0.10347,0.47208,0.23819
1700498542968750,-9.550078,0.796956,2.267285,0.10247,0.55008,0.20619
1700498542976562,-9.557078,0.790956,2.283285,0.6947,0.47208,0.19119
1700498542984375,-9.584078,0.791956,2.254285,0.5447,0.44208,0.12619
1700498542992187,-9.619078,0.799956,2.242285,0.8847,0.46108,0.6119
1700498543000000,-9.637078,0.810956,2.242285,0.11747,0.49108,0.1781
1700498543007812,-9.633078,0.804956,2.236285,0.5147,0.51808,0.11119
1700498543015625,-9.608078,0.797956,2.233285,0.13547,0.62908,0.15819
1700498543023437,-9.587078,0.771956,2.233285,0.5347,0.62808,0.14219
1700498543031250,-9.560078,0.772956,2.231285,0.5247,0.62608,0.20719
1700498543039062,-9.553078,0.770956,2.251285,0.6747,0.67308,0.14319
1700498543046875,-9.553078,0.785956,2.263285,0.9847,0.62708,0.4719
1700498543054687,-9.533078,0.792956,2.270285,0.6947,0.61208,0.20719
1700498543062500,-9.510078,0.801956,2.267285,0.13547,0.55008,0.25519
1700498543070312,-9.519078,0.803956,2.274285,0.8547,0.61208,0.17519
1700498543078125,-9.530078,0.808956,2.249285,0.547,0.42508,0.17519
1700498543085937,-9.535078,0.812956,2.240285,0.7047,0.42508,0.19119
1700498543093750,-9.550078,0.823956,2.215285,0.10247,0.40908,0.19119
1700498543101562,-9.591078,0.802956,2.204285,0.13347,0.47208,0.11119
1700498543109375,-9.627078,0.764956,2.204285,0.953,0.42708,0.11019
1700498543117187,-9.648078,0.760956,2.197285,0.6747,0.42408,0.9519
1700498543125000,-9.634078,0.778956,2.191285,0.11647,0.45608,0.6319
1700498543132812,-9.621078,0.792956,2.188285,0.1747,0.46608,0.25619
1700498543140625,-9.643078,0.787956,2.193285,0.8247,0.54708,0.19219
1700498543148437,-9.650078,0.789956,2.195285,0.11447,0.49908,0.22419
1700498543156250,-9.649078,0.781956,2.200285,0.8747,0.50508,0.15819
1700498543164062,-9.658078,0.788956,2.202285,0.13447,0.48708,0.17519
1700498543171875,-9.636078,0.782956,2.195285,0.11847,0.40908,0.19119
1700498543179687,-9.627078,0.786956,2.195285,0.13447,0.45608,0.19119
1700498543187500,-9.607078,0.778956,2.211285,0.8447,0.50208,0.15919
1700498543195312,-9.575078,0.787956,2.206285,0.5347,0.44308,0.3019
1700498543203125,-9.574078,0.799956,2.206285,0.14547,0.51508,0.12819
1700498543210937,-9.566078,0.805956,2.224285,0.8347,0.47008,0.14319
1700498543218750,-9.572078,0.811956,2.233285,0.8747,0.55308,0.12619
1700498543226562,-9.563078,0.800956,2.238285,0.13947,0.52308,0.20519
1700498543234375,-9.578078,0.794956,2.238285,0.11547,0.40708,0.12719
1700498543242187,-9.591078,0.764956,2.236285,0.13647,0.56808,0.14219
1700498543250000,-9.600078,0.733956,2.242285,0.11847,0.49008,0.6219
1700498543257812,-9.617078,0.709956,2.227285,0.11547,0.42408,0.4719
1700498543265625,-9.639078,0.718956,2.215285,0.13147,0.39308,0.7919
1700498543273437,-9.650078,0.760956,2.206285,0.18047,0.50108,0.15919
1700498543281250,-9.652078,0.782956,2.200285,0.9647,0.56208,0.11219
1700498543289062,-9.650078,0.774956,2.193285,0.12947,0.57708,0.17619
1700498543296875,-9.664078,0.785956,2.215285,0.11047,0.63508,0.19319
1700498543304687,-9.651078,0.790956,2.211285,0.10247,0.67508,0.23919
1700498543312500,-9.636078,0.788956,2.222285,0.5447,0.69008,0.27119
1700498543320312,-9.645078,0.789956,2.238285,0.5147,0.70408,0.23919
1700498543328125,-9.627078,0.800956,2.206285,0.6847,0.75108,0.25519
1700498543335937,-9.604078,0.809956,2.200285,0.9847,0.78108,0.22419
1700498543343750,-9.596078,0.807956,2.213285,0.6747,0.70308,0.25619
1700498543351562,-9.587078,0.794956,2.222285,0.3447,0.71708,0.27219
1700498543359375,-9.582078,0.796956,2.224285,0.13247,0.78308,0.19119
1700498543367187,-9.575078,0.805956,2.209285,0.13147,0.67208,0.19219
1700498543375000,-9.595078,0.802956,2.224285,0.8747,0.66108,0.20619
1700498543382812,-9.601078,0.801956,2.222285,0.2447,0.67708,0.20619
1700498543390625,-9.595078,0.797956,2.206285,0.647,0.66008,0.22219
1700498543398437,-9.582078,0.796956,2.224285,0.5247,0.73708,0.14319
1700498543406250,-9.564078,0.794956,2.211285,0.3747,0.63008,0.11019
1700498543414062,-9.566078,0.801956,2.220285,0.3547,0.62608,0.15919
1700498543421875,-9.560078,0.801956,2.227285,0.6747,0.67308,0.17519
1700498543429687,-9.566078,0.794956,2.224285,0.2147,0.64308,0.22319
1700498543437500,-9.558078,0.788956,2.229285,0.3247,0.63908,0.16019
1700498543445312,-9.565078,0.775956,2.211285,0.8047,0.60708,0.17619
1700498543453125,-9.578078,0.778956,2.204285,0.3447,0.68908,0.14319
1700498543460937,-9.594078,0.792956,2.202285,0.1753,0.62308,0.11219
1700498543468750,-9.603078,0.794956,2.195285,0.11247,0.65508,0.9619
1700498543476562,-9.608078,0.804956,2.206285,0.4353,0.59708,0.15819
1700498543484375,-9.603078,0.795956,2.204285,0.4647,0.60708,0.11319
1700498543492187,-9.596078,0.785956,2.206285,0.13047,0.65708,0.7919
1700498543500000,-9.592078,0.776956,2.211285,0.11447,0.64008,0.16019
1700498543507812,-9.593078,0.769956,2.209285,0.13247,0.67508,0.11119
1700498543515625,-9.608078,0.776956,2.195285,0.12747,0.70208,0.8019
1700498543523437,-9.625078,0.789956,2.211285,0.11347,0.62508,0.9619
1700498543531250,-9.634078,0.775956,2.211285,0.11447,0.69008,0.4719
1700498543539062,-9.627078,0.769956,2.211285,0.13147,0.70408,0.17519
1700498543546875,-9.620078,0.764956,2.209285,0.11647,0.69008,0.12719
1700498543554687,-9.621078,0.769956,2.206285,0.13047,0.67408,0.7919
1700498543562500,-9.621078,0.767956,2.200285,0.11347,0.64208,0.3119
1700498543570312,-9.623078,0.760956,2.204285,0.14947,0.66008,0.7819
1700498543578125,-9.613078,0.768956,2.206285,0.9347,0.63608,0.12919
1700498543585937,-9.600078,0.767956,2.213285,0.13247,0.65908,0.14319
1700498543593750,-9.622078,0.788956,2.206285,0.11647,0.66008,0.7819
1700498543601562,-9.607078,0.796956,2.204285,0.12947,0.68708,0.16019
1700498543609375,-9.598078,0.798956,2.206285,0.11547,0.73508,0.17519
1700498543617187,-9.602078,0.809956,2.218285,0.13447,0.73708,0.22319
1700498543625000,-9.590078,0.809956,2.231285,0.13347,0.78408,0.20719
1700498543632812,-9.586078,0.791956,2.256285,0.11647,0.72108,0.14319
1700498543640625,-9.585078,0.763956,2.249285,0.1847,0.68908,0.17519
1700498543648437,-9.586078,0.746956,2.256285,0.9447,0.79408,0.16119
1700498543656250,-9.579078,0.723956,2.263285,0.13247,0.72108,0.14319
1700498543664062,-9.592078,0.732956,2.240285,0.11447,0.65708,0.14319
1700498543671875,-9.599078,0.761956,2.251285,0.11347,0.70308,0.16019
1700498543679687,-9.594078,0.785956,2.242285,0.13047,0.70408,0.14319
1700498543687500,-9.621078,0.805956,2.251285,0.9747,0.68608,0.22419
1700498543695312,-9.609078,0.804956,2.267285,0.6947,0.68908,0.23919
1700498543703125,-9.602078,0.807956,2.267285,0.3447,0.71808,0.25619
1700498543710937,-9.587078,0.805956,2.276285,0.9847,0.73408,0.19219
1700498543718750,-9.584078,0.787956,2.265285,0.6847,0.70708,0.11019
1700498543726562,-9.559078,0.776956,2.272285,0.10247,0.72308,0.19019
1700498543734375,-9.551078,0.765956,2.292285,0.2047,0.72308,0.4619
1700498543742187,-9.551078,0.750956,2.306285,0.9847,0.67408,0.9519
1700498543750000,-9.547078,0.743956,2.294285,0.5047,0.66008,0.1681
1700498543757812,-9.554078,0.739956,2.303285,0.6747,0.65908,0.9519
1700498543765625,-9.551078,0.748956,2.317285,0.13247,0.67508,0.11119
1700498543773437,-9.567078,0.759956,2.306285,0.11347,0.65608,0.12819
1700498543781250,-9.576078,0.774956,2.310285,0.9847,0.67408,0.9519
1700498543789062,-9.569078,0.777956,2.306285,0.13047,0.76608,0.17619
1700498543796875,-9.568078,0.774956,2.297285,0.11847,0.70708,0.14219
1700498543804687,-9.576078,0.770956,2.281285,0.11447,0.70208,0.22419
1700498543812500,-9.616078,0.780956,2.265285,0.8247,0.68808,0.17619
1700498543820312,-9.638078,0.795956,2.249285,0.13147,0.65708,0.15919
1700498543828125,-9.660078,0.837956,2.247285,0.9947,0.75108,0.20719
1700498543835937,-9.658078,0.826956,2.242285,0.6747,0.67408,0.12719
1700498543843750,-9.634078,0.796956,2.238285,0.12847,0.77908,0.19219
1700498543851562,-9.608078,0.775956,2.272285,0.10747,0.81908,0.19519
1700498543859375,-9.570078,0.771956,2.272285,0.9547,0.81008,0.17719
1700498543867187,-9.549078,0.770956,2.281285,0.12847,0.82808,0.9619
1700498543875000,-9.558078,0.777956,2.299285,0.11347,0.81408,0.7919
1700498543882812,-9.558078,0.783956,2.297285,0.3347,0.82808,0.20819
1700498543890625,-9.553078,0.801956,2.315285,0.16347,0.78208,0.19119
1700498543898437,-9.535078,0.812956,2.315285,0.11547,0.76608,0.22319
1700498543906250,-9.529078,0.786956,2.310285,0.10047,0.73508,0.25519
1700498543914062,-9.531078,0.791956,2.306285,0.13147,0.68608,0.27219
1700498543921875,-9.529078,0.789956,2.294285,0.11147,0.65308,0.22519
1700498543929687,-9.551078,0.793956,2.290285,0.11347,0.63908,0.20819
1700498543937500,-9.571078,0.792956,2.288285,0.8247,0.65608,0.20819
1700498543945312,-9.583078,0.766956,2.276285,0.9847,0.64008,0.17619
1700498543953125,-9.572078,0.746956,2.283285,0.13147,0.67208,0.20819
1700498543960937,-9.572078,0.733956,2.290285,0.11247,0.67108,0.16019
1700498543968750,-9.559078,0.728956,2.297285,0.14647,0.64208,0.6319
1700498543976562,-9.563078,0.732956,2.299285,0.16347,0.67408,0.9519
1700498543984375,-9.571078,0.733956,2.306285,0.16847,0.69408,0.14219
1700498543992187,-9.576078,0.750956,2.310285,0.11447,0.65708,0.11119
1700498544000000,-9.585078,0.763956,2.297285,0.13147,0.64308,0.9519
1700498544007812,-9.571078,0.769956,2.306285,0.14947,0.66008,0.12619
1700498544015625,-9.582078,0.758956,2.315285,0.16747,0.67508,0.23919
1700498544023437,-9.585078,0.759956,2.308285,0.12847,0.65508,0.14419
1700498544031250,-9.569078,0.779956,2.301285,0.11447,0.67208,0.14319
1700498544039062,-9.573078,0.796956,2.319285,0.13347,0.67508,0.12619
1700498544046875,-9.561078,0.802956,2.321285,0.11847,0.66108,0.11019
1700498544054687,-9.553078,0.787956,2.317285,0.13447,0.67608,0.14219
1700498544062500,-9.560078,0.770956,2.328285,0.11547,0.70608,0.11119
1700498544070312,-9.560078,0.758956,2.337285,0.15247,0.69208,0.19019
1700498544078125,-9.585078,0.750956,2.324285,0.14947,0.59508,0.27119
1700498544085937,-9.598078,0.760956,2.340285,0.16547,0.64508,0.6219
1700498544093750,-9.584078,0.767956,2.317285,0.18247,0.73908,0.12619
1700498544101562,-9.588078,0.761956,2.326285,0.16247,0.71808,0.17619
1700498544109375,-9.586078,0.762956,2.321285,0.16847,0.66108,0.19019
1700498544117187,-9.598078,0.773956,2.321285,0.11847,0.69208,0.15819
1700498544125000,-9.591078,0.803956,2.326285,0.13247,0.67308,0.19119
1700498544132812,-9.582078,0.809956,2.315285,0.11647,0.65808,0.19119
1700498544140625,-9.585078,0.803956,2.312285,0.13047,0.67108,0.17619
1700498544148437,-9.588078,0.804956,2.321285,0.11747,0.64408,0.14219
1700498544156250,-9.585078,0.799956,2.315285,0.6547,0.64008,0.12819
1700498544164062,-9.583078,0.791956,2.331285,0.10947,0.63908,0.1619
1700498544171875,-9.567078,0.788956,2.319285,0.11247,0.67408,0.0
1700498544179687,-9.565078,0.781956,2.315285,0.11247,0.67208,0.3219
1700498544187500,-9.578078,0.781956,2.303285,0.13047,0.64308,0.6319
1700498544195312,-9.567078,0.786956,2.317285,0.11347,0.65508,0.19219
1700498544203125,-9.576078,0.794956,2.306285,0.13047,0.70208,0.19219
1700498544210937,-9.560078,0.799956,2.294285,0.4847,0.65708,0.4819
1700498544218750,-9.565078,0.799956,2.301285,0.8147,0.67108,0.16019
1700498544226562,-9.562078,0.794956,2.299285,0.6747,0.65708,0.19119
1700498544234375,-9.545078,0.779956,2.310285,0.8247,0.67208,0.15919
1700498544242187,-9.551078,0.772956,2.310285,0.2047,0.64408,0.9419
1700498544250000,-9.553078,0.785956,2.315285,0.7047,0.66008,0.19019
1700498544257812,-9.562078,0.783956,2.317285,0.11547,0.73708,0.11119
1700498544265625,-9.587078,0.787956,2.312285,0.9747,0.64208,0.6319
1700498544273437,-9.598078,0.783956,2.331285,0.11247,0.67208,0.4819
1700498544281250,-9.598078,0.790956,2.315285,0.4847,0.70308,0.9619
1700498544289062,-9.596078,0.792956,2.335285,0.14347,0.71808,0.8019
1700498544296875,-9.560078,0.795956,2.331285,0.9647,0.67208,0.3219
1700498544304687,-9.546078,0.799956,2.310285,0.6547,0.67308,0.11119
1700498544312500,-9.551078,0.797956,2.310285,0.11347,0.64208,0.3119
1700498544320312,-9.549078,0.786956,2.312285,0.4647,0.65608,0.3181
1700498544328125,-9.558078,0.790956,2.315285,0.3347,0.59508,0.4719
1700498544335937,-9.569078,0.790956,2.319285,0.6447,0.57708,0.14419
1700498544343750,-9.572078,0.775956,2.328285,0.12447,0.65208,0.3319
1700498544351562,-9.568078,0.791956,2.324285,0.10647,0.57108,0.3419
1700498544359375,-9.585078,0.792956,2.317285,0.12747,0.60908,0.3219
1700498544367187,-9.586078,0.795956,2.317285,0.13447,0.66108,0.12619
1700498544375000,-9.584078,0.812956,2.321285,0.11447,0.67308,0.12719
1700498544382812,-9.580078,0.794956,2.331285,0.9947,0.65808,0.17519
1700498544390625,-9.560078,0.793956,2.324285,0.12847,0.65608,0.6419
1700498544398437,-9.547078,0.781956,2.326285,0.4947,0.67308,0.6319
1700498544406250,-9.552078,0.773956,2.326285,0.6247,0.65608,0.0
1700498544414062,-9.552078,0.770956,2.310285,0.11247,0.67208,0.3219
1700498544421875,-9.553078,0.772956,2.319285,0.11747,0.60008,0.1781
1700498544429687,-9.556078,0.788956,2.312285,0.12747,0.57808,0.1619
1700498544437500,-9.558078,0.795956,2.321285,0.11147,0.61008,0.1581
1700498544445312,-9.562078,0.803956,2.337285,0.16147,0.61008,0.3119
1700498544453125,-9.555078,0.795956,2.335285,0.11447,0.53308,0.3119
1700498544460937,-9.561078,0.791956,2.337285,0.453,0.54308,0.1481
1700498544468750,-9.560078,0.786956,2.342285,0.11147,0.70208,0.9619
1700498544476562,-9.577078,0.766956,2.319285,0.1753,0.59008,0.19319
1700498544484375,-9.570078,0.750956,2.310285,0.6547,0.68808,0.7919
1700498544492187,-9.578078,0.757956,2.281285,0.9747,0.61108,0.3119
1700498544500000,-9.592078,0.795956,2.283285,0.12647,0.60908,0.1581
1700498544507812,-9.594078,0.808956,2.279285,0.11047,0.65508,0.6419
1700498544515625,-9.601078,0.808956,2.274285,0.8047,0.57608,0.14419
1700498544523437,-9.604078,0.818956,2.279285,0.14747,0.54808,0.11119
1700498544531250,-9.605078,0.841956,2.279285,0.153,0.62308,0.11219
1700498544539062,-9.617078,0.824956,2.285285,0.7047,0.64508,0.19019
1700498544546875,-9.605078,0.792956,2.283285,0.8247,0.61108,0.9519
1700498544554687,-9.594078,0.770956,2.308285,0.4947,0.62608,0.3119
1700498544562500,-9.572078,0.746956,2.326285,0.14547,0.65708,0.6419
1700498544570312,-9.556078,0.759956,2.335285,0.11247,0.61008,0.1519
1700498544578125,-9.551078,0.772956,2.333285,0.12947,0.59508,0.3119
1700498544585937,-9.558078,0.772956,2.330285,0.11447,0.65908,0.3119
1700498544593750,-9.567078,0.776956,2.337285,0.11447,0.62808,0.3119
1700498544601562,-9.565078,0.768956,2.326285,0.14847,0.58008,0.12719
1700498544609375,-9.564078,0.794956,2.306285,0.10247,0.56508,0.22319
1700498544617187,-9.567078,0.810956,2.303285,0.12847,0.56108,0.16019
1700498544625000,-9.568078,0.820956,2.294285,0.11847,0.55108,0.12619
1700498544632812,-9.588078,0.836956,2.285285,0.11747,0.54708,0.30419
1700498544640625,-9.634078,0.829956,2.281285,0.12847,0.68508,0.17619
1700498544648437,-9.672078,0.820956,2.265285,0.11447,0.60908,0.19219
1700498544656250,-9.681078,0.803956,2.290285,0.16447,0.67308,0.17519
1700498544664062,-9.643078,0.793956,2.301285,0.12947,0.73608,0.3119
1700498544671875,-9.602078,0.780956,2.321285,0.16547,0.66108,0.6219
1700498544679687,-9.568078,0.791956,2.319285,0.16547,0.67608,0.9419
1700498544687500,-9.557078,0.803956,2.324285,0.5147,0.66008,0.3019
1700498544695312,-9.561078,0.816956,2.344285,0.8347,0.67608,0.181
1700498544703125,-9.564078,0.834956,2.331285,0.11147,0.65708,0.1681
1700498544710937,-9.559078,0.840956,2.337285,0.10047,0.67408,0.12719
1700498544718750,-9.548078,0.843956,2.331285,0.9947,0.65908,0.4719
1700498544726562,-9.537078,0.845956,2.317285,0.8347,0.67308,0.14319
1700498544734375,-9.534078,0.827956,2.319285,0.6947,0.69108,0.15919
1700498544742187,-9.545078,0.797956,2.328285,0.4747,0.62408,0.9619
1700498544750000,-9.559078,0.792956,2.333285,0.11747,0.67508,0.14219
1700498544757812,-9.566078,0.784956,2.315285,0.11847,0.66208,0.3019
1700498544765625,-9.578078,0.778956,2.312285,0.10147,0.59808,0.9419
1700498544773437,-9.581078,0.779956,2.310285,0.12947,0.57908,0.4719
1700498544781250,-9.593078,0.769956,2.301285,0.13447,0.59808,0.14219
1700498544789062,-9.598078,0.776956,2.321285,0.11547,0.62708,0.11119
1700498544796875,-9.569078,0.793956,2.328285,0.16047,0.67108,0.11219
1700498544804687,-9.567078,0.785956,2.333285,0.11447,0.67408,0.4719
1700498544812500,-9.584078,0.780956,2.319285,0.18147,0.62908,0.11019
1700498544820312,-9.582078,0.791956,2.321285,0.15047,0.64508,0.11019
1700498544828125,-9.572078,0.800956,2.337285,0.11847,0.66208,0.9419
1700498544835937,-9.567078,0.812956,2.326285,0.11347,0.67208,0.14419
1700498544843750,-9.549078,0.808956,2.335285,0.12947,0.63908,0.19219
1700498544851562,-9.533078,0.815956,2.330285,0.7947,0.65408,0.12819
1700498544859375,-9.520078,0.806956,2.330285,0.9747,0.57808,0.11219
1700498544867187,-9.533078,0.803956,2.337285,0.11647,0.56608,0.7919
1700498544875000,-9.524078,0.806956,2.335285,0.6547,0.54708,0.9619
1700498544882812,-9.550078,0.798956,2.312285,0.10347,0.47408,0.14219
1700498544890625,-9.566078,0.803956,2.312285,0.8447,0.64308,0.15919
1700498544898437,-9.585078,0.810956,2.326285,0.12847,0.63808,0.17619
1700498544906250,-9.589078,0.785956,2.324285,0.8547,0.65808,0.22319
1700498544914062,-9.583078,0.785956,2.315285,0.13047,0.65608,0.20819
1700498544921875,-9.574078,0.768956,2.303285,0.7947,0.63908,0.12819
1700498544929687,-9.572078,0.786956,2.317285,0.12747,0.59208,0.9619
1700498544937500,-9.574078,0.793956,2.319285,0.3147,0.68508,0.17719
