time,Acceleration X (m/s^2),Acceleration Y (m/s^2),Acceleration Z (m/s^2),Angular Velocity X (rad/s),Angular Velocity Y (rad/s),Angular Velocity Z (rad/s)
1700499444031250,-9.515087,-2.616562,-0.064097,,,
1700499444039062,-9.502087,-2.621562,0.166836,0.7784,0.68597,0.34186
1700499444046875,-9.495087,-2.658562,0.146836,0.2684,0.70297,0.37286
1700499444054687,-9.481087,-2.689562,0.137836,0.416,0.74897,0.38886
1700499444062500,-9.455087,-2.749562,0.121836,0.8616,0.70297,0.37286
1700499444070312,-9.456087,-2.793562,0.117836,0.3916,0.72097,0.35586
1700499444085937,-9.479087,-2.797562,0.81836,0.7384,0.70497,0.35586
1700499444093750,-9.472087,-2.811562,0.72836,0.7284,0.65797,0.38786
1700499444101562,-9.484087,-2.846562,0.33836,0.5584,0.64397,0.35586
1700499444109375,-9.518087,-2.837562,0.65836,0.17084,0.57997,0.30786
1700499444132812,-9.555087,-2.644562,0.148836,0.33284,0.68797,0.34086
1700499444140625,-9.508087,-2.622562,0.162836,0.36584,0.64297,0.19586
1700499444148437,-9.455087,-2.626562,0.180836,0.36884,0.62497,0.21286
1700499444156250,-9.421087,-2.646562,0.202836,0.33584,0.56297,0.18086
1700499444164062,-9.427087,-2.641562,0.209836,0.33484,0.61197,0.14786
1700499444171875,-9.420087,-2.649562,0.218836,0.26684,0.56797,0.19486
1700499444179687,-9.423087,-2.628562,0.214836,0.10884,0.62797,0.17986
1700499444187500,-9.419087,-2.592562,0.214836,0.12184,0.62997,0.19486
1700499444195312,-9.415087,-2.550562,0.214836,0.1084,0.69097,0.22786
1700499444203125,-9.420087,-2.553562,0.212836,0.6916,0.70497,0.26086
1700499444210937,-9.444087,-2.588562,0.230836,0.15016,0.75297,0.22786
1700499444218750,-9.481087,-2.572562,0.216836,0.17916,0.70297,0.19686
1700499444226562,-9.480087,-2.559562,0.207836,0.13316,0.68897,0.21286
1700499444234375,-9.480087,-2.545562,0.180836,0.24716,0.73797,0.17986
1700499444242187,-9.459087,-2.535562,0.142836,0.37116,0.68897,0.6886
1700499444250000,-9.433087,-2.539562,0.117836,0.43816,0.73797,0.3586
1700499444257812,-9.426087,-2.528562,0.103836,0.53716,0.80197,0.8386
1700499444265625,-9.435087,-2.539562,0.103836,0.60016,0.83397,0.1214
1700499444273437,-9.460087,-2.537562,0.81836,0.76016,0.84797,0.1214
1700499444281250,-9.504087,-2.516562,0.51836,0.82216,0.83097,0.2714
1700499444289062,-9.564087,-2.522562,0.38836,0.106316,0.92597,0.12314
1700499444296875,-9.622087,-2.532562,0.6164,0.124016,0.97397,0.15614
1700499444304687,-9.649087,-2.523562,0.2164,0.145016,0.113097,0.15614
1700499444312500,-9.653087,-2.534562,0.38164,0.157816,0.133497,0.23614
1700499444320312,-9.631087,-2.550562,0.38164,0.170016,0.162797,0.34714
1700499444328125,-9.585087,-2.557562,0.15836,0.204016,0.200597,0.41214
1700499444335937,-9.489087,-2.596562,0.87836,0.226116,0.242297,0.31414
1700499444343750,-9.363087,-2.613562,0.153836,0.260116,0.270697,0.33114
1700499444351562,-9.255087,-2.655562,0.193836,0.284216,0.286197,0.28214
1700499444359375,-9.167087,-2.702562,0.225836,0.302116,0.306397,0.15414
1700499444367187,-9.135087,-2.737562,0.238836,0.322816,0.307697,0.13714
1700499444375000,-9.149087,-2.734562,0.164836,0.334116,0.298297,0.8914
1700499444382812,-9.229087,-2.748562,0.148836,0.345616,0.307797,0.4114
1700499444390625,-9.328087,-2.714562,0.144836,0.363616,0.293597,0.18286
1700499444398437,-9.392087,-2.725562,0.144836,0.377016,0.283097,0.19786
1700499444406250,-9.457087,-2.747562,0.69836,0.397816,0.265597,0.21486
1700499444414062,-9.475087,-2.778562,0.22836,0.420416,0.245397,0.14986
1700499444421875,-9.418087,-2.836562,0.29164,0.440116,0.240997,0.19786
1700499444429687,-9.294087,-2.900562,0.59164,0.466016,0.220697,0.21386
1700499444437500,-9.211087,-2.962562,0.88164,0.494516,0.221697,0.29586
1700499444445312,-9.165087,-3.22562,0.106164,0.504816,0.201797,0.32586
1700499444453125,-9.142087,-3.14562,0.135164,0.509616,0.189297,0.30986
1700499444460937,-9.167087,-2.986562,0.192164,0.524416,0.176897,0.38986
1700499444468750,-9.236087,-2.982562,0.257164,0.534616,0.155497,0.38786
1700499444476562,-9.315087,-2.942562,0.316164,0.545916,0.149197,0.40386
1700499444484375,-9.426087,-2.914562,0.327164,0.558516,0.131697,0.40486
1700499444492187,-9.523087,-2.855562,0.336164,0.571416,0.119297,0.34086
1700499444500000,-9.623087,-2.758562,0.350164,0.595916,0.119497,0.33986
1700499444507812,-9.688087,-2.672562,0.305164,0.628316,0.132297,0.32386
1700499444515625,-9.710087,-2.619562,0.277164,0.660316,0.143197,0.22786
1700499444523437,-9.740087,-2.608562,0.298164,0.690616,0.146097,0.21286
1700499444531250,-9.707087,-2.642562,0.266164,0.722716,0.161997,0.1214
1700499444539062,-9.659087,-2.744562,0.210164,0.743916,0.187097,0.9986
1700499444546875,-9.604087,-2.856562,0.187164,0.774316,0.203897,0.22886
1700499444554687,-9.529087,-2.910562,0.131164,0.792116,0.225697,0.27686
1700499444562500,-9.435087,-2.905562,0.54164,0.803316,0.259897,0.40586
1700499444570312,-9.374087,-2.905562,0.31836,0.816416,0.280397,0.46886
1700499444578125,-9.348087,-2.915562,0.103836,0.837016,0.305097,0.48586
1700499444585937,-9.325087,-2.918562,0.144836,0.867416,0.317397,0.51886
1700499444593750,-9.317087,-2.889562,0.232836,0.885216,0.337797,0.50286
1700499444601562,-9.243087,-2.841562,0.318836,0.893116,0.370697,0.45486
1700499444609375,-9.188087,-2.849562,0.390836,0.902516,0.373497,0.45586
1700499444617187,-9.200087,-2.792562,0.444836,0.916816,0.374897,0.40786
1700499444625000,-9.143087,-2.700562,0.397836,0.916716,0.387497,0.32786
1700499444632812,-9.70087,-2.656562,0.471836,0.919816,0.409497,0.24786
1700499444640625,-8.980087,-2.657562,0.586836,0.911716,0.423897,0.3886
1700499444648437,-8.975087,-2.647562,0.715836,0.902216,0.422797,0.10714
1700499444656250,-9.136087,-2.683562,0.747836,0.897016,0.400797,0.26614
1700499444664062,-9.389087,-2.833562,0.562836,0.888616,0.374297,0.50614
1700499444671875,-9.669087,-2.947562,0.487836,0.892316,0.370197,0.60414
1700499444679687,-9.839087,-3.10562,0.420836,0.890016,0.383697,0.63414
1700499444687500,-9.885087,-3.48562,0.438836,0.891716,0.410297,0.55414
1700499444695312,-9.772087,-3.21562,0.474836,0.889816,0.447497,0.48914
1700499444703125,-9.659087,-2.854562,0.523836,0.896516,0.464897,0.47414
1700499444710937,-9.549087,-2.608562,0.510836,0.893216,0.471197,0.52214
1700499444718750,-9.469087,-2.408562,0.498836,0.889816,0.452297,0.55414
1700499444726562,-9.446087,-2.149562,0.367836,0.891516,0.418397,0.79514
1700499444734375,-9.488087,-1.868562,0.130836,0.902916,0.401297,0.81114
1700499444742187,-9.533087,-1.670562,0.67836,0.901416,0.407797,0.86014
1700499444750000,-9.558087,-1.577562,0.38836,0.912216,0.415297,0.95514
1700499444757812,-9.666087,-1.520562,0.25164,0.936916,0.393797,0.92414
1700499444765625,-9.843087,-1.504562,0.165164,0.956016,0.385697,0.92314
1700499444773437,-10.16087,-1.619562,0.282164,0.967616,0.374897,0.84314
1700499444781250,-10.125087,-1.770562,0.372164,0.983716,0.381097,0.82714
1700499444789062,-10.207087,-1.935562,0.383164,-1.12516,0.372797,0.63414
1700499444796875,-10.339087,-2.68562,0.424164,-1.42016,0.371397,0.45814
1700499444804687,-10.490087,-2.128562,0.426164,-1.85716,0.369597,0.26514
1700499444812500,-10.620087,-2.119562,0.390164,-1.103916,0.391497,0.2186
1700499444820312,-10.584087,-2.68562,0.295164,-1.122616,0.418097,0.53386
1700499444828125,-10.454087,-2.119562,0.207164,-1.135616,0.440997,0.93486
1700499444835937,-10.304087,-2.92562,0.171164,-1.165116,0.451797,0.127086
1700499444843750,-10.156087,-2.11562,0.221164,-1.176416,0.459097,0.154486
1700499444851562,-10.81087,-1.908562,0.250164,-1.184416,0.476397,0.151186
1700499444859375,-10.2087,-1.789562,0.291164,-1.202216,0.468597,0.151186
1700499444867187,-9.943087,-1.814562,0.284164,-1.218516,0.487597,0.146286
1700499444875000,-9.862087,-1.815562,0.221164,-1.244116,0.503297,0.139886
1700499444882812,-9.845087,-1.890562,0.230164,-1.281516,0.512997,0.141386
1700499444890625,-9.819087,-2.40562,0.164164,-1.305216,0.529597,0.146386
1700499444898437,-9.778087,-2.170562,0.126164,-1.316716,0.540797,0.144686
1700499444906250,-9.715087,-2.276562,0.49164,-1.337316,0.568497,0.154486
1700499444914062,-9.586087,-2.373562,0.128836,-1.335516,0.608897,0.162486
1700499444921875,-9.444087,-2.384562,0.288836,-1.340516,0.595097,0.157686
1700499444929687,-9.430087,-2.379562,0.230836,-1.349616,0.564897,0.145086
1700499444937500,-9.528087,-2.350562,0.139836,-1.373916,0.562297,0.124086
1700499444945312,-9.567087,-2.312562,0.164836,-1.367516,0.570297,0.119286
1700499444953125,-9.502087,-2.285562,0.234836,-1.356416,0.575397,0.111086
1700499444960937,-9.543087,-2.221562,0.153836,-1.380416,0.553397,0.98386
1700499444968750,-9.681087,-2.124562,0.54836,-1.404316,0.556497,0.88786
1700499444976562,-9.729087,-2.71562,0.72836,-1.407816,0.586497,0.91886
1700499444984375,-9.680087,-2.35562,0.78836,-1.423816,0.595797,0.91986
1700499444992187,-9.704087,-1.960562,0.2164,-1.455816,0.584497,0.98486
1700499445000000,-9.777087,-1.852562,0.31164,-1.489916,0.595497,0.108086
1700499445007812,-9.873087,-1.756562,0.43164,-1.510916,0.595697,0.99986
1700499445015625,-9.945087,-1.726562,0.79164,-1.520716,0.575297,0.106386
1700499445023437,-10.36087,-1.729562,0.248164,-1.567916,0.558397,0.112686
1700499445031250,-10.49087,-1.779562,0.331164,-1.590316,0.580097,0.117586
1700499445039062,-10.31087,-1.872562,0.320164,-1.619616,0.603697,0.123886
1700499445046875,-9.982087,-1.917562,0.255164,-1.651716,0.616197,0.122386
1700499445054687,-9.973087,-1.898562,0.228164,-1.680716,0.633197,0.135186
1700499445062500,-9.951087,-1.930562,0.124164,-1.694616,0.668397,0.144986
1700499445070312,-9.839087,-1.909562,0.51836,-1.714216,0.691997,0.154586
1700499445078125,-9.815087,-1.863562,0.137836,-1.720816,0.704697,0.149686
1700499445085937,-9.799087,-1.892562,0.128836,-1.728716,0.698297,0.154586
1700499445093750,-9.761087,-1.991562,0.110836,-1.753416,0.701797,0.164086
1700499445101562,-9.751087,-2.112562,0.54836,-1.767616,0.696697,0.162586
1700499445109375,-9.623087,-2.116562,0.117836,-1.774116,0.707697,0.164186
1700499445117187,-9.511087,-2.49562,0.85836,-1.767416,0.693397,0.165886
1700499445125000,-9.427087,-1.953562,0.108164,-1.773816,0.682497,0.162686
1700499445132812,-9.376087,-1.872562,0.176164,-1.780416,0.690797,0.144886
1700499445140625,-9.244087,-1.775562,0.156164,-1.770216,0.690597,0.120986
1700499445148437,-9.218087,-1.707562,0.111164,-1.779416,0.684397,0.98586
1700499445156250,-9.300087,-1.760562,0.95164,-1.776216,0.669197,0.71286
1700499445164062,-9.400087,-1.947562,0.169164,-1.802016,0.657097,0.48786
1700499445171875,-9.482087,-2.154562,0.214164,-1.806716,0.647797,0.37586
1700499445179687,-9.480087,-2.277562,0.178164,-1.809716,0.660497,0.15086
1700499445187500,-9.560087,-2.494562,0.36164,-1.818716,0.680597,0.4014
1700499445195312,-9.684087,-2.975562,0.142836,-1.819016,0.698297,0.13714
1700499445203125,-9.679087,-3.473562,0.216836,-1.818716,0.740297,0.10514
1700499445210937,-9.643087,-3.696562,0.560836,-1.811616,0.791297,0.11914
1700499445218750,-9.637087,-3.940562,0.684836,-1.779616,0.789597,0.10486
1700499445226562,-9.540087,-4.105562,0.648836,-1.739716,0.784797,0.34486
1700499445234375,-9.488087,-4.74562,0.794836,-1.715916,0.789697,0.43986
1700499445242187,-9.494087,-4.86562,0.914836,-1.660516,0.795297,0.47386
1700499445250000,-9.504087,-4.91562,0.980836,-1.617516,0.808297,0.48786
1700499445257812,-9.579087,-4.33562,1.79836,-1.576616,0.837297,0.58586
1700499445265625,-9.601087,-3.991562,1.285836,-1.532516,0.871097,0.66786
1700499445273437,-9.552087,-4.73562,1.465836,-1.488116,0.887097,0.89086
1700499445281250,-9.356087,-4.160562,1.517836,-1.431616,0.905297,0.113186
1700499445289062,-9.92087,-4.89562,1.537836,-1.394816,0.919097,0.141986
1700499445296875,-8.836087,-3.867562,1.548836,-1.354316,0.943797,0.153286
1700499445304687,-8.564087,-3.483562,1.512836,-1.314316,0.936097,0.161286
1700499445312500,-8.368087,-3.162562,1.491836,-1.296316,0.909197,0.164586
1700499445320312,-8.280087,-2.873562,1.494836,-1.275916,0.873597,0.169186
1700499445328125,-8.132087,-2.563562,1.417836,-1.292416,0.828597,0.161086
1700499445335937,-8.90087,-2.369562,1.279836,-1.307116,0.764797,0.153086
1700499445343750,-8.135087,-2.258562,1.236836,-1.336216,0.719597,0.143486
1700499445351562,-8.239087,-2.188562,1.87836,-1.371616,0.691597,0.128986
1700499445359375,-8.340087,-2.164562,1.8836,-1.383016,0.666797,0.120986
1700499445367187,-8.504087,-2.290562,0.945836,-1.407416,0.632697,0.112886
1700499445375000,-8.657087,-2.448562,0.859836,-1.434516,0.624697,0.106586
1700499445382812,-8.709087,-2.582562,0.805836,-1.488416,0.637997,0.98286
1700499445390625,-8.719087,-2.713562,0.776836,-1.544616,0.628697,0.88786
1700499445398437,-8.785087,-2.923562,0.742836,-1.612316,0.605297,0.79186
1700499445406250,-8.912087,-3.111562,0.584836,-1.654216,0.582197,0.63086
1700499445414062,-9.81087,-3.298562,0.390836,-1.708016,0.556197,0.53286
1700499445421875,-9.268087,-3.463562,0.297836,-1.752216,0.564897,0.45586
1700499445429687,-9.414087,-3.655562,0.243836,-1.791416,0.569897,0.58286
1700499445437500,-9.581087,-3.912562,0.121836,-1.833516,0.575897,0.82286
1700499445445312,-9.726087,-4.49562,0.81836,-1.849716,0.603997,0.91986
1700499445453125,-9.789087,-4.160562,0.142836,-1.853116,0.648997,0.122386
1700499445460937,-9.755087,-4.266562,0.302836,-1.852916,0.695097,0.161086
1700499445468750,-9.682087,-4.325562,0.476836,-1.845416,0.727997,0.189786
1700499445476562,-9.585087,-4.347562,0.627836,-1.832616,0.752897,0.202586
1700499445484375,-9.456087,-4.334562,0.774836,-1.822816,0.744697,0.213886
1700499445492187,-9.329087,-4.341562,0.846836,-1.814616,0.732097,0.217186
1700499445500000,-9.226087,-4.297562,0.858836,-1.774516,0.699597,0.199386
1700499445507812,-9.109087,-4.236562,0.862836,-1.759716,0.671297,0.189886
1700499445515625,-8.993087,-4.204562,0.862836,-1.725616,0.662097,0.172286
1700499445523437,-8.950087,-4.182562,0.884836,-1.695216,0.642197,0.156086
1700499445531250,-8.993087,-4.215562,0.891836,-1.651316,0.621697,0.143386
1700499445539062,-9.12087,-4.376562,0.885836,-1.619016,0.615597,0.132086
1700499445546875,-8.929087,-4.512562,0.884836,-1.583716,0.615697,0.128886
1700499445554687,-8.807087,-4.578562,0.948836,-1.532016,0.642097,0.138486
1700499445562500,-8.749087,-4.574562,1.36836,-1.494916,0.649797,0.140086
1700499445570312,-8.735087,-4.570562,1.56836,-1.446916,0.649897,0.154486
1700499445578125,-8.681087,-4.523562,1.56836,-1.411016,0.638497,0.160986
1700499445585937,-8.687087,-4.394562,1.11836,-1.409616,0.619697,0.165786
1700499445593750,-8.709087,-4.205562,1.49836,-1.407016,0.628097,0.171986
1700499445601562,-8.795087,-3.966562,1.135836,-1.416216,0.611897,0.173786
1700499445609375,-8.889087,-3.769562,1.94836,-1.434316,0.593297,0.183386
1700499445617187,-8.859087,-3.719562,1.97836,-1.461816,0.590097,0.194586
1700499445625000,-8.823087,-3.634562,1.169836,-1.482616,0.581997,0.197886
1700499445632812,-8.872087,-3.559562,1.187836,-1.501216,0.559197,0.205686
1700499445640625,-8.996087,-3.569562,1.196836,-1.512216,0.543397,0.200886
1700499445648437,-9.38087,-3.586562,1.246836,-1.513916,0.529397,0.199286
1700499445656250,-9.5087,-3.657562,1.210836,-1.512516,0.516997,0.202486
1700499445664062,-8.901087,-3.758562,1.246836,-1.528816,0.518697,0.203986
1700499445671875,-8.806087,-3.808562,1.268836,-1.541716,0.512597,0.197586
1700499445679687,-8.794087,-3.845562,1.268836,-1.541816,0.503497,0.184686
1700499445687500,-8.812087,-3.854562,1.277836,-1.536816,0.494097,0.176686
1700499445695312,-8.818087,-3.883562,1.234836,-1.549616,0.479897,0.173586
1700499445703125,-8.816087,-3.906562,1.131836,-1.573516,0.459297,0.175286
1700499445710937,-8.862087,-3.953562,0.966836,-1.580516,0.440897,0.179986
1700499445718750,-8.882087,-3.951562,0.855836,-1.593316,0.451697,0.191186
1700499445726562,-8.893087,-3.958562,0.729836,-1.596816,0.453097,0.213686
1700499445734375,-8.915087,-3.981562,0.616836,-1.598816,0.498097,0.255286
1700499445742187,-8.828087,-3.943562,0.728836,-1.599016,0.528897,0.292186
1700499445750000,-8.751087,-3.878562,0.807836,-1.599416,0.542597,0.335486
1700499445757812,-8.828087,-3.801562,0.923836,-1.592016,0.545697,0.370586
1700499445765625,-8.871087,-3.742562,1.24836,-1.567316,0.546297,0.398186
1700499445773437,-8.899087,-3.698562,1.273836,-1.545716,0.540697,0.409086
1700499445781250,-8.902087,-3.679562,1.424836,-1.527616,0.521597,0.407586
1700499445789062,-8.909087,-3.654562,1.487836,-1.511816,0.484697,0.388186
1700499445796875,-8.902087,-3.640562,1.494836,-1.478016,0.438197,0.367286
1700499445804687,-8.931087,-3.723562,1.463836,-1.438916,0.395897,0.341786
1700499445812500,-8.951087,-3.844562,1.343836,-1.408216,0.358597,0.320886
1700499445820312,-8.930087,-3.977562,1.207836,-1.361216,0.321097,0.300086
1700499445828125,-8.923087,-4.108562,1.135836,-1.319416,0.302497,0.295286
1700499445835937,-8.899087,-4.190562,1.79836,-1.269416,0.294797,0.287186
1700499445843750,-8.926087,-4.187562,1.47836,-1.222516,0.293197,0.279186
1700499445851562,-8.929087,-4.110562,1.38836,-1.187016,0.299497,0.275986
1700499445859375,-8.953087,-4.59562,0.991836,-1.154516,0.296097,0.277686
1700499445867187,-8.974087,-3.997562,0.936836,-1.119016,0.289697,0.287286
1700499445875000,-9.88087,-3.871562,0.973836,-1.101416,0.264797,0.282486
1700499445882812,-9.188087,-3.743562,0.941836,-1.87316,0.246397,0.280786
1700499445890625,-9.236087,-3.663562,0.946836,-1.93616,0.235297,0.279186
1700499445898437,-9.404087,-3.613562,1.45836,-1.118216,0.234197,0.275886
1700499445906250,-9.529087,-3.408562,1.172836,-1.140316,0.238897,0.253486
1700499445914062,-9.554087,-3.206562,1.174836,-1.162716,0.245197,0.245486
1700499445921875,-9.511087,-3.152562,1.178836,-1.176816,0.260397,0.244086
1700499445929687,-9.494087,-3.68562,1.404836,-1.201116,0.276397,0.235986
1700499445937500,-9.448087,-2.919562,1.564836,-1.208616,0.282297,0.224886
1700499445945312,-9.313087,-2.768562,1.605836,-1.202116,0.274697,0.211986
1700499445953125,-9.126087,-2.689562,1.544836,-1.221316,0.273297,0.197586
1700499445960937,-8.930087,-2.630562,1.591836,-1.227616,0.279897,0.171886
1700499445968750,-8.721087,-2.610562,1.577836,-1.213216,0.281597,0.163786
1700499445976562,-8.629087,-2.554562,1.535836,-1.201516,0.276897,0.141486
1700499445984375,-8.620087,-2.537562,1.501836,-1.177016,0.277197,0.115786
1700499445992187,-8.776087,-2.599562,1.537836,-1.162116,0.274097,0.90186
1700499446000000,-9.74087,-2.716562,1.524836,-1.153816,0.269697,0.59686
1700499446007812,-9.445087,-2.918562,1.501836,-1.132816,0.271397,0.46886
1700499446015625,-9.810087,-3.25562,1.517836,-1.124716,0.271597,0.38786
1700499446023437,-10.121087,-3.87562,1.396836,-1.117916,0.271297,0.35686
1700499446031250,-10.293087,-3.54562,1.285836,-1.117916,0.286897,0.37286
1700499446039062,-10.259087,-2.977562,1.174836,-1.120816,0.312897,0.51886
1700499446046875,-10.59087,-2.818562,1.140836,-1.109916,0.347497,0.66186
1700499446054687,-9.856087,-2.617562,1.167836,-1.97016,0.369197,0.77486
1700499446062500,-9.755087,-2.432562,1.178836,-1.76616,0.375597,0.98186
1700499446070312,-9.850087,-2.362562,1.79836,-1.46216,0.350597,0.112586
1700499446078125,-10.69087,-2.320562,1.50836,-1.33316,0.339297,0.131886
1700499446085937,-10.275087,-2.317562,0.921836,-1.18916,0.320097,0.152786
1700499446093750,-10.417087,-2.308562,0.833836,-1.4616,0.315297,0.168786
1700499446101562,-10.512087,-2.227562,0.856836,0.996516,0.329097,0.186486
1700499446109375,-10.567087,-2.23562,0.833836,-1.10316,0.332897,0.194186
1700499446117187,-10.628087,-1.774562,0.883836,-1.21116,0.341797,0.200786
1700499446125000,-10.625087,-1.554562,0.980836,-1.37316,0.354097,0.215186
1700499446132812,-10.617087,-1.506562,1.25836,-1.58416,0.364997,0.231286
1700499446140625,-10.540087,-1.512562,1.61836,-1.90816,0.372597,0.245686
1700499446148437,-10.367087,-1.493562,0.957836,-1.120516,0.382297,0.266386
1700499446156250,-10.87087,-1.421562,0.824836,-1.137916,0.408297,0.280986
1700499446164062,-9.846087,-1.221562,0.824836,-1.163516,0.428497,0.287386
1700499446171875,-9.736087,-1.88562,0.758836,-1.207216,0.417797,0.276186
1700499446179687,-9.682087,-1.95562,0.586836,-1.270116,0.396097,0.271286
1700499446187500,-9.628087,-1.145562,0.483836,-1.339316,0.414897,0.261686
1700499446195312,-9.555087,-1.197562,0.376836,-1.407116,0.421297,0.260086
1700499446203125,-9.533087,-1.281562,0.390836,-1.444216,0.437197,0.252086
1700499446210937,-9.452087,-1.293562,0.374836,-1.494316,0.445097,0.253586
1700499446218750,-9.426087,-1.325562,0.245836,-1.564916,0.443397,0.244086
1700499446226562,-9.417087,-1.456562,0.182836,-1.627716,0.465397,0.239286
1700499446234375,-9.373087,-1.617562,0.306836,-1.679216,0.510997,0.226386
1700499446242187,-9.284087,-1.742562,0.500836,-1.714716,0.539197,0.226386
1700499446250000,-9.195087,-1.903562,0.609836,-1.748316,0.560997,0.223286
1700499446257812,-9.165087,-2.58562,0.679836,-1.769216,0.570397,0.220086
1700499446265625,-9.228087,-2.181562,0.783836,-1.790416,0.565897,0.216786
1700499446273437,-9.361087,-2.297562,0.860836,-1.798316,0.548497,0.220086
1700499446281250,-9.418087,-2.398562,0.912836,-1.796716,0.540897,0.211986
1700499446289062,-9.464087,-2.578562,0.833836,-1.800016,0.509897,0.197586
1700499446296875,-9.522087,-2.739562,0.751836,-1.798416,0.498997,0.192686
1700499446304687,-9.512087,-2.850562,0.794836,-1.795016,0.509797,0.191186
1700499446312500,-9.415087,-2.876562,0.806836,-1.754716,0.514497,0.187986
1700499446320312,-9.344087,-2.812562,0.715836,-1.719616,0.503997,0.184586
1700499446328125,-9.332087,-2.679562,0.647836,-1.690416,0.491397,0.176586
1700499446335937,-9.252087,-2.553562,0.613836,-1.648016,0.461497,0.159086
1700499446343750,-9.275087,-2.531562,0.501836,-1.659516,0.422697,0.154286
1700499446351562,-9.370087,-2.577562,0.487836,-1.648416,0.408897,0.147786
1700499446359375,-9.353087,-2.545562,0.505836,-1.617816,0.393097,0.149386
1700499446367187,-9.358087,-2.474562,0.428836,-1.596716,0.371297,0.142986
1700499446375000,-9.378087,-2.340562,0.485836,-1.593716,0.366897,0.131686
1700499446382812,-9.509087,-2.331562,0.568836,-1.577116,0.358497,0.136686
1700499446390625,-9.609087,-2.445562,0.625836,-1.537516,0.355997,0.142886
1700499446398437,-9.651087,-2.547562,0.650836,-1.516216,0.342997,0.150986
1700499446406250,-9.645087,-2.617562,0.571836,-1.481216,0.322997,0.150886
1700499446414062,-9.578087,-2.614562,0.507836,-1.443916,0.338597,0.149286
1700499446421875,-9.401087,-2.610562,0.494836,-1.414816,0.346297,0.144486
1700499446429687,-9.314087,-2.567562,0.471836,-1.393816,0.338597,0.138086
1700499446437500,-9.321087,-2.554562,0.460836,-1.382316,0.338597,0.125286
1700499446445312,-9.351087,-2.516562,0.521836,-1.361016,0.338097,0.136586
1700499446453125,-9.423087,-2.524562,0.684836,-1.316016,0.348997,0.147786
1700499446460937,-9.525087,-2.584562,0.733836,-1.301716,0.328697,0.154186
1700499446468750,-9.671087,-2.553562,0.684836,-1.281016,0.327197,0.162186
1700499446476562,-9.827087,-2.391562,0.702836,-1.256616,0.358397,0.158986
1700499446484375,-9.881087,-2.408562,0.874836,-1.233616,0.389497,0.149386
1700499446492187,-9.860087,-2.616562,0.926836,-1.228616,0.415997,0.144586
1700499446500000,-9.847087,-2.763562,1.106836,-1.232716,0.474997,0.138386
1700499446507812,-9.858087,-2.864562,1.429836,-1.226416,0.520697,0.128686
1700499446515625,-9.855087,-2.912562,1.639836,-1.205416,0.529997,0.128686
1700499446523437,-9.854087,-3.19562,1.721836,-1.186116,0.526797,0.138286
1700499446531250,-9.782087,-3.247562,1.693836,-1.169816,0.522897,0.167286
1700499446539062,-9.629087,-3.417562,1.628836,-1.155616,0.533797,0.189686
1700499446546875,-9.356087,-3.401562,1.634836,-1.128116,0.546197,0.189686
1700499446554687,-9.92087,-3.268562,1.666836,-1.107216,0.538397,0.191286
1700499446562500,-8.995087,-3.139562,1.530836,-1.100816,0.519697,0.189686
1700499446570312,-8.882087,-3.43562,1.307836,-1.58716,0.517997,0.184886
1700499446578125,-8.734087,-2.913562,1.279836,-1.19616,0.536597,0.175386
1700499446585937,-8.681087,-2.829562,1.297836,0.997016,0.543197,0.152886
1700499446593750,-8.818087,-2.838562,1.255836,0.969316,0.515397,0.120786
1700499446601562,-9.44087,-3.15562,1.142836,0.943016,0.482297,0.98486
1700499446609375,-9.261087,-3.204562,1.22836,0.920216,0.474697,0.77686
1700499446617187,-9.450087,-3.283562,1.54836,0.913516,0.492197,0.51986
1700499446625000,-9.454087,-3.287562,1.142836,0.900016,0.507997,0.13586
1700499446632812,-9.408087,-3.363562,1.167836,0.891516,0.514297,0.13614
1700499446640625,-9.296087,-3.387562,1.88836,0.891216,0.517397,0.31214
1700499446648437,-9.238087,-3.467562,1.836,0.886516,0.497697,0.57014
1700499446656250,-9.202087,-3.465562,1.18836,0.886716,0.482297,0.63514
1700499446664062,-9.188087,-3.362562,0.891836,0.891516,0.441697,0.69914
1700499446671875,-9.292087,-3.336562,0.672836,0.907816,0.400997,0.66614
1700499446679687,-9.443087,-3.247562,0.580836,0.940416,0.394897,0.52314
1700499446687500,-9.568087,-3.205562,0.523836,0.963616,0.404597,0.38014
1700499446695312,-9.656087,-3.228562,0.411836,0.973116,0.394797,0.18714
1700499446703125,-9.655087,-3.303562,0.325836,0.979716,0.407297,0.7514
1700499446710937,-9.607087,-3.421562,0.329836,0.985116,0.424497,0.21286
1700499446718750,-9.540087,-3.482562,0.401836,0.976716,0.453697,0.30986
1700499446726562,-9.353087,-3.463562,0.474836,0.965216,0.472097,0.42286
1700499446734375,-9.165087,-3.417562,0.573836,0.955716,0.484797,0.40686
1700499446742187,-9.25087,-3.425562,0.613836,0.945616,0.471697,0.45586
1700499446750000,-8.972087,-3.455562,0.631836,0.921916,0.464497,0.40586
1700499446757812,-9.28087,-3.484562,0.620836,0.892716,0.450197,0.42286
1700499446765625,-9.128087,-3.466562,0.627836,0.855816,0.436397,0.35786
1700499446773437,-9.198087,-3.439562,0.677836,0.836416,0.412997,0.24586
1700499446781250,-9.225087,-3.437562,0.629836,0.817016,0.392497,0.32686
1700499446789062,-9.208087,-3.390562,0.607836,0.812616,0.376897,0.48586
1700499446796875,-9.71087,-3.311562,0.679836,0.836816,0.362797,0.48586
1700499446804687,-9.70087,-3.341562,0.629836,0.860016,0.328697,0.62986
1700499446812500,-9.111087,-3.319562,0.595836,0.884316,0.317397,0.85486
1700499446820312,-9.151087,-3.354562,0.505836,0.893716,0.345397,0.88686
1700499446828125,-9.94087,-3.390562,0.636836,0.906816,0.387397,0.112686
1700499446835937,-9.117087,-3.412562,0.857836,0.917916,0.402797,0.122386
1700499446843750,-9.133087,-3.412562,1.18836,0.917916,0.424197,0.143386
1700499446851562,-9.138087,-3.386562,1.97836,0.890416,0.427297,0.140186
1700499446859375,-9.169087,-3.340562,1.144836,0.874516,0.418497,0.122386
1700499446867187,-9.293087,-3.299562,1.183836,0.849916,0.416697,0.111286
1700499446875000,-9.426087,-3.270562,1.196836,0.840316,0.385797,0.93586
1700499446882812,-9.483087,-3.264562,1.99836,0.842216,0.368997,0.83786
1700499446890625,-9.408087,-3.259562,0.970836,0.841916,0.353097,0.82286
1700499446898437,-9.244087,-3.266562,0.812836,0.859916,0.362797,0.80586
1700499446906250,-9.114087,-3.295562,0.702836,0.859416,0.371697,0.79186
1700499446914062,-9.58087,-3.388562,0.692836,0.853516,0.359697,0.77386
1700499446921875,-9.54087,-3.474562,0.643836,0.865116,0.344097,0.90186
1700499446929687,-9.44087,-3.570562,0.620836,0.863416,0.345397,0.99886
1700499446937500,-9.59087,-3.659562,0.571836,0.876216,0.340397,0.111186
1700499446945312,-9.105087,-3.704562,0.557836,0.889716,0.348397,0.138286
1700499446953125,-8.970087,-3.730562,0.701836,0.889916,0.373197,0.162286
1700499446960937,-8.766087,-3.634562,0.846836,0.873616,0.364897,0.175286
1700499446968750,-8.733087,-3.494562,0.918836,0.862316,0.334997,0.186586
1700499446976562,-8.759087,-3.353562,0.868836,0.833816,0.296297,0.186386
1700499446984375,-8.853087,-3.358562,0.835836,0.805016,0.271597,0.175086
1700499446992187,-8.921087,-3.414562,0.819836,0.780916,0.265397,0.178286
1700499447000000,-8.942087,-3.521562,0.792836,0.763116,0.244997,0.176686
1700499447007812,-8.954087,-3.602562,0.742836,0.766416,0.240397,0.173486
1700499447015625,-8.945087,-3.622562,0.713836,0.765216,0.223497,0.178186
1700499447023437,-8.957087,-3.571562,0.724836,0.763416,0.215497,0.179886
1700499447031250,-8.977087,-3.466562,0.654836,0.759916,0.208697,0.192786
1700499447039062,-8.981087,-3.350562,0.636836,0.781316,0.207397,0.203886
1700499447046875,-9.17087,-3.298562,0.670836,0.791316,0.201297,0.207086
1700499447054687,-9.106087,-3.278562,0.785836,0.801516,0.201497,0.221386
1700499447062500,-9.213087,-3.257562,0.982836,0.806116,0.201197,0.229486
1700499447070312,-9.400087,-3.272562,1.120836,0.830616,0.182597,0.230986
1700499447078125,-9.642087,-3.293562,1.86836,0.856316,0.152997,0.226186
1700499447085937,-9.753087,-3.265562,1.99836,0.898216,0.167097,0.223086
1700499447093750,-9.773087,-3.135562,1.199836,0.931616,0.182497,0.216786
1700499447101562,-9.716087,-3.29562,1.199836,0.953016,0.175097,0.210186
1700499447109375,-9.572087,-3.67562,1.172836,0.973716,0.170297,0.203786
1700499447117187,-9.499087,-3.145562,1.90836,0.968816,0.176697,0.194186
1700499447125000,-9.398087,-3.263562,1.115836,0.961016,0.195797,0.190886
1700499447132812,-9.299087,-3.506562,1.70836,0.931416,0.201697,0.181386
1700499447140625,-9.158087,-3.745562,1.47836,0.895716,0.214197,0.168586
1700499447148437,-8.997087,-3.891562,1.45836,0.896016,0.222297,0.174886
1700499447156250,-8.961087,-3.885562,1.2836,0.860416,0.211197,0.170086
1700499447164062,-8.998087,-3.810562,0.914836,0.841016,0.178297,0.166986
1700499447171875,-9.66087,-3.687562,0.864836,0.816716,0.173297,0.175086
1700499447179687,-9.76087,-3.574562,0.860836,0.802216,0.171797,0.173386
1700499447187500,-9.75087,-3.481562,0.903836,0.805616,0.181297,0.174986
1700499447195312,-9.55087,-3.376562,0.959836,0.806116,0.184897,0.174786
1700499447203125,-9.44087,-3.305562,1.18836,0.800616,0.179697,0.171786
1700499447210937,-9.60087,-3.231562,1.67836,0.809116,0.162897,0.168486
1700499447218750,-9.31087,-3.152562,1.99836,0.809016,0.161197,0.171686
1700499447226562,-9.26087,-3.130562,1.203836,0.829816,0.186197,0.170186
1700499447234375,-9.22087,-3.143562,1.300836,0.847416,0.196997,0.173386
1700499447242187,-9.85087,-3.149562,1.413836,0.858816,0.183197,0.160486
1700499447250000,-9.203087,-3.66562,1.508836,0.869716,0.148897,0.134986
1700499447257812,-9.267087,-2.913562,1.476836,0.886316,0.124397,0.126786
1700499447265625,-9.246087,-2.856562,1.408836,0.902416,0.104297,0.109086
1700499447273437,-9.189087,-2.846562,1.390836,0.923316,0.106097,0.96286
1700499447281250,-9.89087,-2.835562,1.390836,0.934116,0.99797,0.73886
1700499447289062,-9.46087,-2.709562,1.426836,0.948416,0.103197,0.51486
1700499447296875,-9.60087,-2.559562,1.460836,0.959216,0.103097,0.27486
1700499447304687,-9.79087,-2.445562,1.322836,0.970616,0.95897,0.3114
1700499447312500,-9.162087,-2.439562,1.194836,0.981416,0.111397,0.17414
1700499447320312,-9.309087,-2.501562,1.160836,0.990916,0.142697,0.22214
1700499447328125,-9.650087,-2.582562,1.185836,0.994116,0.158497,0.35114
1700499447335937,-10.44087,-2.673562,1.170836,-1.14116,0.178197,0.49214
1700499447343750,-10.363087,-2.725562,1.68836,-1.35316,0.204897,0.41314
1700499447351562,-10.525087,-2.761562,0.973836,-1.59916,0.247397,0.22214
1700499447359375,-10.540087,-2.697562,1.16836,-1.88816,0.310597,0.19586
1700499447367187,-10.386087,-2.620562,1.41836,-1.121316,0.372697,0.67686
1700499447375000,-10.139087,-2.522562,1.86836,-1.124516,0.428597,0.93486
1700499447382812,-9.947087,-2.325562,1.151836,-1.136016,0.456597,0.114286
1700499447390625,-9.847087,-2.177562,1.99836,-1.151816,0.473197,0.130386
1700499447398437,-9.848087,-2.38562,1.79836,-1.151716,0.477597,0.141686
1700499447406250,-9.857087,-1.933562,1.25836,-1.161816,0.480997,0.151186
1700499447414062,-9.876087,-1.893562,0.980836,-1.155216,0.488797,0.148086
1700499447421875,-9.939087,-1.843562,0.984836,-1.156816,0.496597,0.149686
1700499447429687,-10.31087,-1.842562,0.998836,-1.148816,0.490297,0.149686
1700499447437500,-10.118087,-1.881562,1.45836,-1.161716,0.494797,0.164086
1700499447445312,-10.221087,-1.879562,1.122836,-1.180016,0.480897,0.178386
1700499447453125,-10.291087,-1.838562,1.149836,-1.181516,0.486897,0.189686
1700499447460937,-10.231087,-1.815562,1.183836,-1.188316,0.499397,0.212086
1700499447468750,-10.105087,-1.784562,1.149836,-1.194516,0.492597,0.229886
1700499447476562,-10.14087,-1.778562,1.34836,-1.208416,0.477597,0.240786
1700499447484375,-9.908087,-1.716562,0.910836,-1.224316,0.471097,0.242486
1700499447492187,-9.812087,-1.659562,0.763836,-1.246916,0.472697,0.245686
1700499447500000,-9.752087,-1.654562,0.679836,-1.267816,0.472797,0.239286
1700499447507812,-9.708087,-1.694562,0.580836,-1.295416,0.468097,0.245686
1700499447515625,-9.717087,-1.752562,0.501836,-1.317516,0.475597,0.241086
1700499447523437,-9.723087,-1.747562,0.460836,-1.354716,0.475997,0.226486
1700499447531250,-9.707087,-1.747562,0.406836,-1.388716,0.493497,0.219986
1700499447539062,-9.695087,-1.852562,0.433836,-1.419016,0.516697,0.218586
1700499447546875,-9.629087,-1.883562,0.559836,-1.452916,0.526097,0.218486
1700499447554687,-9.532087,-1.970562,0.571836,-1.473616,0.528997,0.221786
1700499447562500,-9.474087,-2.74562,0.623836,-1.498216,0.526297,0.215286
1700499447570312,-9.469087,-2.119562,0.652836,-1.512516,0.521497,0.212086
1700499447578125,-9.452087,-2.251562,0.706836,-1.517316,0.523197,0.204086
1700499447585937,-9.449087,-2.370562,0.846836,-1.515916,0.526697,0.192786
1700499447593750,-9.441087,-2.495562,0.952836,-1.517316,0.517197,0.189586
1700499447601562,-9.434087,-2.557562,0.939836,-1.533216,0.507697,0.184886
1700499447609375,-9.458087,-2.561562,0.998836,-1.534816,0.509497,0.175186
1700499447617187,-9.473087,-2.607562,1.45836,-1.514016,0.498497,0.178386
1700499447625000,-9.486087,-2.634562,0.995836,-1.504316,0.495397,0.176786
1700499447632812,-9.471087,-2.609562,0.898836,-1.485016,0.504897,0.170386
1700499447640625,-9.463087,-2.573562,0.851836,-1.473116,0.515397,0.167286
1700499447648437,-9.459087,-2.519562,0.943836,-1.456916,0.545197,0.159286
1700499447656250,-9.443087,-2.411562,0.952836,-1.446916,0.548197,0.152886
1700499447664062,-9.506087,-2.282562,0.914836,-1.438616,0.557497,0.143386
1700499447671875,-9.564087,-2.180562,0.966836,-1.428616,0.566597,0.141786
1700499447679687,-9.613087,-2.110562,0.919836,-1.438716,0.560597,0.151386
1700499447687500,-9.690087,-2.55562,0.833836,-1.443716,0.556097,0.149686
1700499447695312,-9.734087,-2.13562,0.788836,-1.461316,0.568297,0.159386
1700499447703125,-9.754087,-1.997562,0.833836,-1.458416,0.569997,0.172086
1700499447710937,-9.736087,-2.16562,0.835836,-1.476016,0.566397,0.189886
1700499447718750,-9.712087,-2.95562,0.817836,-1.491116,0.554297,0.197786
1700499447726562,-9.697087,-2.175562,0.885836,-1.500816,0.552697,0.199386
1700499447734375,-9.656087,-2.199562,0.907836,-1.490116,0.548497,0.202386
1700499447742187,-9.576087,-2.246562,0.846836,-1.471916,0.539897,0.216986
1700499447750000,-9.549087,-2.305562,0.765836,-1.469216,0.529297,0.226486
1700499447757812,-9.507087,-2.291562,0.666836,-1.459316,0.516597,0.221786
1700499447765625,-9.441087,-2.259562,0.656836,-1.441416,0.529097,0.218586
1700499447773437,-9.385087,-2.217562,0.681836,-1.415716,0.530797,0.213686
1700499447781250,-9.342087,-2.290562,0.663836,-1.408616,0.516297,0.202686
1700499447789062,-9.264087,-2.405562,0.647836,-1.384416,0.519597,0.191386
1700499447796875,-9.226087,-2.431562,0.613836,-1.379216,0.508697,0.170686
1700499447804687,-9.205087,-2.439562,0.616836,-1.361616,0.502797,0.151286
1700499447812500,-9.198087,-2.419562,0.609836,-1.353616,0.489097,0.133586
1700499447820312,-9.202087,-2.407562,0.659836,-1.333616,0.487297,0.119286
1700499447828125,-9.184087,-2.349562,0.738836,-1.330616,0.493997,0.104786
1700499447835937,-9.199087,-2.258562,0.817836,-1.335216,0.483097,0.91986
1700499447843750,-9.213087,-2.196562,0.828836,-1.348116,0.476797,0.87186
1700499447851562,-9.252087,-2.148562,0.801836,-1.342016,0.472497,0.87086
1700499447859375,-9.333087,-2.114562,0.851836,-1.352816,0.487697,0.82386
1700499447867187,-9.366087,-2.131562,0.957836,-1.359716,0.495997,0.82286
1700499447875000,-9.343087,-2.221562,0.964836,-1.353916,0.503197,0.71286
1700499447882812,-9.341087,-2.340562,1.15836,-1.362316,0.512797,0.72786
1700499447890625,-9.363087,-2.469562,1.40836,-1.365716,0.509997,0.64686
1700499447898437,-9.408087,-2.646562,1.29836,-1.355816,0.508297,0.64786
1700499447906250,-9.419087,-2.785562,1.63836,-1.338516,0.505197,0.80686
1700499447914062,-9.498087,-2.937562,1.36836,-1.319016,0.489297,0.90386
1700499447921875,-9.566087,-3.562,0.989836,-1.297016,0.481597,0.109486
1700499447929687,-9.695087,-2.928562,1.99836,-1.270916,0.490397,0.125686
1700499447937500,-9.731087,-2.916562,1.181836,-1.239016,0.490397,0.143286
1700499447945312,-9.700087,-2.863562,1.210836,-1.200516,0.496397,0.168886
1700499447953125,-9.625087,-2.835562,1.262836,-1.190916,0.508797,0.176886
1700499447960937,-9.505087,-2.863562,1.255836,-1.174916,0.507397,0.178486
1700499447968750,-9.441087,-2.856562,1.296836,-1.163316,0.514797,0.181786
1700499447976562,-9.428087,-2.886562,1.302836,-1.158216,0.527097,0.180286
1700499447984375,-9.324087,-2.805562,1.463836,-1.150016,0.554897,0.189986
1700499447992187,-9.312087,-2.744562,1.594836,-1.144216,0.552497,0.189686
1700499448000000,-9.405087,-2.737562,1.612836,-1.124616,0.549197,0.184986
1700499448007812,-9.566087,-2.692562,1.666836,-1.111916,0.547697,0.191286
1700499448015625,-9.690087,-2.690562,1.601836,-1.103816,0.547497,0.200986
1700499448023437,-9.744087,-2.816562,1.628836,-1.100416,0.556697,0.204286
1700499448031250,-9.804087,-2.866562,1.745836,-1.98716,0.569097,0.202686
1700499448039062,-9.848087,-2.890562,1.782836,-1.100316,0.556597,0.197886
1700499448046875,-9.827087,-2.954562,1.804836,-1.98816,0.555297,0.196186
1700499448054687,-9.754087,-3.41562,1.763836,-1.94116,0.546097,0.188186
1700499448062500,-9.632087,-3.61562,1.790836,-1.89216,0.547797,0.176886
1700499448070312,-9.545087,-2.945562,1.867836,-1.95416,0.541597,0.164086
1700499448078125,-9.450087,-2.849562,1.820836,-1.101716,0.515097,0.148086
1700499448085937,-9.352087,-2.840562,1.689836,-1.102916,0.511997,0.122486
1700499448093750,-9.239087,-2.789562,1.628836,-1.118516,0.522797,0.104986
1700499448101562,-9.116087,-2.758562,1.616836,-1.124716,0.522897,0.84186
1700499448109375,-8.992087,-2.792562,1.582836,-1.142616,0.521797,0.72886
1700499448117187,-8.823087,-2.899562,1.499836,-1.168316,0.518697,0.63286
1700499448125000,-8.671087,-2.997562,1.471836,-1.180816,0.528097,0.40886
1700499448132812,-8.599087,-3.132562,1.397836,-1.192216,0.528297,0.39186
1700499448140625,-8.578087,-3.235562,1.331836,-1.200016,0.518897,0.26486
1700499448148437,-8.603087,-3.367562,1.311836,-1.198416,0.545597,0.21586
1700499448156250,-8.612087,-3.488562,1.327836,-1.187316,0.548697,0.35986
1700499448164062,-8.611087,-3.543562,1.338836,-1.176116,0.557897,0.47186
1700499448171875,-8.647087,-3.505562,1.322836,-1.163216,0.563897,0.60086
1700499448179687,-8.707087,-3.428562,1.372836,-1.148616,0.558997,0.72986
1700499448187500,-8.736087,-3.375562,1.476836,-1.151816,0.539797,0.85886
1700499448195312,-8.848087,-3.292562,1.451836,-1.180016,0.506097,0.88886
1700499448203125,-9.65087,-3.174562,1.417836,-1.227016,0.468797,0.85586
1700499448210937,-9.381087,-3.102562,1.302836,-1.279116,0.427097,0.87086
1700499448218750,-9.604087,-3.35562,1.217836,-1.339116,0.398997,0.95086
1700499448226562,-9.759087,-2.966562,1.113836,-1.405516,0.398997,0.111086
1700499448234375,-9.803087,-2.893562,1.23836,-1.465516,0.405297,0.130286
1700499448242187,-9.709087,-2.870562,0.907836,-1.502816,0.417297,0.168786
1700499448250000,-9.504087,-2.876562,0.858836,-1.523616,0.441797,0.194586
1700499448257812,-9.365087,-2.853562,0.896836,-1.535416,0.454297,0.223386
1700499448265625,-9.293087,-2.885562,0.891836,-1.555116,0.463697,0.240886
1700499448273437,-9.296087,-2.951562,0.815836,-1.566416,0.448097,0.242486
1700499448281250,-9.339087,-3.74562,0.729836,-1.576316,0.442097,0.240886
1700499448289062,-9.353087,-3.185562,0.652836,-1.598716,0.446397,0.245786
1700499448296875,-9.333087,-3.311562,0.652836,-1.610316,0.465497,0.248886
1700499448304687,-9.292087,-3.467562,0.731836,-1.618016,0.494997,0.240886
1700499448312500,-9.233087,-3.608562,0.842836,-1.628716,0.525797,0.247486
1700499448320312,-9.82087,-3.739562,0.991836,-1.617816,0.548097,0.242486
1700499448328125,-8.994087,-3.821562,1.92836,-1.616016,0.541897,0.232886
1700499448335937,-8.929087,-3.864562,1.237836,-1.617416,0.546397,0.232986
1700499448343750,-8.890087,-3.940562,1.350836,-1.615816,0.530697,0.228186
1700499448351562,-8.841087,-4.42562,1.395836,-1.614516,0.516897,0.234486
1700499448359375,-8.806087,-4.159562,1.390836,-1.614516,0.485397,0.237786
1700499448367187,-8.803087,-4.187562,1.426836,-1.595316,0.465097,0.244186
1700499448375000,-8.869087,-4.160562,1.472836,-1.593916,0.443297,0.250586
1700499448382812,-8.918087,-4.101562,1.438836,-1.586516,0.413997,0.256786
1700499448390625,-8.915087,-4.15562,1.436836,-1.575316,0.398297,0.261586
1700499448398437,-8.886087,-4.75562,1.365836,-1.565616,0.377697,0.276086
1700499448406250,-8.949087,-4.52562,1.323836,-1.559316,0.362097,0.280886
1700499448414062,-8.977087,-4.72562,1.399836,-1.562616,0.379297,0.287286
1700499448421875,-8.989087,-3.985562,1.465836,-1.563016,0.377897,0.298386
1700499448429687,-8.988087,-3.934562,1.501836,-1.543616,0.377697,0.303286
1700499448437500,-8.880087,-4.4562,1.576836,-1.538916,0.385397,0.320886
1700499448445312,-8.782087,-4.76562,1.612836,-1.536116,0.383997,0.330386
1700499448453125,-8.728087,-4.146562,1.616836,-1.506516,0.394397,0.330586
1700499448460937,-8.705087,-4.230562,1.734836,-1.466616,0.390197,0.327186
1700499448468750,-8.750087,-4.352562,1.772836,-1.437116,0.367797,0.327386
1700499448476562,-8.757087,-4.510562,1.783836,-1.411016,0.358097,0.329086
1700499448484375,-8.747087,-4.664562,1.765836,-1.385516,0.342697,0.327386
1700499448492187,-8.711087,-4.757562,1.704836,-1.345716,0.330597,0.325586
1700499448500000,-8.580087,-4.843562,1.659836,-1.308616,0.321097,0.335286
1700499448507812,-8.563087,-4.804562,1.663836,-1.276316,0.320897,0.341686
1700499448515625,-8.542087,-4.812562,1.675836,-1.249316,0.307097,0.347986
1700499448523437,-8.538087,-4.806562,1.639836,-1.217316,0.302197,0.368886
1700499448531250,-8.613087,-4.714562,1.686836,-1.165716,0.311397,0.376886
1700499448539062,-8.666087,-4.652562,1.682836,-1.125316,0.307797,0.400986
1700499448546875,-8.680087,-4.649562,1.727836,-1.78616,0.316797,0.423486
1700499448554687,-8.760087,-4.560562,1.819836,-1.23616,0.335197,0.436386
1700499448562500,-8.840087,-4.239562,2.32836,0.961016,0.329097,0.434686
1700499448570312,-9.41087,-3.950562,2.836,0.909016,0.295897,0.433286
1700499448578125,-9.230087,-3.822562,1.865836,0.875516,0.271597,0.410586
1700499448585937,-9.369087,-3.751562,1.883836,0.846416,0.246797,0.389686
1700499448593750,-9.396087,-3.654562,2.95836,0.836116,0.243697,0.357786
1700499448601562,-9.406087,-3.599562,2.118836,0.802016,0.207897,0.327386
1700499448609375,-9.379087,-3.608562,2.75836,0.762716,0.190797,0.292186
1700499448617187,-9.327087,-3.502562,2.181836,0.740116,0.164797,0.251986
1700499448625000,-9.293087,-3.239562,2.222836,0.741516,0.143397,0.213486
1700499448632812,-9.184087,-3.22562,2.147836,0.715216,0.138697,0.186286
1700499448640625,-9.26087,-2.931562,2.20836,0.692716,0.140597,0.168586
1700499448648437,-8.959087,-2.925562,1.946836,0.672816,0.165497,0.150986
1700499448656250,-8.988087,-2.949562,1.853836,0.633816,0.170197,0.134986
1700499448664062,-9.169087,-3.75562,1.709836,0.611116,0.156297,0.114186
1700499448671875,-9.416087,-3.216562,1.628836,0.609116,0.145097,0.109486
1700499448679687,-9.587087,-3.337562,1.499836,0.588416,0.126397,0.115886
1700499448687500,-9.643087,-3.314562,1.384836,0.580416,0.115397,0.123886
1700499448695312,-9.510087,-3.322562,1.239836,0.563116,0.118597,0.142986
1700499448703125,-9.366087,-3.400562,1.153836,0.548816,0.135497,0.167086
1700499448710937,-9.367087,-3.304562,1.323836,0.548816,0.145097,0.157386
1700499448718750,-9.374087,-3.64562,1.370836,0.541916,0.114997,0.151186
1700499448726562,-9.356087,-2.873562,1.300836,0.518116,0.115497,0.149386
1700499448734375,-9.314087,-2.686562,1.348836,0.500116,0.138597,0.154286
1700499448742187,-9.313087,-2.494562,1.420836,0.482016,0.175797,0.152786
1700499448750000,-9.267087,-2.202562,1.596836,0.475316,0.222897,0.138286
1700499448757812,-9.166087,-1.838562,1.813836,0.457016,0.278697,0.141686
1700499448765625,-9.65087,-1.595562,1.892836,0.451116,0.305797,0.144686
1700499448773437,-9.102087,-1.454562,1.849836,0.455116,0.337897,0.138486
1700499448781250,-9.187087,-1.369562,1.874836,0.448016,0.370397,0.125886
1700499448789062,-9.310087,-1.285562,1.865836,0.448316,0.375697,0.112886
1700499448796875,-9.508087,-1.217562,1.844836,0.464616,0.360497,0.96686
1700499448804687,-9.768087,-1.269562,1.700836,0.480416,0.330497,0.88786
1700499448812500,-10.22087,-1.406562,1.662836,0.513216,0.302997,0.88686
1700499448820312,-10.191087,-1.521562,1.703836,0.551816,0.285597,0.88686
1700499448828125,-10.298087,-1.572562,1.612836,0.560416,0.259397,0.94986
1700499448835937,-10.364087,-1.651562,1.588836,0.576916,0.239097,0.110986
1700499448843750,-10.368087,-1.719562,1.536836,0.599116,0.219697,0.122386
1700499448851562,-10.365087,-1.711562,1.443836,0.630516,0.218597,0.139886
1700499448859375,-10.315087,-1.606562,1.429836,0.645216,0.230897,0.165486
1700499448867187,-10.256087,-1.396562,1.409836,0.658316,0.238497,0.184686
1700499448875000,-10.185087,-1.196562,1.411836,0.650116,0.245997,0.197586
1700499448882812,-10.211087,-1.87562,1.362836,0.653916,0.241497,0.211986
1700499448890625,-10.198087,-1.81562,1.289836,0.655116,0.267997,0.205586
1700499448898437,-10.128087,-1.137562,1.321836,0.682516,0.283397,0.213686
1700499448906250,-10.18087,-1.141562,1.257836,0.715016,0.269397,0.228086
1700499448914062,-9.887087,-1.219562,1.140836,0.748916,0.255297,0.223286
1700499448921875,-9.746087,-1.302562,1.16836,0.784816,0.249297,0.235986
1700499448929687,-9.560087,-1.336562,0.934836,0.809216,0.244697,0.245586
1700499448937500,-9.477087,-1.340562,0.758836,0.821816,0.239697,0.244086
1700499448945312,-9.427087,-1.270562,0.760836,0.833416,0.247597,0.256786
1700499448953125,-9.381087,-1.164562,0.756836,0.854216,0.246197,0.239186
1700499448960937,-9.359087,-1.111562,0.649836,0.889616,0.238497,0.226386
1700499448968750,-9.393087,-1.106562,0.649836,0.938016,0.251297,0.216686
1700499448976562,-9.384087,-1.98562,0.692836,0.974716,0.269897,0.207186
1700499448984375,-9.382087,-1.77562,0.783836,-1.4016,0.268897,0.190986
1700499448992187,-9.420087,-1.106562,0.805836,-1.18016,0.270197,0.181486
1700499449000000,-9.485087,-1.267562,0.860836,-1.49916,0.265497,0.163986
1700499449007812,-9.524087,-1.366562,0.934836,-1.85216,0.257797,0.146386
1700499449015625,-9.467087,-1.455562,0.936836,-1.112516,0.239497,0.119086
1700499449023437,-9.473087,-1.606562,0.898836,-1.136716,0.216297,0.98186
1700499449031250,-9.479087,-1.730562,0.830836,-1.153416,0.209197,0.93186
1700499449039062,-9.494087,-1.851562,0.747836,-1.146116,0.204097,0.72486
1700499449046875,-9.558087,-2.20562,0.708836,-1.138216,0.194997,0.61186
1700499449054687,-9.585087,-2.300562,0.797836,-1.151016,0.207597,0.48386
1700499449062500,-9.519087,-2.669562,0.928836,-1.138116,0.221697,0.51586
1700499449070312,-9.387087,-2.864562,1.61836,-1.116916,0.218197,0.61286
1700499449078125,-9.226087,-2.985562,1.110836,-1.88416,0.202697,0.77286
1700499449085937,-9.105087,-3.52562,1.106836,-1.28516,0.191197,0.90186
1700499449093750,-9.173087,-3.21562,1.230836,0.978316,0.167497,0.90286
1700499449101562,-9.411087,-2.946562,1.228836,0.927016,0.131797,0.88586
1700499449109375,-9.566087,-2.854562,1.77836,0.893716,0.97697,0.94886
1700499449117187,-9.688087,-2.757562,1.72836,0.866716,0.91797,0.97886
1700499449125000,-9.738087,-2.655562,1.108836,0.838916,0.83497,0.102886
1700499449132812,-9.775087,-2.508562,1.77836,0.816716,0.71197,0.107586
1700499449140625,-9.798087,-2.347562,1.45836,0.789016,0.53697,0.104486
1700499449148437,-9.793087,-2.229562,1.18836,0.764816,0.41397,0.94886
1700499449156250,-9.767087,-2.183562,0.982836,0.766616,0.49497,0.88386
1700499449164062,-9.698087,-2.158562,1.2836,0.750016,0.64797,0.86886
1700499449171875,-9.622087,-2.85562,1.50836,0.724516,0.77497,0.88386
1700499449179687,-9.609087,-2.27562,1.38836,0.715016,0.80797,0.89886
1700499449187500,-9.574087,-2.26562,1.52836,0.710016,0.89897,0.93186
1700499449195312,-9.540087,-2.73562,1.47836,0.703616,0.96097,0.101186
1700499449203125,-9.586087,-2.204562,1.68836,0.699116,0.93197,0.107486
1700499449210937,-9.639087,-2.324562,1.36836,0.679316,0.94197,0.112486
1700499449218750,-9.626087,-2.424562,1.25836,0.664916,0.91097,0.115686
1700499449226562,-9.636087,-2.494562,1.18836,0.655216,0.103497,0.122086
1700499449234375,-9.584087,-2.544562,1.156836,0.635716,0.122197,0.122086
1700499449242187,-9.499087,-2.576562,1.260836,0.608316,0.118897,0.128586
1700499449250000,-9.511087,-2.514562,1.298836,0.579316,0.131497,0.128486
1700499449257812,-9.537087,-2.446562,1.327836,0.551616,0.145097,0.133486
1700499449265625,-9.503087,-2.362562,1.406836,0.520716,0.148097,0.128686
1700499449273437,-9.523087,-2.339562,1.429836,0.487016,0.148397,0.120586
1700499449281250,-9.520087,-2.332562,1.447836,0.461116,0.143697,0.117386
1700499449289062,-9.516087,-2.335562,1.402836,0.433516,0.142197,0.102986
1700499449296875,-9.414087,-2.272562,1.289836,0.414116,0.126497,0.98186
1700499449304687,-9.299087,-2.211562,1.289836,0.391016,0.105897,0.88686
1700499449312500,-9.313087,-2.258562,1.117836,0.393216,0.70797,0.67586
1700499449320312,-9.308087,-2.311562,0.993836,0.394916,0.53797,0.56386
1700499449328125,-9.282087,-2.261562,0.943836,0.402816,0.33597,0.38786
1700499449335937,-9.316087,-2.214562,0.835836,0.405916,0.8403,0.14686
1700499449343750,-9.371087,-2.205562,0.647836,0.418516,0.47403,0.4414
1700499449351562,-9.310087,-2.188562,0.566836,0.443016,0.47003,0.14214
1700499449359375,-9.328087,-2.181562,0.654836,0.460516,0.22003,0.20614
1700499449367187,-9.444087,-2.192562,0.824836,0.466616,0.7697,0.38214
1700499449375000,-9.539087,-2.264562,0.878836,0.456716,0.23497,0.55814
1700499449382812,-9.575087,-2.385562,0.878836,0.474216,0.59297,0.54214
1700499449390625,-9.456087,-2.584562,0.959836,0.475516,0.105697,0.38014
1700499449398437,-9.311087,-2.863562,1.54836,0.472516,0.121297,0.22014
1700499449406250,-9.298087,-3.106562,1.138836,0.463016,0.152397,0.2814
1700499449414062,-9.298087,-3.286562,1.232836,0.408016,0.174897,0.45486
1700499449421875,-9.307087,-3.278562,1.275836,0.358616,0.171897,0.64586
1700499449429687,-9.382087,-3.205562,1.339836,0.305316,0.174597,0.82286
1700499449437500,-9.515087,-3.114562,1.418836,0.255616,0.163797,0.85386
1700499449445312,-9.633087,-3.35562,1.470836,0.212016,0.155997,0.85386
1700499449453125,-9.651087,-2.924562,1.533836,0.173016,0.162097,0.69386
1700499449460937,-9.629087,-2.725562,1.605836,0.147016,0.145197,0.43786
1700499449468750,-9.608087,-2.590562,1.490836,0.127616,0.112897,0.10086
1700499449476562,-9.551087,-2.509562,1.377836,0.114416,0.91197,0.18814
1700499449484375,-9.485087,-2.457562,1.226836,0.105816,0.77197,0.50814
1700499449492187,-9.418087,-2.445562,1.79836,0.113716,0.54197,0.87714
1700499449500000,-9.415087,-2.476562,0.961836,0.113616,0.51297,0.108514
1700499449507812,-9.458087,-2.478562,0.923836,0.108116,0.74597,0.134114
1700499449515625,-9.556087,-2.483562,0.941836,0.101616,0.80997,0.143714
1700499449523437,-9.663087,-2.520562,0.950836,0.96716,0.104597,0.148614
1700499449531250,-9.764087,-2.619562,0.953836,0.96716,0.119897,0.134114
1700499449539062,-9.785087,-2.823562,0.937836,0.101016,0.140997,0.113114
1700499449546875,-9.774087,-3.50562,0.926836,0.117716,0.150597,0.93914
1700499449554687,-9.739087,-3.245562,0.935836,0.116516,0.172397,0.65114
1700499449562500,-9.600087,-3.407562,0.903836,0.115216,0.189397,0.37914
1700499449570312,-9.527087,-3.479562,0.910836,0.103816,0.201797,0.33114
1700499449578125,-9.488087,-3.448562,0.980836,0.82816,0.209497,0.28214
1700499449585937,-9.324087,-3.420562,0.959836,0.42816,0.204697,0.7414
1700499449593750,-9.136087,-3.467562,0.991836,0.17184,0.218397,0.5714
1700499449601562,-9.26087,-3.617562,1.38836,0.70084,0.218397,0.11786
1700499449609375,-8.979087,-3.684562,1.160836,0.115484,0.216397,0.16686
1700499449617187,-9.30087,-3.630562,1.198836,0.168784,0.205797,0.7414
1700499449625000,-9.161087,-3.600562,1.212836,0.231984,0.192897,0.4114
1700499449632812,-9.307087,-3.542562,1.273836,0.260684,0.182397,0.12214
1700499449640625,-9.447087,-3.405562,1.266836,0.291584,0.164897,0.15314
1700499449648437,-9.516087,-3.249562,1.185836,0.321984,0.140097,0.15414
1700499449656250,-9.493087,-3.132562,1.174836,0.326984,0.142997,0.13714
1700499449664062,-9.421087,-2.957562,1.169836,0.326384,0.141997,0.10714
1700499449671875,-9.277087,-2.761562,1.257836,0.337984,0.124497,0.12214
1700499449679687,-9.136087,-2.611562,1.205836,0.332984,0.105797,0.15414
1700499449687500,-9.83087,-2.483562,1.149836,0.334384,0.93597,0.13914
1700499449695312,-9.158087,-2.383562,1.83836,0.317784,0.92497,0.15714
1700499449703125,-9.266087,-2.288562,1.52836,0.321684,0.98097,0.13814
1700499449710937,-9.325087,-2.182562,1.88836,0.314684,0.98697,0.17214
1700499449718750,-9.403087,-2.79562,1.76836,0.297284,0.96897,0.21914
1700499449726562,-9.521087,-2.113562,1.99836,0.272784,0.97097,0.17214
1700499449734375,-9.629087,-2.171562,1.102836,0.246884,0.106397,0.9214
1700499449742187,-9.733087,-2.251562,1.90836,0.228884,0.109497,0.5186
1700499449750000,-9.780087,-2.335562,1.115836,0.204984,0.113697,0.24586
1700499449757812,-9.720087,-2.269562,1.97836,0.191584,0.117097,0.35686
1700499449765625,-9.574087,-2.174562,0.984836,0.185284,0.110497,0.43786
1700499449773437,-9.420087,-2.168562,0.939836,0.178784,0.101097,0.46986
1700499449781250,-9.345087,-2.185562,0.844836,0.172184,0.80897,0.43786
1700499449789062,-9.291087,-2.241562,0.762836,0.180284,0.65197,0.42186
1700499449796875,-9.276087,-2.300562,0.654836,0.192884,0.31397,0.24386
1700499449804687,-9.356087,-2.361562,0.571836,0.191484,0.11197,0.5186
1700499449812500,-9.418087,-2.404562,0.591836,0.206084,0.497,0.10914
1700499449820312,-9.481087,-2.393562,0.595836,0.194884,0.9103,0.10814
1700499449828125,-9.535087,-2.320562,0.654836,0.192984,0.25803,0.17314
1700499449835937,-9.572087,-2.201562,0.731836,0.180484,0.27803,0.17214
1700499449843750,-9.584087,-2.81562,0.871836,0.167384,0.30603,0.26914
1700499449851562,-9.575087,-1.984562,0.993836,0.146484,0.32103,0.31714
1700499449859375,-9.596087,-1.891562,1.18836,0.118984,0.47603,0.38114
1700499449867187,-9.648087,-1.796562,1.11836,0.82184,0.47903,0.39614
1700499449875000,-9.596087,-1.742562,1.45836,0.50984,0.48903,0.36614
1700499449882812,-9.517087,-1.788562,0.991836,0.25384,0.36503,0.35014
1700499449890625,-9.489087,-1.871562,1.113836,0.5016,0.19503,0.36514
1700499449898437,-9.527087,-1.982562,1.174836,0.21816,0.37903,0.25414
1700499449906250,-9.583087,-2.109562,1.106836,0.25316,0.57903,0.23914
1700499449914062,-9.605087,-2.158562,1.63836,0.52916,0.67303,0.15914
1700499449921875,-9.622087,-2.170562,1.99836,0.66116,0.71803,0.14414
1700499449929687,-9.510087,-2.225562,1.187836,0.67616,0.70303,0.16014
1700499449937500,-9.418087,-2.301562,1.187836,0.75916,0.79403,0.16014
1700499449945312,-9.414087,-2.405562,1.160836,0.106716,0.97903,0.27314
1700499449953125,-9.419087,-2.450562,1.180836,0.120916,0.88803,0.22414
1700499449960937,-9.396087,-2.450562,1.201836,0.116216,0.60603,0.17614
1700499449968750,-9.359087,-2.418562,1.198836,0.101216,0.50003,0.25514
1700499449976562,-9.453087,-2.383562,1.189836,0.116116,0.49603,0.25614
1700499449984375,-9.655087,-2.479562,1.221836,0.135216,0.35703,0.27214
1700499449992187,-9.795087,-2.602562,1.276836,0.143016,0.14203,0.15914
1700499450000000,-9.822087,-2.689562,1.291836,0.146716,0.11097,0.4814
1700499450007812,-9.789087,-2.732562,1.287836,0.146516,0.38397,0.33886
1700499450015625,-9.712087,-2.742562,1.343836,0.138616,0.63397,0.46586
1700499450023437,-9.659087,-2.729562,1.418836,0.138816,0.74197,0.62586
1700499450031250,-9.620087,-2.662562,1.447836,0.133616,0.84597,0.75586
1700499450039062,-9.579087,-2.590562,1.472836,0.125416,0.89097,0.82086
1700499450046875,-9.517087,-2.478562,1.526836,0.135316,0.103397,0.83586
1700499450054687,-9.514087,-2.373562,1.571836,0.140216,0.103497,0.78786
1700499450062500,-9.575087,-2.267562,1.616836,0.155916,0.104797,0.69286
1700499450070312,-9.617087,-2.174562,1.628836,0.170116,0.109497,0.56486
1700499450078125,-9.617087,-2.115562,1.583836,0.180116,0.114597,0.54786
1700499450085937,-9.577087,-2.112562,1.589836,0.195716,0.137697,0.46886
1700499450093750,-9.558087,-2.145562,1.601836,0.205616,0.155097,0.48386
1700499450101562,-9.430087,-2.209562,1.549836,0.232916,0.182897,0.61286
1700499450109375,-9.268087,-2.260562,1.490836,0.245916,0.204897,0.66086
1700499450117187,-9.186087,-2.315562,1.426836,0.249016,0.210997,0.67686
1700499450125000,-9.228087,-2.362562,1.302836,0.249216,0.195497,0.72486
1700499450132812,-9.347087,-2.464562,1.183836,0.246316,0.170797,0.69186
1700499450140625,-9.458087,-2.596562,1.133836,0.224916,0.145497,0.58086
1700499450148437,-9.580087,-2.769562,1.20836,0.225016,0.126797,0.59686
1700499450156250,-9.602087,-2.926562,0.892836,0.225216,0.125297,0.62886
1700499450164062,-9.493087,-3.15562,0.835836,0.219016,0.142597,0.70786
1700499450171875,-9.261087,-3.4562,0.934836,0.212016,0.177897,0.83786
1700499450179687,-8.976087,-2.896562,1.74836,0.223216,0.208897,0.93486
1700499450187500,-8.786087,-2.761562,1.266836,0.221716,0.212197,0.93386
1700499450195312,-8.748087,-2.627562,1.431836,0.218216,0.210597,0.82186
1700499450203125,-8.897087,-2.534562,1.582836,0.198916,0.212497,0.66086
1700499450210937,-9.134087,-2.425562,1.548836,0.177316,0.202897,0.43786
1700499450218750,-9.304087,-2.377562,1.521836,0.164516,0.195797,0.5186
1700499450226562,-9.503087,-2.461562,1.431836,0.144516,0.187797,0.15514
1700499450234375,-9.646087,-2.702562,1.397836,0.140016,0.186497,0.14014
1700499450242187,-9.705087,-3.119562,1.416836,0.128616,0.180197,0.18814
1700499450250000,-9.671087,-3.605562,1.402836,0.136616,0.175297,0.13914
1700499450257812,-9.568087,-4.33562,1.368836,0.110916,0.176897,0.9114
1700499450265625,-9.405087,-4.256562,1.386836,0.77516,0.158297,0.3586
1700499450273437,-9.253087,-4.296562,1.379836,0.34116,0.153397,0.22786
1700499450281250,-9.169087,-4.225562,1.424836,0.17284,0.131597,0.25986
1700499450289062,-9.64087,-3.987562,1.399836,0.67084,0.105197,0.19486
1700499450296875,-9.82087,-3.741562,1.325836,0.102784,0.89297,0.17986
1700499450304687,-9.185087,-3.556562,1.352836,0.151284,0.83397,0.4514
1700499450312500,-9.343087,-3.307562,1.415836,0.176984,0.75797,0.17414
1700499450320312,-9.502087,-3.29562,1.427836,0.220984,0.66097,0.25314
1700499450328125,-9.606087,-2.842562,1.449836,0.255084,0.47197,0.34814
1700499450335937,-9.699087,-2.827562,1.542836,0.266584,0.56597,0.42814
1700499450343750,-9.728087,-2.840562,1.619836,0.268484,0.70797,0.62014
1700499450351562,-9.675087,-2.844562,1.698836,0.263484,0.83797,0.86214
1700499450359375,-9.538087,-2.938562,1.763836,0.257484,0.77297,0.92514
1700499450367187,-9.392087,-3.84562,1.788836,0.263984,0.68197,0.108614
1700499450375000,-9.288087,-3.170562,1.802836,0.290084,0.70897,0.106914
1700499450382812,-9.232087,-3.258562,1.795836,0.317084,0.85297,0.102214
1700499450390625,-9.150087,-3.440562,1.797836,0.364384,0.111297,0.95614
1700499450398437,-9.81087,-3.527562,1.885836,0.407984,0.140697,0.77914
1700499450406250,-9.89087,-3.598562,1.914836,0.466084,0.162297,0.63514
1700499450414062,-9.106087,-3.664562,1.984836,0.535184,0.188597,0.41114
1700499450421875,-9.155087,-3.665562,2.143836,0.588184,0.193197,0.18614
1700499450429687,-9.229087,-3.633562,2.86836,0.638084,0.174397,0.17014
1700499450437500,-9.314087,-3.544562,2.61836,0.683684,0.186397,0.13714
1700499450445312,-9.263087,-3.356562,2.113836,0.723684,0.200297,0.13486
1700499450453125,-9.163087,-3.231562,2.122836,0.773284,0.203597,0.24586
1700499450460937,-9.47087,-3.104562,2.111836,0.826584,0.192397,0.26286
1700499450468750,-8.985087,-3.12562,2.111836,0.866784,0.186297,0.24586
1700499450476562,-8.999087,-3.10562,2.131836,0.915784,0.172197,0.5714
1700499450484375,-8.980087,-2.966562,2.57836,0.970384,0.136597,0.17014
1700499450492187,-9.18087,-2.968562,2.14836,1.20784,0.108197,0.29814
1700499450500000,-9.86087,-3.24562,1.926836,1.62284,0.71097,0.39514
1700499450507812,-9.231087,-3.108562,1.878836,1.112184,0.35097,0.34714
1700499450515625,-9.343087,-3.132562,1.867836,1.162484,0.13097,0.49114
1700499450523437,-9.389087,-3.128562,1.736836,1.200884,0.5503,0.47514
1700499450531250,-9.475087,-3.45562,1.675836,1.228084,0.6903,0.47614
1700499450539062,-9.525087,-2.894562,1.644836,1.247484,0.28903,0.42814
1700499450546875,-9.601087,-2.755562,1.585836,1.272984,0.56903,0.39614
1700499450554687,-9.664087,-2.676562,1.519836,1.301684,0.72303,0.39714
1700499450562500,-9.635087,-2.632562,1.458836,1.301484,0.92503,0.38114
1700499450570312,-9.640087,-2.658562,1.314836,1.324484,0.113203,0.41214
1700499450578125,-9.527087,-2.604562,1.248836,1.330884,0.110003,0.39614
1700499450585937,-9.425087,-2.510562,1.226836,1.335284,0.117603,0.31714
1700499450593750,-9.421087,-2.488562,1.169836,1.343884,0.130503,0.41214
1700499450601562,-9.410087,-2.493562,1.189836,1.358184,0.130303,0.39614
1700499450609375,-9.388087,-2.478562,1.269836,1.371484,0.129203,0.39514
1700499450617187,-9.400087,-2.595562,1.178836,1.380784,0.161603,0.42814
1700499450625000,-9.395087,-2.685562,1.36836,1.401284,0.184703,0.41414
1700499450632812,-9.293087,-2.701562,0.993836,1.424084,0.192903,0.33214
1700499450640625,-9.139087,-2.594562,1.18836,1.430384,0.206803,0.36514
1700499450648437,-9.40087,-2.465562,0.995836,1.460884,0.237903,0.44614
1700499450656250,-8.991087,-2.344562,1.33836,1.480384,0.258103,0.59014
1700499450664062,-8.961087,-2.211562,1.65836,1.493084,0.274703,0.83114
1700499450671875,-8.918087,-2.79562,1.135836,1.507784,0.294903,0.104014
1700499450679687,-8.916087,-1.955562,1.117836,1.527284,0.318203,0.123214
1700499450687500,-8.982087,-1.837562,1.128836,1.535584,0.330503,0.147314
1700499450695312,-9.20087,-1.761562,1.115836,1.545484,0.358403,0.172914
1700499450703125,-9.76087,-1.725562,1.101836,1.535884,0.383203,0.197014
1700499450710937,-9.116087,-1.693562,1.88836,1.532384,0.403003,0.206714
1700499450718750,-9.144087,-1.688562,1.119836,1.534384,0.404503,0.233914
1700499450726562,-9.173087,-1.675562,1.198836,1.521684,0.413903,0.245114
1700499450734375,-9.199087,-1.710562,1.255836,1.523284,0.432303,0.262814
1700499450742187,-9.284087,-1.701562,1.246836,1.511484,0.455203,0.270914
1700499450750000,-9.354087,-1.707562,1.244836,1.497084,0.471003,0.269214
1700499450757812,-9.410087,-1.687562,1.291836,1.484484,0.480403,0.285214
1700499450765625,-9.496087,-1.619562,1.250836,1.466784,0.491303,0.290014
1700499450773437,-9.541087,-1.542562,1.250836,1.454284,0.490103,0.289914
1700499450781250,-9.585087,-1.452562,1.278836,1.447684,0.493103,0.290014
1700499450789062,-9.637087,-1.390562,1.309836,1.425084,0.499203,0.294814
1700499450796875,-9.677087,-1.375562,1.273836,1.408684,0.500503,0.296514
1700499450804687,-9.718087,-1.424562,1.302836,1.383384,0.497903,0.293114
1700499450812500,-9.730087,-1.452562,1.368836,1.381184,0.503503,0.298114
1700499450820312,-9.740087,-1.453562,1.284836,1.367884,0.504803,0.290214
1700499450828125,-9.794087,-1.471562,1.257836,1.352084,0.499003,0.280414
1700499450835937,-9.793087,-1.503562,1.233836,1.346784,0.500303,0.272514
1700499450843750,-9.762087,-1.560562,1.199836,1.351984,0.499303,0.262814
1700499450851562,-9.727087,-1.645562,1.203836,1.343884,0.500903,0.259614
1700499450859375,-9.684087,-1.661562,1.165836,1.319384,0.520903,0.259714
1700499450867187,-9.662087,-1.621562,1.129836,1.307984,0.517703,0.261314
1700499450875000,-9.652087,-1.530562,1.149836,1.293284,0.517403,0.262914
1700499450882812,-9.723087,-1.423562,1.124836,1.282184,0.523803,0.262914
1700499450890625,-9.778087,-1.320562,1.43836,1.262784,0.516003,0.262914
1700499450898437,-9.825087,-1.256562,1.27836,1.248684,0.506803,0.274014
1700499450906250,-9.813087,-1.128562,1.52836,1.216684,0.495803,0.282014
1700499450914062,-9.792087,-1.75562,1.124836,1.194084,0.481703,0.285214
1700499450921875,-9.788087,-1.58562,1.115836,1.166084,0.470203,0.282214
1700499450929687,-9.788087,-1.44562,1.106836,1.116884,0.455303,0.283614
1700499450937500,-9.782087,0.985562,1.110836,1.78284,0.439803,0.273914
1700499450945312,-9.814087,0.951562,1.167836,1.44184,0.413003,0.270814
1700499450953125,-9.891087,0.953562,1.190836,1.9984,0.404803,0.270914
1700499450960937,-10.7087,0.946562,1.219836,0.957384,0.394403,0.275514
1700499450968750,-10.3087,0.960562,1.187836,0.918284,0.378303,0.277314
1700499450976562,-9.951087,-1.89562,1.210836,0.901284,0.347903,0.261014
1700499450984375,-9.881087,-1.301562,1.294836,0.888384,0.331003,0.246514
1700499450992187,-9.840087,-1.473562,1.233836,0.854184,0.332303,0.240214
1700499451000000,-9.899087,-1.601562,1.169836,0.820484,0.332303,0.245014
1700499451007812,-9.993087,-1.764562,1.271836,0.791384,0.321603,0.227314
1700499451015625,-10.36087,-1.890562,1.330836,0.783484,0.306403,0.209614
1700499451023437,-10.41087,-1.987562,1.355836,0.770384,0.284703,0.190314
1700499451031250,-10.14087,-2.96562,1.416836,0.750284,0.270103,0.179314
1700499451039062,-10.23087,-2.106562,1.506836,0.731084,0.256403,0.164814
1700499451046875,-10.44087,-2.49562,1.499836,0.732384,0.240503,0.158514
1700499451054687,-10.74087,-2.1562,1.601836,0.737384,0.222303,0.135914
1700499451062500,-9.997087,-2.95562,1.689836,0.751684,0.206903,0.105514
1700499451070312,-9.718087,-2.251562,1.628836,0.738584,0.183503,0.92714
1700499451078125,-9.495087,-2.267562,1.580836,0.722984,0.135603,0.84514
1700499451085937,-9.282087,-2.253562,1.765836,0.733984,0.107103,0.84614
1700499451093750,-9.7087,-2.335562,1.835836,0.754984,0.105803,0.76614
1700499451101562,-8.846087,-2.459562,1.679836,0.752884,0.125803,0.71914
1700499451109375,-8.954087,-2.644562,1.548836,0.735684,0.127803,0.71714
1700499451117187,-8.959087,-2.735562,1.440836,0.761584,0.113803,0.76514
1700499451125000,-8.978087,-2.805562,1.453836,0.784484,0.92103,0.79714
1700499451132812,-9.133087,-3.28562,1.585836,0.810184,0.69903,0.86214
1700499451140625,-9.258087,-3.263562,1.621836,0.844484,0.49903,0.92514
1700499451148437,-9.379087,-3.448562,1.632836,0.877384,0.33103,0.105114
1700499451156250,-9.561087,-3.662562,1.702836,0.907784,0.25003,0.105314
1700499451164062,-9.655087,-3.825562,1.698836,0.951984,0.33003,0.130814
1700499451171875,-9.699087,-3.981562,1.635836,0.985484,0.62303,0.140514
1700499451179687,-9.705087,-4.89562,1.524836,1.6984,0.96603,0.175714
1700499451187500,-9.762087,-4.190562,1.443836,1.18484,0.115103,0.207814
1700499451195312,-9.775087,-4.273562,1.459836,1.54084,0.117703,0.244714
1700499451203125,-9.787087,-4.272562,1.386836,1.74084,0.145803,0.284714
1700499451210937,-9.791087,-4.281562,1.294836,1.96884,0.176703,0.316814
1700499451218750,-9.763087,-4.332562,1.215836,1.119684,0.184203,0.348914
1700499451226562,-9.669087,-4.458562,1.140836,1.129384,0.183603,0.379414
1700499451234375,-9.572087,-4.541562,1.212836,1.148184,0.162203,0.409714
1700499451242187,-9.534087,-4.538562,1.352836,1.148084,0.135303,0.419314
1700499451250000,-9.484087,-4.453562,1.407836,1.164684,0.129203,0.433714
1700499451257812,-9.348087,-4.253562,1.312836,1.177184,0.146003,0.440214
1700499451265625,-9.180087,-4.105562,1.183836,1.172284,0.150803,0.430614
1700499451273437,-8.993087,-4.4562,1.67836,1.175384,0.143003,0.419414
1700499451281250,-8.856087,-3.981562,1.11836,1.197684,0.150703,0.416214
1700499451289062,-8.736087,-4.15562,0.959836,1.235184,0.160603,0.408114
1700499451296875,-8.708087,-4.28562,0.896836,1.286384,0.176203,0.393714
1700499451304687,-8.675087,-4.61562,0.880836,1.336884,0.178303,0.393614
1700499451312500,-8.712087,-4.100562,0.916836,1.373484,0.178203,0.369614
1700499451320312,-8.681087,-4.107562,1.24836,1.407184,0.193803,0.368014
1700499451328125,-8.684087,-4.42562,1.108836,1.448984,0.232803,0.371314
1700499451335937,-8.727087,-3.975562,1.137836,1.459484,0.277703,0.361814
1700499451343750,-8.734087,-3.986562,1.36836,1.472584,0.307503,0.365014
1700499451351562,-8.755087,-3.933562,1.101836,1.502984,0.323103,0.358614
1700499451359375,-8.822087,-3.925562,1.94836,1.518984,0.332303,0.363414
1700499451367187,-8.883087,-3.914562,1.103836,1.546684,0.348303,0.365014
1700499451375000,-8.906087,-3.847562,1.196836,1.561084,0.354603,0.353714
1700499451382812,-8.889087,-3.809562,1.205836,1.570084,0.385603,0.334614
1700499451390625,-8.922087,-3.696562,1.271836,1.584484,0.404503,0.323414
1700499451398437,-8.870087,-3.566562,1.257836,1.580884,0.426503,0.302614
1700499451406250,-8.813087,-3.436562,1.144836,1.585184,0.449703,0.289914
1700499451414062,-8.716087,-3.309562,1.26836,1.597584,0.453003,0.256314
1700499451421875,-8.643087,-3.268562,1.24836,1.613284,0.473403,0.233914
1700499451429687,-8.618087,-3.263562,0.999836,1.635284,0.485803,0.213114
1700499451437500,-8.676087,-3.314562,0.864836,1.657884,0.530003,0.195414
1700499451445312,-8.742087,-3.419562,0.731836,1.678284,0.556603,0.166614
1700499451453125,-8.801087,-3.491562,0.695836,1.714984,0.573803,0.149114
1700499451460937,-8.819087,-3.507562,0.649836,1.732884,0.575803,0.134514
1700499451468750,-8.837087,-3.776562,0.735836,1.747084,0.533703,0.107314
1700499451476562,-8.994087,-3.826562,1.273836,1.757084,0.518703,0.91114
1700499451484375,-9.242087,-3.545562,1.230836,1.767784,0.602803,0.86414
1700499451492187,-9.389087,-3.441562,0.690836,1.794684,0.641903,0.60914
1700499451500000,-9.393087,-3.487562,0.641836,1.813884,0.597003,0.28814
1700499451507812,-9.344087,-3.426562,0.959836,1.823384,0.567303,0.11214
1700499451515625,-9.327087,-3.431562,1.106836,1.836384,0.561403,0.3286
1700499451523437,-9.356087,-3.433562,1.142836,1.823284,0.566303,0.19386
1700499451531250,-9.347087,-3.462562,1.108836,1.831584,0.527403,0.24186
1700499451539062,-9.361087,-3.278562,1.440836,1.864184,0.485603,0.29086
1700499451546875,-9.510087,-2.926562,1.750836,1.875684,0.485303,0.6686
1700499451554687,-9.742087,-2.655562,1.754836,1.911484,0.494703,0.14114
1700499451562500,-10.53087,-2.384562,1.951836,1.934084,0.458403,0.30214
1700499451570312,-10.401087,-2.36562,2.193836,1.949684,0.431903,0.79814
1700499451578125,-10.791087,-1.574562,2.281836,1.961884,0.411303,0.140614
1700499451585937,-11.105087,-1.90562,2.200836,1.933584,0.393703,0.196714
1700499451593750,-11.165087,0.962562,1.925836,1.851884,0.340303,0.233514
1700499451601562,-10.932087,-1.13562,1.850836,1.746684,0.228203,0.255814
1700499451609375,-10.381087,-1.286562,1.999836,1.635684,0.134203,0.265414
1700499451617187,-9.785087,-1.769562,2.16836,1.552184,0.109503,0.266914
1700499451625000,-9.367087,-2.253562,1.747836,1.480584,0.117003,0.247814
1700499451632812,-9.76087,-2.713562,1.429836,1.454284,0.109303,0.209314
1700499451640625,-8.874087,-2.898562,1.379836,1.460084,0.111403,0.153214
1700499451648437,-8.811087,-2.883562,1.356836,1.472184,0.130403,0.102014
1700499451656250,-8.951087,-2.819562,1.309836,1.485684,0.185103,0.49214
1700499451664062,-9.213087,-2.777562,1.185836,1.502784,0.240003,0.14014
1700499451671875,-9.424087,-2.651562,1.124836,1.505984,0.260603,0.1114
1700499451679687,-9.645087,-2.523562,1.108836,1.523084,0.274603,0.27586
1700499451687500,-9.734087,-2.517562,1.95836,1.539084,0.290203,0.29186
1700499451695312,-9.696087,-2.464562,1.11836,1.564484,0.306903,0.22586
1700499451703125,-9.505087,-2.392562,0.905836,1.582584,0.311703,0.9886
1700499451710937,-9.238087,-2.265562,0.909836,1.619584,0.311403,0.7814
1700499451718750,-9.85087,-2.224562,0.945836,1.654284,0.324403,0.23614
1700499451726562,-8.978087,-2.177562,0.877836,1.688084,0.335103,0.34914
1700499451734375,-8.982087,-2.207562,0.830836,1.702284,0.369303,0.38214
1700499451742187,-9.18087,-2.232562,0.774836,1.714084,0.388303,0.52514
1700499451750000,-9.65087,-2.168562,0.774836,1.736284,0.394003,0.62314
1700499451757812,-9.114087,-2.68562,0.805836,1.750884,0.400303,0.67114
1700499451765625,-9.215087,-1.901562,0.812836,1.765584,0.423603,0.84714
1700499451773437,-9.342087,-1.698562,0.792836,1.764184,0.431403,0.100714
1700499451781250,-9.467087,-1.494562,0.776836,1.744584,0.434003,0.115214
1700499451789062,-9.535087,-1.325562,0.837836,1.732084,0.423103,0.132814
1700499451796875,-9.612087,-1.174562,0.979836,1.705384,0.409603,0.139014
1700499451804687,-9.644087,-1.76562,1.40836,1.674484,0.410703,0.147114
1700499451812500,-9.689087,0.976562,1.142836,1.629484,0.409303,0.142314
1700499451820312,-9.705087,0.949562,1.228836,1.587184,0.409003,0.142414
1700499451828125,-9.721087,0.924562,1.260836,1.545084,0.422803,0.145614
1700499451835937,-9.732087,0.895562,1.217836,1.504584,0.432003,0.150514
1700499451843750,-9.731087,0.982562,1.174836,1.469084,0.433703,0.136014
1700499451851562,-9.736087,-1.110562,1.169836,1.436584,0.441403,0.131214
1700499451859375,-9.722087,-1.251562,1.178836,1.402384,0.450703,0.120114
1700499451867187,-9.687087,-1.380562,1.180836,1.384684,0.444403,0.116914
1700499451875000,-9.621087,-1.475562,1.203836,1.360584,0.435303,0.110414
1700499451882812,-9.609087,-1.528562,1.269836,1.350184,0.442303,0.112314
1700499451890625,-9.626087,-1.534562,1.293836,1.348984,0.455303,0.112114
1700499451898437,-9.646087,-1.551562,1.323836,1.339184,0.445803,0.113714
1700499451906250,-9.647087,-1.595562,1.424836,1.342384,0.427003,0.108914
1700499451914062,-9.627087,-1.602562,1.445836,1.326184,0.433203,0.107414
1700499451921875,-9.672087,-1.601562,1.420836,1.339084,0.431803,0.99314
1700499451929687,-9.687087,-1.637562,1.433836,1.324684,0.435003,0.100914
1700499451937500,-9.658087,-1.641562,1.354836,1.314884,0.441103,0.102514
1700499451945312,-9.650087,-1.647562,1.400836,1.306584,0.428403,0.97814
1700499451953125,-9.595087,-1.646562,1.427836,1.287284,0.448803,0.97814
1700499451960937,-9.530087,-1.632562,1.363836,1.276084,0.448903,0.99314
1700499451968750,-9.508087,-1.631562,1.350836,1.266584,0.469303,0.104114
1700499451976562,-9.475087,-1.620562,1.318836,1.250284,0.478503,0.105714
1700499451984375,-9.430087,-1.612562,1.284836,1.243784,0.495603,0.112214
1700499451992187,-9.422087,-1.584562,1.329836,1.239084,0.489503,0.108914
1700499452000000,-9.456087,-1.541562,1.336836,1.238884,0.491003,0.102514
1700499452007812,-9.508087,-1.501562,1.307836,1.226184,0.495803,0.105714
1700499452015625,-9.517087,-1.460562,1.296836,1.217584,0.486003,0.99414
1700499452023437,-9.527087,-1.425562,1.300836,1.222884,0.469503,0.88014
1700499452031250,-9.541087,-1.395562,1.287836,1.221184,0.438003,0.88114
1700499452039062,-9.534087,-1.402562,1.402836,1.225984,0.414503,0.86514
1700499452046875,-9.526087,-1.397562,1.488836,1.231584,0.387003,0.89514
1700499452054687,-9.422087,-1.420562,1.458836,1.233284,0.371403,0.91114
1700499452062500,-9.298087,-1.463562,1.492836,1.247884,0.328903,0.104014
1700499452070312,-9.187087,-1.549562,1.645836,1.267884,0.304003,0.134314
1700499452078125,-9.72087,-1.624562,1.770836,1.300584,0.303903,0.163214
1700499452085937,-9.87,-1.715562,1.700836,1.329284,0.314203,0.184214
1700499452093750,-8.988087,-1.846562,1.634836,1.369784,0.342603,0.187314
1700499452101562,-9.11087,-1.944562,1.569836,1.408784,0.375403,0.208114
1700499452109375,-9.180087,-2.9562,1.361836,1.432684,0.396803,0.219414
1700499452117187,-9.416087,-1.976562,1.323836,1.447884,0.405003,0.236914
1700499452125000,-9.653087,-1.823562,1.352836,1.449384,0.413903,0.259414
1700499452132812,-9.775087,-1.732562,1.282836,1.447784,0.432203,0.280314
1700499452140625,-9.884087,-1.669562,1.217836,1.428884,0.432503,0.294714
1700499452148437,-10.15087,-1.592562,1.174836,1.406084,0.443103,0.296314
1700499452156250,-10.94087,-1.489562,1.131836,1.377084,0.422703,0.301114
1700499452164062,-10.128087,-1.345562,1.90836,1.338484,0.422803,0.301114
1700499452171875,-10.143087,-1.238562,1.59836,1.307584,0.419403,0.296414
1700499452179687,-10.171087,-1.142562,1.9836,1.264184,0.407003,0.297914
1700499452187500,-10.201087,-1.88562,0.978836,1.223584,0.400603,0.290014
1700499452195312,-10.167087,-1.75562,0.912836,1.176584,0.387903,0.286814
1700499452203125,-10.158087,-1.95562,0.935836,1.133084,0.355303,0.274014
1700499452210937,-10.123087,-1.56562,1.11836,1.83384,0.335203,0.269114
1700499452218750,-10.65087,-1.6562,1.7836,1.38184,0.335103,0.270714
1700499452226562,-10.10087,0.981562,0.968836,0.989684,0.327303,0.261114
1700499452234375,-10.28087,0.974562,0.948836,0.952784,0.319603,0.262614
1700499452242187,-10.103087,-1.43562,0.898836,0.910284,0.313003,0.251514
1700499452250000,-10.168087,-1.155562,0.858836,0.868484,0.302203,0.246714
1700499452257812,-10.248087,-1.265562,0.808836,0.837984,0.305603,0.241814
1700499452265625,-10.263087,-1.336562,0.779836,0.792984,0.301103,0.235314
1700499452273437,-10.241087,-1.326562,0.759836,0.752584,0.287303,0.217714
1700499452281250,-10.179087,-1.332562,0.777836,0.698784,0.280603,0.209814
1700499452289062,-10.70087,-1.346562,0.835836,0.665084,0.269803,0.201714
1700499452296875,-9.955087,-1.369562,0.858836,0.637584,0.252503,0.203414
1700499452304687,-9.831087,-1.345562,0.894836,0.633184,0.232603,0.203214
1700499452312500,-9.692087,-1.363562,0.930836,0.612584,0.221703,0.214414
1700499452320312,-9.615087,-1.408562,0.885836,0.583484,0.243303,0.228914
1700499452328125,-9.645087,-1.503562,0.862836,0.554384,0.255703,0.233714
1700499452335937,-9.593087,-1.669562,0.887836,0.553984,0.266503,0.217814
1700499452343750,-9.470087,-1.935562,0.641836,0.528084,0.279303,0.200114
1700499452351562,-9.431087,-2.177562,0.410836,0.506984,0.257503,0.185714
1700499452359375,-9.362087,-2.421562,0.661836,0.508684,0.178303,0.153514
1700499452367187,-9.105087,-2.675562,0.948836,0.538984,0.119303,0.105514
1700499452375000,-8.845087,-2.836562,0.823836,0.546784,0.118203,0.68514
1700499452382812,-8.767087,-2.772562,0.796836,0.525184,0.79003,0.33414
1700499452390625,-8.716087,-2.803562,1.121836,0.548284,0.37603,0.14014
1700499452398437,-8.712087,-2.880562,1.352836,0.588184,0.28303,0.13186
1700499452406250,-8.779087,-2.900562,1.406836,0.641184,0.9603,0.27586
1700499452414062,-8.846087,-2.971562,1.476836,0.672684,0.11897,0.5286
1700499452421875,-9.31087,-3.116562,1.433836,0.722684,0.3303,0.22014
1700499452429687,-9.283087,-3.522562,1.280836,0.768084,0.37603,0.41214
1700499452437500,-9.513087,-3.974562,1.32836,0.816484,0.93503,0.74914
1700499452445312,-9.726087,-4.441562,0.829836,0.847284,0.129503,0.84514
1700499452453125,-9.937087,-4.749562,0.610836,0.863084,0.171103,0.108714
1700499452460937,-10.62087,-4.780562,0.445836,0.885784,0.206903,0.123114
1700499452468750,-10.84087,-4.669562,0.300836,0.903584,0.205103,0.140814
1700499452476562,-10.72087,-4.466562,0.289836,0.923484,0.221003,0.159914
1700499452484375,-9.984087,-4.242562,0.341836,0.941284,0.228703,0.167914
1700499452492187,-9.920087,-4.89562,0.409836,0.946584,0.239803,0.188614
1700499452500000,-9.852087,-3.970562,0.415836,0.960984,0.256703,0.199914
1700499452507812,-9.792087,-3.924562,0.413836,0.959484,0.264403,0.209614
1700499452515625,-9.696087,-3.992562,0.395836,0.970884,0.254903,0.220814
1700499452523437,-9.524087,-4.86562,0.397836,0.983484,0.240403,0.228914
1700499452531250,-9.374087,-4.260562,0.469836,1.8384,0.214503,0.228714
1700499452539062,-9.238087,-4.336562,0.596836,1.46784,0.186103,0.224014
1700499452546875,-9.144087,-4.369562,0.699836,1.66484,0.178503,0.232014
1700499452554687,-9.22087,-4.402562,0.812836,1.109984,0.180003,0.232014
1700499452562500,-8.867087,-4.464562,0.819836,1.151784,0.187903,0.224014
1700499452570312,-8.786087,-4.516562,0.771836,1.183984,0.208303,0.217614
1700499452578125,-8.697087,-4.604562,0.686836,1.238684,0.233503,0.211114
1700499452585937,-8.553087,-4.619562,0.634836,1.288284,0.253603,0.208014
1700499452593750,-8.412087,-4.668562,0.609836,1.354584,0.269703,0.195114
1700499452601562,-8.375087,-4.751562,0.572836,1.412484,0.296303,0.187114
1700499452609375,-8.409087,-4.776562,0.489836,1.482884,0.316203,0.184114
1700499452617187,-8.480087,-4.761562,0.525836,1.543084,0.345003,0.185514
1700499452625000,-8.572087,-4.710562,0.405836,1.598884,0.379203,0.168014
1700499452632812,-8.670087,-4.660562,0.326836,1.651984,0.398203,0.148714
1700499452640625,-8.707087,-4.522562,0.308836,1.707984,0.409203,0.126314
1700499452648437,-8.787087,-4.280562,0.315836,1.754684,0.436003,0.110314
1700499452656250,-8.914087,-4.36562,0.369836,1.799184,0.464003,0.92814
1700499452664062,-9.19087,-3.770562,0.263836,1.831484,0.489303,0.84714
1700499452671875,-9.115087,-3.516562,0.266836,1.850984,0.502003,0.81414
1700499452679687,-9.168087,-3.290562,0.329836,1.857384,0.505203,0.75014
1700499452687500,-9.232087,-3.127562,0.306836,1.863584,0.500203,0.79914
1700499452695312,-9.289087,-2.976562,0.419836,1.860484,0.487803,0.79914
1700499452703125,-9.293087,-2.942562,0.417836,1.826384,0.492203,0.78314
1700499452710937,-9.336087,-2.922562,0.408836,1.792584,0.486103,0.75114
1700499452718750,-9.343087,-2.935562,0.483836,1.774784,0.475203,0.63914
1700499452726562,-9.289087,-3.50562,0.523836,1.748784,0.478203,0.59114
1700499452734375,-9.217087,-3.244562,0.455836,1.718084,0.465803,0.49514
1700499452742187,-9.162087,-3.439562,0.485836,1.711284,0.459403,0.40014
1700499452750000,-9.171087,-3.599562,0.345836,1.690284,0.479803,0.36714
1700499452757812,-9.184087,-3.717562,0.162836,1.702584,0.496503,0.32114
1700499452765625,-9.180087,-3.776562,0.60836,1.717684,0.503403,0.33514
1700499452773437,-9.182087,-3.814562,0.33836,1.716284,0.505203,0.30214
1700499452781250,-9.174087,-3.827562,0.7164,1.735284,0.508003,0.30314
1700499452789062,-9.234087,-3.915562,0.97164,1.738484,0.511303,0.17514
1700499452796875,-9.283087,-3.905562,0.124164,1.736684,0.501803,0.11114
1700499452804687,-9.309087,-3.709562,0.16164,1.758884,0.501503,0.11214
1700499452812500,-9.308087,-3.412562,0.101836,1.791184,0.511203,0.1586
1700499452820312,-9.231087,-3.215562,0.15836,1.797684,0.511803,0.32186
1700499452828125,-9.120087,-3.281562,0.54164,1.791184,0.486903,0.44986
1700499452835937,-9.87087,-3.365562,0.13836,1.765284,0.437003,0.59486
1700499452843750,-9.177087,-3.382562,0.266836,1.767484,0.398503,0.67586
1700499452851562,-9.269087,-3.194562,0.632836,1.781384,0.404203,0.64186
1700499452859375,-9.455087,-3.41562,0.907836,1.784984,0.406003,0.61086
1700499452867187,-9.766087,-2.849562,1.165836,1.790084,0.420103,0.46786
1700499452875000,-10.145087,-2.646562,1.249836,1.788484,0.430803,0.30686
1700499452882812,-10.509087,-2.393562,1.312836,1.788884,0.404203,0.9886
1700499452890625,-10.708087,-2.183562,1.391836,1.804284,0.371703,0.14014
1700499452898437,-10.845087,-1.947562,1.464836,1.802984,0.330603,0.49314
1700499452906250,-10.795087,-1.812562,1.468836,1.791284,0.274803,0.79514
1700499452914062,-10.438087,-1.787562,1.500836,1.768784,0.204003,0.102014
1700499452921875,-9.989087,-1.755562,1.565836,1.712984,0.152703,0.113114
1700499452929687,-9.566087,-1.860562,1.616836,1.689184,0.110303,0.135514
1700499452937500,-9.216087,-2.33562,1.494836,1.684384,0.107003,0.146814
1700499452945312,-8.944087,-2.226562,1.365836,1.689584,0.97703,0.156414
1700499452953125,-8.864087,-2.279562,1.325836,1.689784,0.109103,0.148214
1700499452960937,-8.923087,-2.282562,1.223836,1.690784,0.140003,0.140414
1700499452968750,-9.89087,-2.248562,1.40836,1.693084,0.183403,0.118114
1700499452976562,-9.330087,-2.214562,0.846836,1.683684,0.205903,0.103514
1700499452984375,-9.484087,-2.187562,0.756836,1.653984,0.230603,0.84414
1700499452992187,-9.639087,-2.136562,0.632836,1.619384,0.260103,0.58914
1700499453000000,-9.738087,-2.130562,0.523836,1.589984,0.283703,0.33314
1700499453007812,-9.811087,-2.92562,0.408836,1.583384,0.312103,0.15614
1700499453015625,-9.834087,-1.987562,0.232836,1.566784,0.335103,0.12514
1700499453023437,-9.777087,-1.902562,0.83836,1.544084,0.338603,0.11586
1700499453031250,-9.694087,-1.896562,0.49836,1.531084,0.333903,0.21186
1700499453039062,-9.592087,-1.858562,0.49836,1.530984,0.330703,0.21186
1700499453046875,-9.480087,-1.821562,0.2164,1.512784,0.330503,0.32286
1700499453054687,-9.429087,-1.791562,0.7164,1.505084,0.315003,0.22686
1700499453062500,-9.405087,-1.743562,0.47164,1.503384,0.318003,0.19486
1700499453070312,-9.415087,-1.705562,0.32164,1.502284,0.299303,0.3586
1700499453078125,-9.468087,-1.684562,0.132836,1.503584,0.292603,0.9414
1700499453085937,-9.579087,-1.639562,0.245836,1.505684,0.296103,0.15714
1700499453093750,-9.659087,-1.578562,0.336836,1.507384,0.289703,0.22114
1700499453101562,-9.673087,-1.524562,0.419836,1.504284,0.283503,0.28514
1700499453109375,-9.702087,-1.482562,0.485836,1.502584,0.288003,0.31714
1700499453117187,-9.689087,-1.450562,0.516836,1.487884,0.283003,0.39814
1700499453125000,-9.615087,-1.453562,0.568836,1.486084,0.279703,0.39914
1700499453132812,-9.549087,-1.417562,0.663836,1.468684,0.265903,0.39814
1700499453140625,-9.483087,-1.359562,0.677836,1.457684,0.258403,0.39714
1700499453148437,-9.476087,-1.339562,0.650836,1.438184,0.256803,0.33314
1700499453156250,-9.557087,-1.318562,0.695836,1.417084,0.250503,0.23714
1700499453164062,-9.594087,-1.341562,0.686836,1.394084,0.234503,0.19014
1700499453171875,-9.642087,-1.343562,0.742836,1.367084,0.216103,0.23714
1700499453179687,-9.677087,-1.328562,0.833836,1.336384,0.206403,0.33414
1700499453187500,-9.690087,-1.274562,0.878836,1.288384,0.197203,0.38114
1700499453195312,-9.641087,-1.225562,0.925836,1.264384,0.181403,0.55814
1700499453203125,-9.586087,-1.213562,0.959836,1.238684,0.192303,0.63814
1700499453210937,-9.601087,-1.215562,0.952836,1.208184,0.195303,0.78214
1700499453218750,-9.638087,-1.271562,0.993836,1.178284,0.191103,0.87614
1700499453226562,-9.653087,-1.365562,1.72836,1.171284,0.190403,0.95814
1700499453234375,-9.661087,-1.479562,1.43836,1.150884,0.190703,0.110114
1700499453242187,-9.734087,-1.604562,1.68836,1.143084,0.189303,0.114814
1700499453250000,-9.779087,-1.647562,1.104836,1.134684,0.179503,0.118214
1700499453257812,-9.771087,-1.733562,1.126836,1.119984,0.173103,0.116614
1700499453265625,-9.777087,-1.800562,1.178836,1.120284,0.160903,0.111714
1700499453273437,-9.769087,-1.839562,1.176836,1.108884,0.154603,0.110114
1700499453281250,-9.778087,-1.837562,1.239836,1.94084,0.149703,0.103814
1700499453289062,-9.775087,-1.738562,1.282836,1.95884,0.154603,0.106914
1700499453296875,-9.761087,-1.640562,1.303836,1.94384,0.154403,0.118214
1700499453304687,-9.756087,-1.565562,1.364836,1.95984,0.153003,0.114914
1700499453312500,-9.718087,-1.499562,1.318836,1.94184,0.154303,0.116614
1700499453320312,-9.682087,-1.475562,1.260836,1.95584,0.166503,0.124714
1700499453328125,-9.659087,-1.519562,1.217836,1.93884,0.180403,0.129614
1700499453335937,-9.615087,-1.602562,1.219836,1.95684,0.181903,0.139214
1700499453343750,-9.560087,-1.604562,1.230836,1.92884,0.202503,0.151914
1700499453351562,-9.488087,-1.593562,1.171836,1.86284,0.208503,0.161514
1700499453359375,-9.450087,-1.598562,1.128836,1.94284,0.230103,0.171214
1700499453367187,-9.462087,-1.601562,1.90836,1.97984,0.228803,0.183914
1700499453375000,-9.520087,-1.598562,1.79836,1.96384,0.241303,0.188714
1700499453382812,-9.628087,-1.579562,1.124836,1.88684,0.236703,0.196714
1700499453390625,-9.742087,-1.574562,1.156836,1.80384,0.242703,0.198314
1700499453398437,-9.906087,-1.525562,1.203836,1.70684,0.236303,0.206414
1700499453406250,-9.978087,-1.509562,1.350836,1.73984,0.219103,0.204814
1700499453414062,-9.979087,-1.552562,1.440836,1.60784,0.211203,0.195214
1700499453421875,-9.899087,-1.565562,1.391836,1.43284,0.208403,0.193514
1700499453429687,-9.776087,-1.536562,1.253836,1.22284,0.203703,0.191914
1700499453437500,-9.695087,-1.503562,1.77836,0.979884,0.215703,0.193714
1700499453445312,-9.632087,-1.434562,1.101836,0.955784,0.212603,0.188814
1700499453453125,-9.584087,-1.380562,1.79836,0.920584,0.223803,0.195214
1700499453460937,-9.570087,-1.342562,0.968836,0.874784,0.249803,0.193714
1700499453468750,-9.659087,-1.337562,0.812836,0.846284,0.261203,0.195214
1700499453476562,-9.720087,-1.337562,0.736836,0.821484,0.251303,0.193714
1700499453484375,-9.707087,-1.335562,0.686836,0.808684,0.251403,0.192114
1700499453492187,-9.686087,-1.366562,0.654836,0.776384,0.231003,0.187314
1700499453500000,-9.618087,-1.437562,0.742836,0.754084,0.221903,0.187214
1700499453507812,-9.577087,-1.513562,0.817836,0.742884,0.229903,0.185614
1700499453515625,-9.553087,-1.581562,0.783836,0.697484,0.237303,0.190514
1700499453523437,-9.579087,-1.665562,0.796836,0.663784,0.229503,0.195314
1700499453531250,-9.581087,-1.738562,0.921836,0.639684,0.207803,0.187214
1700499453539062,-9.601087,-1.741562,1.13836,0.630084,0.204803,0.190414
1700499453546875,-9.594087,-1.734562,1.49836,0.630084,0.195503,0.183914
1700499453554687,-9.600087,-1.738562,1.153836,0.626484,0.190403,0.180914
1700499453562500,-9.654087,-1.813562,1.174836,0.621984,0.193803,0.187214
1700499453570312,-9.628087,-1.906562,1.284836,0.612484,0.183003,0.185514
1700499453578125,-9.577087,-1.971562,1.431836,0.607384,0.184403,0.182414
1700499453585937,-9.596087,-2.49562,1.418836,0.622984,0.209103,0.172914
1700499453593750,-9.644087,-2.183562,1.384836,0.634584,0.226903,0.158314
1700499453601562,-9.611087,-2.384562,1.395836,0.653084,0.239103,0.136014
1700499453609375,-9.555087,-2.551562,1.212836,0.653084,0.255003,0.115214
1700499453617187,-9.560087,-2.538562,1.151836,0.653084,0.253803,0.100714
1700499453625000,-9.512087,-2.484562,1.194836,0.657984,0.236803,0.86214
1700499453632812,-9.476087,-2.442562,1.149836,0.660784,0.250603,0.81514
1700499453640625,-9.584087,-2.443562,1.65836,0.638684,0.239903,0.95814
1700499453648437,-9.773087,-2.454562,1.86836,0.638284,0.212903,0.94414
1700499453656250,-9.829087,-2.444562,1.138836,0.657884,0.175503,0.92714
1700499453664062,-9.782087,-2.535562,1.197836,0.678084,0.135503,0.102114
1700499453671875,-9.804087,-2.844562,1.260836,0.683284,0.102603,0.121314
1700499453679687,-9.725087,-3.46562,1.321836,0.708084,0.26203,0.137314
1700499453687500,-9.534087,-3.207562,1.501836,0.731284,0.28297,0.146814
1700499453695312,-9.382087,-3.397562,1.639836,0.739784,0.53297,0.167614
1700499453703125,-9.286087,-3.496562,1.634836,0.756084,0.40797,0.182014
1700499453710937,-9.312087,-3.602562,1.560836,0.756084,0.17397,0.185214
1700499453718750,-9.377087,-3.698562,1.388836,0.758884,0.16703,0.185314
1700499453726562,-9.439087,-3.731562,1.264836,0.768584,0.35403,0.190114
1700499453734375,-9.515087,-3.760562,1.181836,0.779784,0.51003,0.191714
1700499453742187,-9.571087,-3.782562,1.66836,0.794284,0.77503,0.194914
1700499453750000,-9.558087,-3.828562,1.18836,0.811984,0.80503,0.203014
1700499453757812,-9.572087,-3.927562,0.984836,0.820084,0.91303,0.211014
1700499453765625,-9.504087,-4.21562,0.964836,0.839484,0.91303,0.215814
1700499453773437,-9.418087,-4.132562,0.973836,0.846384,0.99303,0.233414
1700499453781250,-9.305087,-4.257562,0.961836,0.862284,0.106703,0.241514
1700499453789062,-9.209087,-4.402562,1.7836,0.876784,0.104903,0.252714
1700499453796875,-9.194087,-4.537562,1.88836,0.898084,0.111303,0.267114
1700499453804687,-9.220087,-4.585562,1.151836,0.928584,0.125103,0.276814
1700499453812500,-9.196087,-4.530562,1.160836,0.946484,0.129803,0.283114
1700499453820312,-9.88087,-4.417562,1.113836,0.967184,0.137603,0.275214
1700499453828125,-8.948087,-4.351562,1.76836,0.988184,0.144003,0.271914
1700499453835937,-8.830087,-4.310562,1.40836,1.17284,0.155103,0.265514
1700499453843750,-8.747087,-4.300562,0.979836,1.56984,0.181403,0.251214
1700499453851562,-8.687087,-4.255562,0.871836,1.97484,0.195803,0.247914
1700499453859375,-8.643087,-4.187562,0.819836,1.142384,0.205303,0.230314
1700499453867187,-8.610087,-4.122562,0.749836,1.190284,0.205103,0.216014
1700499453875000,-8.650087,-4.79562,0.735836,1.227584,0.210403,0.199814
1700499453882812,-8.725087,-3.955562,0.751836,1.259684,0.226003,0.193514
1700499453890625,-8.805087,-3.877562,0.726836,1.288384,0.247803,0.183914
1700499453898437,-8.855087,-3.825562,0.762836,1.320384,0.271403,0.164714
1700499453906250,-8.907087,-3.778562,0.952836,1.333084,0.282503,0.148614
1700499453914062,-8.943087,-3.705562,1.42836,1.345884,0.289203,0.121314
1700499453921875,-8.938087,-3.615562,1.135836,1.352884,0.307103,0.113614
1700499453929687,-8.938087,-3.476562,1.241836,1.351184,0.330903,0.92714
1700499453937500,-8.939087,-3.405562,1.291836,1.352584,0.330803,0.88014
1700499453945312,-8.824087,-3.347562,1.334836,1.350984,0.341903,0.81514
1700499453953125,-8.702087,-3.260562,1.318836,1.357084,0.366803,0.67114
1700499453960937,-8.697087,-3.174562,1.236836,1.356784,0.384103,0.51114
1700499453968750,-8.710087,-3.183562,1.137836,1.364484,0.404303,0.41614
1700499453976562,-8.721087,-3.181562,1.87836,1.398484,0.407803,0.30314
1700499453984375,-8.748087,-3.203562,1.29836,1.403084,0.429703,0.22314
1700499453992187,-8.736087,-3.243562,0.884836,1.427184,0.445303,0.15914
1700499454000000,-8.720087,-3.258562,0.857836,1.452884,0.450203,0.4714
1700499454007812,-8.738087,-3.236562,0.801836,1.452584,0.453403,0.16086
1700499454015625,-8.886087,-3.369562,0.884836,1.455784,0.441103,0.32186
1700499454023437,-9.63087,-3.375562,1.214836,1.443084,0.417703,0.27386
1700499454031250,-9.233087,-3.71562,1.226836,1.426484,0.437803,0.33686
1700499454039062,-9.359087,-2.888562,0.880836,1.403684,0.453403,0.46486
1700499454046875,-9.362087,-2.826562,0.799836,1.385984,0.444003,0.48086
1700499454054687,-9.300087,-2.802562,0.857836,1.369884,0.445703,0.49786
1700499454062500,-9.293087,-2.930562,0.857836,1.317784,0.456003,0.43186
1700499454070312,-9.274087,-3.13562,0.921836,1.281184,0.442203,0.36886
1700499454078125,-9.280087,-3.113562,0.988836,1.252184,0.429803,0.40186
1700499454085937,-9.277087,-3.56562,1.77836,1.245184,0.429103,0.30286
1700499454093750,-9.423087,-2.854562,1.65836,1.245884,0.449903,0.16086
1700499454101562,-9.775087,-2.557562,1.27836,1.250784,0.473403,0.12886
1700499454109375,-10.72087,-2.412562,1.836,1.274984,0.451503,0.12886
1700499454117187,-10.320087,-2.462562,1.190836,1.292984,0.409603,0.20986
1700499454125000,-10.506087,-2.583562,1.412836,1.310984,0.376703,0.11386
1700499454132812,-10.634087,-2.608562,1.525836,1.311584,0.337903,0.6114
1700499454140625,-10.714087,-2.613562,1.581836,1.298984,0.312703,0.28614
1700499454148437,-10.756087,-2.585562,1.640836,1.269884,0.282503,0.44714
1700499454156250,-10.659087,-2.560562,1.726836,1.256084,0.225003,0.59014
1700499454164062,-10.392087,-2.649562,1.771836,1.231184,0.191003,0.79714
1700499454171875,-9.993087,-2.804562,1.782836,1.223384,0.158203,0.87614
1700499454179687,-9.606087,-2.884562,1.768836,1.241084,0.125303,0.82914
1700499454187500,-9.263087,-2.896562,1.851836,1.252484,0.109803,0.84414
1700499454195312,-9.35087,-2.854562,1.792836,1.290684,0.117303,0.78214
1700499454203125,-8.988087,-2.719562,1.792836,1.342884,0.125603,0.82814
1700499454210937,-9.49087,-2.536562,1.704836,1.389484,0.131703,0.81314
1700499454218750,-9.198087,-2.277562,1.591836,1.426484,0.119303,0.76514
1700499454226562,-9.321087,-2.18562,1.609836,1.445984,0.92703,0.79714
1700499454234375,-9.480087,-1.874562,1.497836,1.446284,0.82003,0.81214
1700499454242187,-9.536087,-1.770562,1.463836,1.428884,0.77603,0.82714
1700499454250000,-9.515087,-1.647562,1.354836,1.405984,0.88503,0.66714
1700499454257812,-9.524087,-1.565562,1.230836,1.367284,0.124503,0.68314
1700499454265625,-9.589087,-1.623562,1.54836,1.332784,0.155503,0.54014
1700499454273437,-9.601087,-1.752562,0.966836,1.311784,0.180803,0.37914
1700499454281250,-9.496087,-1.972562,0.930836,1.283584,0.199203,0.20414
1700499454289062,-9.428087,-2.145562,0.792836,1.270184,0.237903,0.14114
1700499454296875,-9.413087,-2.294562,0.661836,1.274984,0.249003,0.7714
1700499454304687,-9.432087,-2.349562,0.598836,1.272984,0.258203,0.3486
1700499454312500,-9.394087,-2.372562,0.498836,1.298984,0.260303,0.14786
1700499454320312,-9.373087,-2.405562,0.480836,1.306884,0.264703,0.11486
1700499454328125,-9.364087,-2.394562,0.412836,1.337884,0.263203,0.6014
1700499454335937,-9.336087,-2.331562,0.401836,1.365584,0.261703,0.14014
1700499454343750,-9.299087,-2.168562,0.507836,1.391484,0.252403,0.17214
1700499454351562,-9.296087,-2.17562,0.546836,1.410784,0.264703,0.26914
1700499454359375,-9.377087,-1.885562,0.622836,1.430284,0.266303,0.33314
1700499454367187,-9.478087,-1.763562,0.699836,1.429184,0.271203,0.50814
1700499454375000,-9.554087,-1.658562,0.796836,1.432484,0.275903,0.55614
1700499454382812,-9.629087,-1.517562,0.812836,1.419484,0.275703,0.57214
1700499454390625,-9.662087,-1.390562,0.885836,1.399884,0.270803,0.57314
1700499454398437,-9.635087,-1.338562,0.939836,1.380984,0.257203,0.53914
1700499454406250,-9.556087,-1.301562,1.836,1.361484,0.238003,0.62114
1700499454414062,-9.489087,-1.275562,1.67836,1.345184,0.233403,0.52414
1700499454421875,-9.457087,-1.337562,1.38836,1.322484,0.247103,0.63714
1700499454429687,-9.517087,-1.397562,1.76836,1.303484,0.239703,0.62014
1700499454437500,-9.540087,-1.490562,1.63836,1.292284,0.252103,0.70014
1700499454445312,-9.526087,-1.498562,1.65836,1.275984,0.248703,0.79714
1700499454453125,-9.535087,-1.545562,1.90836,1.256784,0.253303,0.86114
1700499454460937,-9.560087,-1.615562,1.110836,1.248684,0.240603,0.94214
1700499454468750,-9.576087,-1.632562,1.156836,1.247184,0.231203,0.100614
1700499454476562,-9.594087,-1.634562,1.208836,1.242584,0.234203,0.123014
1700499454484375,-9.622087,-1.669562,1.257836,1.224984,0.237303,0.131014
1700499454492187,-9.637087,-1.725562,1.260836,1.225184,0.248203,0.147014
1700499454500000,-9.694087,-1.783562,1.289836,1.218584,0.254003,0.159914
1700499454507812,-9.756087,-1.736562,1.298836,1.206084,0.251103,0.164614
1700499454515625,-9.772087,-1.696562,1.339836,1.189684,0.233903,0.153414
1700499454523437,-9.785087,-1.700562,1.368836,1.173484,0.227403,0.159914
1700499454531250,-9.820087,-1.691562,1.388836,1.173884,0.214003,0.146914
1700499454539062,-9.854087,-1.657562,1.456836,1.165684,0.203003,0.140514
1700499454546875,-9.866087,-1.593562,1.431836,1.170484,0.209403,0.130914
1700499454554687,-9.910087,-1.581562,1.366836,1.153984,0.207703,0.119714
1700499454562500,-9.912087,-1.592562,1.364836,1.142584,0.198203,0.118214
1700499454570312,-9.851087,-1.635562,1.379836,1.137884,0.192203,0.111714
1700499454578125,-9.754087,-1.676562,1.418836,1.142684,0.181203,0.106914
1700499454585937,-9.651087,-1.616562,1.467836,1.130284,0.178203,0.124514
1700499454593750,-9.528087,-1.498562,1.442836,1.121784,0.191803,0.134214
1700499454601562,-9.486087,-1.415562,1.399836,1.114284,0.201503,0.146914
1700499454609375,-9.524087,-1.334562,1.413836,1.97684,0.211803,0.155114
1700499454617187,-9.536087,-1.301562,1.395836,1.77084,0.213503,0.167814
1700499454625000,-9.518087,-1.328562,1.311836,1.68884,0.214903,0.167914
1700499454632812,-9.531087,-1.339562,1.291836,1.56084,0.207203,0.164614
1700499454640625,-9.576087,-1.334562,1.311836,1.25484,0.205703,0.166214
1700499454648437,-9.590087,-1.314562,1.339836,1.16084,0.193403,0.167714
1700499454656250,-9.591087,-1.252562,1.361836,0.987184,0.190203,0.177414
1700499454664062,-9.598087,-1.194562,1.399836,0.959484,0.180403,0.180714
1700499454671875,-9.588087,-1.137562,1.397836,0.932284,0.177503,0.180614
1700499454679687,-9.561087,-1.52562,1.345836,0.895384,0.179103,0.185314
1700499454687500,-9.569087,-1.24562,1.253836,0.885384,0.180303,0.187114
1700499454695312,-9.639087,-1.25562,1.298836,0.854984,0.158403,0.198314
1700499454703125,-9.704087,-1.90562,1.318836,0.820884,0.165803,0.209614
1700499454710937,-9.776087,-1.190562,1.323836,0.789084,0.166103,0.214314
1700499454718750,-9.837087,-1.242562,1.321836,0.764984,0.167403,0.230314
1700499454726562,-9.894087,-1.219562,1.366836,0.742584,0.176903,0.235114
1700499454734375,-9.900087,-1.216562,1.397836,0.711384,0.177903,0.236814
1700499454742187,-9.878087,-1.230562,1.449836,0.685884,0.179603,0.244814
1700499454750000,-9.823087,-1.333562,1.485836,0.671684,0.173703,0.244714
1700499454757812,-9.704087,-1.474562,1.492836,0.658384,0.178003,0.246414
1700499454765625,-9.610087,-1.585562,1.492836,0.648684,0.179303,0.254414
1700499454773437,-9.620087,-1.745562,1.429836,0.628184,0.190503,0.268814
1700499454781250,-9.627087,-1.932562,1.330836,0.618084,0.197703,0.275314
1700499454789062,-9.664087,-2.36562,1.354836,0.597184,0.191903,0.259214
1700499454796875,-9.734087,-2.121562,1.373836,0.582584,0.190203,0.256014
1700499454804687,-9.758087,-2.293562,1.409836,0.588684,0.181003,0.230414
1700499454812500,-9.689087,-2.427562,1.483836,0.585384,0.157703,0.214414
1700499454820312,-9.577087,-2.438562,1.427836,0.578684,0.154803,0.191914
1700499454828125,-9.504087,-2.410562,1.436836,0.595084,0.136203,0.191914
1700499454835937,-9.489087,-2.371562,1.535836,0.593484,0.128603,0.183814
1700499454843750,-9.496087,-2.340562,1.619836,0.611384,0.130203,0.187014
1700499454851562,-9.413087,-2.368562,1.573836,0.627484,0.128603,0.190214
1700499454859375,-9.370087,-2.391562,1.479836,0.619484,0.123903,0.190214
1700499454867187,-9.395087,-2.337562,1.494836,0.633984,0.116003,0.195114
1700499454875000,-9.367087,-2.270562,1.564836,0.667684,0.111203,0.190314
1700499454882812,-9.374087,-2.280562,1.512836,0.667784,0.131803,0.185414
1700499454890625,-9.380087,-2.295562,1.302836,0.654584,0.156703,0.175914
1700499454898437,-9.413087,-2.312562,1.311836,0.642884,0.169103,0.163114
1700499454906250,-9.494087,-2.331562,1.271836,0.633084,0.192503,0.159914
1700499454914062,-9.660087,-2.296562,1.126836,0.641184,0.202103,0.151814
1700499454921875,-9.709087,-2.281562,1.86836,0.637884,0.198703,0.161514
1700499454929687,-9.686087,-2.330562,1.61836,0.621784,0.187703,0.166314
1700499454937500,-9.845087,-2.505562,1.5836,0.596084,0.178303,0.171114
1700499454945312,-10.4087,-2.610562,1.54836,0.579984,0.143803,0.176014
1700499454953125,-10.70087,-2.635562,1.208836,0.572884,0.100703,0.178914
1700499454960937,-10.40087,-2.772562,1.337836,0.550284,0.52303,0.169314
1700499454968750,-9.958087,-3.12562,1.339836,0.534084,0.7103,0.154914
1700499454976562,-9.705087,-3.168562,1.416836,0.510184,0.66097,0.143614
1700499454984375,-9.467087,-3.244562,1.535836,0.496384,0.118697,0.148214
1700499454992187,-9.314087,-3.332562,1.646836,0.486984,0.162397,0.154614
1700499455000000,-9.194087,-3.367562,1.643836,0.498584,0.204597,0.162614
1700499455007812,-9.151087,-3.405562,1.729836,0.497284,0.220397,0.185114
1700499455015625,-9.204087,-3.446562,1.817836,0.487984,0.228197,0.204314
1700499455023437,-9.269087,-3.441562,1.720836,0.499184,0.234697,0.212314
1700499455031250,-9.354087,-3.429562,1.693836,0.485084,0.239297,0.233114
1700499455039062,-9.514087,-3.357562,1.707836,0.465484,0.221197,0.252414
1700499455046875,-9.649087,-3.284562,1.750836,0.431884,0.211997,0.278114
1700499455054687,-9.802087,-3.246562,1.782836,0.391284,0.176597,0.294214
1700499455062500,-9.878087,-3.275562,1.703836,0.354684,0.156197,0.316614
1700499455070312,-9.891087,-3.431562,1.585836,0.320484,0.122197,0.327914
1700499455078125,-9.742087,-3.665562,1.461836,0.283284,0.131897,0.332714
1700499455085937,-9.506087,-3.972562,1.434836,0.262384,0.159897,0.327914
1700499455093750,-9.275087,-4.258562,1.495836,0.250184,0.191997,0.319714
1700499455101562,-9.74087,-4.470562,1.598836,0.249984,0.203097,0.316514
1700499455109375,-8.946087,-4.488562,1.528836,0.256384,0.193697,0.316514
1700499455117187,-8.824087,-4.399562,1.354836,0.277084,0.173297,0.295714
1700499455125000,-8.647087,-4.300562,1.135836,0.302584,0.161897,0.263614
1700499455132812,-8.437087,-4.207562,1.35836,0.337284,0.157497,0.234914
1700499455140625,-8.277087,-4.137562,1.8836,0.385384,0.127697,0.220514
1700499455148437,-8.226087,-4.80562,0.940836,0.433384,0.85497,0.207814
1700499455156250,-8.184087,-4.29562,0.848836,0.508584,0.52697,0.188614
1700499455164062,-8.231087,-3.928562,0.879836,0.552284,0.31997,0.175714
1700499455171875,-8.285087,-3.826562,0.931836,0.599884,0.603,0.151814
1700499455179687,-8.252087,-3.741562,1.1836,0.630584,0.7403,0.127714
1700499455187500,-8.256087,-3.683562,1.205836,0.639284,0.41303,0.105514
1700499455195312,-8.289087,-3.551562,1.379836,0.655584,0.74803,0.86114
1700499455203125,-8.284087,-3.389562,1.543836,0.643384,0.112203,0.49314
1700499455210937,-8.240087,-3.89562,1.647836,0.626684,0.166903,0.18914
1700499455218750,-8.248087,-2.847562,1.417836,0.612684,0.232603,0.29086
1700499455226562,-8.325087,-2.708562,1.261836,0.586984,0.282203,0.81686
1700499455234375,-8.441087,-2.456562,1.191836,0.559084,0.296703,0.126586
1700499455242187,-8.609087,-2.212562,1.248836,0.538284,0.288403,0.182886
1700499455250000,-8.903087,-1.904562,1.532836,0.495784,0.277503,0.214886
1700499455257812,-9.299087,-1.462562,1.616836,0.469484,0.297903,0.243686
1700499455265625,-9.673087,-1.394562,1.348836,0.463784,0.335003,0.262686
1700499455273437,-9.929087,-1.555562,1.280836,0.432184,0.306003,0.272586
1700499455281250,-10.208087,-1.800562,1.531836,0.390484,0.271503,0.259786
1700499455289062,-10.420087,-1.983562,1.829836,0.361984,0.243203,0.221286
1700499455296875,-10.463087,-2.129562,1.890836,0.310884,0.222603,0.186086
1700499455304687,-10.343087,-2.291562,1.804836,0.241684,0.223303,0.136286
1700499455312500,-10.203087,-2.449562,1.673836,0.177984,0.214103,0.105986
1700499455320312,-9.983087,-2.555562,1.497836,0.119884,0.194603,0.72186
1700499455328125,-9.774087,-2.619562,1.461836,0.68884,0.177603,0.54686
1700499455335937,-9.601087,-2.752562,1.323836,0.34784,0.172503,0.44986
1700499455343750,-9.449087,-2.891562,1.244836,0.20784,0.144603,0.33886
1700499455351562,-9.316087,-3.81562,1.273836,0.9084,0.139703,0.46586
1700499455359375,-9.177087,-3.267562,1.219836,0.12584,0.154003,0.43486
1700499455367187,-9.55087,-3.365562,1.246836,0.27084,0.171303,0.45086
1700499455375000,-8.885087,-3.385562,1.341836,0.57584,0.174403,0.53086
1700499455382812,-8.777087,-3.353562,1.401836,0.101184,0.180603,0.45086
1700499455390625,-8.745087,-3.313562,1.467836,0.153684,0.171603,0.16386
1700499455398437,-8.742087,-3.214562,1.661836,0.218384,0.140003,0.9314
1700499455406250,-8.836087,-3.87562,1.810836,0.267084,0.144803,0.25314
1700499455414062,-8.971087,-2.989562,1.898836,0.283084,0.161703,0.33414
1700499455421875,-9.194087,-2.922562,1.874836,0.294484,0.179003,0.39714
1700499455429687,-9.322087,-2.916562,1.890836,0.297584,0.174103,0.39814
1700499455437500,-9.503087,-2.977562,2.3836,0.296184,0.178803,0.55814
1700499455445312,-9.673087,-2.941562,1.964836,0.291184,0.183303,0.54214
1700499455453125,-9.752087,-2.862562,1.836836,0.272884,0.189203,0.44814
1700499455460937,-9.787087,-2.813562,1.748836,0.266684,0.181803,0.33414
1700499455468750,-9.663087,-2.769562,1.680836,0.265284,0.169803,0.14114
1700499455476562,-9.517087,-2.738562,1.589836,0.244084,0.168203,0.7714
1700499455484375,-9.403087,-2.713562,1.508836,0.243784,0.161903,0.6686
1700499455492187,-9.312087,-2.677562,1.490836,0.253884,0.145103,0.6786
1700499455500000,-9.292087,-2.644562,1.472836,0.256684,0.149503,0.17886
1700499455507812,-9.317087,-2.635562,1.454836,0.260084,0.145103,0.21186
1700499455515625,-9.382087,-2.574562,1.429836,0.261384,0.141703,0.24286
1700499455523437,-9.426087,-2.482562,1.415836,0.269284,0.140003,0.22586
1700499455531250,-9.427087,-2.386562,1.370836,0.256384,0.128803,0.16186
1700499455539062,-9.394087,-2.275562,1.357836,0.239184,0.119703,0.1886
1700499455546875,-9.393087,-2.209562,1.311836,0.222084,0.115403,0.6014
1700499455554687,-9.422087,-2.195562,1.300836,0.195784,0.113403,0.7714
1700499455562500,-9.428087,-2.219562,1.309836,0.171584,0.108803,0.2914
1700499455570312,-9.442087,-2.271562,1.330836,0.144684,0.92003,0.2814
1700499455578125,-9.476087,-2.352562,1.307836,0.120084,0.93503,0.14786
1700499455585937,-9.528087,-2.435562,1.350836,0.105284,0.107503,0.21186
1700499455593750,-9.614087,-2.479562,1.312836,0.93484,0.118203,0.33886
1700499455601562,-9.667087,-2.511562,1.266836,0.81984,0.114903,0.36986
1700499455609375,-9.706087,-2.511562,1.294836,0.62784,0.113403,0.35486
1700499455617187,-9.711087,-2.492562,1.251836,0.61384,0.109003,0.40386
1700499455625000,-9.676087,-2.533562,1.210836,0.48184,0.94603,0.40186
1700499455632812,-9.617087,-2.603562,1.174836,0.37184,0.85403,0.38686
1700499455640625,-9.545087,-2.682562,1.151836,0.35884,0.65303,0.37186
1700499455648437,-9.483087,-2.765562,1.149836,0.34484,0.57603,0.33986
1700499455656250,-9.436087,-2.777562,1.210836,0.36184,0.54603,0.35686
1700499455664062,-9.414087,-2.744562,1.228836,0.34584,0.56103,0.32486
1700499455671875,-9.408087,-2.691562,1.178836,0.40984,0.49703,0.25986
1700499455679687,-9.385087,-2.664562,1.171836,0.56984,0.30803,0.24286
1700499455687500,-9.383087,-2.649562,1.178836,0.57084,0.27803,0.25986
1700499455695312,-9.394087,-2.637562,1.214836,0.61684,0.15003,0.27486
1700499455703125,-9.379087,-2.611562,1.244836,0.60284,0.13603,0.24386
1700499455710937,-9.382087,-2.591562,1.293836,0.66584,0.24503,0.24286
1700499455718750,-9.347087,-2.594562,1.302836,0.63684,0.23303,0.29286
1700499455726562,-9.315087,-2.602562,1.278836,0.63884,0.28003,0.19686
1700499455734375,-9.301087,-2.601562,1.259836,0.68284,0.46403,0.22786
1700499455742187,-9.306087,-2.620562,1.205836,0.66984,0.56103,0.21286
1700499455750000,-9.287087,-2.632562,1.149836,0.58384,0.54103,0.25886
1700499455757812,-9.284087,-2.591562,1.165836,0.71484,0.62003,0.21086
1700499455765625,-9.334087,-2.566562,1.128836,0.68284,0.84003,0.19586
1700499455773437,-9.381087,-2.529562,1.38836,0.71284,0.91503,0.14686
1700499455781250,-9.450087,-2.499562,1.836,0.76084,0.88303,0.13086
1700499455789062,-9.487087,-2.481562,0.986836,0.61784,0.94503,0.3486
1700499455796875,-9.518087,-2.465562,0.975836,0.45584,0.83403,0.1414
1700499455804687,-9.542087,-2.460562,0.941836,0.30984,0.77003,0.7814
1700499455812500,-9.552087,-2.461562,0.977836,0.34784,0.75903,0.10914
1700499455820312,-9.525087,-2.463562,0.979836,0.21484,0.77203,0.7814
1700499455828125,-9.462087,-2.480562,0.957836,0.8884,0.78903,0.14114
1700499455835937,-9.406087,-2.481562,0.930836,0.8816,0.78903,0.10914
1700499455843750,-9.361087,-2.483562,0.912836,0.17116,0.80403,0.4514
1700499455851562,-9.350087,-2.479562,0.896836,0.15516,0.96103,0.2914
1700499455859375,-9.384087,-2.478562,0.871836,0.30316,0.102103,0.186
1700499455867187,-9.440087,-2.503562,0.794836,0.36416,0.108703,0.286
1700499455875000,-9.484087,-2.541562,0.778836,0.43216,0.104003,0.19486
1700499455882812,-9.472087,-2.559562,0.826836,0.52716,0.83803,0.16386
1700499455890625,-9.469087,-2.561562,0.864836,0.54616,0.83403,0.8186
1700499455898437,-9.443087,-2.550562,0.885836,0.67616,0.78803,0.16186
1700499455906250,-9.431087,-2.546562,0.894836,0.69216,0.74003,0.16186
1700499455914062,-9.398087,-2.556562,0.894836,0.70616,0.74203,0.14686
1700499455921875,-9.371087,-2.546562,0.918836,0.88816,0.76903,0.16086
1700499455929687,-9.373087,-2.563562,0.946836,0.93316,0.85003,0.17886
1700499455937500,-9.384087,-2.587562,0.943836,0.99916,0.91303,0.21086
1700499455945312,-9.379087,-2.617562,0.934836,0.109816,0.83203,0.16186
1700499455953125,-9.340087,-2.669562,0.959836,0.111316,0.97403,0.19386
1700499455960937,-9.378087,-2.686562,0.923836,0.114516,0.105203,0.19386
1700499455968750,-9.411087,-2.721562,0.891836,0.125916,0.103603,0.24186
1700499455976562,-9.407087,-2.751562,0.860836,0.127216,0.107103,0.29086
1700499455984375,-9.389087,-2.733562,0.887836,0.135416,0.111803,0.33886
1700499455992187,-9.381087,-2.692562,0.900836,0.144916,0.122803,0.24386
1700499456000000,-9.361087,-2.649562,0.896836,0.130916,0.130103,0.22586
1700499456007812,-9.365087,-2.631562,0.871836,0.137416,0.128403,0.19286
1700499456015625,-9.406087,-2.628562,0.851836,0.129116,0.128503,0.9786
1700499456023437,-9.445087,-2.638562,0.794836,0.126916,0.130403,0.1314
1700499456031250,-9.486087,-2.665562,0.760836,0.127016,0.116103,0.6214
1700499456039062,-9.490087,-2.701562,0.763836,0.131716,0.110003,0.4514
1700499456046875,-9.463087,-2.727562,0.783836,0.125316,0.92703,0.11014
1700499456054687,-9.407087,-2.759562,0.812836,0.136416,0.75603,0.6114
1700499456062500,-9.378087,-2.788562,0.790836,0.136816,0.80003,0.4614
1700499456070312,-9.354087,-2.807562,0.776836,0.123716,0.74103,0.1886
1700499456078125,-9.368087,-2.829562,0.774836,0.113816,0.86703,0.1314
1700499456085937,-9.415087,-2.801562,0.711836,0.101216,0.92803,0.286
1700499456093750,-9.460087,-2.779562,0.686836,0.96016,0.79103,0.1986
1700499456101562,-9.507087,-2.771562,0.702836,0.94816,0.89603,0.1786
1700499456109375,-9.532087,-2.766562,0.663836,0.96316,0.100503,0.3014
1700499456117187,-9.540087,-2.764562,0.648836,0.88316,0.77203,0.6686
1700499456125000,-9.565087,-2.752562,0.650836,0.86516,0.71003,0.2914
1700499456132812,-9.599087,-2.753562,0.643836,0.81516,0.72903,0.6786
1700499456140625,-9.621087,-2.772562,0.620836,0.76716,0.71303,0.8386
1700499456148437,-9.580087,-2.787562,0.591836,0.75516,0.64903,0.22686
1700499456156250,-9.528087,-2.839562,0.600836,0.73916,0.53903,0.19486
1700499456164062,-9.514087,-2.863562,0.598836,0.69016,0.53803,0.16286
1700499456171875,-9.479087,-2.892562,0.600836,0.54716,0.33403,0.19386
1700499456179687,-9.461087,-2.939562,0.598836,0.39916,0.28803,0.14586
1700499456187500,-9.435087,-2.972562,0.600836,0.32816,0.15503,0.22886
1700499456195312,-9.439087,-2.960562,0.596836,0.31316,0.13703,0.11586
1700499456203125,-9.459087,-2.953562,0.587836,0.22016,0.8703,0.17886
1700499456210937,-9.457087,-2.917562,0.573836,0.12416,0.7103,0.17886
1700499456218750,-9.469087,-2.884562,0.557836,0.4016,0.4203,0.17986
1700499456226562,-9.468087,-2.856562,0.580836,0.5884,0.6003,0.17986
1700499456234375,-9.499087,-2.826562,0.573836,0.11984,0.4203,0.21186
1700499456242187,-9.519087,-2.792562,0.546836,0.5384,0.8703,0.17886
1700499456250000,-9.535087,-2.780562,0.539836,0.11584,0.5403,0.19386
1700499456257812,-9.540087,-2.750562,0.498836,0.10284,0.1003,0.21086
1700499456265625,-9.540087,-2.745562,0.469836,0.10284,0.2403,0.11486
1700499456273437,-9.545087,-2.748562,0.442836,0.13684,0.2403,0.3486
1700499456281250,-9.540087,-2.765562,0.413836,0.8784,0.797,0.1886
1700499456289062,-9.538087,-2.777562,0.399836,0.10684,0.6797,0.3486
1700499456296875,-9.556087,-2.786562,0.367836,0.9484,0.9597,0.4314
1700499456304687,-9.577087,-2.780562,0.343836,0.13784,0.8597,0.2914
1700499456312500,-9.571087,-2.783562,0.327836,0.14184,0.22297,0.4414
1700499456320312,-9.550087,-2.771562,0.329836,0.8884,0.13397,0.1314
1700499456328125,-9.555087,-2.751562,0.327836,0.8884,0.8697,0.6214
1700499456335937,-9.563087,-2.735562,0.320836,0.2016,0.14397,0.3586
1700499456343750,-9.563087,-2.712562,0.322836,0.784,0.17597,0.22786
1700499456351562,-9.521087,-2.691562,0.320836,0.5716,0.17597,0.29186
1700499456359375,-9.490087,-2.667562,0.315836,0.884,0.18897,0.35686
1700499456367187,-9.456087,-2.662562,0.340836,0.7816,0.20897,0.43486
1700499456375000,-9.420087,-2.661562,0.343836,0.4416,0.15997,0.43586
1700499456382812,-9.389087,-2.661562,0.390836,0.1984,0.12997,0.38686
1700499456390625,-9.374087,-2.664562,0.397836,0.8684,0.12797,0.33986
1700499456398437,-9.371087,-2.655562,0.365836,0.13584,0.3597,0.24386
1700499456406250,-9.390087,-2.671562,0.338836,0.17384,0.7897,0.14886
1700499456414062,-9.409087,-2.712562,0.329836,0.25184,0.1003,0.1314
1700499456421875,-9.449087,-2.747562,0.315836,0.34984,0.2097,0.4414
1700499456429687,-9.477087,-2.798562,0.286836,0.31784,0.5297,0.10914
1700499456437500,-9.490087,-2.835562,0.279836,0.30284,0.8297,0.9214
1700499456445312,-9.512087,-2.848562,0.275836,0.34984,0.11297,0.8386
1700499456453125,-9.496087,-2.831562,0.277836,0.31684,0.11297,0.8386
1700499456460937,-9.499087,-2.806562,0.270836,0.36284,0.9897,0.17886
1700499456468750,-9.507087,-2.753562,0.266836,0.28284,0.20497,0.25986
1700499456476562,-9.494087,-2.729562,0.266836,0.17284,0.18797,0.22886
1700499456484375,-9.492087,-2.709562,0.270836,0.5684,0.17497,0.24386
1700499456492187,-9.495087,-2.678562,0.282836,0.4284,0.23497,0.26086
1700499456500000,-9.515087,-2.649562,0.288836,0.10416,0.29897,0.27586
1700499456507812,-9.491087,-2.621562,0.284836,0.8516,0.42297,0.26086
1700499456515625,-9.484087,-2.605562,0.304836,0.15016,0.53297,0.26086
1700499456523437,-9.455087,-2.612562,0.313836,0.18316,0.62697,0.27586
1700499456531250,-9.410087,-2.626562,0.354836,0.15016,0.72197,0.19586
1700499456539062,-9.405087,-2.630562,0.354836,0.19916,0.76897,0.21186
1700499456546875,-9.410087,-2.653562,0.329836,0.26116,0.81397,0.18086
1700499456554687,-9.440087,-2.674562,0.324836,0.32516,0.90897,0.13286
1700499456562500,-9.474087,-2.687562,0.327836,0.37316,0.94297,0.4414
1700499456570312,-9.493087,-2.704562,0.320836,0.39016,0.95797,0.8386
1700499456578125,-9.515087,-2.735562,0.302836,0.43816,0.92597,0.3586
1700499456585937,-9.553087,-2.761562,0.297836,0.51816,0.92497,0.5186
1700499456593750,-9.554087,-2.769562,0.282836,0.44716,0.98297,0.1014
1700499456601562,-9.527087,-2.755562,0.255836,0.42116,0.96997,0.16486
1700499456609375,-9.528087,-2.738562,0.239836,0.48316,0.95097,0.21386
1700499456617187,-9.507087,-2.728562,0.221836,0.39216,0.93997,0.29186
1700499456625000,-9.505087,-2.749562,0.227836,0.48516,0.102997,0.30986
1700499456632812,-9.495087,-2.759562,0.207836,0.39416,0.106597,0.33986
1700499456640625,-9.494087,-2.779562,0.157836,0.42716,0.97397,0.32386
1700499456648437,-9.501087,-2.808562,0.146836,0.40716,0.103197,0.34086
1700499456656250,-9.516087,-2.834562,0.164836,0.42516,0.98797,0.29186
1700499456664062,-9.515087,-2.822562,0.171836,0.40616,0.98297,0.34186
1700499456671875,-9.505087,-2.824562,0.148836,0.45616,0.107897,0.37286
1700499456679687,-9.455087,-2.826562,0.173836,0.45916,0.115897,0.45186
1700499456687500,-9.422087,-2.798562,0.221836,0.52316,0.115797,0.46886
1700499456695312,-9.435087,-2.731562,0.245836,0.50916,0.101797,0.49986
1700499456703125,-9.463087,-2.667562,0.221836,0.39616,0.92397,0.51586
1700499456710937,-9.461087,-2.665562,0.214836,0.42416,0.90497,0.46986
1700499456718750,-9.461087,-2.690562,0.252836,0.42516,0.90597,0.46886
1700499456726562,-9.484087,-2.724562,0.286836,0.37816,0.93897,0.45286
1700499456734375,-9.506087,-2.748562,0.309836,0.31516,0.89397,0.43586
1700499456742187,-9.488087,-2.766562,0.365836,0.21616,0.72197,0.30786
1700499456750000,-9.470087,-2.731562,0.410836,0.10616,0.58297,0.29086
1700499456757812,-9.455087,-2.711562,0.413836,0.14016,0.47497,0.32286
1700499456765625,-9.401087,-2.712562,0.426836,0.12216,0.41197,0.24286
1700499456773437,-9.343087,-2.717562,0.464836,0.2516,0.33297,0.24286
1700499456781250,-9.329087,-2.699562,0.498836,0.5216,0.18797,0.21286
1700499456789062,-9.299087,-2.672562,0.496836,0.2716,0.5197,0.29086
1700499456796875,-9.291087,-2.636562,0.480836,0.15616,0.2097,0.30686
1700499456804687,-9.325087,-2.610562,0.453836,0.15616,0.4203,0.33986
1700499456812500,-9.409087,-2.584562,0.462836,0.10716,0.2803,0.40386
1700499456820312,-9.476087,-2.579562,0.458836,0.10416,0.6397,0.32486
1700499456828125,-9.502087,-2.587562,0.449836,0.10716,0.11397,0.30786
1700499456835937,-9.553087,-2.626562,0.433836,0.12216,0.9797,0.27586
1700499456843750,-9.582087,-2.641562,0.388836,0.2184,0.14497,0.29186
1700499456851562,-9.575087,-2.663562,0.417836,0.8784,0.23897,0.24386
1700499456859375,-9.525087,-2.670562,0.440836,0.10384,0.19297,0.19486
1700499456867187,-9.515087,-2.669562,0.419836,0.13784,0.20697,0.17986
1700499456875000,-9.517087,-2.646562,0.424836,0.26684,0.19297,0.11486
1700499456882812,-9.470087,-2.656562,0.451836,0.23684,0.34797,0.11586
1700499456890625,-9.420087,-2.674562,0.462836,0.28484,0.33297,0.3586
1700499456898437,-9.411087,-2.677562,0.474836,0.25184,0.25497,0.9986
1700499456906250,-9.407087,-2.691562,0.476836,0.25384,0.26797,0.14886
1700499456914062,-9.411087,-2.677562,0.435836,0.25084,0.17597,0.17986
1700499456921875,-9.444087,-2.644562,0.431836,0.18984,0.10997,0.13286
1700499456929687,-9.473087,-2.623562,0.392836,0.10684,0.14297,0.21186
1700499456937500,-9.495087,-2.602562,0.392836,0.8584,0.14897,0.17786
