time,Acceleration X (m/s^2),Acceleration Y (m/s^2),Acceleration Z (m/s^2),Angular Velocity X (rad/s),Angular Velocity Y (rad/s),Angular Velocity Z (rad/s)
1700498534000000,-9.549241,2.0048,-0.035544,,,
1700498534007812,-9.543241,0.868108,2.118,0.22489,0.42244,0.18403
1700498534015625,-9.532241,0.868108,2.208,0.23089,0.35344,0.19803
1700498534023437,-9.538241,0.866108,2.458,0.25789,0.48644,0.18403
1700498534031250,-9.529241,0.859108,2.568,0.19389,0.42244,0.15303
1700498534039062,-9.518241,0.841108,2.458,0.15389,0.41744,0.18303
1700498534054687,-9.516241,0.874108,2.768,0.20189,0.58144,0.8703
1700498534062500,-9.525241,0.852108,2.1068,0.17389,0.49644,0.14903
1700498534070312,-9.524241,0.825108,2.278,0.2789,0.33444,0.24803
1700498534078125,-9.509241,0.839108,2.228,0.711,0.33744,0.26603
1700498534101562,-9.572241,0.832108,1.9018,0.22289,0.28244,0.22703
1700498534109375,-9.531241,0.834108,1.8498,0.22089,0.23444,0.22703
1700498534117187,-9.492241,0.869108,1.9738,0.17489,0.28244,0.24403
1700498534125000,-9.521241,0.883108,2.658,0.22989,0.32044,0.26203
1700498534132812,-9.552241,0.859108,2.728,0.31489,0.21644,0.32203
1700498534140625,-9.567241,0.848108,2.498,0.45289,0.10644,0.25703
1700498534148437,-9.583241,0.851108,2.678,0.37389,0.15544,0.24303
1700498534156250,-9.593241,0.866108,2.818,0.18889,0.21744,0.26003
1700498534164062,-9.591241,0.877108,2.708,0.8089,0.29844,0.26103
1700498534171875,-9.608241,0.887108,2.498,0.3611,0.28744,0.21703
1700498534179687,-9.618241,0.891108,2.228,0.89,0.36544,0.21503
1700498534187500,-9.624241,0.871108,2.118,0.911,0.43744,0.23503
1700498534195312,-9.603241,0.858108,2.188,0.889,0.45244,0.20203
1700498534203125,-9.572241,0.835108,2.138,0.89,0.43044,0.18303
1700498534210937,-9.536241,0.823108,1.9958,0.1089,0.45144,0.20103
1700498534218750,-9.511241,0.816108,1.9778,0.89,0.51244,0.15103
1700498534226562,-9.488241,0.829108,1.9718,0.4489,0.38444,0.18403
1700498534234375,-9.475241,0.827108,1.9668,0.3889,0.43544,0.26603
1700498534242187,-9.477241,0.827108,1.9708,0.611,0.43444,0.25003
1700498534250000,-9.486241,0.821108,2.28,0.489,0.32344,0.26703
1700498534257812,-9.508241,0.818108,2.118,0.7289,0.35244,0.24803
1700498534265625,-9.522241,0.817108,2.188,0.14989,0.33744,0.24803
1700498534273437,-9.549241,0.812108,2.118,0.12689,0.38144,0.19703
1700498534281250,-9.567241,0.822108,2.368,0.11789,0.33744,0.24803
1700498534289062,-9.585241,0.827108,2.338,0.14789,0.33944,0.24803
1700498534296875,-9.592241,0.829108,2.48,0.8389,0.38844,0.26603
1700498534304687,-9.594241,0.836108,2.68,0.15889,0.34144,0.29803
1700498534312500,-9.589241,0.836108,2.48,0.22489,0.34044,0.21603
1700498534320312,-9.592241,0.838108,2.68,0.13189,0.38944,0.13703
1700498534328125,-9.585241,0.851108,2.48,0.12089,0.43444,0.16803
1700498534335937,-9.590241,0.844108,2.48,0.17889,0.38844,0.23203
1700498534343750,-9.583241,0.840108,1.9828,0.5589,0.37044,0.21703
1700498534351562,-9.540241,0.830108,1.9668,0.611,0.45244,0.13803
1700498534359375,-9.514241,0.847108,1.9468,0.4689,0.54644,0.12003
1700498534367187,-9.511241,0.845108,1.9978,0.23889,0.48744,0.26503
1700498534375000,-9.500241,0.834108,1.9798,0.26289,0.45144,0.13403
1700498534382812,-9.500241,0.836108,1.9778,0.24789,0.43544,0.11803
1700498534390625,-9.495241,0.838108,2.438,0.26189,0.36944,0.18203
1700498534398437,-9.498241,0.840108,2.478,0.14389,0.30044,0.14803
1700498534406250,-9.502241,0.838108,2.458,0.12489,0.38344,0.16603
1700498534414062,-9.527241,0.852108,2.298,0.16989,0.38444,0.19803
1700498534421875,-9.554241,0.839108,2.458,0.23089,0.35444,0.8603
1700498534429687,-9.558241,0.826108,2.638,0.10489,0.30544,0.15103
1700498534437500,-9.569241,0.822108,2.478,0.12289,0.36944,0.10303
1700498534445312,-9.567241,0.831108,2.428,0.11289,0.35944,0.10603
1700498534453125,-9.558241,0.824108,2.368,0.4089,0.40344,0.16903
1700498534460937,-9.551241,0.819108,2.318,0.13689,0.37144,0.7103
1700498534468750,-9.535241,0.810108,2.278,0.8489,0.42144,0.20103
1700498534476562,-9.517241,0.817108,2.278,0.21489,0.32144,0.15003
1700498534484375,-9.517241,0.819108,2.188,0.18089,0.37244,0.15203
1700498534492187,-9.524241,0.825108,2.208,0.16689,0.35444,0.15103
1700498534500000,-9.536241,0.828108,2.408,0.21889,0.33544,0.11703
1700498534507812,-9.518241,0.829108,2.568,0.22689,0.33044,0.9803
1700498534515625,-9.525241,0.830108,2.588,0.19089,0.35044,0.5203
1700498534523437,-9.531241,0.837108,2.548,0.12589,0.33544,0.6903
1700498534531250,-9.536241,0.828108,2.658,0.13789,0.32044,0.13403
1700498534539062,-9.531241,0.824108,2.498,0.5489,0.29144,0.8903
1700498534546875,-9.536241,0.825108,2.678,0.14089,0.33544,0.10203
1700498534554687,-9.547241,0.835108,2.618,0.18589,0.40244,0.8603
1700498534562500,-9.545241,0.834108,2.638,0.11589,0.28244,0.9903
1700498534570312,-9.543241,0.834108,2.708,0.22189,0.33444,0.8403
1700498534578125,-9.540241,0.839108,2.708,0.13889,0.33644,0.10203
1700498534585937,-9.551241,0.828108,2.728,0.5889,0.28944,0.8703
1700498534593750,-9.552241,0.841108,2.908,0.15389,0.33644,0.11803
1700498534601562,-9.531241,0.850108,2.858,0.5489,0.32444,0.10503
1700498534609375,-9.538241,0.855108,2.748,0.7489,0.30544,0.8703
1700498534617187,-9.540241,0.853108,2.818,0.9689,0.26144,0.17003
1700498534625000,-9.529241,0.859108,2.858,0.3989,0.37244,0.12103
1700498534632812,-9.534241,0.850108,2.748,0.10489,0.38744,0.13603
1700498534640625,-9.524241,0.853108,2.748,0.8189,0.27744,0.13803
1700498534648437,-9.523241,0.863108,2.768,0.10389,0.30644,0.8803
1700498534656250,-9.524241,0.843108,2.788,0.2489,0.37244,0.8903
1700498534664062,-9.527241,0.843108,2.498,0.15189,0.33844,0.11903
1700498534671875,-9.524241,0.828108,2.368,0.17189,0.36844,0.10103
1700498534679687,-9.517241,0.823108,2.338,0.18189,0.37244,0.11903
1700498534687500,-9.529241,0.825108,2.368,0.20089,0.36944,0.10203
1700498534695312,-9.544241,0.824108,2.748,0.19689,0.37244,0.13503
1700498534703125,-9.536241,0.823108,2.658,0.14389,0.31844,0.5203
1700498534710937,-9.547241,0.830108,2.458,0.25789,0.35744,0.11903
1700498534718750,-9.552241,0.834108,2.438,0.19389,0.26644,0.9803
1700498534726562,-9.552241,0.847108,2.598,0.22889,0.32944,0.11303
1700498534734375,-9.532241,0.836108,2.568,0.27389,0.39644,0.9803
1700498534742187,-9.533241,0.823108,2.618,0.26989,0.38244,0.8303
1700498534750000,-9.526241,0.805108,2.708,0.20889,0.46244,0.10003
1700498534757812,-9.522241,0.811108,2.708,0.20089,0.40844,0.8103
1700498534765625,-9.522241,0.834108,2.778,0.25489,0.44644,0.11503
1700498534773437,-9.518241,0.847108,2.1288,0.26789,0.43244,0.6803
1700498534781250,-9.518241,0.834108,2.1068,0.17689,0.41344,0.10003
1700498534789062,-9.515241,0.825108,2.118,0.1989,0.31644,0.8503
1700498534796875,-9.511241,0.849108,2.498,0.14189,0.36644,0.14903
1700498534804687,-9.548241,0.888108,2.1198,0.26389,0.40244,0.11703
1700498534812500,-9.566241,0.861108,2.728,0.25589,0.29944,0.11403
1700498534820312,-9.556241,0.823108,1.9598,0.19189,0.30044,0.8303
1700498534828125,-9.504241,0.814108,1.9328,0.10589,0.30544,0.11903
1700498534835937,-9.485241,0.862108,2.348,0.23989,0.34844,0.13103
1700498534843750,-9.521241,0.872108,2.1158,0.28189,0.30144,0.21203
1700498534851562,-9.523241,0.856108,2.1018,0.31689,0.16944,0.14503
1700498534859375,-9.527241,0.843108,2.818,0.31089,0.15844,0.10003
1700498534867187,-9.558241,0.848108,2.1068,0.30989,0.15844,0.11603
1700498534875000,-9.545241,0.855108,2.1248,0.18889,0.10644,0.13203
1700498534882812,-9.550241,0.877108,2.1128,0.511,0.27244,0.16803
1700498534890625,-9.563241,0.884108,2.928,0.989,0.27244,0.21703
1700498534898437,-9.566241,0.892108,2.618,0.1411,0.34844,0.18303
1700498534906250,-9.563241,0.870108,2.618,0.7389,0.33844,0.10403
1700498534914062,-9.538241,0.855108,2.518,0.5489,0.37244,0.15303
1700498534921875,-9.524241,0.841108,2.338,0.2189,0.37344,0.15403
1700498534929687,-9.500241,0.841108,2.478,0.5689,0.38644,0.18503
1700498534937500,-9.491241,0.836108,2.568,0.3789,0.40444,0.21803
1700498534945312,-9.488241,0.841108,2.518,0.111,0.44244,0.23703
1700498534953125,-9.507241,0.843108,2.588,0.2689,0.38544,0.20103
1700498534960937,-9.520241,0.830108,2.478,0.3689,0.42244,0.18703
1700498534968750,-9.522241,0.828108,2.548,0.10589,0.33644,0.16703
1700498534976562,-9.520241,0.821108,2.728,0.5589,0.28844,0.23203
1700498534984375,-9.531241,0.825108,2.588,0.3189,0.28444,0.18203
1700498534992187,-9.533241,0.821108,2.748,0.6989,0.32244,0.23303
1700498535000000,-9.533241,0.826108,2.788,0.11589,0.38844,0.23303
1700498535007812,-9.540241,0.826108,2.788,0.3789,0.35744,0.13803
1700498535015625,-9.533241,0.844108,2.838,0.6389,0.37544,0.23603
1700498535023437,-9.531241,0.839108,2.728,0.9089,0.35344,0.13503
1700498535031250,-9.545241,0.846108,2.768,0.8589,0.35744,0.10503
1700498535039062,-9.552241,0.848108,2.798,0.8889,0.38744,0.15203
1700498535046875,-9.552241,0.857108,2.768,0.11389,0.40744,0.17003
1700498535054687,-9.572241,0.855108,2.768,0.19489,0.45444,0.20003
1700498535062500,-9.556241,0.842108,2.588,0.10789,0.42744,0.15603
1700498535070312,-9.529241,0.830108,2.588,0.6289,0.42644,0.14003
1700498535078125,-9.493241,0.840108,2.98,0.6089,0.41544,0.23103
1700498535085937,-9.493241,0.847108,2.368,0.21789,0.40144,0.16603
1700498535093750,-9.491241,0.860108,2.318,0.22089,0.33244,0.22803
1700498535101562,-9.491241,0.862108,2.438,0.28789,0.33044,0.19403
1700498535109375,-9.505241,0.849108,2.978,0.21989,0.34844,0.24403
1700498535117187,-9.523241,0.854108,2.1018,0.20489,0.33244,0.21203
1700498535125000,-9.534241,0.856108,2.908,0.20389,0.35044,0.14903
1700498535132812,-9.563241,0.866108,2.978,0.19189,0.34744,0.16403
1700498535140625,-9.577241,0.863108,2.1068,0.11489,0.47744,0.18103
1700498535148437,-9.574241,0.862108,2.1038,0.23489,0.38344,0.16503
1700498535156250,-9.576241,0.837108,2.948,0.14889,0.50144,0.23303
1700498535164062,-9.554241,0.843108,2.768,0.15789,0.39844,0.21303
1700498535171875,-9.554241,0.842108,2.748,0.14589,0.40644,0.21703
1700498535179687,-9.538241,0.832108,2.678,0.12089,0.41844,0.18403
1700498535187500,-9.540241,0.832108,2.548,0.6089,0.35144,0.16703
1700498535195312,-9.531241,0.829108,2.598,0.3889,0.39444,0.14803
1700498535203125,-9.522241,0.823108,2.528,0.1489,0.39944,0.18303
1700498535210937,-9.518241,0.829108,2.458,0.12789,0.36344,0.22903
1700498535218750,-9.518241,0.818108,2.708,0.4689,0.38344,0.16703
1700498535226562,-9.520241,0.816108,2.748,0.8789,0.40144,0.24803
1700498535234375,-9.522241,0.823108,2.638,0.9389,0.31744,0.21403
1700498535242187,-9.517241,0.814108,2.728,0.16589,0.35444,0.21503
1700498535250000,-9.520241,0.807108,2.768,0.15689,0.39744,0.26203
1700498535257812,-9.524241,0.810108,2.798,0.26489,0.36644,0.24503
1700498535265625,-9.533241,0.814108,2.768,0.18189,0.38544,0.26303
1700498535273437,-9.535241,0.808108,2.768,0.18289,0.38544,0.21503
1700498535281250,-9.542241,0.815108,2.798,0.23089,0.33644,0.21403
1700498535289062,-9.531241,0.817108,2.768,0.24889,0.38444,0.14903
1700498535296875,-9.531241,0.828108,2.798,0.22989,0.40244,0.24703
1700498535304687,-9.536241,0.823108,2.678,0.25389,0.39644,0.21203
1700498535312500,-9.533241,0.808108,2.768,0.25189,0.33244,0.22803
1700498535320312,-9.522241,0.810108,2.748,0.23289,0.45044,0.18203
1700498535328125,-9.517241,0.808108,2.818,0.26289,0.35344,0.14903
1700498535335937,-9.518241,0.818108,2.798,0.25189,0.38344,0.13203
1700498535343750,-9.518241,0.834108,2.768,0.26389,0.36944,0.11703
1700498535351562,-9.520241,0.832108,2.768,0.24389,0.38744,0.19903
1700498535359375,-9.524241,0.837108,2.728,0.25989,0.35644,0.11803
1700498535367187,-9.529241,0.841108,2.858,0.24689,0.38644,0.16603
1700498535375000,-9.549241,0.846108,2.858,0.24589,0.40244,0.21403
1700498535382812,-9.556241,0.841108,2.838,0.24889,0.39944,0.22903
1700498535390625,-9.554241,0.833108,2.888,0.24589,0.40244,0.23003
1700498535398437,-9.554241,0.828108,2.748,0.24889,0.44844,0.21303
1700498535406250,-9.553241,0.830108,2.788,0.24389,0.37244,0.15103
1700498535414062,-9.543241,0.830108,2.768,0.25389,0.36544,0.11503
1700498535421875,-9.527241,0.827108,2.568,0.25089,0.36744,0.16403
1700498535429687,-9.520241,0.841108,2.768,0.25289,0.39844,0.16403
1700498535437500,-9.520241,0.843108,2.798,0.27189,0.36244,0.19403
1700498535445312,-9.522241,0.832108,2.778,0.25389,0.33144,0.21103
1700498535453125,-9.513241,0.832108,2.778,0.26989,0.31544,0.19503
1700498535460937,-9.520241,0.839108,2.788,0.20889,0.47144,0.16903
1700498535468750,-9.498241,0.838108,2.858,0.17389,0.35044,0.8503
1700498535476562,-9.504241,0.834108,2.838,0.18789,0.31744,0.18103
1700498535484375,-9.513241,0.825108,2.708,0.23389,0.40144,0.10103
1700498535492187,-9.522241,0.847108,2.798,0.26589,0.41744,0.6803
1700498535500000,-9.521241,0.865108,2.1358,0.25089,0.51444,0.11703
1700498535507812,-9.522241,0.850108,2.1578,0.26189,0.43644,0.10203
1700498535515625,-9.524241,0.821108,2.838,0.17089,0.27144,0.8503
1700498535523437,-9.500241,0.845108,2.748,0.24689,0.33644,0.19803
1700498535531250,-9.518241,0.878108,2.1358,0.24789,0.35144,0.21303
1700498535539062,-9.556241,0.861108,2.1558,0.26589,0.30144,0.21203
1700498535546875,-9.556241,0.824108,2.228,0.21489,0.23844,0.24603
1700498535554687,-9.524241,0.818108,1.9538,0.22189,0.23244,0.25903
1700498535562500,-9.489241,0.855108,2.188,0.27289,0.31244,0.25803
1700498535570312,-9.500241,0.865108,2.1018,0.27989,0.20444,0.22803
1700498535578125,-9.505241,0.854108,2.1398,0.45489,0.7344,0.16103
1700498535585937,-9.504241,0.829108,2.818,0.44089,0.5444,0.25603
1700498535593750,-9.529241,0.823108,2.978,0.48789,0.8844,0.17603
1700498535601562,-9.543241,0.832108,2.1518,0.31789,0.13844,0.4903
1700498535609375,-9.547241,0.846108,2.1198,0.24889,0.14044,0.16403
1700498535617187,-9.568241,0.871108,2.1198,0.15389,0.15844,0.10103
1700498535625000,-9.584241,0.888108,2.868,0.8389,0.13644,0.5103
1700498535632812,-9.570241,0.878108,2.638,0.8289,0.24544,0.10503
1700498535640625,-9.547241,0.855108,2.568,0.10789,0.30444,0.8603
1700498535648437,-9.534241,0.846108,2.678,0.12289,0.28944,0.5403
1700498535656250,-9.493241,0.838108,2.438,0.17189,0.30244,0.11703
1700498535664062,-9.477241,0.829108,2.478,0.20089,0.28944,0.3703
1700498535671875,-9.482241,0.831108,2.528,0.18889,0.30144,0.13203
1700498535679687,-9.480241,0.836108,2.638,0.18489,0.27144,0.18203
1700498535687500,-9.493241,0.834108,2.498,0.12089,0.22344,0.15103
1700498535695312,-9.518241,0.832108,2.568,0.19889,0.32144,0.15003
1700498535703125,-9.524241,0.839108,2.588,0.21489,0.28944,0.15003
1700498535710937,-9.529241,0.843108,2.478,0.24789,0.27144,0.13303
1700498535718750,-9.538241,0.842108,2.568,0.22589,0.30944,0.8803
1700498535726562,-9.533241,0.844108,2.638,0.21089,0.32444,0.13603
1700498535734375,-9.532241,0.854108,2.568,0.23389,0.33744,0.6903
1700498535742187,-9.552241,0.850108,2.498,0.28389,0.30144,0.9903
1700498535750000,-9.561241,0.853108,2.458,0.21689,0.32244,0.3703
1700498535757812,-9.563241,0.860108,2.568,0.24289,0.45544,0.5603
1700498535765625,-9.581241,0.864108,2.618,0.25389,0.41544,0.10003
1700498535773437,-9.584241,0.884108,2.658,0.12689,0.46544,0.5403
1700498535781250,-9.590241,0.889108,2.838,0.22689,0.42344,0.10403
1700498535789062,-9.566241,0.888108,2.768,0.14089,0.45044,0.7003
1700498535796875,-9.557241,0.881108,2.708,0.8889,0.50244,0.8903
1700498535804687,-9.518241,0.870108,2.408,0.4189,0.55144,0.7303
1700498535812500,-9.487241,0.885108,2.48,0.10689,0.48444,0.10403
1700498535820312,-9.487241,0.889108,2.528,0.13789,0.41844,0.10303
1700498535828125,-9.483241,0.887108,2.318,0.17289,0.38544,0.5303
1700498535835937,-9.489241,0.892108,2.588,0.10589,0.38944,0.797
1700498535843750,-9.496241,0.890108,2.1128,0.8989,0.30744,0.703
1700498535851562,-9.519241,0.889108,2.908,0.3389,0.38344,0.5403
1700498535859375,-9.530241,0.899108,2.1128,0.1089,0.33944,0.4103
1700498535867187,-9.552241,0.895108,2.1018,0.6389,0.40144,0.997
1700498535875000,-9.550241,0.877108,2.1248,0.389,0.48044,0.2203
1700498535882812,-9.550241,0.883108,2.1248,0.4789,0.40144,0.3903
1700498535890625,-9.543241,0.874108,2.1088,0.5811,0.41344,0.11903
1700498535898437,-9.518241,0.863108,2.1068,0.389,0.46344,0.5403
1700498535906250,-9.514241,0.849108,2.1108,0.1689,0.43244,0.7103
1700498535914062,-9.518241,0.852108,2.888,0.0,0.36844,0.8703
1700498535921875,-9.507241,0.848108,2.948,0.889,0.35544,0.15303
1700498535929687,-9.505241,0.852108,2.1068,0.311,0.40244,0.10403
1700498535937500,-9.502241,0.860108,2.928,0.0,0.31844,0.11903
1700498535945312,-9.516241,0.861108,2.928,0.811,0.33944,0.18603
1700498535953125,-9.525241,0.854108,2.1108,0.511,0.25544,0.16803
1700498535960937,-9.534241,0.861108,2.1198,0.411,0.35244,0.20103
1700498535968750,-9.522241,0.852108,2.1308,0.711,0.33744,0.25003
1700498535976562,-9.518241,0.850108,2.1198,0.889,0.29044,0.16903
1700498535984375,-9.507241,0.850108,2.1178,0.811,0.32444,0.9003
1700498535992187,-9.511241,0.856108,2.1308,0.1289,0.30344,0.13603
1700498536000000,-9.505241,0.856108,2.1218,0.211,0.27144,0.11903
1700498536007812,-9.502241,0.852108,2.1268,0.789,0.19344,0.15303
1700498536015625,-9.502241,0.856108,2.1198,0.1811,0.17244,0.18303
1700498536023437,-9.496241,0.852108,2.1248,0.3111,0.15544,0.13403
1700498536031250,-9.502241,0.857108,2.1238,0.1111,0.14544,0.23403
1700498536039062,-9.502241,0.858108,2.1248,0.411,0.19044,0.13603
1700498536046875,-9.516241,0.857108,2.1108,0.8311,0.12644,0.12103
1700498536054687,-9.520241,0.838108,2.1178,0.10911,0.16944,0.18303
1700498536062500,-9.518241,0.843108,2.1038,0.25211,0.22044,0.17003
1700498536070312,-9.514241,0.856108,2.858,0.22411,0.17344,0.17003
1700498536078125,-9.520241,0.850108,2.1018,0.16211,0.14244,0.12203
1700498536085937,-9.538241,0.843108,2.978,0.18611,0.13644,0.16803
1700498536093750,-9.536241,0.843108,2.1158,0.25511,0.20644,0.15503
1700498536101562,-9.554241,0.848108,2.948,0.23711,0.15544,0.17003
1700498536109375,-9.552241,0.848108,2.1108,0.33011,0.17244,0.9003
1700498536117187,-9.549241,0.839108,2.1228,0.26011,0.18344,0.11903
1700498536125000,-9.538241,0.841108,2.1068,0.30711,0.15044,0.10303
1700498536132812,-9.538241,0.834108,2.1088,0.30711,0.19944,0.8803
1700498536140625,-9.542241,0.823108,2.978,0.32511,0.21944,0.4103
1700498536148437,-9.542241,0.806108,2.888,0.26311,0.20244,0.5603
1700498536156250,-9.535241,0.808108,2.798,0.23711,0.25444,0.13803
1700498536164062,-9.533241,0.790108,2.658,0.30211,0.27244,0.10703
1700498536171875,-9.526241,0.810108,2.618,0.26711,0.20544,0.7403
1700498536179687,-9.529241,0.814108,2.798,0.23511,0.20544,0.4103
1700498536187500,-9.537241,0.812108,2.768,0.25611,0.28944,0.7503
1700498536195312,-9.529241,0.815108,2.768,0.24111,0.25644,0.13903
1700498536203125,-9.524241,0.814108,2.838,0.23911,0.17344,0.15403
1700498536210937,-9.531241,0.812108,2.838,0.12111,0.18444,0.13403
1700498536218750,-9.529241,0.821108,2.908,0.14011,0.15344,0.18303
1700498536226562,-9.529241,0.810108,2.858,0.22411,0.25544,0.13903
1700498536234375,-9.524241,0.805108,2.768,0.15311,0.28344,0.13503
1700498536242187,-9.533241,0.797108,2.728,0.14511,0.23744,0.20103
1700498536250000,-9.536241,0.827108,2.1048,0.1211,0.21644,0.22903
1700498536257812,-9.538241,0.848108,2.1578,0.1089,0.31944,0.21603
1700498536265625,-9.533241,0.797108,2.818,0.611,0.17544,0.16803
1700498536273437,-9.517241,0.805108,2.388,0.4811,0.15444,0.21503
1700498536281250,-9.531241,0.852108,2.728,0.311,0.15644,0.19903
1700498536289062,-9.568241,0.861108,2.1268,0.4789,0.18444,0.27703
1700498536296875,-9.576241,0.818108,2.278,0.2289,0.14244,0.28103
1700498536304687,-9.555241,0.791108,1.9488,0.589,0.11044,0.28103
1700498536312500,-9.513241,0.814108,1.9918,0.5889,0.12344,0.24703
1700498536320312,-9.506241,0.823108,2.638,0.4589,0.14744,0.33103
1700498536328125,-9.517241,0.819108,2.1038,0.25889,0.11044,0.24603
1700498536335937,-9.504241,0.796108,2.478,0.24689,0.4144,0.29203
1700498536343750,-9.540241,0.790108,2.498,0.26889,0.6056,0.28903
1700498536351562,-9.574241,0.813108,2.888,0.22889,0.9244,0.27703
1700498536359375,-9.592241,0.827108,2.1108,0.8689,0.4244,0.34303
1700498536367187,-9.619241,0.840108,2.928,0.2111,0.7544,0.24803
1700498536375000,-9.630241,0.847108,2.638,0.12311,0.12944,0.25203
1700498536382812,-9.628241,0.843108,2.368,0.5811,0.24144,0.26703
1700498536390625,-9.610241,0.829108,2.408,0.2811,0.27544,0.25103
1700498536398437,-9.578241,0.808108,2.408,0.511,0.28644,0.28103
1700498536406250,-9.549241,0.799108,2.388,0.511,0.30344,0.26503
1700498536414062,-9.519241,0.785108,2.188,0.7489,0.28544,0.29503
1700498536421875,-9.494241,0.783108,2.28,0.2411,0.30644,0.21803
1700498536429687,-9.497241,0.780108,2.188,0.1789,0.25044,0.18203
1700498536437500,-9.496241,0.774108,2.68,0.711,0.25744,0.20103
1700498536445312,-9.494241,0.765108,2.298,0.1289,0.31844,0.24803
1700498536453125,-9.505241,0.757108,2.138,0.2289,0.27344,0.23303
1700498536460937,-9.515241,0.774108,2.48,0.1989,0.28144,0.19703
1700498536468750,-9.526241,0.774108,2.28,0.10889,0.17144,0.19703
1700498536476562,-9.533241,0.768108,1.9918,0.10889,0.20244,0.24503
1700498536484375,-9.555241,0.770108,1.9958,0.17989,0.14844,0.27403
1700498536492187,-9.559241,0.766108,1.9938,0.19689,0.27244,0.26303
1700498536500000,-9.560241,0.773108,1.9868,0.24789,0.26944,0.22903
1700498536507812,-9.571241,0.775108,1.9848,0.23489,0.30144,0.18003
1700498536515625,-9.573241,0.777108,1.9828,0.21489,0.28744,0.23003
1700498536523437,-9.591241,0.775108,1.9848,0.24489,0.33844,0.18203
1700498536531250,-9.591241,0.782108,1.9938,0.28689,0.38944,0.23203
1700498536539062,-9.577241,0.780108,1.9938,0.28789,0.35544,0.27903
1700498536546875,-9.571241,0.786108,1.9778,0.25189,0.31744,0.14803
1700498536554687,-9.544241,0.773108,1.9828,0.24189,0.37344,0.15203
1700498536562500,-9.494241,0.783108,1.9308,0.28789,0.40444,0.24703
1700498536570312,-9.497241,0.803108,1.9308,0.35589,0.38644,0.19703
1700498536578125,-9.499241,0.803108,1.9618,0.35389,0.37044,0.23003
1700498536585937,-9.517241,0.810108,1.9488,0.42389,0.21944,0.19403
1700498536593750,-9.524241,0.816108,1.9848,0.38789,0.30244,0.27603
1700498536601562,-9.531241,0.814108,2.158,0.32189,0.37044,0.23003
1700498536609375,-9.558241,0.810108,2.138,0.34089,0.27144,0.21203
1700498536617187,-9.573241,0.811108,2.48,0.33389,0.35844,0.15103
1700498536625000,-9.587241,0.813108,2.228,0.38589,0.32244,0.19703
1700498536632812,-9.589241,0.811108,2.588,0.38689,0.38644,0.22903
1700498536640625,-9.574241,0.813108,2.548,0.43389,0.45144,0.21303
1700498536648437,-9.553241,0.806108,2.258,0.34189,0.40144,0.19603
1700498536656250,-9.549241,0.813108,2.228,0.40189,0.48644,0.13303
1700498536664062,-9.540241,0.812108,2.208,0.32189,0.37044,0.24603
1700498536671875,-9.535241,0.812108,2.98,0.30989,0.38444,0.26103
1700498536679687,-9.531241,0.797108,2.158,0.35489,0.40444,0.14903
1700498536687500,-9.530241,0.788108,2.158,0.27689,0.38544,0.21403
1700498536695312,-9.521241,0.783108,2.188,0.24689,0.40044,0.26203
1700498536703125,-9.535241,0.812108,2.368,0.26289,0.38444,0.26203
1700498536710937,-9.553241,0.803108,2.258,0.24989,0.44844,0.19703
1700498536718750,-9.560241,0.808108,2.408,0.38489,0.40344,0.19703
1700498536726562,-9.571241,0.811108,2.588,0.32589,0.41744,0.22903
1700498536734375,-9.574241,0.815108,2.568,0.37589,0.39944,0.19503
1700498536742187,-9.576241,0.810108,2.478,0.31289,0.46344,0.24403
1700498536750000,-9.580241,0.802108,2.498,0.29789,0.43244,0.16403
1700498536757812,-9.569241,0.804108,2.478,0.34189,0.48344,0.19703
1700498536765625,-9.569241,0.793108,2.498,0.32089,0.58344,0.21503
1700498536773437,-9.571241,0.797108,2.568,0.36889,0.54944,0.26203
1700498536781250,-9.567241,0.806108,2.708,0.34089,0.51544,0.19703
1700498536789062,-9.562241,0.799108,2.568,0.31089,0.53044,0.22903
1700498536796875,-9.537241,0.799108,2.528,0.29389,0.58144,0.18203
1700498536804687,-9.524241,0.796108,2.568,0.27889,0.54844,0.18203
1700498536812500,-9.517241,0.801108,2.618,0.26089,0.59844,0.19903
1700498536820312,-9.522241,0.810108,2.498,0.29389,0.56444,0.18203
1700498536828125,-9.526241,0.810108,2.428,0.24289,0.56744,0.21603
1700498536835937,-9.533241,0.812108,2.618,0.29189,0.53344,0.19903
1700498536843750,-9.538241,0.808108,2.588,0.32589,0.54844,0.16503
1700498536851562,-9.537241,0.810108,2.568,0.25789,0.51944,0.15203
1700498536859375,-9.546241,0.797108,2.678,0.24889,0.59644,0.19803
1700498536867187,-9.549241,0.813108,2.798,0.25789,0.61644,0.23203
1700498536875000,-9.563241,0.824108,2.708,0.29889,0.41644,0.11603
1700498536882812,-9.562241,0.818108,2.748,0.26889,0.40944,0.15303
1700498536890625,-9.558241,0.833108,2.838,0.27589,0.58444,0.10303
1700498536898437,-9.558241,0.830108,2.928,0.24889,0.63044,0.10203
1700498536906250,-9.554241,0.832108,2.888,0.26689,0.53144,0.8503
1700498536914062,-9.529241,0.839108,2.908,0.20889,0.55344,0.15303
1700498536921875,-9.515241,0.827108,2.748,0.26089,0.66444,0.16803
1700498536929687,-9.522241,0.830108,2.798,0.20289,0.56344,0.13403
1700498536937500,-9.509241,0.812108,2.528,0.23689,0.54544,0.11703
1700498536945312,-9.513241,0.803108,2.408,0.26289,0.43544,0.13403
1700498536953125,-9.524241,0.790108,2.408,0.24689,0.50044,0.11803
1700498536960937,-9.522241,0.781108,2.498,0.25089,0.53044,0.13303
1700498536968750,-9.533241,0.803108,2.638,0.26189,0.53344,0.16703
1700498536976562,-9.538241,0.800108,2.818,0.24489,0.53944,0.17803
1700498536984375,-9.538241,0.810108,2.858,0.24789,0.41744,0.19803
1700498536992187,-9.531241,0.810108,2.768,0.26589,0.44844,0.16503
1700498537000000,-9.510241,0.810108,2.838,0.16189,0.52044,0.15403
1700498537007812,-9.517241,0.812108,2.1068,0.15489,0.54844,0.8703
1700498537015625,-9.513241,0.812108,2.1088,0.24489,0.56744,0.11903
1700498537023437,-9.519241,0.799108,2.1018,0.26189,0.53544,0.3803
1700498537031250,-9.517241,0.803108,2.908,0.23389,0.51544,0.10203
1700498537039062,-9.520241,0.821108,2.1288,0.25089,0.54744,0.11703
1700498537046875,-9.522241,0.843108,2.1968,0.26289,0.56644,0.8603
1700498537054687,-9.522241,0.794108,2.1378,0.24189,0.44544,0.9903
1700498537062500,-9.499241,0.767108,2.888,0.7089,0.43644,0.21703
1700498537070312,-9.482241,0.829108,2.1178,0.7789,0.39744,0.26303
1700498537078125,-9.507241,0.850108,2.1898,0.25989,0.40344,0.21503
1700498537085937,-9.511241,0.805108,2.1088,0.26289,0.35344,0.18203
1700498537093750,-9.488241,0.776108,2.208,0.20389,0.31644,0.27703
1700498537101562,-9.454241,0.793108,2.548,0.22789,0.40344,0.21503
1700498537109375,-9.441241,0.822108,2.1248,0.26189,0.41844,0.21403
1700498537117187,-9.466241,0.805108,2.1538,0.27689,0.33644,0.26203
1700498537125000,-9.461241,0.782108,2.1448,0.32589,0.17144,0.30803
1700498537132812,-9.483241,0.771108,2.1538,0.35989,0.17144,0.19503
1700498537140625,-9.526241,0.783108,2.1758,0.32489,0.20544,0.24403
1700498537148437,-9.529241,0.799108,2.1858,0.17689,0.23344,0.19503
1700498537156250,-9.538241,0.803108,2.1738,0.9889,0.26444,0.22803
1700498537164062,-9.576241,0.802108,2.1468,0.5989,0.38444,0.19903
1700498537171875,-9.590241,0.815108,2.1198,0.1311,0.34744,0.24603
1700498537179687,-9.574241,0.806108,2.1198,0.4589,0.36844,0.15103
1700498537187500,-9.573241,0.788108,2.1378,0.10689,0.43344,0.19903
1700498537195312,-9.564241,0.775108,2.1468,0.15389,0.45044,0.18303
1700498537203125,-9.544241,0.782108,2.1508,0.2089,0.42244,0.18703
1700498537210937,-9.537241,0.799108,2.1538,0.1189,0.43344,0.24903
1700498537218750,-9.535241,0.790108,2.1628,0.2889,0.44944,0.18403
1700498537226562,-9.530241,0.786108,2.1878,0.989,0.40144,0.23303
1700498537234375,-9.522241,0.788108,2.1758,0.5989,0.38444,0.23203
1700498537242187,-9.515241,0.781108,2.1918,0.989,0.40144,0.23303
1700498537250000,-9.508241,0.777108,2.1988,0.889,0.38844,0.13803
1700498537257812,-9.508241,0.776108,2.1938,0.10389,0.40144,0.24803
1700498537265625,-9.501241,0.785108,2.1918,0.8889,0.35244,0.26403
1700498537273437,-9.494241,0.781108,2.1808,0.11589,0.40444,0.24903
1700498537281250,-9.497241,0.776108,2.1808,0.19789,0.41844,0.26303
1700498537289062,-9.501241,0.767108,2.1758,0.23389,0.38344,0.24503
1700498537296875,-9.499241,0.781108,2.1788,0.22589,0.40444,0.23203
1700498537304687,-9.517241,0.788108,2.1848,0.24389,0.42044,0.19903
1700498537312500,-9.529241,0.801108,2.1898,0.26389,0.49744,0.23003
1700498537320312,-9.544241,0.804108,2.2188,0.24389,0.46744,0.29503
1700498537328125,-9.560241,0.793108,2.1968,0.26189,0.38544,0.21403
1700498537335937,-9.553241,0.802108,2.1878,0.26089,0.46744,0.21503
1700498537343750,-9.540241,0.795108,2.1918,0.24889,0.53244,0.13403
1700498537351562,-9.510241,0.772108,2.1988,0.25189,0.44944,0.10003
1700498537359375,-9.474241,0.796108,2.1518,0.21489,0.56644,0.11903
1700498537367187,-9.468241,0.809108,2.1718,0.33189,0.42944,0.21103
1700498537375000,-9.475241,0.811108,2.1898,0.40089,0.31244,0.12703
1700498537382812,-9.484241,0.809108,2.1988,0.27289,0.29744,0.17803
1700498537390625,-9.486241,0.809108,2.2208,0.26389,0.30444,0.13303
1700498537398437,-9.493241,0.812108,2.2238,0.24589,0.28944,0.16603
1700498537406250,-9.515241,0.807108,2.2168,0.26889,0.28544,0.8303
1700498537414062,-9.524241,0.817108,2.2078,0.24889,0.25544,0.11603
1700498537421875,-9.538241,0.828108,2.2058,0.21589,0.27144,0.16503
1700498537429687,-9.536241,0.817108,2.2238,0.26689,0.33444,0.14803
1700498537437500,-9.529241,0.819108,2.2098,0.21589,0.28744,0.19803
1700498537445312,-9.524241,0.819108,2.1898,0.25389,0.33344,0.13103
1700498537453125,-9.518241,0.830108,2.1918,0.18089,0.30644,0.18303
1700498537460937,-9.520241,0.810108,2.1918,0.18689,0.40144,0.10103
1700498537468750,-9.511241,0.814108,2.2058,0.23889,0.38044,0.16303
1700498537476562,-9.506241,0.821108,2.1988,0.23089,0.32144,0.13403
1700498537484375,-9.500241,0.829108,2.1898,0.26689,0.28544,0.18003
1700498537492187,-9.493241,0.827108,2.1858,0.27489,0.26344,0.14503
1700498537500000,-9.479241,0.820108,2.1878,0.28389,0.28544,0.13103
1700498537507812,-9.495241,0.827108,2.1848,0.24889,0.30444,0.10103
1700498537515625,-9.511241,0.829108,2.1808,0.27189,0.23344,0.13003
1700498537523437,-9.513241,0.816108,2.1768,0.25689,0.20044,0.13003
1700498537531250,-9.513241,0.816108,2.1848,0.24989,0.27044,0.14803
1700498537539062,-9.500241,0.816108,2.1768,0.26689,0.28544,0.18003
1700498537546875,-9.491241,0.814108,2.1558,0.23889,0.20144,0.14603
1700498537554687,-9.497241,0.809108,2.1628,0.25389,0.23444,0.14703
1700498537562500,-9.504241,0.814108,2.1428,0.26489,0.23844,0.8403
1700498537570312,-9.513241,0.827108,2.1308,0.25189,0.26844,0.14703
1700498537578125,-9.520241,0.825108,2.1358,0.26389,0.22244,0.16403
1700498537585937,-9.522241,0.828108,2.1558,0.24989,0.28644,0.16403
1700498537593750,-9.518241,0.836108,2.1628,0.26789,0.33244,0.22803
1700498537601562,-9.525241,0.850108,2.1468,0.16989,0.26944,0.24603
1700498537609375,-9.527241,0.847108,2.1588,0.22289,0.26544,0.21103
1700498537617187,-9.516241,0.836108,2.1648,0.12689,0.29944,0.19703
1700498537625000,-9.520241,0.839108,2.1558,0.7989,0.30144,0.13403
1700498537632812,-9.504241,0.829108,2.1558,0.9689,0.28144,0.22903
1700498537640625,-9.495241,0.841108,2.1488,0.10789,0.27144,0.8603
1700498537648437,-9.495241,0.834108,2.1338,0.12489,0.30244,0.11803
1700498537656250,-9.495241,0.827108,2.1178,0.14289,0.30144,0.10103
1700498537664062,-9.504241,0.823108,2.1128,0.9689,0.34944,0.14903
1700498537671875,-9.518241,0.830108,2.1288,0.10789,0.28644,0.18203
1700498537679687,-9.520241,0.838108,2.1248,0.12689,0.29944,0.19703
1700498537687500,-9.552241,0.846108,2.1268,0.18489,0.28744,0.16603
1700498537695312,-9.547241,0.839108,2.1358,0.12489,0.30144,0.19703
1700498537703125,-9.554241,0.844108,2.1608,0.21489,0.27244,0.16603
1700498537710937,-9.547241,0.841108,2.1578,0.11889,0.27244,0.21503
1700498537718750,-9.527241,0.841108,2.1718,0.2589,0.35444,0.16903
1700498537726562,-9.515241,0.830108,2.1628,0.511,0.41844,0.23303
1700498537734375,-9.509241,0.823108,2.1538,0.4789,0.35044,0.11803
1700498537742187,-9.488241,0.811108,2.1398,0.9089,0.44944,0.20003
1700498537750000,-9.481241,0.803108,2.1178,0.2589,0.40144,0.23303
1700498537757812,-9.486241,0.805108,2.948,0.18889,0.28444,0.18103
1700498537765625,-9.481241,0.805108,2.858,0.20289,0.30144,0.22903
1700498537773437,-9.482241,0.811108,2.1108,0.10989,0.28444,0.18103
1700498537781250,-9.500241,0.805108,2.1138,0.22289,0.28244,0.22703
1700498537789062,-9.520241,0.819108,2.1248,0.10689,0.30244,0.23103
1700498537796875,-9.531241,0.819108,2.1248,0.8989,0.32044,0.21503
1700498537804687,-9.554241,0.828108,2.1198,0.6289,0.28344,0.27803
1700498537812500,-9.558241,0.823108,2.1358,0.5389,0.29744,0.14803
1700498537820312,-9.574241,0.831108,2.1378,0.15289,0.23844,0.23003
1700498537828125,-9.572241,0.823108,2.1468,0.6889,0.28044,0.16403
1700498537835937,-9.560241,0.819108,2.1288,0.211,0.28544,0.21603
1700498537843750,-9.540241,0.815108,2.1088,0.2789,0.30344,0.18403
1700498537851562,-9.533241,0.821108,2.1338,0.7389,0.33644,0.21603
1700498537859375,-9.527241,0.850108,2.1878,0.10989,0.38344,0.15003
1700498537867187,-9.524241,0.823108,2.1428,0.7789,0.31944,0.13403
1700498537875000,-9.499241,0.787108,2.858,0.3311,0.17144,0.21503
1700498537882812,-9.482241,0.831108,2.1128,0.311,0.25444,0.18403
1700498537890625,-9.518241,0.834108,2.1648,0.7689,0.31744,0.24603
1700498537898437,-9.520241,0.814108,2.998,0.9989,0.19844,0.22703
1700498537906250,-9.506241,0.787108,2.98,0.4889,0.11944,0.26103
1700498537914062,-9.467241,0.782108,2.118,0.5589,0.15744,0.28003
1700498537921875,-9.450241,0.818108,2.948,0.2789,0.26944,0.26303
1700498537929687,-9.479241,0.802108,2.1288,0.24889,0.25344,0.21303
1700498537937500,-9.494241,0.781108,2.1018,0.26489,0.15544,0.22803
1700498537945312,-9.535241,0.774108,2.1268,0.26489,0.10644,0.22703
1700498537953125,-9.562241,0.779108,2.1498,0.23789,0.13644,0.21003
1700498537960937,-9.574241,0.797108,2.1628,0.11589,0.8444,0.22603
1700498537968750,-9.587241,0.813108,2.1628,0.4789,0.16944,0.19703
1700498537976562,-9.599241,0.822108,2.1248,0.689,0.13144,0.29203
1700498537984375,-9.596241,0.818108,2.948,0.311,0.13844,0.29503
1700498537992187,-9.574241,0.819108,2.998,0.1689,0.18444,0.24603
1700498538000000,-9.529241,0.787108,2.908,0.1211,0.28044,0.31003
1700498538007812,-9.508241,0.769108,2.888,0.289,0.28144,0.26203
1700498538015625,-9.490241,0.767108,2.748,0.1089,0.30144,0.31203
1700498538023437,-9.481241,0.758108,2.838,0.1311,0.16644,0.31003
1700498538031250,-9.497241,0.767108,2.958,0.1111,0.18144,0.27703
1700498538039062,-9.517241,0.765108,2.1178,0.3411,0.22044,0.26403
1700498538046875,-9.517241,0.759108,2.1088,0.411,0.12344,0.28003
1700498538054687,-9.537241,0.755108,2.1088,0.1189,0.15644,0.24703
1700498538062500,-9.539241,0.748108,2.1108,0.611,0.23944,0.21703
1700498538070312,-9.550241,0.753108,2.1178,0.1289,0.25444,0.15103
1700498538078125,-9.541241,0.753108,2.1238,0.3589,0.17744,0.20203
1700498538085937,-9.541241,0.750108,2.1108,0.5289,0.15144,0.16403
1700498538093750,-9.539241,0.752108,2.1088,0.9389,0.15544,0.16503
1700498538101562,-9.544241,0.759108,2.1178,0.6189,0.20444,0.15003
1700498538109375,-9.530241,0.762108,2.968,0.14389,0.16344,0.21703
1700498538117187,-9.539241,0.763108,2.858,0.16289,0.20044,0.11403
1700498538125000,-9.553241,0.770108,2.1108,0.11589,0.24844,0.19503
1700498538132812,-9.571241,0.775108,2.1268,0.17089,0.20444,0.19703
1700498538140625,-9.571241,0.777108,2.1198,0.26489,0.22244,0.11603
1700498538148437,-9.568241,0.773108,2.1128,0.26189,0.27244,0.13303
1700498538156250,-9.560241,0.768108,2.1128,0.23889,0.31644,0.9903
1700498538164062,-9.541241,0.759108,2.1068,0.16989,0.22244,0.14903
1700498538171875,-9.492241,0.747108,2.708,0.8189,0.23444,0.13203
1700498538179687,-9.470241,0.771108,2.408,0.16989,0.32044,0.10203
1700498538187500,-9.476241,0.776108,2.798,0.26789,0.20444,0.8303
1700498538195312,-9.488241,0.773108,2.748,0.25789,0.11844,0.9703
1700498538203125,-9.504241,0.783108,2.1018,0.27389,0.13544,0.8003
1700498538210937,-9.522241,0.783108,2.1398,0.25389,0.13644,0.17803
1700498538218750,-9.532241,0.768108,2.1248,0.26389,0.10944,0.10003
1700498538226562,-9.553241,0.770108,2.1248,0.14189,0.12244,0.11603
1700498538234375,-9.560241,0.788108,2.1108,0.20289,0.14044,0.10003
1700498538242187,-9.567241,0.788108,2.1228,0.25989,0.13444,0.8003
1700498538250000,-9.571241,0.770108,2.1268,0.27689,0.9944,0.12703
1700498538257812,-9.566241,0.775108,2.1068,0.25389,0.15444,0.8203
1700498538265625,-9.560241,0.775108,2.978,0.26989,0.23644,0.6603
1700498538273437,-9.539241,0.768108,2.818,0.24189,0.21744,0.9803
1700498538281250,-9.528241,0.761108,2.888,0.25689,0.16844,0.11303
1700498538289062,-9.524241,0.763108,2.798,0.27689,0.18144,0.9603
1700498538296875,-9.526241,0.763108,2.1108,0.27289,0.23344,0.8103
1700498538304687,-9.519241,0.765108,2.1068,0.25789,0.28144,0.14603
1700498538312500,-9.517241,0.776108,2.1068,0.26489,0.36844,0.14903
1700498538320312,-9.524241,0.774108,2.1138,0.24089,0.33144,0.8203
1700498538328125,-9.521241,0.774108,2.1128,0.25389,0.28344,0.13103
1700498538335937,-9.539241,0.777108,2.1198,0.26389,0.32044,0.13303
1700498538343750,-9.535241,0.781108,2.1198,0.26589,0.36844,0.8403
1700498538351562,-9.531241,0.785108,2.1088,0.25589,0.38144,0.8203
1700498538359375,-9.533241,0.787108,2.928,0.23989,0.33144,0.11503
1700498538367187,-9.533241,0.785108,2.1018,0.27089,0.28244,0.16203
1700498538375000,-9.547241,0.804108,2.1088,0.24989,0.31944,0.11603
1700498538382812,-9.553241,0.797108,2.1158,0.25989,0.35644,0.10203
1700498538390625,-9.555241,0.784108,2.1068,0.24989,0.28644,0.14803
1700498538398437,-9.537241,0.784108,2.858,0.26189,0.35444,0.13403
1700498538406250,-9.533241,0.790108,2.908,0.24389,0.25744,0.16603
1700498538414062,-9.524241,0.783108,2.908,0.25089,0.28644,0.10003
1700498538421875,-9.517241,0.787108,2.928,0.27789,0.32644,0.17603
1700498538429687,-9.519241,0.787108,2.888,0.25289,0.31844,0.8303
1700498538437500,-9.517241,0.789108,2.908,0.27489,0.28144,0.8103
1700498538445312,-9.519241,0.777108,2.908,0.24889,0.28744,0.11703
1700498538453125,-9.522241,0.785108,2.948,0.26489,0.30244,0.16403
1700498538460937,-9.522241,0.781108,2.1048,0.23989,0.28244,0.13003
1700498538468750,-9.524241,0.779108,2.978,0.22289,0.26744,0.14703
1700498538476562,-9.517241,0.772108,2.978,0.22089,0.29944,0.19603
1700498538484375,-9.519241,0.774108,2.838,0.26789,0.28544,0.13103
1700498538492187,-9.517241,0.774108,2.818,0.24889,0.32044,0.6903
1700498538500000,-9.519241,0.774108,2.1108,0.24589,0.28944,0.15003
1700498538507812,-9.517241,0.783108,2.1068,0.26489,0.22244,0.11603
1700498538515625,-9.521241,0.779108,2.948,0.27789,0.27244,0.14903
1700498538523437,-9.517241,0.785108,2.858,0.24789,0.28744,0.14903
1700498538531250,-9.524241,0.805108,2.798,0.26889,0.26744,0.17903
1700498538539062,-9.522241,0.821108,2.1068,0.25589,0.24944,0.16203
1700498538546875,-9.527241,0.821108,2.1108,0.26789,0.28544,0.11503
1700498538554687,-9.527241,0.818108,2.868,0.25889,0.28144,0.8103
1700498538562500,-9.515241,0.825108,2.818,0.25289,0.30144,0.9903
1700498538570312,-9.520241,0.814108,2.708,0.25489,0.31644,0.8303
1700498538578125,-9.518241,0.809108,2.478,0.25489,0.28444,0.9903
1700498538585937,-9.517241,0.803108,2.528,0.25389,0.30044,0.14703
1700498538593750,-9.529241,0.798108,2.498,0.27189,0.31544,0.9803
1700498538601562,-9.527241,0.814108,2.498,0.25489,0.28444,0.9903
1700498538609375,-9.531241,0.817108,2.818,0.26489,0.28844,0.8403
1700498538617187,-9.527241,0.814108,2.818,0.25289,0.30144,0.9903
1700498538625000,-9.515241,0.819108,2.748,0.26389,0.37044,0.8503
1700498538632812,-9.520241,0.816108,2.708,0.16489,0.26444,0.9803
1700498538640625,-9.518241,0.816108,2.838,0.14689,0.33144,0.8303
1700498538648437,-9.513241,0.820108,2.888,0.24289,0.36344,0.8203
1700498538656250,-9.509241,0.818108,2.778,0.24489,0.29644,0.11303
1700498538664062,-9.500241,0.813108,2.778,0.21489,0.32744,0.9703
1700498538671875,-9.511241,0.805108,2.838,0.23989,0.31544,0.13103
1700498538679687,-9.502241,0.812108,2.948,0.26489,0.40144,0.13303
1700498538687500,-9.516241,0.830108,2.1488,0.25189,0.43244,0.8403
1700498538695312,-9.513241,0.803108,2.1398,0.26489,0.38444,0.13303
1700498538703125,-9.494241,0.778108,2.618,0.12489,0.38344,0.16603
1700498538710937,-9.477241,0.807108,2.748,0.9289,0.30244,0.15003
1700498538718750,-9.513241,0.839108,2.1398,0.20089,0.40244,0.13403
1700498538726562,-9.520241,0.825108,2.868,0.16089,0.34744,0.18003
1700498538734375,-9.529241,0.810108,1.9848,0.18589,0.20544,0.16503
1700498538742187,-9.515241,0.812108,1.9718,0.13889,0.26944,0.21403
1700498538750000,-9.500241,0.836108,2.1038,0.23589,0.35044,0.11603
1700498538757812,-9.518241,0.828108,2.1538,0.16689,0.35444,0.18303
1700498538765625,-9.518241,0.823108,2.1248,0.26389,0.28644,0.21303
1700498538773437,-9.531241,0.816108,2.1248,0.25289,0.23444,0.21103
1700498538781250,-9.560241,0.812108,2.1248,0.27289,0.28144,0.14503
1700498538789062,-9.542241,0.815108,2.1268,0.7789,0.26944,0.11803
1700498538796875,-9.549241,0.815108,2.1358,0.211,0.23844,0.13503
1700498538804687,-9.551241,0.819108,2.1018,0.1089,0.35444,0.13703
1700498538812500,-9.549241,0.823108,2.768,0.1689,0.36644,0.10303
1700498538820312,-9.522241,0.819108,2.768,0.3089,0.38444,0.8703
1700498538828125,-9.517241,0.825108,2.728,0.711,0.43744,0.10603
1700498538835937,-9.502241,0.814108,2.798,0.1189,0.35444,0.8803
1700498538843750,-9.495241,0.816108,2.818,0.189,0.35044,0.10303
1700498538851562,-9.490241,0.814108,2.1058,0.811,0.40644,0.9003
1700498538859375,-9.479241,0.807108,2.888,0.1089,0.38744,0.12103
1700498538867187,-9.488241,0.803108,2.1038,0.5689,0.40344,0.16903
1700498538875000,-9.493241,0.805108,2.1018,0.2889,0.44944,0.15203
1700498538882812,-9.517241,0.799108,2.1158,0.1589,0.39944,0.16703
1700498538890625,-9.517241,0.794108,2.1198,0.7989,0.43244,0.8603
1700498538898437,-9.526241,0.792108,2.1108,0.22389,0.41344,0.13103
1700498538906250,-9.535241,0.795108,2.1068,0.10589,0.46744,0.15203
1700498538914062,-9.535241,0.793108,2.1128,0.14389,0.42544,0.12203
1700498538921875,-9.542241,0.797108,2.1108,0.8889,0.48544,0.10503
1700498538929687,-9.535241,0.799108,2.908,0.6389,0.46544,0.8703
1700498538937500,-9.538241,0.814108,2.1038,0.6289,0.44844,0.11903
1700498538945312,-9.529241,0.821108,2.1128,0.15589,0.43344,0.11803
1700498538953125,-9.520241,0.832108,2.1178,0.24489,0.48544,0.15103
1700498538960937,-9.522241,0.832108,2.1338,0.11889,0.50144,0.16903
1700498538968750,-9.522241,0.832108,2.1468,0.16589,0.53444,0.13603
1700498538976562,-9.531241,0.832108,2.1468,0.21789,0.58144,0.10203
1700498538984375,-9.522241,0.821108,2.1328,0.24189,0.58644,0.8903
1700498538992187,-9.524241,0.814108,2.1218,0.26289,0.56644,0.8603
1700498539000000,-9.495241,0.792108,2.1268,0.10389,0.60044,0.10503
1700498539007812,-9.459241,0.813108,2.928,0.24889,0.54844,0.8603
1700498539015625,-9.461241,0.822108,2.1108,0.26589,0.56344,0.11703
1700498539023437,-9.450241,0.822108,2.1158,0.24689,0.37144,0.10203
1700498539031250,-9.455241,0.835108,2.1108,0.24889,0.32044,0.8503
1700498539039062,-9.462241,0.833108,2.1518,0.26389,0.32044,0.10103
1700498539046875,-9.484241,0.840108,2.1668,0.25089,0.35244,0.8403
1700498539054687,-9.511241,0.836108,2.1768,0.20689,0.38244,0.10003
1700498539062500,-9.545241,0.837108,2.1768,0.23689,0.38344,0.8403
1700498539070312,-9.558241,0.835108,2.1578,0.25089,0.36844,0.6803
1700498539078125,-9.556241,0.828108,2.1678,0.26789,0.33444,0.13203
1700498539085937,-9.558241,0.830108,2.1668,0.21689,0.43544,0.8603
1700498539093750,-9.558241,0.819108,2.1758,0.24589,0.45344,0.10303
1700498539101562,-9.549241,0.808108,2.1608,0.16989,0.40044,0.18203
1700498539109375,-9.542241,0.815108,2.1488,0.18689,0.40144,0.13403
1700498539117187,-9.529241,0.807108,2.1498,0.14289,0.36544,0.16503
1700498539125000,-9.529241,0.812108,2.1628,0.12989,0.31544,0.14803
1700498539132812,-9.517241,0.810108,2.1738,0.18489,0.44944,0.19903
1700498539140625,-9.526241,0.814108,2.1628,0.24589,0.38544,0.19803
1700498539148437,-9.517241,0.808108,2.1718,0.24589,0.40444,0.10203
1700498539156250,-9.526241,0.812108,2.1808,0.23189,0.41744,0.21403
1700498539164062,-9.520241,0.812108,2.1898,0.26889,0.39844,0.11503
1700498539171875,-9.518241,0.819108,2.1808,0.25289,0.38344,0.5203
1700498539179687,-9.517241,0.819108,2.1878,0.24589,0.40344,0.11803
1700498539187500,-9.520241,0.832108,2.1808,0.26789,0.38344,0.11603
1700498539195312,-9.504241,0.827108,2.1578,0.20089,0.40244,0.11803
1700498539203125,-9.513241,0.836108,2.1608,0.23389,0.40144,0.13303
1700498539210937,-9.516241,0.838108,2.1608,0.27289,0.37744,0.22603
1700498539218750,-9.516241,0.853108,2.1718,0.23089,0.32644,0.20903
1700498539226562,-9.521241,0.860108,2.1648,0.27289,0.28144,0.17803
1700498539234375,-9.523241,0.865108,2.1628,0.22189,0.33244,0.14803
1700498539242187,-9.514241,0.863108,2.1538,0.22489,0.39544,0.16303
1700498539250000,-9.518241,0.867108,2.1448,0.25089,0.44844,0.14903
1700498539257812,-9.521241,0.867108,2.1558,0.16889,0.43344,0.21503
1700498539265625,-9.514241,0.856108,2.1468,0.17289,0.41644,0.14903
1700498539273437,-9.516241,0.849108,2.1448,0.20489,0.43044,0.19703
1700498539281250,-9.511241,0.845108,2.1338,0.20589,0.44544,0.21203
1700498539289062,-9.513241,0.841108,2.1308,0.24589,0.40044,0.29403
1700498539296875,-9.514241,0.847108,2.1518,0.23289,0.35044,0.26103
1700498539304687,-9.513241,0.832108,2.1428,0.19589,0.32144,0.29503
1700498539312500,-9.520241,0.834108,2.1468,0.16689,0.41844,0.24803
1700498539320312,-9.522241,0.836108,2.1518,0.18589,0.35044,0.27803
1700498539328125,-9.513241,0.836108,2.1488,0.27789,0.38444,0.26103
1700498539335937,-9.520241,0.827108,2.1608,0.13389,0.35944,0.24303
1700498539343750,-9.518241,0.814108,2.1538,0.25089,0.34844,0.26003
1700498539351562,-9.518241,0.821108,2.1628,0.21989,0.39844,0.24503
1700498539359375,-9.527241,0.819108,2.1648,0.15489,0.35044,0.27803
1700498539367187,-9.527241,0.821108,2.1738,0.18589,0.35044,0.26203
1700498539375000,-9.540241,0.830108,2.1648,0.21789,0.36644,0.24503
1700498539382812,-9.536241,0.843108,2.1828,0.18589,0.39944,0.26203
1700498539390625,-9.527241,0.845108,2.1718,0.17089,0.38244,0.26203
1700498539398437,-9.518241,0.838108,2.1588,0.17289,0.39844,0.22903
1700498539406250,-9.516241,0.827108,2.1588,0.14789,0.37744,0.19503
1700498539414062,-9.491241,0.823108,2.1538,0.16589,0.40344,0.20003
1700498539421875,-9.486241,0.818108,2.1398,0.25089,0.35044,0.18003
1700498539429687,-9.484241,0.812108,2.1468,0.26289,0.28744,0.19703
1700498539437500,-9.486241,0.809108,2.1488,0.24589,0.28944,0.15003
1700498539445312,-9.506241,0.798108,2.1648,0.26689,0.25244,0.17903
1700498539453125,-9.511241,0.805108,2.1738,0.23289,0.23744,0.21303
1700498539460937,-9.517241,0.816108,2.1668,0.24589,0.28744,0.23003
1700498539468750,-9.518241,0.814108,2.1718,0.27089,0.34644,0.25903
1700498539476562,-9.518241,0.825108,2.1698,0.20789,0.32944,0.24303
1700498539484375,-9.518241,0.825108,2.1718,0.14889,0.30444,0.28003
1700498539492187,-9.517241,0.812108,2.1648,0.21389,0.35244,0.26303
1700498539500000,-9.517241,0.812108,2.1718,0.24789,0.28644,0.24503
1700498539507812,-9.520241,0.823108,2.1648,0.27089,0.29744,0.27403
1700498539515625,-9.514241,0.845108,2.1918,0.25589,0.39544,0.21103
1700498539523437,-9.518241,0.834108,2.2028,0.22989,0.35344,0.23003
1700498539531250,-9.515241,0.792108,2.1288,0.6189,0.30044,0.23003
1700498539539062,-9.495241,0.818108,2.1428,0.2689,0.25444,0.24803
1700498539546875,-9.527241,0.852108,2.1938,0.16689,0.30344,0.29503
1700498539554687,-9.533241,0.823108,2.1698,0.20189,0.20244,0.29303
1700498539562500,-9.529241,0.814108,2.528,0.12189,0.10544,0.31003
1700498539570312,-9.504241,0.814108,2.618,0.15189,0.17244,0.29403
1700498539578125,-9.486241,0.825108,2.1288,0.16889,0.30244,0.24603
1700498539585937,-9.498241,0.820108,2.1988,0.27189,0.23144,0.22603
1700498539593750,-9.490241,0.812108,2.1608,0.24489,0.12444,0.26103
1700498539601562,-9.481241,0.799108,2.1538,0.25589,0.14544,0.21503
1700498539609375,-9.518241,0.807108,2.1808,0.28689,0.13544,0.17703
1700498539617187,-9.533241,0.812108,2.1948,0.19189,0.16944,0.14703
1700498539625000,-9.535241,0.805108,2.1948,0.15989,0.15244,0.17903
1700498539632812,-9.540241,0.812108,2.1738,0.411,0.19044,0.16803
1700498539640625,-9.558241,0.822108,2.1268,0.8589,0.14444,0.15203
1700498539648437,-9.551241,0.804108,2.1128,0.1289,0.22144,0.15103
1700498539656250,-9.544241,0.812108,2.1288,0.4489,0.26944,0.23103
1700498539664062,-9.521241,0.790108,2.1198,0.8489,0.25644,0.28103
1700498539671875,-9.501241,0.769108,2.1018,0.1489,0.21844,0.26303
1700498539679687,-9.490241,0.781108,2.948,0.5889,0.28744,0.21603
1700498539687500,-9.492241,0.772108,2.998,0.0,0.23544,0.21503
1700498539695312,-9.504241,0.783108,2.1198,0.1389,0.28444,0.26303
1700498539703125,-9.519241,0.792108,2.1108,0.0,0.28244,0.27903
1700498539710937,-9.517241,0.788108,2.1198,0.1189,0.23644,0.31203
1700498539718750,-9.533241,0.783108,2.1198,0.189,0.28144,0.27803
1700498539726562,-9.542241,0.779108,2.1358,0.11189,0.26744,0.19703
1700498539734375,-9.548241,0.775108,2.1428,0.9489,0.23444,0.24503
1700498539742187,-9.557241,0.768108,2.1538,0.8289,0.28044,0.26003
1700498539750000,-9.558241,0.772108,2.1428,0.19489,0.27944,0.24203
1700498539757812,-9.557241,0.775108,2.1428,0.14789,0.33944,0.23203
1700498539765625,-9.553241,0.783108,2.1518,0.7889,0.33244,0.23003
1700498539773437,-9.537241,0.786108,2.1268,0.21789,0.28644,0.19703
1700498539781250,-9.533241,0.794108,2.1448,0.14289,0.31644,0.21303
1700498539789062,-9.522241,0.791108,2.1318,0.22889,0.31044,0.20903
1700498539796875,-9.517241,0.794108,2.1408,0.25589,0.36244,0.21103
1700498539804687,-9.517241,0.803108,2.1518,0.21989,0.36744,0.13203
1700498539812500,-9.517241,0.796108,2.1358,0.20589,0.39844,0.14803
1700498539820312,-9.524241,0.792108,2.1288,0.20789,0.36444,0.16303
1700498539828125,-9.505241,0.766108,2.1378,0.10089,0.34044,0.15303
1700498539835937,-9.479241,0.771108,2.908,0.7489,0.40244,0.15203
1700498539843750,-9.472241,0.787108,2.888,0.26189,0.35344,0.21403
1700498539851562,-9.481241,0.784108,2.1088,0.25489,0.26644,0.17803
1700498539859375,-9.495241,0.787108,2.1108,0.26989,0.20144,0.16203
1700498539867187,-9.510241,0.781108,2.1248,0.18389,0.14144,0.16503
1700498539875000,-9.528241,0.781108,2.1558,0.13189,0.19344,0.20003
1700498539882812,-9.560241,0.784108,2.1558,0.10589,0.10644,0.27803
1700498539890625,-9.562241,0.791108,2.1578,0.8289,0.25944,0.20203
1700498539898437,-9.553241,0.797108,2.1468,0.7189,0.25744,0.16803
1700498539906250,-9.560241,0.800108,2.1538,0.7189,0.20844,0.18403
1700498539914062,-9.535241,0.795108,2.1288,0.8789,0.22344,0.21503
1700498539921875,-9.526241,0.784108,2.1148,0.7189,0.24144,0.13603
1700498539929687,-9.542241,0.784108,2.1128,0.1489,0.27144,0.5503
1700498539937500,-9.526241,0.781108,2.1158,0.7389,0.23944,0.13503
1700498539945312,-9.521241,0.770108,2.1238,0.5489,0.27344,0.21703
1700498539953125,-9.517241,0.768108,2.998,0.711,0.28844,0.24903
1700498539960937,-9.517241,0.781108,2.1148,0.2289,0.27344,0.23303
1700498539968750,-9.512241,0.774108,2.1218,0.8689,0.29044,0.18403
1700498539976562,-9.519241,0.774108,2.1218,0.5789,0.27044,0.24803
1700498539984375,-9.512241,0.781108,2.1308,0.9889,0.34244,0.15403
1700498539992187,-9.503241,0.779108,2.1378,0.18089,0.33944,0.16803
1700498540000000,-9.517241,0.777108,2.1418,0.24289,0.32444,0.8703
1700498540007812,-9.525241,0.764108,2.1308,0.22389,0.32544,0.18403
1700498540015625,-9.519241,0.775108,2.1328,0.22589,0.35744,0.13603
1700498540023437,-9.537241,0.775108,2.1398,0.19689,0.38844,0.10303
1700498540031250,-9.533241,0.781108,2.1398,0.26389,0.36844,0.21303
1700498540039062,-9.526241,0.792108,2.1398,0.25889,0.29144,0.11903
1700498540046875,-9.533241,0.792108,2.1358,0.20689,0.30044,0.11503
1700498540054687,-9.528241,0.790108,2.1468,0.24089,0.32644,0.12003
1700498540062500,-9.517241,0.783108,2.1508,0.24189,0.30844,0.15103
1700498540070312,-9.517241,0.784108,2.1358,0.22489,0.30944,0.12003
1700498540078125,-9.510241,0.790108,2.1448,0.22589,0.30844,0.16703
1700498540085937,-9.506241,0.786108,2.1328,0.17789,0.27544,0.23203
1700498540093750,-9.494241,0.783108,2.1338,0.24289,0.32344,0.21503
1700498540101562,-9.490241,0.781108,2.1398,0.25389,0.32544,0.21603
1700498540109375,-9.497241,0.790108,2.1418,0.22489,0.25844,0.23203
1700498540117187,-9.496241,0.781108,2.1398,0.18889,0.19744,0.18503
1700498540125000,-9.494241,0.772108,2.1218,0.20589,0.17944,0.23203
1700498540132812,-9.499241,0.774108,2.1218,0.19289,0.14544,0.21603
1700498540140625,-9.510241,0.783108,2.1288,0.25789,0.25744,0.24703
1700498540148437,-9.517241,0.794108,2.1288,0.24489,0.23944,0.21403
1700498540156250,-9.519241,0.792108,2.1428,0.16789,0.15644,0.29403
1700498540164062,-9.517241,0.794108,2.1408,0.25289,0.16844,0.24303
1700498540171875,-9.531241,0.795108,2.1428,0.22989,0.12544,0.21303
1700498540179687,-9.533241,0.790108,2.1378,0.21589,0.20544,0.19703
1700498540187500,-9.539241,0.777108,2.1378,0.21389,0.23944,0.21403
1700498540195312,-9.540241,0.795108,2.1398,0.27989,0.22244,0.14803
1700498540203125,-9.533241,0.792108,2.1468,0.12289,0.23844,0.16603
1700498540210937,-9.535241,0.795108,2.1488,0.24389,0.25744,0.18203
1700498540218750,-9.537241,0.792108,2.1518,0.13789,0.22144,0.19803
1700498540226562,-9.533241,0.790108,2.1578,0.23489,0.17044,0.22803
1700498540234375,-9.526241,0.795108,2.1518,0.16689,0.25644,0.18303
1700498540242187,-9.526241,0.783108,2.1498,0.11189,0.15244,0.22803
1700498540250000,-9.521241,0.774108,2.1518,0.19789,0.17444,0.26203
1700498540257812,-9.517241,0.770108,2.1218,0.18289,0.19044,0.21403
1700498540265625,-9.508241,0.774108,2.978,0.15289,0.25444,0.23003
1700498540273437,-9.499241,0.774108,2.1088,0.22089,0.15444,0.16303
1700498540281250,-9.510241,0.768108,2.1088,0.25289,0.16344,0.24803
1700498540289062,-9.516241,0.768108,2.1328,0.16989,0.15044,0.17003
1700498540296875,-9.517241,0.772108,2.1488,0.20289,0.12244,0.18003
1700498540304687,-9.519241,0.779108,2.1518,0.19989,0.13944,0.26103
1700498540312500,-9.513241,0.776108,2.1468,0.20889,0.12044,0.8203
1700498540320312,-9.517241,0.778108,2.1428,0.22389,0.13644,0.13003
1700498540328125,-9.517241,0.781108,2.1518,0.21689,0.14044,0.16403
1700498540335937,-9.517241,0.783108,2.1468,0.21889,0.12244,0.19603
1700498540343750,-9.517241,0.779108,2.1558,0.23489,0.13844,0.18003
1700498540351562,-9.528241,0.781108,2.1558,0.17389,0.12144,0.16303
1700498540359375,-9.529241,0.801108,2.1648,0.24089,0.15144,0.12903
1700498540367187,-9.535241,0.794108,2.2058,0.27389,0.19944,0.16103
1700498540375000,-9.526241,0.756108,2.1338,0.25489,0.15244,0.13003
1700498540382812,-9.501241,0.749108,2.768,0.17489,0.5544,0.16303
1700498540390625,-9.504241,0.792108,2.1308,0.26989,0.12044,0.16203
1700498540398437,-9.526241,0.799108,2.1808,0.25289,0.21844,0.19503
1700498540406250,-9.535241,0.775108,2.798,0.23389,0.12444,0.13203
1700498540414062,-9.530241,0.755108,2.48,0.12189,0.3856,0.21303
1700498540421875,-9.497241,0.781108,2.568,0.18689,0.4044,0.22803
1700498540429687,-9.497241,0.816108,2.1398,0.26489,0.4244,0.14703
1700498540437500,-9.515241,0.794108,2.1668,0.24889,0.2156,0.11503
1700498540445312,-9.512241,0.772108,2.1018,0.29489,0.13656,0.17803
1700498540453125,-9.530241,0.772108,2.1178,0.30189,0.9156,0.9603
1700498540460937,-9.573241,0.775108,2.1448,0.23689,0.7356,0.14603
1700498540468750,-9.580241,0.793108,2.1518,0.27889,0.5356,0.9903
1700498540476562,-9.589241,0.800108,2.1248,0.16189,0.5444,0.9803
1700498540484375,-9.590241,0.801108,2.868,0.1289,0.14744,0.8203
1700498540492187,-9.578241,0.811108,2.748,0.14389,0.15444,0.8303
1700498540500000,-9.560241,0.799108,2.618,0.7689,0.14044,0.13403
1700498540507812,-9.533241,0.794108,2.508,0.13689,0.14744,0.12803
1700498540515625,-9.526241,0.787108,2.458,0.17789,0.15244,0.8203
1700498540523437,-9.515241,0.781108,2.678,0.13889,0.17344,0.13303
1700498540531250,-9.511241,0.785108,2.618,0.18089,0.11744,0.11303
1700498540539062,-9.517241,0.772108,2.678,0.5289,0.20044,0.11603
1700498540546875,-9.521241,0.776108,2.588,0.12689,0.12244,0.10003
1700498540554687,-9.542241,0.786108,2.678,0.13589,0.15944,0.11803
1700498540562500,-9.553241,0.777108,2.658,0.17289,0.20444,0.10003
1700498540570312,-9.558241,0.779108,2.618,0.19689,0.24844,0.8203
1700498540578125,-9.569241,0.788108,2.588,0.17689,0.26744,0.8303
1700498540585937,-9.571241,0.784108,2.458,0.22089,0.23644,0.13103
1700498540593750,-9.580241,0.779108,2.438,0.27189,0.26644,0.14603
1700498540601562,-9.567241,0.777108,2.478,0.25789,0.26444,0.11303
1700498540609375,-9.566241,0.786108,2.548,0.25089,0.28644,0.11603
1700498540617187,-9.564241,0.797108,2.478,0.26789,0.33444,0.9903
1700498540625000,-9.560241,0.804108,2.548,0.23589,0.41644,0.11703
1700498540632812,-9.551241,0.817108,2.548,0.23889,0.36044,0.10503
1700498540640625,-9.535241,0.815108,2.638,0.26089,0.32344,0.8603
1700498540648437,-9.526241,0.817108,2.588,0.24789,0.36944,0.10103
1700498540656250,-9.538241,0.814108,2.748,0.25789,0.39644,0.8203
1700498540664062,-9.524241,0.817108,2.728,0.24389,0.38844,0.10303
1700498540671875,-9.519241,0.792108,2.798,0.18389,0.40344,0.8703
1700498540679687,-9.499241,0.772108,2.678,0.16589,0.37244,0.12003
1700498540687500,-9.474241,0.785108,2.98,0.26189,0.35444,0.10203
1700498540695312,-9.483241,0.792108,2.478,0.24489,0.32344,0.8603
1700498540703125,-9.483241,0.796108,2.588,0.26289,0.32244,0.10103
1700498540710937,-9.506241,0.794108,2.748,0.24889,0.22244,0.11603
1700498540718750,-9.518241,0.810108,2.768,0.23989,0.21844,0.8203
1700498540726562,-9.524241,0.805108,2.928,0.26489,0.28844,0.10003
1700498540734375,-9.540241,0.821108,2.888,0.26289,0.24044,0.8503
1700498540742187,-9.553241,0.826108,2.838,0.24489,0.29044,0.11803
1700498540750000,-9.553241,0.817108,2.1018,0.23289,0.30444,0.10103
1700498540757812,-9.551241,0.813108,2.1038,0.23389,0.28844,0.8503
1700498540765625,-9.551241,0.810108,2.1108,0.24889,0.28844,0.8503
1700498540773437,-9.553241,0.804108,2.928,0.22689,0.30844,0.10303
1700498540781250,-9.551241,0.795108,2.748,0.16589,0.29044,0.13503
1700498540789062,-9.530241,0.802108,2.788,0.11189,0.29544,0.9003
1700498540796875,-9.524241,0.797108,2.768,0.16789,0.30544,0.13503
1700498540804687,-9.521241,0.788108,2.768,0.16689,0.33844,0.15103
1700498540812500,-9.517241,0.794108,2.788,0.18189,0.20844,0.13403
1700498540820312,-9.517241,0.788108,2.698,0.24389,0.29044,0.13403
1700498540828125,-9.519241,0.783108,2.658,0.20189,0.28844,0.8503
1700498540835937,-9.513241,0.794108,2.708,0.26289,0.23844,0.19703
1700498540843750,-9.517241,0.797108,2.608,0.23089,0.27244,0.15003
1700498540851562,-9.517241,0.794108,2.638,0.20389,0.23744,0.11603
1700498540859375,-9.526241,0.795108,2.568,0.25889,0.25944,0.10203
1700498540867187,-9.546241,0.808108,2.498,0.24389,0.22644,0.10203
1700498540875000,-9.553241,0.813108,2.548,0.25589,0.26044,0.13503
1700498540882812,-9.553241,0.800108,2.568,0.24189,0.24444,0.8703
1700498540890625,-9.549241,0.808108,2.498,0.19389,0.17844,0.16803
1700498540898437,-9.556241,0.817108,2.478,0.26189,0.22344,0.16503
1700498540906250,-9.553241,0.815108,2.568,0.24089,0.29344,0.10303
1700498540914062,-9.555241,0.815108,2.588,0.22489,0.29344,0.12003
1700498540921875,-9.551241,0.817108,2.458,0.25889,0.25944,0.11803
1700498540929687,-9.551241,0.811108,2.658,0.25189,0.31244,0.13703
1700498540937500,-9.547241,0.808108,2.728,0.16989,0.25444,0.15003
1700498540945312,-9.540241,0.812108,2.618,0.21989,0.23744,0.11603
1700498540953125,-9.535241,0.797108,2.638,0.26589,0.30344,0.11603
1700498540960937,-9.517241,0.805108,2.548,0.24889,0.18944,0.13203
1700498540968750,-9.515241,0.805108,2.528,0.24989,0.23744,0.14803
1700498540976562,-9.513241,0.808108,2.478,0.25689,0.27544,0.19903
1700498540984375,-9.512241,0.801108,2.408,0.19489,0.22744,0.10303
1700498540992187,-9.519241,0.806108,2.388,0.22989,0.14344,0.11703
1700498541000000,-9.522241,0.812108,2.368,0.26089,0.20744,0.19703
1700498541007812,-9.522241,0.814108,2.528,0.26589,0.18844,0.14703
1700498541015625,-9.533241,0.810108,2.498,0.23189,0.20744,0.11703
1700498541023437,-9.538241,0.810108,2.498,0.24689,0.25444,0.19703
1700498541031250,-9.533241,0.810108,2.568,0.26489,0.25344,0.21203
1700498541039062,-9.544241,0.810108,2.548,0.22789,0.24244,0.11903
1700498541046875,-9.551241,0.814108,2.568,0.20789,0.21644,0.22703
1700498541054687,-9.554241,0.821108,2.638,0.20589,0.18544,0.19503
1700498541062500,-9.576241,0.821108,2.618,0.20989,0.23144,0.19403
1700498541070312,-9.590241,0.824108,2.748,0.22289,0.23444,0.13103
1700498541078125,-9.578241,0.817108,2.618,0.15489,0.18744,0.21303
1700498541085937,-9.585241,0.824108,2.498,0.18689,0.23744,0.16503
1700498541093750,-9.572241,0.822108,2.368,0.17289,0.18644,0.22803
1700498541101562,-9.565241,0.810108,2.208,0.12889,0.26544,0.21203
1700498541109375,-9.536241,0.814108,2.8,0.25189,0.17044,0.19503
1700498541117187,-9.533241,0.803108,1.9848,0.26289,0.14744,0.14303
1700498541125000,-9.535241,0.792108,2.28,0.26589,0.17144,0.16303
1700498541132812,-9.551241,0.797108,2.118,0.25389,0.23444,0.16303
1700498541140625,-9.553241,0.810108,2.348,0.25489,0.21844,0.13003
1700498541148437,-9.544241,0.803108,2.328,0.27389,0.21544,0.14503
1700498541156250,-9.553241,0.806108,2.298,0.22989,0.27444,0.8603
1700498541164062,-9.554241,0.821108,2.208,0.21289,0.15044,0.9703
1700498541171875,-9.554241,0.830108,2.368,0.21989,0.22144,0.8403
1700498541179687,-9.558241,0.828108,2.318,0.26789,0.18644,0.14703
1700498541187500,-9.556241,0.819108,2.228,0.26989,0.25144,0.13003
1700498541195312,-9.558241,0.821108,2.188,0.22789,0.21544,0.9703
1700498541203125,-9.556241,0.855108,2.498,0.26689,0.31944,0.8403
1700498541210937,-9.567241,0.848108,2.978,0.26789,0.31844,0.9903
1700498541218750,-9.565241,0.821108,2.278,0.13189,0.13544,0.11403
1700498541226562,-9.533241,0.810108,1.9778,0.8289,0.25144,0.8403
1700498541234375,-9.554241,0.857108,2.188,0.23789,0.18744,0.11503
1700498541242187,-9.572241,0.857108,2.708,0.26089,0.19644,0.19203
1700498541250000,-9.569241,0.817108,1.9668,0.21689,0.17144,0.24403
1700498541257812,-9.562241,0.813108,1.8968,0.18689,0.13844,0.19603
1700498541265625,-9.527241,0.825108,1.9168,0.18589,0.18744,0.22903
1700498541273437,-9.516241,0.852108,2.158,0.26089,0.22544,0.13403
1700498541281250,-9.520241,0.825108,2.478,0.24689,0.14144,0.14903
1700498541289062,-9.522241,0.818108,2.228,0.25689,0.10244,0.12903
1700498541296875,-9.549241,0.819108,2.228,0.27389,0.5344,0.8003
1700498541304687,-9.561241,0.839108,2.658,0.22589,0.10244,0.14503
1700498541312500,-9.567241,0.846108,2.728,0.14189,0.17044,0.18003
1700498541320312,-9.574241,0.849108,2.548,0.16589,0.9344,0.21403
1700498541328125,-9.583241,0.839108,2.48,0.1789,0.18644,0.13303
1700498541335937,-9.576241,0.828108,1.9718,0.12589,0.18644,0.18103
1700498541343750,-9.558241,0.830108,1.9808,0.12589,0.28444,0.14903
1700498541351562,-9.542241,0.826108,1.9508,0.7389,0.27044,0.23103
1700498541359375,-9.526241,0.810108,1.9418,0.20589,0.15244,0.21103
1700498541367187,-9.515241,0.810108,1.9468,0.21789,0.17144,0.21203
1700498541375000,-9.524241,0.807108,1.9508,0.14489,0.20044,0.21103
1700498541382812,-9.531241,0.814108,1.9558,0.17189,0.21944,0.24503
1700498541390625,-9.542241,0.823108,1.9718,0.9189,0.25344,0.21403
1700498541398437,-9.551241,0.826108,1.9758,0.7789,0.25144,0.23003
1700498541406250,-9.567241,0.830108,1.9938,0.8189,0.19944,0.24403
1700498541414062,-9.588241,0.837108,1.9918,0.3789,0.19744,0.26003
1700498541421875,-9.590241,0.835108,1.9868,0.22489,0.26444,0.21003
1700498541429687,-9.585241,0.830108,1.9898,0.18089,0.19944,0.11403
1700498541437500,-9.588241,0.833108,1.9918,0.14389,0.30044,0.13203
1700498541445312,-9.570241,0.839108,2.78,0.15389,0.30244,0.21403
1700498541453125,-9.579241,0.842108,2.48,0.17289,0.33444,0.16503
1700498541460937,-9.563241,0.844108,1.9868,0.19989,0.32044,0.16603
1700498541468750,-9.554241,0.832108,1.9868,0.19089,0.30044,0.16403
1700498541476562,-9.552241,0.836108,1.9988,0.25889,0.39444,0.14603
1700498541484375,-9.554241,0.841108,1.9918,0.23489,0.39944,0.14903
1700498541492187,-9.552241,0.847108,1.9878,0.21289,0.37844,0.9803
1700498541500000,-9.554241,0.839108,1.9888,0.21589,0.41844,0.15003
1700498541507812,-9.556241,0.836108,1.9848,0.21389,0.39344,0.11303
1700498541515625,-9.560241,0.819108,1.9938,0.23989,0.46244,0.9903
1700498541523437,-9.526241,0.812108,1.9848,0.12489,0.46544,0.15003
1700498541531250,-9.515241,0.830108,1.9378,0.18689,0.41744,0.11803
1700498541539062,-9.498241,0.827108,1.9808,0.23689,0.38144,0.18003
1700498541546875,-9.509241,0.824108,1.9758,0.26189,0.27644,0.22403
1700498541554687,-9.520241,0.821108,2.8,0.20189,0.30244,0.18103
1700498541562500,-9.522241,0.823108,2.48,0.25489,0.31544,0.19503
1700498541570312,-9.534241,0.829108,2.48,0.11689,0.28144,0.11503
1700498541578125,-9.545241,0.827108,1.9828,0.8789,0.29644,0.8203
1700498541585937,-9.554241,0.841108,1.9758,0.11389,0.26544,0.18003
1700498541593750,-9.585241,0.848108,2.78,0.17289,0.17144,0.13203
1700498541601562,-9.585241,0.837108,1.9938,0.14889,0.21544,0.13003
1700498541609375,-9.574241,0.824108,1.9778,0.4689,0.30244,0.11803
1700498541617187,-9.567241,0.826108,1.9738,0.3189,0.28644,0.8603
1700498541625000,-9.558241,0.822108,1.9798,0.411,0.30544,0.12003
1700498541632812,-9.554241,0.819108,1.9738,0.589,0.29744,0.16503
1700498541640625,-9.547241,0.814108,1.9758,0.2289,0.31344,0.11603
1700498541648437,-9.536241,0.814108,1.9808,0.11389,0.28344,0.8403
1700498541656250,-9.527241,0.816108,1.9648,0.3889,0.29744,0.10003
1700498541664062,-9.520241,0.809108,1.9538,0.6289,0.29244,0.8103
1700498541671875,-9.517241,0.799108,1.9668,0.6089,0.28744,0.11903
1700498541679687,-9.524241,0.794108,1.9738,0.9989,0.33144,0.10003
1700498541687500,-9.540241,0.797108,1.9828,0.12689,0.36744,0.8503
1700498541695312,-9.542241,0.801108,1.9898,0.15589,0.45044,0.10203
1700498541703125,-9.553241,0.799108,1.9888,0.18289,0.42044,0.11903
1700498541710937,-9.551241,0.795108,1.9828,0.14789,0.39044,0.10403
1700498541718750,-9.549241,0.806108,1.9938,0.19989,0.33644,0.16603
1700498541726562,-9.540241,0.799108,1.9798,0.19589,0.35544,0.18403
1700498541734375,-9.540241,0.801108,1.9708,0.11789,0.37244,0.16803
1700498541742187,-9.553241,0.795108,1.9758,0.15289,0.36944,0.16703
1700498541750000,-9.555241,0.793108,1.9848,0.18189,0.37044,0.16703
1700498541757812,-9.558241,0.808108,1.9898,0.20189,0.40144,0.13403
1700498541765625,-9.553241,0.815108,1.9938,0.20089,0.33644,0.15003
1700498541773437,-9.554241,0.810108,1.9848,0.26989,0.34744,0.17903
1700498541781250,-9.553241,0.813108,1.9778,0.26189,0.32044,0.21403
1700498541789062,-9.553241,0.821108,1.9738,0.16989,0.35344,0.10203
1700498541796875,-9.556241,0.823108,1.9868,0.20589,0.28544,0.11603
1700498541804687,-9.549241,0.821108,1.9898,0.19089,0.33344,0.11603
1700498541812500,-9.553241,0.819108,1.9848,0.13989,0.35144,0.13403
1700498541820312,-9.554241,0.817108,1.9828,0.12589,0.39944,0.11803
1700498541828125,-9.553241,0.826108,1.9958,0.15289,0.38744,0.8703
1700498541835937,-9.552241,0.830108,1.9828,0.20589,0.36544,0.14803
1700498541843750,-9.526241,0.823108,1.9828,0.22689,0.32344,0.19903
1700498541851562,-9.520241,0.823108,1.9888,0.21189,0.37244,0.18403
1700498541859375,-9.531241,0.830108,2.48,0.26389,0.32044,0.10103
1700498541867187,-9.536241,0.827108,2.78,0.15989,0.33344,0.10003
1700498541875000,-9.547241,0.830108,2.48,0.7389,0.45244,0.8803
1700498541882812,-9.556241,0.830108,2.78,0.20889,0.41344,0.6703
1700498541890625,-9.554241,0.826108,2.168,0.12289,0.43544,0.10303
1700498541898437,-9.554241,0.817108,2.208,0.11089,0.41644,0.11803
1700498541906250,-9.556241,0.830108,2.188,0.10689,0.45144,0.10303
1700498541914062,-9.558241,0.842108,2.188,0.10189,0.40644,0.8903
1700498541921875,-9.558241,0.839108,2.318,0.1411,0.33444,0.10303
1700498541929687,-9.574241,0.848108,2.188,0.2889,0.40244,0.8803
1700498541937500,-9.565241,0.833108,2.118,0.2889,0.36944,0.10403
1700498541945312,-9.565241,0.828108,1.9978,0.811,0.38944,0.9003
1700498541953125,-9.554241,0.824108,1.9828,0.9389,0.40144,0.7003
1700498541960937,-9.556241,0.826108,1.9848,0.5489,0.39044,0.5703
1700498541968750,-9.549241,0.819108,2.28,0.10389,0.40544,0.7203
1700498541976562,-9.544241,0.815108,2.118,0.12289,0.38644,0.8703
1700498541984375,-9.544241,0.815108,2.428,0.4289,0.40344,0.5603
1700498541992187,-9.553241,0.822108,2.478,0.10589,0.38744,0.5503
1700498542000000,-9.540241,0.832108,2.478,0.7289,0.48544,0.10503
1700498542007812,-9.525241,0.841108,2.548,0.1089,0.46944,0.8903
1700498542015625,-9.520241,0.852108,2.518,0.8689,0.37244,0.15303
1700498542023437,-9.511241,0.839108,2.498,0.16889,0.33844,0.8603
1700498542031250,-9.506241,0.832108,2.458,0.10689,0.40244,0.10303
1700498542039062,-9.506241,0.814108,2.258,0.12689,0.38344,0.8503
1700498542046875,-9.493241,0.829108,2.388,0.16689,0.40344,0.13503
1700498542054687,-9.505241,0.852108,2.708,0.26589,0.43444,0.8503
1700498542062500,-9.520241,0.841108,2.1038,0.25689,0.45544,0.12003
1700498542070312,-9.497241,0.814108,2.168,0.16989,0.32044,0.10203
1700498542078125,-9.486241,0.823108,1.9868,0.7189,0.32144,0.20003
1700498542085937,-9.518241,0.866108,2.428,0.27289,0.29144,0.19903
1700498542093750,-9.554241,0.854108,2.318,0.12789,0.21844,0.18003
1700498542101562,-9.552241,0.848108,1.9418,0.25089,0.20344,0.19503
1700498542109375,-9.538241,0.828108,1.9308,0.20089,0.28744,0.13303
1700498542117187,-9.523241,0.843108,2.168,0.24189,0.33044,0.13003
1700498542125000,-9.529241,0.835108,2.748,0.20989,0.37344,0.15203
1700498542132812,-9.522241,0.843108,2.528,0.21389,0.27244,0.21403
1700498542140625,-9.531241,0.848108,2.318,0.24589,0.19044,0.19703
1700498542148437,-9.565241,0.837108,2.318,0.24189,0.20944,0.18303
1700498542156250,-9.585241,0.846108,2.568,0.26289,0.22244,0.21303
1700498542164062,-9.567241,0.853108,2.408,0.12189,0.12344,0.21403
1700498542171875,-9.581241,0.860108,2.118,0.1911,0.29744,0.17303
1700498542179687,-9.597241,0.866108,2.48,0.411,0.31944,0.21703
1700498542187500,-9.592241,0.857108,1.9868,0.4289,0.30344,0.18403
1700498542195312,-9.563241,0.853108,1.9888,0.6889,0.35544,0.26603
1700498542203125,-9.551241,0.835108,1.9848,0.3989,0.38644,0.24903
1700498542210937,-9.533241,0.835108,1.9958,0.9789,0.35844,0.20203
1700498542218750,-9.531241,0.830108,2.78,0.1289,0.31844,0.23203
1700498542226562,-9.529241,0.834108,2.78,0.1289,0.40044,0.21603
1700498542234375,-9.532241,0.841108,2.98,0.289,0.38044,0.21403
1700498542242187,-9.538241,0.841108,2.78,0.1089,0.43344,0.26503
1700498542250000,-9.551241,0.835108,2.228,0.411,0.41844,0.18503
1700498542257812,-9.554241,0.828108,2.208,0.989,0.41844,0.23303
1700498542265625,-9.549241,0.835108,2.228,0.611,0.53244,0.23403
1700498542273437,-9.551241,0.826108,2.168,0.9089,0.43344,0.20003
1700498542281250,-9.549241,0.824108,2.338,0.10189,0.48544,0.23303
1700498542289062,-9.560241,0.831108,2.318,0.11589,0.38844,0.24903
1700498542296875,-9.562241,0.820108,2.318,0.13089,0.40444,0.26503
1700498542304687,-9.554241,0.824108,2.408,0.21789,0.38444,0.16503
1700498542312500,-9.563241,0.828108,2.458,0.23389,0.43344,0.13303
1700498542320312,-9.556241,0.834108,2.348,0.14089,0.38144,0.26203
1700498542328125,-9.559241,0.845108,2.508,0.16289,0.42644,0.22803
1700498542335937,-9.554241,0.845108,2.528,0.15989,0.42944,0.18103
1700498542343750,-9.545241,0.850108,2.408,0.20489,0.41444,0.18103
1700498542351562,-9.543241,0.841108,2.498,0.26689,0.46344,0.19603
1700498542359375,-9.538241,0.848108,2.248,0.7089,0.45244,0.23303
1700498542367187,-9.531241,0.828108,2.388,0.12089,0.43444,0.16803
1700498542375000,-9.491241,0.829108,2.78,0.12789,0.52744,0.18203
1700498542382812,-9.498241,0.851108,2.278,0.21889,0.44844,0.16503
1700498542390625,-9.515241,0.834108,2.528,0.24789,0.38644,0.13403
1700498542398437,-9.520241,0.823108,2.298,0.26889,0.38244,0.13103
1700498542406250,-9.518241,0.827108,2.478,0.21889,0.35044,0.21303
1700498542414062,-9.522241,0.832108,2.778,0.19089,0.41344,0.19603
1700498542421875,-9.538241,0.850108,2.788,0.16389,0.35744,0.13603
1700498542429687,-9.536241,0.852108,2.598,0.13089,0.34744,0.11603
1700498542437500,-9.556241,0.843108,2.438,0.18089,0.46044,0.9903
1700498542445312,-9.545241,0.832108,2.638,0.14789,0.44544,0.8403
1700498542453125,-9.552241,0.827108,2.638,0.22989,0.39344,0.9703
1700498542460937,-9.556241,0.830108,2.528,0.19089,0.43144,0.8403
1700498542468750,-9.554241,0.827108,2.478,0.15589,0.40644,0.9703
1700498542476562,-9.554241,0.830108,2.458,0.15489,0.40044,0.16603
1700498542484375,-9.563241,0.828108,2.548,0.2689,0.45144,0.15303
1700498542492187,-9.561241,0.835108,2.528,0.3089,0.39944,0.18303
1700498542500000,-9.567241,0.833108,2.618,0.19889,0.43644,0.11903
1700498542507812,-9.570241,0.839108,2.528,0.11489,0.42944,0.10103
1700498542515625,-9.563241,0.828108,2.658,0.18789,0.41744,0.8503
1700498542523437,-9.556241,0.830108,2.708,0.9789,0.42944,0.14903
1700498542531250,-9.551241,0.828108,2.788,0.19689,0.51944,0.10403
1700498542539062,-9.544241,0.824108,2.818,0.22989,0.50244,0.8703
1700498542546875,-9.540241,0.823108,2.858,0.24989,0.46644,0.10103
1700498542554687,-9.529241,0.826108,2.908,0.26189,0.46944,0.10203
1700498542562500,-9.520241,0.830108,2.858,0.13889,0.46644,0.16703
1700498542570312,-9.518241,0.827108,2.858,0.20189,0.48344,0.13403
1700498542578125,-9.518241,0.829108,2.908,0.19689,0.39444,0.8203
1700498542585937,-9.518241,0.828108,2.858,0.20089,0.45144,0.10203
1700498542593750,-9.518241,0.834108,2.818,0.8789,0.42144,0.8903
1700498542601562,-9.518241,0.828108,2.768,0.11989,0.40344,0.13603
1700498542609375,-9.520241,0.834108,2.838,0.26089,0.40344,0.13403
1700498542617187,-9.534241,0.841108,2.978,0.18789,0.43444,0.8603
1700498542625000,-9.536241,0.835108,2.978,0.26189,0.45344,0.10203
1700498542632812,-9.540241,0.841108,2.1108,0.14989,0.47044,0.8803
1700498542640625,-9.538241,0.839108,2.1088,0.21389,0.46944,0.10303
1700498542648437,-9.533241,0.828108,2.928,0.28189,0.41744,0.8403
1700498542656250,-9.527241,0.830108,2.768,0.19889,0.43644,0.10303
1700498542664062,-9.538241,0.837108,2.888,0.23589,0.39944,0.13303
1700498542671875,-9.531241,0.839108,2.908,0.21589,0.43544,0.11803
1700498542679687,-9.533241,0.837108,2.768,0.20089,0.43544,0.8603
1700498542687500,-9.527241,0.852108,2.838,0.26489,0.38444,0.13303
1700498542695312,-9.522241,0.843108,2.838,0.24989,0.40144,0.13303
1700498542703125,-9.522241,0.848108,2.858,0.26389,0.40244,0.8503
1700498542710937,-9.518241,0.852108,2.838,0.23889,0.37644,0.10503
1700498542718750,-9.518241,0.850108,2.838,0.18389,0.38744,0.10303
1700498542726562,-9.518241,0.843108,2.858,0.10289,0.45444,0.8903
1700498542734375,-9.518241,0.852108,2.858,0.19889,0.43644,0.11903
1700498542742187,-9.511241,0.850108,2.888,0.16789,0.37144,0.10303
1700498542750000,-9.518241,0.856108,2.928,0.20389,0.38444,0.8503
1700498542757812,-9.525241,0.859108,2.858,0.23489,0.40144,0.8503
1700498542765625,-9.534241,0.864108,2.768,0.17989,0.39044,0.10403
1700498542773437,-9.536241,0.870108,2.838,0.23689,0.33444,0.11603
1700498542781250,-9.529241,0.863108,2.658,0.9289,0.38444,0.10203
1700498542789062,-9.529241,0.850108,2.548,0.4889,0.38144,0.15003
1700498542796875,-9.540241,0.852108,2.568,0.9089,0.40244,0.13503
1700498542804687,-9.534241,0.830108,2.588,0.12889,0.43144,0.8503
1700498542812500,-9.531241,0.841108,2.698,0.16589,0.43844,0.7203
1700498542820312,-9.533241,0.837108,2.858,0.8889,0.42044,0.12003
1700498542828125,-9.522241,0.836108,2.888,0.17089,0.41744,0.13403
1700498542835937,-9.520241,0.848108,2.728,0.20089,0.40244,0.10203
1700498542843750,-9.527241,0.850108,2.798,0.13989,0.45044,0.8603
1700498542851562,-9.531241,0.857108,2.768,0.11989,0.40344,0.13603
1700498542859375,-9.536241,0.856108,2.858,0.17289,0.36644,0.16503
1700498542867187,-9.529241,0.848108,2.858,0.10289,0.38844,0.10403
1700498542875000,-9.534241,0.848108,2.768,0.18789,0.39944,0.14903
1700498542882812,-9.534241,0.857108,2.818,0.16489,0.38844,0.13603
1700498542890625,-9.536241,0.870108,2.1358,0.23589,0.41644,0.11703
1700498542898437,-9.536241,0.868108,2.1558,0.24989,0.40144,0.11703
1700498542906250,-9.511241,0.827108,2.748,0.10789,0.38444,0.16703
1700498542914062,-9.489241,0.829108,2.748,0.4589,0.39944,0.23103
1700498542921875,-9.505241,0.861108,2.1288,0.16689,0.38544,0.23103
1700498542929687,-9.527241,0.854108,2.1398,0.19889,0.40244,0.19903
1700498542937500,-9.515241,0.834108,2.318,0.8689,0.35444,0.24903
1700498542945312,-9.495241,0.827108,2.118,0.19489,0.29044,0.24803
1700498542953125,-9.462241,0.853108,2.408,0.19989,0.35144,0.29403
1700498542960937,-9.474241,0.869108,2.1288,0.27189,0.29744,0.22603
1700498542968750,-9.484241,0.840108,2.1498,0.25589,0.26444,0.24203
1700498542976562,-9.502241,0.831108,2.1338,0.26989,0.18344,0.25803
1700498542984375,-9.522241,0.832108,2.1408,0.28389,0.20144,0.21003
1700498542992187,-9.550241,0.845108,2.1678,0.27089,0.18444,0.17803
1700498543000000,-9.554241,0.857108,2.1558,0.20689,0.28244,0.21103
1700498543007812,-9.557241,0.879108,2.1428,0.8189,0.28144,0.22903
1700498543015625,-9.552241,0.874108,2.1178,0.6889,0.31344,0.16403
1700498543023437,-9.530241,0.863108,2.888,0.6689,0.26544,0.18003
1700498543031250,-9.514241,0.845108,2.838,0.7889,0.30144,0.18203
1700498543039062,-9.493241,0.829108,2.778,0.5589,0.35944,0.21203
1700498543046875,-9.470241,0.827108,2.888,0.5889,0.33444,0.26403
1700498543054687,-9.464241,0.826108,2.888,0.189,0.34844,0.19903
1700498543062500,-9.462241,0.829108,2.888,0.1389,0.33344,0.24703
1700498543070312,-9.461241,0.827108,2.838,0.211,0.30244,0.21603
1700498543078125,-9.475241,0.831108,2.1158,0.1389,0.22044,0.23103
1700498543085937,-9.489241,0.842108,2.948,0.4789,0.26644,0.26203
1700498543093750,-9.493241,0.845108,2.948,0.2689,0.25444,0.23203
1700498543101562,-9.507241,0.840108,2.928,0.0,0.25144,0.18203
1700498543109375,-9.518241,0.849108,2.1088,0.9589,0.28344,0.19703
1700498543117187,-9.536241,0.839108,2.998,0.19989,0.27144,0.18203
1700498543125000,-9.558241,0.826108,2.998,0.12489,0.28444,0.21303
1700498543132812,-9.572241,0.832108,2.1158,0.13089,0.28044,0.19503
1700498543140625,-9.587241,0.833108,2.1158,0.15089,0.20644,0.24703
1700498543148437,-9.590241,0.842108,2.1138,0.15989,0.33144,0.21203
1700498543156250,-9.594241,0.849108,2.1248,0.17189,0.31944,0.11703
1700498543164062,-9.588241,0.842108,2.1288,0.7589,0.40044,0.19903
1700498543171875,-9.565241,0.853108,2.1308,0.3089,0.38244,0.18303
1700498543179687,-9.549241,0.850108,2.1378,0.18189,0.40544,0.8703
1700498543187500,-9.534241,0.839108,2.1448,0.23789,0.46244,0.19603
1700498543195312,-9.518241,0.838108,2.1498,0.23089,0.42444,0.16103
1700498543203125,-9.515241,0.823108,2.1558,0.19089,0.43144,0.10003
1700498543210937,-9.474241,0.803108,2.1328,0.8389,0.42244,0.17003
1700498543218750,-9.446241,0.824108,2.978,0.16789,0.45144,0.19903
1700498543226562,-9.430241,0.853108,2.1198,0.18089,0.37244,0.15203
1700498543234375,-9.444241,0.837108,2.1218,0.26789,0.25244,0.13103
1700498543242187,-9.455241,0.855108,2.1448,0.21689,0.25344,0.22903
1700498543250000,-9.478241,0.860108,2.1768,0.19189,0.21844,0.14703
1700498543257812,-9.507241,0.874108,2.1608,0.10889,0.17344,0.10103
1700498543265625,-9.528241,0.890108,2.1558,0.13089,0.15244,0.8303
1700498543273437,-9.559241,0.888108,2.1538,0.14089,0.15544,0.14903
1700498543281250,-9.573241,0.893108,2.1608,0.8989,0.25444,0.19903
1700498543289062,-9.568241,0.888108,2.1588,0.15789,0.23444,0.26003
1700498543296875,-9.566241,0.883108,2.1498,0.26989,0.28244,0.19403
1700498543304687,-9.557241,0.874108,2.1468,0.13089,0.26444,0.22703
1700498543312500,-9.543241,0.863108,2.1358,0.16889,0.28744,0.16603
1700498543320312,-9.521241,0.854108,2.1318,0.5089,0.29844,0.21303
1700498543328125,-9.518241,0.849108,2.1318,0.7989,0.26644,0.21303
1700498543335937,-9.507241,0.832108,2.1228,0.12689,0.21744,0.22803
1700498543343750,-9.491241,0.820108,2.1128,0.0,0.26844,0.18303
1700498543351562,-9.482241,0.807108,2.958,0.19089,0.29844,0.22803
1700498543359375,-9.491241,0.809108,2.1108,0.19189,0.24944,0.22703
1700498543367187,-9.504241,0.807108,2.1068,0.17789,0.23144,0.21103
1700498543375000,-9.517241,0.812108,2.1128,0.26489,0.25344,0.21203
1700498543382812,-9.524241,0.810108,2.1138,0.22489,0.21644,0.14603
1700498543390625,-9.522241,0.812108,2.1108,0.22589,0.26444,0.14603
1700498543398437,-9.522241,0.821108,2.998,0.25789,0.24244,0.16703
1700498543406250,-9.538241,0.806108,2.998,0.24989,0.20444,0.19603
1700498543414062,-9.529241,0.825108,2.1108,0.26989,0.28244,0.24303
1700498543421875,-9.538241,0.823108,2.1108,0.24589,0.27144,0.26203
1700498543429687,-9.527241,0.823108,2.1108,0.26589,0.21944,0.26003
1700498543437500,-9.518241,0.827108,2.1108,0.26689,0.29944,0.24403
1700498543445312,-9.502241,0.836108,2.928,0.25089,0.25244,0.19603
1700498543453125,-9.498241,0.847108,2.888,0.26389,0.23844,0.16503
1700498543460937,-9.513241,0.841108,2.818,0.24589,0.14144,0.18103
1700498543468750,-9.520241,0.841108,2.928,0.26589,0.21944,0.24403
1700498543476562,-9.522241,0.839108,2.1038,0.23489,0.26844,0.21203
1700498543484375,-9.523241,0.847108,2.978,0.25289,0.28344,0.19503
1700498543492187,-9.518241,0.828108,2.998,0.25989,0.27244,0.23003
1700498543500000,-9.523241,0.845108,2.1068,0.25389,0.26544,0.25903
1700498543507812,-9.527241,0.848108,2.948,0.26189,0.28744,0.24503
1700498543515625,-9.533241,0.853108,2.948,0.23989,0.24344,0.20003
1700498543523437,-9.536241,0.843108,2.998,0.24889,0.28644,0.18103
1700498543531250,-9.534241,0.850108,2.948,0.26389,0.25544,0.13203
1700498543539062,-9.536241,0.850108,2.1088,0.25289,0.23444,0.21103
1700498543546875,-9.534241,0.850108,2.1158,0.26789,0.26744,0.24303
1700498543554687,-9.540241,0.846108,2.1128,0.23289,0.33544,0.18103
1700498543562500,-9.538241,0.850108,2.1248,0.21789,0.28644,0.16503
1700498543570312,-9.534241,0.857108,2.1248,0.16989,0.30444,0.11803
1700498543578125,-9.536241,0.850108,2.1178,0.14189,0.28644,0.8503
1700498543585937,-9.538241,0.848108,2.1218,0.15389,0.33644,0.13403
1700498543593750,-9.534241,0.843108,2.1268,0.13889,0.33544,0.18203
1700498543601562,-9.533241,0.839108,2.1038,0.5489,0.25744,0.23303
1700498543609375,-9.525241,0.832108,2.888,0.9789,0.33244,0.10103
1700498543617187,-9.518241,0.827108,2.618,0.12689,0.33444,0.11703
1700498543625000,-9.520241,0.821108,2.478,0.12289,0.28744,0.13403
1700498543632812,-9.515241,0.809108,2.568,0.18989,0.31644,0.18003
1700498543640625,-9.515241,0.814108,2.728,0.23889,0.26744,0.13103
1700498543648437,-9.520241,0.814108,2.768,0.15589,0.20444,0.14903
1700498543656250,-9.524241,0.819108,2.798,0.15189,0.28944,0.15103
1700498543664062,-9.531241,0.821108,2.818,0.20589,0.28344,0.18003
1700498543671875,-9.531241,0.832108,2.768,0.20189,0.30444,0.11703
1700498543679687,-9.534241,0.834108,2.728,0.11389,0.26744,0.11603
1700498543687500,-9.527241,0.836108,2.838,0.9389,0.28644,0.10203
1700498543695312,-9.522241,0.821108,2.888,0.21789,0.30144,0.24503
1700498543703125,-9.529241,0.821108,2.818,0.17889,0.29144,0.20003
1700498543710937,-9.527241,0.832108,2.798,0.15989,0.33144,0.19603
1700498543718750,-9.525241,0.848108,2.1108,0.21389,0.38744,0.13503
1700498543726562,-9.549241,0.841108,2.1408,0.23789,0.33244,0.16403
1700498543734375,-9.531241,0.817108,2.708,0.5889,0.20544,0.19903
1700498543742187,-9.508241,0.816108,2.498,0.2289,0.17544,0.24903
1700498543750000,-9.518241,0.854108,2.888,0.22889,0.25644,0.21403
1700498543757812,-9.538241,0.839108,2.1178,0.22789,0.24144,0.19903
1700498543765625,-9.526241,0.823108,2.188,0.19589,0.22444,0.24703
1700498543773437,-9.499241,0.796108,1.9758,0.7389,0.20544,0.23103
1700498543781250,-9.473241,0.822108,1.9938,0.8789,0.19044,0.26403
1700498543789062,-9.482241,0.853108,2.708,0.25189,0.28344,0.24403
1700498543796875,-9.495241,0.830108,2.858,0.24089,0.11144,0.26303
1700498543804687,-9.502241,0.812108,2.708,0.26589,0.744,0.24303
1700498543812500,-9.525241,0.823108,2.598,0.27289,0.6744,0.24103
1700498543820312,-9.567241,0.828108,2.818,0.25489,0.13444,0.25803
1700498543828125,-9.594241,0.835108,2.928,0.19889,0.2644,0.24503
1700498543835937,-9.594241,0.840108,2.928,0.4889,0.8644,0.26103
1700498543843750,-9.611241,0.850108,2.748,0.1089,0.13044,0.19403
1700498543851562,-9.597241,0.851108,2.278,0.889,0.14244,0.18403
1700498543859375,-9.569241,0.830108,2.318,0.311,0.22044,0.26303
1700498543867187,-9.551241,0.819108,2.208,0.1189,0.28544,0.26403
1700498543875000,-9.524241,0.812108,2.138,0.411,0.25444,0.21603
1700498543882812,-9.515241,0.798108,2.28,0.1589,0.20244,0.21403
1700498543890625,-9.511241,0.803108,2.98,0.0,0.25144,0.19903
1700498543898437,-9.513241,0.790108,2.348,0.1289,0.20544,0.16703
1700498543906250,-9.513241,0.778108,2.298,0.289,0.21744,0.16503
1700498543914062,-9.515241,0.785108,2.298,0.1411,0.21744,0.24603
1700498543921875,-9.517241,0.781108,2.408,0.1289,0.15444,0.26303
1700498543929687,-9.528241,0.776108,2.258,0.2189,0.23144,0.21203
1700498543937500,-9.535241,0.774108,2.318,0.10989,0.20244,0.22903
1700498543945312,-9.546241,0.777108,2.278,0.9689,0.20144,0.18003
1700498543953125,-9.555241,0.790108,2.228,0.6089,0.26944,0.18303
1700498543960937,-9.562241,0.775108,2.208,0.6589,0.25044,0.16503
1700498543968750,-9.573241,0.784108,2.78,0.12689,0.25044,0.21303
1700498543976562,-9.567241,0.808108,2.188,0.9389,0.28444,0.19803
1700498543984375,-9.567241,0.810108,2.98,0.11189,0.28144,0.26103
1700498543992187,-9.572241,0.815108,2.298,0.4989,0.28144,0.22903
1700498544000000,-9.563241,0.817108,2.278,0.8289,0.36244,0.24503
1700498544007812,-9.567241,0.824108,2.208,0.12589,0.28444,0.14903
1700498544015625,-9.567241,0.824108,2.388,0.7989,0.36544,0.21403
1700498544023437,-9.563241,0.816108,2.328,0.15089,0.32744,0.17803
1700498544031250,-9.560241,0.799108,2.278,0.3489,0.38044,0.16603
1700498544039062,-9.528241,0.785108,2.188,0.189,0.39644,0.24703
1700498544046875,-9.510241,0.796108,1.9668,0.3889,0.35544,0.20103
1700498544054687,-9.508241,0.792108,2.48,0.10789,0.28644,0.18203
1700498544062500,-9.504241,0.794108,2.118,0.17689,0.28244,0.16303
1700498544070312,-9.511241,0.796108,2.298,0.19689,0.29744,0.6603
1700498544078125,-9.520241,0.799108,2.478,0.17489,0.17044,0.11503
1700498544085937,-9.551241,0.797108,2.438,0.6689,0.15244,0.13203
1700498544093750,-9.560241,0.810108,2.368,0.13489,0.19744,0.13003
1700498544101562,-9.571241,0.810108,2.348,0.11289,0.25044,0.13203
1700498544109375,-9.565241,0.810108,2.478,0.16089,0.28344,0.10003
1700498544117187,-9.571241,0.811108,2.248,0.10589,0.28944,0.8703
1700498544125000,-9.560241,0.797108,2.208,0.0,0.36844,0.11903
