time,Acceleration X (m/s^2),Acceleration Y (m/s^2),Acceleration Z (m/s^2),Angular Velocity X (rad/s),Angular Velocity Y (rad/s),Angular Velocity Z (rad/s)
1700499192000000,-9.423053,2.545326,-0.013048,,,
1700499192007812,-9.446053,0.547146,2.543326,0.13513,0.14448,0.7094
1700499192015625,-9.457053,0.546146,2.543326,0.4913,0.13348,0.7394
1700499192023437,-9.468053,0.561146,2.552326,0.2113,0.26148,0.4194
1700499192031250,-9.480053,0.555146,2.552326,0.3613,0.27848,0.7394
1700499192039062,-9.448053,0.556146,2.502326,0.187,0.30548,0.794
1700499192054687,-9.430053,0.558146,2.498326,0.2087,0.37248,0.4094
1700499192062500,-9.410053,0.562146,2.509326,0.9413,0.43548,0.4106
1700499192070312,-9.403053,0.563146,2.504326,0.12813,0.32848,0.4194
1700499192078125,-9.399053,0.562146,2.493326,0.9813,0.37648,0.7394
1700499192101562,-9.417053,0.558146,2.497326,0.20313,0.37948,0.10594
1700499192109375,-9.424053,0.569146,2.507326,0.25613,0.40848,0.8794
1700499192117187,-9.433053,0.587146,2.511326,0.23713,0.42748,0.5694
1700499192125000,-9.447053,0.596146,2.493326,0.25713,0.35848,0.7194
1700499192132812,-9.446053,0.594146,2.502326,0.23813,0.47648,0.2594
1700499192140625,-9.464053,0.592146,2.502326,0.25713,0.42448,0.3994
1700499192148437,-9.456053,0.596146,2.509326,0.24913,0.43548,0.5294
1700499192156250,-9.469053,0.610146,2.513326,0.25713,0.49048,0.3994
1700499192164062,-9.474053,0.619146,2.518326,0.19613,0.47248,0.5594
1700499192171875,-9.470053,0.623146,2.534326,0.23013,0.53648,0.906
1700499192179687,-9.463053,0.634146,2.545326,0.25413,0.52448,0.4094
1700499192187500,-9.458053,0.632146,2.547326,0.23713,0.62348,0.2694
1700499192195312,-9.445053,0.647146,2.549326,0.22513,0.57248,0.2494
1700499192203125,-9.434053,0.654146,2.545326,0.25513,0.60448,0.10594
1700499192210937,-9.420053,0.647146,2.556326,0.25613,0.66848,0.8894
1700499192218750,-9.423053,0.647146,2.545326,0.26913,0.55648,0.10594
1700499192226562,-9.384053,0.609146,2.540326,0.23513,0.65648,0.7494
1700499192234375,-9.364053,0.608146,2.504326,0.24113,0.61948,0.7294
1700499192242187,-9.377053,0.618146,2.516326,0.42613,0.55748,0.7194
1700499192250000,-9.397053,0.609146,2.518326,0.50913,0.42348,0.8494
1700499192257812,-9.407053,0.625146,2.511326,0.41313,0.39248,0.6994
1700499192265625,-9.409053,0.644146,2.545326,0.51113,0.40448,0.16394
1700499192273437,-9.419053,0.664146,2.599326,0.49413,0.38948,0.14794
1700499192281250,-9.432053,0.689146,2.615326,0.38313,0.40648,0.13394
1700499192289062,-9.442053,0.700146,2.604326,0.36613,0.45548,0.15094
1700499192296875,-9.455053,0.692146,2.601326,0.33213,0.47448,0.12094
1700499192304687,-9.452053,0.676146,2.597326,0.27113,0.53948,0.10494
1700499192312500,-9.441053,0.667146,2.588326,0.37713,0.52548,0.8894
1700499192320312,-9.434053,0.665146,2.592326,0.29013,0.58548,0.8794
1700499192328125,-9.430053,0.671146,2.588326,0.31713,0.57148,0.12094
1700499192335937,-9.423053,0.678146,2.617326,0.30413,0.52148,0.10394
1700499192343750,-9.430053,0.685146,2.612326,0.23313,0.60848,0.10794
1700499192351562,-9.417053,0.698146,2.601326,0.26013,0.56748,0.11894
1700499192359375,-9.399053,0.707146,2.615326,0.23213,0.54448,0.9194
1700499192367187,-9.381053,0.688146,2.610326,0.22413,0.47348,0.10494
1700499192375000,-9.371053,0.680146,2.612326,0.25013,0.42848,0.8994
1700499192382812,-9.374053,0.662146,2.622326,0.24513,0.47148,0.2294
1700499192390625,-9.389053,0.671146,2.617326,0.25713,0.35848,0.8794
1700499192398437,-9.391053,0.662146,2.619326,0.25613,0.40848,0.8794
1700499192406250,-9.403053,0.671146,2.624326,0.24713,0.37148,0.6994
1700499192414062,-9.398053,0.665146,2.619326,0.25313,0.32848,0.10494
1700499192421875,-9.403053,0.682146,2.619326,0.20813,0.34348,0.8894
1700499192429687,-9.400053,0.676146,2.608326,0.23513,0.39548,0.7394
1700499192437500,-9.416053,0.667146,2.610326,0.21513,0.40448,0.6994
1700499192445312,-9.425053,0.663146,2.597326,0.21113,0.37548,0.794
1700499192453125,-9.425053,0.667146,2.610326,0.26013,0.34148,0.3794
1700499192460937,-9.427053,0.658146,2.622326,0.16213,0.32548,0.10494
1700499192468750,-9.430053,0.651146,2.624326,0.18213,0.42148,0.8794
1700499192476562,-9.425053,0.667146,2.635326,0.24613,0.35448,0.10194
1700499192484375,-9.412053,0.667146,2.640326,0.10213,0.35748,0.8894
1700499192492187,-9.412053,0.664146,2.635326,0.10813,0.41848,0.5494
1700499192500000,-9.405053,0.651146,2.642326,0.15013,0.40548,0.11994
1700499192507812,-9.389053,0.631146,2.633326,0.18013,0.37348,0.7194
1700499192515625,-9.384053,0.629146,2.642326,0.17913,0.40648,0.11994
1700499192523437,-9.379053,0.631146,2.642326,0.13913,0.34748,0.12394
1700499192531250,-9.371053,0.633146,2.646326,0.23313,0.31348,0.20194
1700499192539062,-9.371053,0.644146,2.626326,0.12813,0.31048,0.16994
1700499192546875,-9.375053,0.647146,2.626326,0.14013,0.32948,0.17094
1700499192554687,-9.384053,0.644146,2.633326,0.9613,0.32648,0.16994
1700499192562500,-9.380053,0.660146,2.644326,0.6113,0.31348,0.20394
1700499192570312,-9.407053,0.663146,2.648326,0.10013,0.38448,0.17494
1700499192578125,-9.409053,0.665146,2.633326,0.14013,0.41048,0.20294
1700499192585937,-9.416053,0.660146,2.640326,0.9613,0.40848,0.18694
1700499192593750,-9.415053,0.643146,2.642326,0.8813,0.36648,0.10994
1700499192601562,-9.420053,0.643146,2.644326,0.15513,0.29648,0.17094
1700499192609375,-9.413053,0.634146,2.633326,0.13613,0.31648,0.13994
1700499192617187,-9.409053,0.627146,2.628326,0.12213,0.34848,0.9194
1700499192625000,-9.400053,0.625146,2.628326,0.7413,0.34848,0.12494
1700499192632812,-9.399053,0.618146,2.626326,0.7613,0.41248,0.10894
1700499192640625,-9.406053,0.634146,2.615326,0.5913,0.38148,0.9294
1700499192648437,-9.404053,0.629146,2.626326,0.7613,0.36348,0.9194
1700499192656250,-9.404053,0.641146,2.637326,0.13713,0.33248,0.12394
1700499192664062,-9.405053,0.653146,2.651326,0.19113,0.37648,0.10494
1700499192671875,-9.407053,0.645146,2.655326,0.15913,0.32848,0.8994
1700499192679687,-9.404053,0.650146,2.659326,0.16513,0.31848,0.10894
1700499192687500,-9.402053,0.665146,2.682326,0.20113,0.44648,0.9194
1700499192695312,-9.391053,0.656146,2.727326,0.23213,0.42948,0.10694
1700499192703125,-9.390053,0.618146,2.660326,0.13913,0.36348,0.10794
1700499192710937,-9.381053,0.613146,2.619326,0.1413,0.38048,0.9294
1700499192718750,-9.387053,0.653146,2.644326,0.3313,0.34448,0.10694
1700499192726562,-9.407053,0.667146,2.666326,0.17113,0.31448,0.9094
1700499192734375,-9.414053,0.658146,2.621326,0.16813,0.33248,0.10794
1700499192742187,-9.416053,0.653146,2.588326,0.13413,0.29148,0.8794
1700499192750000,-9.389053,0.662146,2.552326,0.9913,0.31048,0.5794
1700499192757812,-9.362053,0.682146,2.592326,0.17413,0.36148,0.10594
1700499192765625,-9.376053,0.691146,2.648326,0.24613,0.34948,0.12294
1700499192773437,-9.405053,0.683146,2.655326,0.23413,0.21648,0.8894
1700499192781250,-9.407053,0.658146,2.630326,0.26913,0.14848,0.10294
1700499192789062,-9.429053,0.652146,2.655326,0.30913,0.15448,0.8894
1700499192796875,-9.418053,0.654146,2.646326,0.21613,0.20148,0.10594
1700499192804687,-9.411053,0.674146,2.651326,0.16713,0.26848,0.10794
1700499192812500,-9.423053,0.678146,2.651326,0.14313,0.29548,0.8994
1700499192820312,-9.439053,0.683146,2.612326,0.8613,0.28548,0.10994
1700499192828125,-9.421053,0.685146,2.576326,0.12013,0.26848,0.9194
1700499192835937,-9.412053,0.680146,2.567326,0.6613,0.32748,0.12194
1700499192843750,-9.400053,0.667146,2.574326,0.13913,0.39648,0.10794
1700499192851562,-9.380053,0.667146,2.583326,0.1013,0.38148,0.15794
1700499192859375,-9.378053,0.669146,2.554326,0.5913,0.31448,0.18894
1700499192867187,-9.389053,0.656146,2.554326,0.12413,0.41148,0.13994
1700499192875000,-9.404053,0.652146,2.585326,0.16313,0.23648,0.20494
1700499192882812,-9.415053,0.648146,2.601326,0.16313,0.30248,0.17294
1700499192890625,-9.423053,0.654146,2.617326,0.23313,0.28048,0.20194
1700499192898437,-9.422053,0.652146,2.612326,0.19713,0.29948,0.23594
1700499192906250,-9.427053,0.654146,2.606326,0.20413,0.29548,0.20194
1700499192914062,-9.421053,0.665146,2.604326,0.25313,0.34148,0.24894
1700499192921875,-9.421053,0.676146,2.619326,0.24013,0.32448,0.24794
1700499192929687,-9.416053,0.674146,2.610326,0.25413,0.30948,0.23194
1700499192937500,-9.418053,0.671146,2.590326,0.23613,0.31048,0.23294
1700499192945312,-9.400053,0.671146,2.590326,0.24913,0.34648,0.18594
1700499192953125,-9.410053,0.673146,2.597326,0.19313,0.38948,0.21694
1700499192960937,-9.412053,0.671146,2.595326,0.22613,0.39048,0.13594
1700499192968750,-9.410053,0.687146,2.590326,0.26013,0.33948,0.10194
1700499192976562,-9.412053,0.686146,2.588326,0.24613,0.38748,0.11794
1700499192984375,-9.412053,0.693146,2.594326,0.25413,0.40948,0.8894
1700499192992187,-9.428053,0.681146,2.601326,0.23513,0.39348,0.16994
1700499193000000,-9.421053,0.672146,2.592326,0.23413,0.41148,0.13894
1700499193007812,-9.407053,0.669146,2.608326,0.24813,0.42948,0.9094
1700499193015625,-9.382053,0.642146,2.626326,0.23613,0.41048,0.10594
1700499193023437,-9.347053,0.666146,2.568326,0.27313,0.42248,0.11994
1700499193031250,-9.348053,0.671146,2.563326,0.27213,0.41848,0.9294
1700499193039062,-9.367053,0.677146,2.581326,0.28513,0.36048,0.11994
1700499193046875,-9.373053,0.682146,2.581326,0.30813,0.25048,0.20194
1700499193054687,-9.385053,0.689146,2.612326,0.28413,0.27948,0.10394
1700499193062500,-9.405053,0.689146,2.615326,0.26813,0.31248,0.10494
1700499193070312,-9.417053,0.702146,2.622326,0.21013,0.29348,0.8794
1700499193078125,-9.439053,0.705146,2.612326,0.23813,0.32748,0.13694
1700499193085937,-9.457053,0.703146,2.617326,0.16013,0.44148,0.8994
1700499193093750,-9.459053,0.692146,2.619326,0.21213,0.39948,0.15694
1700499193101562,-9.452053,0.686146,2.614326,0.25813,0.38448,0.10894
1700499193109375,-9.455053,0.688146,2.601326,0.13813,0.36348,0.15594
1700499193117187,-9.441053,0.690146,2.601326,0.17213,0.36248,0.12294
1700499193125000,-9.428053,0.692146,2.601326,0.12613,0.41048,0.12294
1700499193132812,-9.430053,0.689146,2.617326,0.14013,0.45948,0.20394
1700499193140625,-9.417053,0.694146,2.624326,0.6313,0.41048,0.17194
1700499193148437,-9.412053,0.689146,2.628326,0.287,0.39648,0.10994
1700499193156250,-9.394053,0.689146,2.606326,0.18713,0.42848,0.10694
1700499193164062,-9.389053,0.687146,2.617326,0.3313,0.40848,0.15594
1700499193171875,-9.387053,0.680146,2.610326,0.16413,0.43948,0.10494
1700499193179687,-9.380053,0.662146,2.614326,0.17913,0.38248,0.22194
1700499193187500,-9.383053,0.673146,2.619326,0.16613,0.38748,0.18394
1700499193195312,-9.380053,0.671146,2.619326,0.10113,0.37148,0.21694
1700499193203125,-9.387053,0.675146,2.621326,0.12713,0.27748,0.21794
1700499193210937,-9.382053,0.662146,2.617326,0.5813,0.34648,0.23694
1700499193218750,-9.398053,0.656146,2.628326,0.587,0.41248,0.25494
1700499193226562,-9.409053,0.656146,2.624326,0.313,0.39048,0.23594
1700499193234375,-9.403053,0.649146,2.615326,0.1087,0.38948,0.20294
1700499193242187,-9.409053,0.647146,2.615326,0.513,0.40548,0.21894
1700499193250000,-9.407053,0.644146,2.624326,0.7113,0.43648,0.20094
1700499193257812,-9.413053,0.634146,2.642326,0.1113,0.42848,0.22194
1700499193265625,-9.411053,0.629146,2.653326,0.1487,0.45748,0.20494
1700499193273437,-9.420053,0.620146,2.651326,0.413,0.40548,0.23494
1700499193281250,-9.404053,0.622146,2.649326,0.2013,0.34048,0.23494
1700499193289062,-9.393053,0.613146,2.642326,0.1087,0.32348,0.25094
1700499193296875,-9.393053,0.617146,2.644326,0.687,0.28848,0.23294
1700499193304687,-9.393053,0.631146,2.651326,0.513,0.37348,0.21894
1700499193312500,-9.393053,0.629146,2.655326,0.2313,0.34048,0.12194
1700499193320312,-9.378053,0.631146,2.637326,0.687,0.28848,0.23294
1700499193328125,-9.384053,0.617146,2.635326,0.1087,0.34048,0.23494
1700499193335937,-9.391053,0.622146,2.631326,0.413,0.34048,0.25094
1700499193343750,-9.402053,0.629146,2.635326,0.1713,0.31048,0.25194
1700499193351562,-9.409053,0.625146,2.637326,0.787,0.32448,0.12194
1700499193359375,-9.407053,0.635146,2.653326,0.1313,0.28748,0.15194
1700499193367187,-9.418053,0.629146,2.653326,0.1487,0.31148,0.17194
1700499193375000,-9.411053,0.634146,2.655326,0.287,0.37948,0.15794
1700499193382812,-9.407053,0.631146,2.640326,0.1087,0.35648,0.23494
1700499193390625,-9.407053,0.636146,2.622326,0.513,0.35848,0.13894
1700499193398437,-9.407053,0.638146,2.613326,0.987,0.38948,0.17094
1700499193406250,-9.393053,0.636146,2.597326,0.3413,0.37648,0.13894
1700499193414062,-9.395053,0.633146,2.594326,0.6713,0.37448,0.15394
1700499193421875,-9.402053,0.615146,2.595326,0.2313,0.38848,0.18594
1700499193429687,-9.409053,0.622146,2.610326,0.387,0.30548,0.11994
1700499193437500,-9.404053,0.618146,2.622326,0.4213,0.28848,0.16794
1700499193445312,-9.402053,0.624146,2.608326,0.3813,0.27448,0.18594
1700499193453125,-9.402053,0.636146,2.617326,0.887,0.29148,0.13794
1700499193460937,-9.409053,0.640146,2.617326,0.713,0.30748,0.13794
1700499193468750,-9.389053,0.639146,2.620326,0.287,0.33448,0.23194
1700499193476562,-9.389053,0.631146,2.601326,0.1113,0.35448,0.10494
1700499193484375,-9.404053,0.611146,2.608326,0.887,0.43848,0.12294
1700499193492187,-9.404053,0.609146,2.604326,0.613,0.43848,0.13894
1700499193500000,-9.413053,0.625146,2.626326,0.887,0.38948,0.10594
1700499193507812,-9.425053,0.629146,2.662326,0.213,0.47448,0.15594
1700499193515625,-9.409053,0.618146,2.624326,0.2287,0.37048,0.23394
1700499193523437,-9.409053,0.633146,2.617326,0.10087,0.32048,0.23394
1700499193531250,-9.434053,0.676146,2.649326,0.1087,0.35648,0.21894
1700499193539062,-9.443053,0.645146,2.673326,0.513,0.37348,0.21894
1700499193546875,-9.443053,0.638146,2.640326,0.987,0.37148,0.26694
1700499193554687,-9.418053,0.631146,2.592326,0.1187,0.34148,0.18694
1700499193562500,-9.380053,0.635146,2.592326,0.0,0.36048,0.17194
1700499193570312,-9.349053,0.664146,2.608326,0.1387,0.40648,0.25194
1700499193578125,-9.351053,0.654146,2.635326,0.813,0.35348,0.26594
1700499193585937,-9.369053,0.637146,2.640326,0.5513,0.22448,0.23294
1700499193593750,-9.397053,0.613146,2.646326,0.19513,0.17648,0.19894
1700499193601562,-9.409053,0.631146,2.642326,0.16713,0.14148,0.19794
1700499193609375,-9.407053,0.635146,2.658326,0.913,0.12648,0.21594
1700499193617187,-9.409053,0.642146,2.664326,0.787,0.22448,0.24894
1700499193625000,-9.432053,0.647146,2.644326,0.413,0.24348,0.23494
1700499193632812,-9.445053,0.625146,2.610326,0.2187,0.33948,0.10494
1700499193640625,-9.436053,0.633146,2.599326,0.287,0.36748,0.19994
1700499193648437,-9.436053,0.629146,2.608326,0.1113,0.35248,0.23294
1700499193656250,-9.415053,0.618146,2.601326,0.1887,0.47648,0.22194
1700499193664062,-9.402053,0.625146,2.581326,0.1487,0.35948,0.23594
1700499193671875,-9.404053,0.616146,2.588326,0.213,0.40648,0.26794
1700499193679687,-9.393053,0.605146,2.576326,0.1413,0.36048,0.25294
1700499193687500,-9.400053,0.613146,2.597326,0.1287,0.32548,0.26794
1700499193695312,-9.409053,0.614146,2.610326,0.87,0.34448,0.25294
1700499193703125,-9.405053,0.626146,2.599326,0.813,0.28848,0.28094
1700499193710937,-9.413053,0.640146,2.599326,0.1613,0.39148,0.26894
1700499193718750,-9.418053,0.625146,2.610326,0.1687,0.37648,0.25294
1700499193726562,-9.418053,0.614146,2.603326,0.413,0.39048,0.15494
1700499193734375,-9.429053,0.616146,2.603326,0.1413,0.41148,0.15694
1700499193742187,-9.429053,0.622146,2.604326,0.487,0.40348,0.12094
1700499193750000,-9.440053,0.636146,2.619326,0.14113,0.37748,0.17094
1700499193757812,-9.445053,0.621146,2.648326,0.17213,0.39348,0.20294
1700499193765625,-9.442053,0.621146,2.642326,0.21913,0.41048,0.18594
1700499193773437,-9.427053,0.620146,2.628326,0.16113,0.39148,0.15294
1700499193781250,-9.409053,0.618146,2.633326,0.22113,0.40948,0.16994
1700499193789062,-9.406053,0.618146,2.631326,0.25513,0.45648,0.13694
1700499193796875,-9.407053,0.629146,2.633326,0.24013,0.45548,0.18494
1700499193804687,-9.409053,0.615146,2.635326,0.26313,0.53348,0.10194
1700499193812500,-9.411053,0.624146,2.644326,0.25213,0.49848,0.8494
1700499193820312,-9.400053,0.607146,2.673326,0.25713,0.55448,0.10494
1700499193828125,-9.357053,0.611146,2.651326,0.17713,0.53848,0.8994
1700499193835937,-9.333053,0.641146,2.603326,0.18913,0.44348,0.12294
1700499193843750,-9.339053,0.639146,2.608326,0.25113,0.41048,0.13794
1700499193851562,-9.357053,0.632146,2.619326,0.24713,0.30548,0.10194
1700499193859375,-9.373053,0.620146,2.619326,0.25313,0.34348,0.18494
1700499193867187,-9.398053,0.626146,2.655326,0.16513,0.38848,0.13594
1700499193875000,-9.409053,0.638146,2.664326,0.17513,0.37648,0.13794
1700499193882812,-9.411053,0.645146,2.655326,0.16413,0.39048,0.10394
1700499193890625,-9.416053,0.647146,2.651326,0.12013,0.40348,0.13594
1700499193898437,-9.411053,0.647146,2.662326,0.14213,0.39348,0.13894
1700499193906250,-9.407053,0.631146,2.660326,0.17313,0.41048,0.13894
1700499193914062,-9.413053,0.625146,2.633326,0.8213,0.40748,0.15394
1700499193921875,-9.395053,0.611146,2.624326,0.10113,0.38948,0.10494
1700499193929687,-9.400053,0.608146,2.631326,0.14013,0.40148,0.11794
1700499193937500,-9.399053,0.607146,2.635326,0.5013,0.32648,0.13894
1700499193945312,-9.404053,0.616146,2.637326,0.3413,0.31048,0.17094
1700499193953125,-9.406053,0.613146,2.633326,0.11413,0.35848,0.15394
1700499193960937,-9.404053,0.614146,2.626326,0.6413,0.31148,0.13894
1700499193968750,-9.402053,0.616146,2.617326,0.4513,0.38048,0.10894
1700499193976562,-9.402053,0.605146,2.612326,0.8413,0.30948,0.8894
1700499193984375,-9.409053,0.602146,2.622326,0.18213,0.37248,0.10294
1700499193992187,-9.415053,0.600146,2.624326,0.10213,0.37348,0.8894
1700499194000000,-9.415053,0.596146,2.630326,0.20513,0.37748,0.10594
1700499194007812,-9.406053,0.594146,2.628326,0.17413,0.39448,0.8994
1700499194015625,-9.406053,0.596146,2.624326,0.18613,0.39648,0.10694
1700499194023437,-9.406053,0.594146,2.621326,0.17613,0.44348,0.606
1700499194031250,-9.406053,0.592146,2.626326,0.10813,0.41448,0.2006
1700499194039062,-9.415053,0.600146,2.617326,0.16413,0.30948,0.3994
1700499194046875,-9.413053,0.603146,2.619326,0.14613,0.37648,0.2494
1700499194054687,-9.408053,0.600146,2.617326,0.11013,0.37948,0.5894
1700499194062500,-9.408053,0.603146,2.617326,0.11213,0.44548,0.3706
1700499194070312,-9.424053,0.612146,2.631326,0.8513,0.37548,0.5694
1700499194078125,-9.422053,0.608146,2.655326,0.2813,0.39848,0.4494
1700499194085937,-9.417053,0.607146,2.653326,0.11113,0.41248,0.2694
1700499194093750,-9.422053,0.603146,2.664326,0.17213,0.39548,0.7494
1700499194101562,-9.415053,0.594146,2.664326,0.16113,0.40948,0.4094
1700499194109375,-9.404053,0.598146,2.648326,0.14713,0.37648,0.706
1700499194117187,-9.397053,0.587146,2.660326,0.21313,0.34148,0.694
1700499194125000,-9.388053,0.592146,2.635326,0.23113,0.39948,0.406
1700499194132812,-9.390053,0.604146,2.633326,0.25613,0.39348,0.794
1700499194140625,-9.382053,0.620146,2.631326,0.24313,0.31048,0.906
1700499194148437,-9.379053,0.615146,2.617326,0.24213,0.39148,0.694
1700499194156250,-9.393053,0.613146,2.628326,0.25713,0.32748,0.906
1700499194164062,-9.400053,0.607146,2.649326,0.24513,0.34148,0.1006
1700499194171875,-9.406053,0.602146,2.658326,0.22813,0.32648,0.5706
1700499194179687,-9.409053,0.605146,2.649326,0.26013,0.29248,0.5394
1700499194187500,-9.429053,0.614146,2.642326,0.24313,0.32648,0.906
1700499194195312,-9.442053,0.623146,2.635326,0.25313,0.29748,0.706
1700499194203125,-9.436053,0.634146,2.667326,0.24613,0.35848,0.7406
1700499194210937,-9.434053,0.634146,2.664326,0.26313,0.32348,0.2706
1700499194218750,-9.434053,0.632146,2.651326,0.21013,0.32748,0.806
1700499194226562,-9.416053,0.636146,2.655326,0.15213,0.42148,0.694
1700499194234375,-9.406053,0.620146,2.628326,0.16413,0.35848,0.2394
1700499194242187,-9.408053,0.600146,2.617326,0.23813,0.29648,0.5594
1700499194250000,-9.404053,0.596146,2.613326,0.24513,0.37448,0.906
1700499194257812,-9.417053,0.596146,2.601326,0.25413,0.32948,0.2394
1700499194265625,-9.422053,0.607146,2.612326,0.23913,0.31248,0.794
1700499194273437,-9.420053,0.618146,2.646326,0.25613,0.34448,0.2394
1700499194281250,-9.420053,0.621146,2.646326,0.22813,0.30248,0.9194
1700499194289062,-9.416053,0.634146,2.608326,0.25513,0.31148,0.8794
1700499194296875,-9.405053,0.647146,2.594326,0.24013,0.32748,0.5594
1700499194304687,-9.389053,0.647146,2.612326,0.33313,0.29648,0.906
1700499194312500,-9.384053,0.637146,2.617326,0.26013,0.30848,0.2194
1700499194320312,-9.393053,0.631146,2.610326,0.23713,0.41048,0.5694
1700499194328125,-9.393053,0.629146,2.613326,0.30813,0.35848,0.1006
1700499194335937,-9.389053,0.642146,2.640326,0.33713,0.35748,0.10194
1700499194343750,-9.396053,0.658146,2.698326,0.48013,0.40548,0.5194
1700499194351562,-9.391053,0.640146,2.631326,0.33513,0.35948,0.7094
1700499194359375,-9.378053,0.662146,2.581326,0.25213,0.13348,0.8794
1700499194367187,-9.374053,0.706146,2.615326,0.26913,0.26348,0.10394
1700499194375000,-9.406053,0.702146,2.669326,0.45213,0.25748,0.5094
1700499194382812,-9.412053,0.704146,2.635326,0.36913,0.16148,0.11694
1700499194390625,-9.408053,0.696146,2.563326,0.30413,0.21148,0.10194
1700499194398437,-9.372053,0.697146,2.552326,0.32513,0.22548,0.5194
1700499194406250,-9.352053,0.717146,2.570326,0.23713,0.29548,0.10494
1700499194414062,-9.377053,0.719146,2.658326,0.36013,0.14048,0.8194
1700499194421875,-9.403053,0.676146,2.651326,0.45813,0.14948,0.8494
1700499194429687,-9.420053,0.665146,2.624326,0.38813,0.10548,0.7194
1700499194437500,-9.450053,0.663146,2.617326,0.36413,0.9948,0.10194
1700499194445312,-9.450053,0.687146,2.624326,0.30813,0.14348,0.13294
1700499194453125,-9.451053,0.709146,2.628326,0.27813,0.12548,0.14794
1700499194460937,-9.451053,0.714146,2.622326,0.24913,0.15648,0.13194
1700499194468750,-9.464053,0.725146,2.610326,0.25513,0.14748,0.13494
1700499194476562,-9.455053,0.728146,2.608326,0.22013,0.11648,0.13694
1700499194484375,-9.464053,0.727146,2.595326,0.19713,0.14448,0.8594
1700499194492187,-9.449053,0.716146,2.597326,0.13513,0.17548,0.16694
1700499194500000,-9.417053,0.700146,2.606326,0.7213,0.25748,0.13594
1700499194507812,-9.399053,0.695146,2.597326,0.5813,0.27248,0.15194
1700499194515625,-9.385053,0.684146,2.552326,0.2313,0.24248,0.12094
1700499194523437,-9.381053,0.679146,2.545326,0.913,0.22448,0.15294
1700499194531250,-9.374053,0.668146,2.552326,0.5313,0.25848,0.18494
1700499194539062,-9.371053,0.677146,2.558326,0.1387,0.22948,0.15594
1700499194546875,-9.376053,0.693146,2.579326,0.2013,0.17948,0.10594
1700499194554687,-9.388053,0.699146,2.597326,0.4213,0.20848,0.10394
1700499194562500,-9.399053,0.702146,2.604326,0.8913,0.17548,0.8694
1700499194570312,-9.408053,0.693146,2.588326,0.413,0.21248,0.12194
1700499194578125,-9.410053,0.698146,2.586326,0.913,0.24048,0.15294
1700499194585937,-9.428053,0.696146,2.601326,0.5513,0.26048,0.2494
1700499194593750,-9.423053,0.696146,2.594326,0.0,0.26548,0.1194
1700499194601562,-9.448053,0.685146,2.586326,0.713,0.24448,0.4094
1700499194609375,-9.459053,0.692146,2.595326,0.2913,0.27248,0.694
1700499194617187,-9.460053,0.705146,2.622326,0.687,0.34048,0.2494
1700499194625000,-9.462053,0.705146,2.615326,0.1013,0.32448,0.706
1700499194632812,-9.462053,0.714146,2.630326,0.1287,0.37748,0.4394
1700499194640625,-9.475053,0.708146,2.653326,0.513,0.40948,0.1094
1700499194648437,-9.459053,0.694146,2.635326,0.887,0.40748,0.994
1700499194656250,-9.437053,0.676146,2.631326,0.587,0.45548,0.2206
1700499194664062,-9.394053,0.653146,2.644326,0.1113,0.45448,0.706
1700499194671875,-9.342053,0.672146,2.583326,0.1313,0.38748,0.794
1700499194679687,-9.331053,0.670146,2.558326,0.11813,0.34248,0.806
1700499194687500,-9.322053,0.672146,2.581326,0.8913,0.22648,0.694
1700499194695312,-9.315053,0.685146,2.581326,0.16813,0.12848,0.1006
1700499194703125,-9.336053,0.708146,2.624326,0.4713,0.20048,0.2694
1700499194710937,-9.365053,0.710146,2.628326,0.11913,0.14648,0.694
1700499194718750,-9.393053,0.722146,2.610326,0.10913,0.15848,0.1106
1700499194726562,-9.406053,0.704146,2.601326,0.7713,0.22348,0.2606
1700499194734375,-9.408053,0.702146,2.619326,0.4313,0.24148,0.694
1700499194742187,-9.424053,0.709146,2.622326,0.13013,0.31148,0.5694
1700499194750000,-9.423053,0.710146,2.576326,0.10713,0.34948,0.4394
1700499194757812,-9.419053,0.716146,2.561326,0.9413,0.33148,0.506
1700499194765625,-9.437053,0.723146,2.599326,0.1813,0.31348,0.2106
1700499194773437,-9.455053,0.721146,2.628326,0.1487,0.32948,0.4394
1700499194781250,-9.453053,0.712146,2.604326,0.13413,0.32648,0.2406
1700499194789062,-9.430053,0.711146,2.597326,0.5513,0.42248,0.4094
1700499194796875,-9.415053,0.709146,2.617326,0.13113,0.39148,0.10494
1700499194804687,-9.408053,0.707146,2.617326,0.11413,0.40948,0.5794
1700499194812500,-9.396053,0.709146,2.624326,0.11013,0.36248,0.7494
1700499194820312,-9.381053,0.706146,2.624326,0.16213,0.35848,0.10494
1700499194828125,-9.359053,0.706146,2.617326,0.19913,0.33848,0.10194
1700499194835937,-9.343053,0.699146,2.617326,0.23113,0.28948,0.8494
1700499194843750,-9.340053,0.708146,2.610326,0.22613,0.30948,0.8794
1700499194851562,-9.347053,0.710146,2.610326,0.20813,0.31048,0.10494
1700499194859375,-9.358053,0.691146,2.608326,0.25013,0.29748,0.16994
1700499194867187,-9.374053,0.702146,2.615326,0.23413,0.31348,0.16994
1700499194875000,-9.401053,0.709146,2.630326,0.24413,0.31548,0.25194
1700499194882812,-9.421053,0.716146,2.653326,0.25113,0.29548,0.21694
1700499194890625,-9.451053,0.723146,2.662326,0.23813,0.42348,0.23294
1700499194898437,-9.449053,0.723146,2.658326,0.28913,0.35548,0.23094
1700499194906250,-9.444053,0.730146,2.642326,0.25113,0.37548,0.26594
1700499194914062,-9.433053,0.729146,2.651326,0.37913,0.37448,0.24794
1700499194921875,-9.424053,0.733146,2.646326,0.30313,0.35748,0.19894
1700499194929687,-9.415053,0.742146,2.635326,0.34413,0.41048,0.18494
1700499194937500,-9.408053,0.740146,2.628326,0.44213,0.36048,0.13494
1700499194945312,-9.395053,0.735146,2.642326,0.45813,0.32648,0.21394
1700499194953125,-9.397053,0.735146,2.633326,0.39613,0.45548,0.23094
1700499194960937,-9.379053,0.737146,2.610326,0.39613,0.39148,0.16694
1700499194968750,-9.352053,0.737146,2.610326,0.51013,0.43648,0.21194
1700499194976562,-9.336053,0.750146,2.588326,0.50013,0.36148,0.24694
1700499194984375,-9.337053,0.761146,2.588326,0.45713,0.35848,0.22994
1700499194992187,-9.343053,0.757146,2.592326,0.44913,0.34748,0.26494
1700499195000000,-9.355053,0.768146,2.588326,0.50013,0.29548,0.27894
1700499195007812,-9.366053,0.772146,2.604326,0.49113,0.19348,0.25994
1700499195015625,-9.382053,0.775146,2.615326,0.47113,0.24548,0.27794
1700499195023437,-9.407053,0.777146,2.631326,0.30713,0.23948,0.26094
1700499195031250,-9.420053,0.782146,2.644326,0.34013,0.30348,0.24494
1700499195039062,-9.445053,0.780146,2.628326,0.25413,0.34148,0.23294
1700499195046875,-9.440053,0.778146,2.615326,0.31213,0.34448,0.26494
1700499195054687,-9.429053,0.771146,2.619326,0.27613,0.32148,0.19794
1700499195062500,-9.429053,0.775146,2.617326,0.24413,0.32148,0.23094
1700499195070312,-9.409053,0.771146,2.612326,0.21813,0.34448,0.24994
1700499195078125,-9.402053,0.751146,2.579326,0.23613,0.32648,0.26594
1700499195085937,-9.392053,0.736146,2.574326,0.24513,0.29748,0.28294
1700499195093750,-9.386053,0.737146,2.581326,0.23913,0.30748,0.31194
1700499195101562,-9.381053,0.731146,2.583326,0.22713,0.21748,0.33194
1700499195109375,-9.390053,0.725146,2.612326,0.10213,0.29948,0.28594
1700499195117187,-9.388053,0.735146,2.617326,0.12313,0.26348,0.21894
1700499195125000,-9.390053,0.740146,2.619326,0.10813,0.19848,0.23494
1700499195132812,-9.397053,0.735146,2.608326,0.8313,0.19448,0.20094
1700499195140625,-9.401053,0.736146,2.581326,0.2813,0.19948,0.22094
1700499195148437,-9.406053,0.731146,2.601326,0.2013,0.14548,0.23394
1700499195156250,-9.426053,0.727146,2.612326,0.1687,0.23048,0.20494
1700499195164062,-9.437053,0.707146,2.597326,0.213,0.19548,0.25094
1700499195171875,-9.439053,0.703146,2.612326,0.587,0.26648,0.23794
1700499195179687,-9.437053,0.709146,2.662326,0.1387,0.27748,0.21994
1700499195187500,-9.425053,0.674146,2.642326,0.3287,0.29648,0.18894
1700499195195312,-9.389053,0.644146,2.545326,0.18687,0.21148,0.26894
1700499195203125,-9.371053,0.673146,2.536326,0.12487,0.11448,0.21994
1700499195210937,-9.378053,0.693146,2.606326,0.8987,0.16148,0.25094
1700499195218750,-9.394053,0.678146,2.606326,0.14487,0.16648,0.27094
1700499195226562,-9.405053,0.660146,2.516326,0.9487,0.14748,0.28494
1700499195234375,-9.391053,0.644146,2.520326,0.7787,0.9848,0.26794
1700499195242187,-9.369053,0.631146,2.531326,0.4087,0.15948,0.24994
1700499195250000,-9.373053,0.647146,2.599326,0.9987,0.13548,0.25394
1700499195257812,-9.371053,0.635146,2.615326,0.3887,0.2948,0.20094
1700499195265625,-9.393053,0.629146,2.595326,0.387,0.2152,0.11894
1700499195273437,-9.416053,0.636146,2.597326,0.813,0.13352,0.15094
1700499195281250,-9.451053,0.630146,2.594326,0.4487,0.6552,0.20194
1700499195289062,-9.485053,0.633146,2.601326,0.16787,0.1548,0.18694
1700499195296875,-9.497053,0.641146,2.626326,0.25587,0.10948,0.13894
1700499195304687,-9.499053,0.648146,2.599326,0.24487,0.11248,0.15594
1700499195312500,-9.501053,0.637146,2.561326,0.24287,0.12748,0.13894
1700499195320312,-9.461053,0.632146,2.527326,0.10087,0.17648,0.10594
1700499195328125,-9.438053,0.634146,2.520326,0.16587,0.16148,0.12294
1700499195335937,-9.409053,0.632146,2.527326,0.16387,0.15448,0.11194
1700499195343750,-9.409053,0.634146,2.531326,0.18687,0.16548,0.9294
1700499195351562,-9.402053,0.618146,2.522326,0.23187,0.11448,0.12494
1700499195359375,-9.402053,0.617146,2.520326,0.25187,0.10648,0.13694
1700499195367187,-9.406053,0.600146,2.545326,0.24287,0.4548,0.18694
1700499195375000,-9.404053,0.596146,2.545326,0.26187,0.4748,0.13994
1700499195382812,-9.411053,0.600146,2.536326,0.24187,0.14148,0.21894
1700499195390625,-9.406053,0.598146,2.522326,0.19787,0.12648,0.26794
1700499195398437,-9.400053,0.593146,2.514326,0.12887,0.14148,0.15294
1700499195406250,-9.404053,0.585146,2.495326,0.16887,0.16248,0.18794
1700499195414062,-9.408053,0.580146,2.493326,0.14687,0.12548,0.16994
1700499195421875,-9.404053,0.569146,2.489326,0.12987,0.15748,0.16894
1700499195429687,-9.417053,0.565146,2.484326,0.2387,0.22548,0.15394
1700499195437500,-9.444053,0.563146,2.480326,0.8187,0.15748,0.11994
1700499195445312,-9.457053,0.559146,2.486326,0.5187,0.15948,0.10394
1700499195453125,-9.473053,0.564146,2.488326,0.1387,0.16548,0.9094
1700499195460937,-9.489053,0.577146,2.509326,0.813,0.27648,0.2494
1700499195468750,-9.514053,0.593146,2.509326,0.0,0.30448,0.2294
1700499195476562,-9.514053,0.593146,2.520326,0.1013,0.29048,0.7294
1700499195484375,-9.514053,0.606146,2.523326,0.4313,0.37048,0.7194
1700499195492187,-9.491053,0.586146,2.522326,0.8813,0.42148,0.7294
1700499195500000,-9.431053,0.569146,2.523326,0.287,0.42048,0.894
1700499195507812,-9.411053,0.600146,2.491326,0.12913,0.43248,0.2706
1700499195515625,-9.413053,0.609146,2.516326,0.27113,0.47548,0.794
1700499195523437,-9.411053,0.607146,2.504326,0.17613,0.34548,0.894
1700499195531250,-9.397053,0.593146,2.502326,0.24113,0.30948,0.10394
1700499195539062,-9.398053,0.624146,2.549326,0.25813,0.37348,0.10294
1700499195546875,-9.400053,0.640146,2.565326,0.25313,0.27948,0.8794
1700499195554687,-9.394053,0.648146,2.568326,0.23613,0.35048,0.11594
1700499195562500,-9.407053,0.651146,2.559326,0.24213,0.39048,0.10394
1700499195570312,-9.425053,0.640146,2.552326,0.24513,0.37248,0.6994
1700499195578125,-9.443053,0.638146,2.554326,0.22913,0.37248,0.10294
1700499195585937,-9.445053,0.631146,2.556326,0.26613,0.38548,0.8394
1700499195593750,-9.438053,0.640146,2.552326,0.24613,0.40448,0.8594
1700499195601562,-9.443053,0.638146,2.543326,0.25813,0.38848,0.19894
1700499195609375,-9.443053,0.636146,2.561326,0.24613,0.41848,0.21494
1700499195617187,-9.452053,0.639146,2.558326,0.25513,0.44048,0.13694
1700499195625000,-9.459053,0.636146,2.581326,0.24513,0.43648,0.15094
1700499195632812,-9.454053,0.640146,2.574326,0.24913,0.41748,0.14894
1700499195640625,-9.430053,0.638146,2.554326,0.24913,0.45048,0.11694
1700499195648437,-9.412053,0.644146,2.552326,0.24713,0.53348,0.8594
1700499195656250,-9.401053,0.666146,2.559326,0.24713,0.48448,0.10194
1700499195664062,-9.385053,0.677146,2.561326,0.24113,0.40848,0.8794
1700499195671875,-9.390053,0.670146,2.554326,0.26513,0.43348,0.13294
1700499195679687,-9.387053,0.653146,2.554326,0.24013,0.45748,0.12094
1700499195687500,-9.391053,0.653146,2.554326,0.25713,0.47248,0.13594
1700499195695312,-9.403053,0.653146,2.561326,0.24113,0.45548,0.16794
1700499195703125,-9.423053,0.662146,2.547326,0.26413,0.49948,0.13394
1700499195710937,-9.434053,0.664146,2.568326,0.23213,0.49948,0.18194
1700499195718750,-9.432053,0.664146,2.572326,0.24813,0.43348,0.16594
1700499195726562,-9.439053,0.676146,2.583326,0.25913,0.43848,0.11894
1700499195734375,-9.444053,0.680146,2.586326,0.17113,0.40148,0.13394
1700499195742187,-9.444053,0.687146,2.597326,0.18113,0.38748,0.21594
1700499195750000,-9.444053,0.685146,2.604326,0.12913,0.42248,0.26594
1700499195757812,-9.439053,0.687146,2.619326,0.19113,0.40748,0.20194
1700499195765625,-9.432053,0.681146,2.606326,0.21913,0.39348,0.20194
1700499195773437,-9.439053,0.672146,2.590326,0.14413,0.40748,0.20194
1700499195781250,-9.425053,0.674146,2.586326,0.9913,0.50448,0.16994
1700499195789062,-9.416053,0.671146,2.583326,0.9913,0.44048,0.10594
1700499195796875,-9.410053,0.673146,2.590326,0.13213,0.43948,0.10494
1700499195804687,-9.412053,0.671146,2.610326,0.19613,0.39048,0.7194
1700499195812500,-9.403053,0.673146,2.592326,0.18113,0.40548,0.13594
1700499195820312,-9.383053,0.668146,2.597326,0.15213,0.40248,0.18294
1700499195828125,-9.373053,0.655146,2.599326,0.13513,0.37248,0.10394
1700499195835937,-9.371053,0.642146,2.595326,0.21313,0.38848,0.10294
1700499195843750,-9.376053,0.639146,2.583326,0.20013,0.40248,0.16694
1700499195851562,-9.396053,0.656146,2.597326,0.20613,0.37648,0.18594
1700499195859375,-9.408053,0.675146,2.613326,0.18513,0.36948,0.13394
1700499195867187,-9.421053,0.689146,2.606326,0.13713,0.42048,0.5494
1700499195875000,-9.433053,0.702146,2.599326,0.22913,0.38848,0.10294
1700499195882812,-9.426053,0.698146,2.599326,0.22113,0.31248,0.10494
1700499195890625,-9.426053,0.698146,2.615326,0.14913,0.37248,0.16794
1700499195898437,-9.428053,0.689146,2.604326,0.9013,0.30548,0.10294
1700499195906250,-9.423053,0.682146,2.572326,0.7213,0.40548,0.8894
1700499195914062,-9.408053,0.682146,2.561326,0.5713,0.32148,0.15194
1700499195921875,-9.401053,0.680146,2.543326,0.687,0.32248,0.15394
1700499195929687,-9.401053,0.671146,2.543326,0.7713,0.28648,0.16594
1700499195937500,-9.408053,0.671146,2.561326,0.10813,0.31848,0.14994
1700499195945312,-9.408053,0.678146,2.565326,0.7413,0.35448,0.11994
1700499195953125,-9.407053,0.680146,2.570326,0.5313,0.29248,0.12194
1700499195960937,-9.408053,0.684146,2.579326,0.2413,0.30648,0.15294
1700499195968750,-9.410053,0.684146,2.588326,0.13313,0.29148,0.11994
1700499195976562,-9.414053,0.678146,2.592326,0.7013,0.30648,0.20094
1700499195984375,-9.412053,0.666146,2.581326,0.16913,0.33648,0.16594
1700499195992187,-9.407053,0.673146,2.581326,0.18413,0.32148,0.10194
1700499196000000,-9.405053,0.657146,2.547326,0.17013,0.33648,0.11794
1700499196007812,-9.385053,0.657146,2.520326,0.21113,0.35748,0.11994
1700499196015625,-9.408053,0.673146,2.570326,0.23513,0.43248,0.16494
1700499196023437,-9.421053,0.687146,2.606326,0.27713,0.37148,0.13394
1700499196031250,-9.445053,0.643146,2.561326,0.15213,0.22348,0.14994
1700499196039062,-9.427053,0.656146,2.516326,0.16713,0.19048,0.21394
1700499196046875,-9.446053,0.696146,2.552326,0.27713,0.27148,0.26094
1700499196054687,-9.466053,0.685146,2.601326,0.24013,0.32548,0.15194
1700499196062500,-9.464053,0.667146,2.543326,0.24213,0.42148,0.18394
1700499196070312,-9.436053,0.654146,2.509326,0.19413,0.32448,0.18394
1700499196078125,-9.391053,0.662146,2.495326,0.20813,0.37448,0.16894
1700499196085937,-9.363053,0.677146,2.527326,0.26513,0.46648,0.13294
1700499196093750,-9.371053,0.657146,2.579326,0.25013,0.38448,0.11694
1700499196101562,-9.387053,0.637146,2.547326,0.26513,0.10548,0.24394
1700499196109375,-9.405053,0.624146,2.543326,0.28113,0.18848,0.16294
1700499196117187,-9.450053,0.643146,2.561326,0.24413,0.14248,0.19794
1700499196125000,-9.461053,0.672146,2.568326,0.26213,0.15848,0.16494
1700499196132812,-9.466053,0.690146,2.565326,0.11713,0.24248,0.16794
1700499196140625,-9.486053,0.690146,2.556326,0.987,0.25948,0.13794
1700499196148437,-9.477053,0.690146,2.523326,0.913,0.32148,0.21694
1700499196156250,-9.475053,0.674146,2.522326,0.5213,0.35848,0.13794
1700499196164062,-9.459053,0.654146,2.509326,0.11413,0.39148,0.13794
1700499196171875,-9.445053,0.631146,2.509326,0.12113,0.35448,0.10294
1700499196179687,-9.425053,0.634146,2.504326,0.5313,0.37348,0.16994
1700499196187500,-9.411053,0.636146,2.511326,0.17413,0.37648,0.20194
1700499196195312,-9.418053,0.620146,2.502326,0.17313,0.29348,0.28194
1700499196203125,-9.416053,0.629146,2.486326,0.11513,0.37348,0.21794
1700499196210937,-9.409053,0.631146,2.502326,0.14513,0.38948,0.24994
1700499196218750,-9.418053,0.635146,2.520326,0.18213,0.33648,0.26294
1700499196226562,-9.432053,0.638146,2.543326,0.16313,0.38848,0.24894
1700499196234375,-9.439053,0.649146,2.523326,0.21213,0.40348,0.21494
1700499196242187,-9.443053,0.645146,2.545326,0.22813,0.43648,0.21494
1700499196250000,-9.445053,0.643146,2.561326,0.26913,0.42348,0.23294
1700499196257812,-9.443053,0.631146,2.561326,0.19813,0.43648,0.13494
1700499196265625,-9.443053,0.631146,2.534326,0.18313,0.43448,0.21494
1700499196273437,-9.445053,0.627146,2.538326,0.23313,0.41548,0.22894
1700499196281250,-9.465053,0.625146,2.552326,0.17713,0.45548,0.20094
1700499196289062,-9.456053,0.634146,2.554326,0.24513,0.40248,0.24694
1700499196296875,-9.461053,0.632146,2.549326,0.25513,0.40648,0.23194
1700499196304687,-9.459053,0.641146,2.561326,0.25313,0.39048,0.26494
1700499196312500,-9.472053,0.650146,2.543326,0.15813,0.40848,0.21894
1700499196320312,-9.463053,0.632146,2.554326,0.19613,0.38648,0.24794
1700499196328125,-9.457053,0.638146,2.547326,0.24913,0.43248,0.22894
1700499196335937,-9.442053,0.607146,2.568326,0.21213,0.46848,0.21594
1700499196343750,-9.402053,0.613146,2.547326,0.21613,0.45048,0.19794
1700499196351562,-9.377053,0.618146,2.525326,0.24913,0.47548,0.25094
1700499196359375,-9.371053,0.631146,2.556326,0.23813,0.42348,0.21694
1700499196367187,-9.366053,0.631146,2.522326,0.25213,0.37648,0.20094
1700499196375000,-9.362053,0.633146,2.541326,0.24213,0.30648,0.24694
1700499196382812,-9.371053,0.644146,2.577326,0.25513,0.34048,0.26394
1700499196390625,-9.376053,0.671146,2.588326,0.24113,0.27548,0.21494
1700499196398437,-9.394053,0.664146,2.581326,0.26413,0.23748,0.24494
1700499196406250,-9.401053,0.675146,2.554326,0.24013,0.19348,0.26294
1700499196414062,-9.408053,0.671146,2.543326,0.24713,0.27148,0.18094
1700499196421875,-9.414053,0.673146,2.543326,0.15013,0.22448,0.18294
1700499196429687,-9.423053,0.660146,2.532326,0.12013,0.22348,0.18294
1700499196437500,-9.425053,0.645146,2.523326,0.13313,0.30648,0.21594
1700499196445312,-9.429053,0.627146,2.505326,0.8713,0.28848,0.23194
1700499196453125,-9.429053,0.627146,2.511326,0.16913,0.20548,0.21394
1700499196460937,-9.427053,0.631146,2.509326,0.13413,0.32148,0.23194
1700499196468750,-9.425053,0.631146,2.516326,0.16913,0.30348,0.18194
1700499196476562,-9.436053,0.634146,2.523326,0.587,0.24048,0.13694
1700499196484375,-9.456053,0.636146,2.534326,0.813,0.17648,0.13694
1700499196492187,-9.445053,0.643146,2.529326,0.1287,0.29448,0.15494
1700499196500000,-9.465053,0.641146,2.523326,0.10713,0.17448,0.10194
1700499196507812,-9.461053,0.625146,2.516326,0.7013,0.19448,0.8894
1700499196515625,-9.456053,0.630146,2.520326,0.2213,0.27648,0.7394
1700499196523437,-9.456053,0.632146,2.511326,0.7513,0.17448,0.10194
1700499196531250,-9.443053,0.632146,2.511326,0.8913,0.24148,0.8694
1700499196539062,-9.445053,0.645146,2.511326,0.6813,0.30948,0.12194
1700499196546875,-9.450053,0.645146,2.509326,0.1113,0.33748,0.12094
1700499196554687,-9.456053,0.632146,2.516326,0.8713,0.33948,0.13594
1700499196562500,-9.465053,0.628146,2.522326,0.5113,0.32748,0.10694
1700499196570312,-9.456053,0.621146,2.529326,0.8413,0.42448,0.8994
1700499196578125,-9.454053,0.630146,2.529326,0.4413,0.39648,0.10894
1700499196585937,-9.447053,0.636146,2.534326,0.4113,0.40548,0.7294
1700499196593750,-9.438053,0.647146,2.534326,0.1087,0.32748,0.4294
1700499196601562,-9.427053,0.647146,2.543326,0.1513,0.36848,0.10294
1700499196609375,-9.423053,0.633146,2.552326,0.11913,0.37248,0.8794
1700499196617187,-9.418053,0.633146,2.552326,0.4313,0.42048,0.7194
1700499196625000,-9.425053,0.622146,2.538326,0.2413,0.45448,0.10594
1700499196632812,-9.425053,0.620146,2.543326,0.2813,0.43448,0.10394
1700499196640625,-9.429053,0.623146,2.552326,0.11213,0.44148,0.12294
1700499196648437,-9.438053,0.627146,2.570326,0.787,0.34048,0.8994
1700499196656250,-9.436053,0.641146,2.540326,0.513,0.39148,0.9094
1700499196664062,-9.436053,0.645146,2.529326,0.2713,0.35448,0.10394
1700499196671875,-9.429053,0.647146,2.529326,0.5513,0.43948,0.5794
1700499196679687,-9.438053,0.645146,2.529326,0.8813,0.43748,0.5694
1700499196687500,-9.445053,0.638146,2.552326,0.5213,0.39148,0.10594
1700499196695312,-9.443053,0.627146,2.554326,0.8713,0.43748,0.8894
1700499196703125,-9.438053,0.629146,2.550326,0.913,0.38848,0.10494
1700499196710937,-9.443053,0.634146,2.554326,0.4413,0.41848,0.8794
1700499196718750,-9.441053,0.636146,2.543326,0.6413,0.39948,0.8594
1700499196726562,-9.429053,0.634146,2.572326,0.7113,0.47048,0.10494
1700499196734375,-9.430053,0.649146,2.570326,0.0,0.45048,0.8794
1700499196742187,-9.425053,0.647146,2.559326,0.3013,0.38648,0.5594
1700499196750000,-9.443053,0.640146,2.554326,0.5913,0.40348,0.7194
1700499196757812,-9.432053,0.643146,2.545326,0.3813,0.48848,0.10694
1700499196765625,-9.416053,0.636146,2.520326,0.6313,0.49248,0.10794
1700499196773437,-9.421053,0.642146,2.525326,0.4813,0.41648,0.8594
1700499196781250,-9.420053,0.642146,2.536326,0.8913,0.45248,0.10394
1700499196789062,-9.425053,0.645146,2.554326,0.10613,0.42048,0.5594
1700499196796875,-9.430053,0.647146,2.583326,0.5913,0.37148,0.5594
1700499196804687,-9.443053,0.650146,2.588326,0.6813,0.48948,0.7494
1700499196812500,-9.434053,0.638146,2.599326,0.7013,0.53748,0.4194
1700499196820312,-9.434053,0.629146,2.599326,0.4313,0.56748,0.2494
1700499196828125,-9.427053,0.634146,2.581326,0.513,0.48948,0.5894
1700499196835937,-9.402053,0.631146,2.581326,0.513,0.47348,0.10694
1700499196843750,-9.393053,0.626146,2.574326,0.2613,0.51848,0.8894
1700499196851562,-9.378053,0.635146,2.556326,0.687,0.48648,0.7394
1700499196859375,-9.382053,0.641146,2.570326,0.14313,0.38348,0.8494
1700499196867187,-9.392053,0.655146,2.617326,0.25113,0.40148,0.6894
1700499196875000,-9.395053,0.635146,2.637326,0.14613,0.37548,0.10494
1700499196882812,-9.388053,0.602146,2.583326,0.1013,0.30648,0.10494
1700499196890625,-9.375053,0.626146,2.565326,0.10113,0.27548,0.13594
1700499196898437,-9.390053,0.675146,2.586326,0.17113,0.33548,0.13394
1700499196906250,-9.407053,0.662146,2.606326,0.17713,0.30948,0.16894
1700499196914062,-9.407053,0.640146,2.556326,0.10513,0.20648,0.15094
1700499196921875,-9.384053,0.635146,2.509326,0.14713,0.24348,0.13594
1700499196929687,-9.351053,0.641146,2.509326,0.8313,0.29248,0.16994
1700499196937500,-9.353053,0.670146,2.538326,0.23713,0.32848,0.12094
1700499196945312,-9.378053,0.671146,2.579326,0.24213,0.20948,0.19894
1700499196953125,-9.398053,0.653146,2.563326,0.25913,0.9548,0.16594
1700499196960937,-9.434053,0.640146,2.586326,0.24313,0.12748,0.16594
1700499196968750,-9.468053,0.661146,2.597326,0.25713,0.14548,0.15094
1700499196976562,-9.452053,0.681146,2.586326,0.21113,0.16048,0.19894
1700499196984375,-9.448053,0.685146,2.581326,0.6013,0.29848,0.15594
1700499196992187,-9.466053,0.690146,2.588326,0.3513,0.27748,0.13894
1700499197000000,-9.461053,0.685146,2.565326,0.1387,0.40848,0.15594
1700499197007812,-9.466053,0.663146,2.545326,0.5213,0.37448,0.10594
1700499197015625,-9.463053,0.661146,2.556326,0.11513,0.37448,0.12194
1700499197023437,-9.461053,0.637146,2.561326,0.13913,0.46048,0.13994
1700499197031250,-9.440053,0.632146,2.567326,0.14513,0.45648,0.15394
1700499197039062,-9.432053,0.640146,2.581326,0.14513,0.37448,0.18594
1700499197046875,-9.429053,0.638146,2.581326,0.22613,0.35748,0.15194
1700499197054687,-9.429053,0.620146,2.588326,0.22313,0.39148,0.16894
1700499197062500,-9.416053,0.627146,2.592326,0.25113,0.40848,0.23394
1700499197070312,-9.411053,0.633146,2.588326,0.17713,0.32448,0.24894
1700499197078125,-9.407053,0.629146,2.583326,0.25313,0.34148,0.26494
1700499197085937,-9.418053,0.645146,2.581326,0.26313,0.39548,0.25094
1700499197093750,-9.412053,0.649146,2.583326,0.24513,0.36948,0.26194
1700499197101562,-9.411053,0.654146,2.592326,0.26613,0.27948,0.24894
1700499197109375,-9.427053,0.663146,2.597326,0.29813,0.34348,0.26494
1700499197117187,-9.423053,0.665146,2.595326,0.30013,0.40748,0.24894
1700499197125000,-9.426053,0.682146,2.590326,0.24413,0.37048,0.23094
1700499197132812,-9.424053,0.689146,2.588326,0.29313,0.43548,0.19794
1700499197140625,-9.410053,0.698146,2.574326,0.28513,0.44048,0.20094
1700499197148437,-9.408053,0.704146,2.577326,0.24313,0.40548,0.16694
1700499197156250,-9.408053,0.700146,2.581326,0.25413,0.42448,0.16894
1700499197164062,-9.410053,0.702146,2.581326,0.25813,0.40548,0.18294
1700499197171875,-9.428053,0.700146,2.590326,0.24613,0.48448,0.15094
1700499197179687,-9.439053,0.705146,2.606326,0.19513,0.45348,0.20094
1700499197187500,-9.407053,0.680146,2.626326,0.13113,0.42248,0.18594
1700499197195312,-9.372053,0.688146,2.552326,0.22213,0.47348,0.18594
1700499197203125,-9.365053,0.688146,2.556326,0.25713,0.39048,0.16794
1700499197210937,-9.369053,0.668146,2.556326,0.26513,0.28648,0.16394
1700499197218750,-9.380053,0.668146,2.538326,0.21213,0.30848,0.8694
1700499197226562,-9.398053,0.682146,2.549326,0.20613,0.29448,0.18494
1700499197234375,-9.423053,0.685146,2.565326,0.25413,0.29248,0.23194
1700499197242187,-9.444053,0.691146,2.565326,0.23413,0.33548,0.11694
1700499197250000,-9.448053,0.702146,2.561326,0.9113,0.33648,0.11894
1700499197257812,-9.469053,0.707146,2.545326,0.13613,0.27248,0.16694
1700499197265625,-9.475053,0.708146,2.547326,0.8613,0.34048,0.8894
1700499197273437,-9.480053,0.692146,2.554326,0.2187,0.33948,0.10494
1700499197281250,-9.468053,0.688146,2.552326,0.213,0.39348,0.9194
1700499197289062,-9.455053,0.669146,2.541326,0.587,0.40448,0.8994
1700499197296875,-9.441053,0.667146,2.529326,0.6013,0.38548,0.10394
1700499197304687,-9.430053,0.662146,2.529326,0.11713,0.40448,0.20094
1700499197312500,-9.419053,0.669146,2.538326,0.11913,0.40348,0.19994
1700499197320312,-9.419053,0.666146,2.525326,0.15913,0.39848,0.13294
1700499197328125,-9.412053,0.684146,2.547326,0.11813,0.40448,0.13694
1700499197335937,-9.405053,0.693146,2.554326,0.9713,0.39248,0.13894
1700499197343750,-9.410053,0.698146,2.536326,0.11513,0.40748,0.10594
1700499197351562,-9.392053,0.693146,2.552326,0.2313,0.38948,0.10594
1700499197359375,-9.390053,0.682146,2.559326,0.13513,0.40548,0.8794
1700499197367187,-9.387053,0.680146,2.554326,0.14513,0.44148,0.7394
1700499197375000,-9.394053,0.675146,2.540326,0.6613,0.42548,0.10694
1700499197382812,-9.409053,0.665146,2.534326,0.9713,0.44148,0.9094
1700499197390625,-9.425053,0.672146,2.545326,0.11113,0.44348,0.9094
1700499197398437,-9.439053,0.663146,2.565326,0.7913,0.42648,0.10794
1700499197406250,-9.450053,0.665146,2.570326,0.1687,0.46048,0.14194
1700499197414062,-9.443053,0.667146,2.558326,0.313,0.40848,0.9194
1700499197421875,-9.450053,0.678146,2.561326,0.2013,0.40748,0.13894
1700499197429687,-9.446053,0.676146,2.574326,0.1213,0.45148,0.10494
1700499197437500,-9.452053,0.667146,2.559326,0.4213,0.45248,0.10494
1700499197445312,-9.457053,0.672146,2.586326,0.587,0.40448,0.8994
1700499197453125,-9.452053,0.668146,2.597326,0.0,0.39548,0.7694
1700499197460937,-9.450053,0.667146,2.590326,0.887,0.47148,0.10694
1700499197468750,-9.470053,0.659146,2.590326,0.2513,0.38848,0.8894
1700499197476562,-9.466053,0.663146,2.617326,0.6113,0.51548,0.11994
1700499197484375,-9.437053,0.676146,2.617326,0.487,0.45248,0.10494
1700499197492187,-9.425053,0.687146,2.619326,0.313,0.42548,0.9194
1700499197500000,-9.412053,0.673146,2.626326,0.7213,0.42148,0.10494
1700499197507812,-9.403053,0.673146,2.613326,0.5613,0.38848,0.8894
1700499197515625,-9.396053,0.679146,2.613326,0.2813,0.43448,0.10394
1700499197523437,-9.385053,0.684146,2.624326,0.313,0.40848,0.12394
1700499197531250,-9.385053,0.675146,2.629326,0.0,0.40048,0.8794
1700499197539062,-9.372053,0.670146,2.628326,0.1213,0.35248,0.15194
1700499197546875,-9.371053,0.670146,2.599326,0.387,0.30548,0.8794
1700499197554687,-9.383053,0.666146,2.611326,0.1513,0.35148,0.11894
1700499197562500,-9.394053,0.669146,2.615326,0.887,0.38948,0.13894
1700499197570312,-9.407053,0.664146,2.624326,0.0,0.31848,0.10294
1700499197578125,-9.407053,0.666146,2.631326,0.287,0.23948,0.8794
1700499197585937,-9.401053,0.669146,2.615326,0.787,0.34048,0.7394
1700499197593750,-9.392053,0.664146,2.602326,0.213,0.33448,0.8594
1700499197601562,-9.373053,0.646146,2.590326,0.713,0.24248,0.15294
1700499197609375,-9.371053,0.630146,2.572326,0.787,0.22448,0.23294
1700499197617187,-9.371053,0.619146,2.559326,0.587,0.28848,0.18494
1700499197625000,-9.371053,0.608146,2.556326,0.1113,0.27248,0.15194
1700499197632812,-9.373053,0.601146,2.536326,0.187,0.22048,0.23094
1700499197640625,-9.386053,0.606146,2.527326,0.1113,0.27048,0.23194
1700499197648437,-9.407053,0.620146,2.550326,0.9313,0.30048,0.24594
1700499197656250,-9.439053,0.640146,2.588326,0.187,0.28548,0.18294
1700499197664062,-9.459053,0.651146,2.597326,0.4813,0.29948,0.21394
1700499197671875,-9.482053,0.670146,2.615326,0.4113,0.30448,0.20094
1700499197679687,-9.502053,0.673146,2.653326,0.1913,0.29448,0.13894
1700499197687500,-9.513053,0.666146,2.680326,0.1313,0.33648,0.10394
1700499197695312,-9.515053,0.673146,2.694326,0.2613,0.40348,0.15294
1700499197703125,-9.500053,0.677146,2.691326,0.787,0.37348,0.10594
1700499197710937,-9.475053,0.684146,2.707326,0.587,0.39948,0.9494
1700499197718750,-9.448053,0.699146,2.743326,0.1687,0.44448,0.10894
1700499197726562,-9.425053,0.679146,2.768326,0.487,0.44748,0.9494
1700499197734375,-9.380053,0.645146,2.693326,0.2187,0.31748,0.11094
1700499197742187,-9.346053,0.640146,2.664326,0.6787,0.31748,0.9494
1700499197750000,-9.320053,0.667146,2.712326,0.1613,0.17148,0.10194
1700499197757812,-9.326053,0.658146,2.757326,0.0,0.18748,0.11794
1700499197765625,-9.317053,0.627146,2.698326,0.2613,0.19148,0.10394
1700499197773437,-9.292053,0.598146,2.610326,0.1613,0.8948,0.16594
1700499197781250,-9.249053,0.591146,2.590326,0.1713,0.4048,0.10094
1700499197789062,-9.231053,0.604146,2.626326,0.787,0.9448,0.16894
1700499197796875,-9.263053,0.602146,2.680326,0.7413,0.2252,0.21394
1700499197804687,-9.301053,0.589146,2.662326,0.16713,0.18452,0.24394
1700499197812500,-9.353053,0.603146,2.655326,0.12413,0.15452,0.22794
1700499197820312,-9.423053,0.634146,2.644326,0.13713,0.29952,0.22794
1700499197828125,-9.454053,0.638146,2.640326,0.3213,0.18952,0.21194
1700499197835937,-9.457053,0.661146,2.622326,0.887,0.13352,0.21594
1700499197843750,-9.475053,0.670146,2.617326,0.10887,0.12352,0.21394
1700499197851562,-9.486053,0.664146,2.594326,0.15287,0.9952,0.21794
1700499197859375,-9.490053,0.646146,2.554326,0.19587,0.3652,0.21794
1700499197867187,-9.472053,0.627146,2.545326,0.20787,0.652,0.21694
1700499197875000,-9.447053,0.614146,2.520326,0.7887,0.3948,0.21494
1700499197882812,-9.415053,0.600146,2.507326,0.11287,0.4248,0.15194
1700499197890625,-9.398053,0.606146,2.514326,0.12487,0.7148,0.24694
1700499197898437,-9.384053,0.610146,2.511326,0.6587,0.4148,0.23094
1700499197906250,-9.384053,0.595146,2.507326,0.3687,0.1148,0.16794
1700499197914062,-9.393053,0.602146,2.518326,0.3787,0.7648,0.21594
1700499197921875,-9.406053,0.589146,2.523326,0.287,0.5748,0.21494
1700499197929687,-9.431053,0.589146,2.540326,0.713,0.12748,0.20094
1700499197937500,-9.458053,0.587146,2.583326,0.1513,0.2548,0.11794
1700499197945312,-9.478053,0.592146,2.590326,0.687,0.14248,0.18394
1700499197953125,-9.480053,0.601146,2.570326,0.2613,0.19148,0.10394
1700499197960937,-9.472053,0.616146,2.556326,0.2913,0.15648,0.15094
1700499197968750,-9.474053,0.623146,2.552326,0.3813,0.22748,0.10494
1700499197976562,-9.476053,0.637146,2.565326,0.10213,0.16248,0.5594
1700499197984375,-9.472053,0.637146,2.556326,0.10213,0.22648,0.10394
1700499197992187,-9.452053,0.641146,2.561326,0.15013,0.29048,0.11894
1700499198000000,-9.452053,0.660146,2.561326,0.13713,0.25648,0.10194
1700499198007812,-9.455053,0.660146,2.586326,0.18713,0.22248,0.8494
1700499198015625,-9.445053,0.654146,2.561326,0.5813,0.25648,0.15194
1700499198023437,-9.445053,0.658146,2.559326,0.13613,0.28848,0.15094
1700499198031250,-9.450053,0.654146,2.561326,0.10713,0.28748,0.13494
1700499198039062,-9.413053,0.631146,2.565326,0.3813,0.34048,0.13794
1700499198046875,-9.380053,0.631146,2.527326,0.1087,0.39148,0.13894
1700499198054687,-9.371053,0.646146,2.543326,0.23613,0.39948,0.9994
1700499198062500,-9.382053,0.629146,2.572326,0.22813,0.29248,0.8694
1700499198070312,-9.398053,0.629146,2.525326,0.24513,0.24148,0.10194
1700499198078125,-9.405053,0.635146,2.577326,0.22913,0.29048,0.13394
1700499198085937,-9.418053,0.629146,2.604326,0.24513,0.30748,0.8594
1700499198093750,-9.445053,0.640146,2.601326,0.26213,0.22348,0.14894
1700499198101562,-9.459053,0.647146,2.590326,0.24613,0.27248,0.16594
1700499198109375,-9.472053,0.661146,2.581326,0.26113,0.33848,0.14994
1700499198117187,-9.479053,0.657146,2.597326,0.24113,0.42248,0.16794
1700499198125000,-9.463053,0.645146,2.579326,0.25413,0.36548,0.9894
1700499198132812,-9.463053,0.627146,2.579326,0.24313,0.45448,0.11894
1700499198140625,-9.445053,0.641146,2.572326,0.23813,0.44248,0.10494
1700499198148437,-9.443053,0.629146,2.579326,0.24013,0.42248,0.18394
1700499198156250,-9.436053,0.631146,2.583326,0.26213,0.43648,0.10194
1700499198164062,-9.418053,0.643146,2.581326,0.23713,0.37748,0.8894
1700499198171875,-9.407053,0.653146,2.581326,0.25313,0.45848,0.12094
1700499198179687,-9.380053,0.653146,2.576326,0.23913,0.40748,0.15294
1700499198187500,-9.369053,0.651146,2.590326,0.25713,0.35848,0.8794
1700499198195312,-9.369053,0.646146,2.613326,0.23113,0.32248,0.10194
1700499198203125,-9.360053,0.639146,2.597326,0.23813,0.42548,0.10494
1700499198210937,-9.364053,0.631146,2.590326,0.23813,0.37648,0.12094
1700499198218750,-9.373053,0.622146,2.583326,0.22113,0.36148,0.8894
1700499198226562,-9.382053,0.622146,2.594326,0.25113,0.36148,0.18594
1700499198234375,-9.402053,0.613146,2.585326,0.25513,0.26048,0.21594
1700499198242187,-9.400053,0.636146,2.583326,0.23913,0.29248,0.19994
1700499198250000,-9.404053,0.642146,2.576326,0.21913,0.27948,0.24994
1700499198257812,-9.400053,0.660146,2.570326,0.22213,0.24348,0.26394
1700499198265625,-9.412053,0.655146,2.563326,0.24213,0.22448,0.24694
1700499198273437,-9.430053,0.665146,2.574326,0.28713,0.20948,0.26294
1700499198281250,-9.450053,0.663146,2.574326,0.22013,0.26248,0.18494
1700499198289062,-9.474053,0.648146,2.574326,0.21613,0.26348,0.29894
1700499198296875,-9.472053,0.648146,2.579326,0.25313,0.29248,0.28094
1700499198304687,-9.481053,0.654146,2.565326,0.24613,0.28748,0.21394
1700499198312500,-9.461053,0.668146,2.552326,0.25013,0.34448,0.23394
1700499198320312,-9.457053,0.670146,2.568326,0.24013,0.37348,0.21594
1700499198328125,-9.443053,0.665146,2.559326,0.25613,0.29148,0.21494
1700499198335937,-9.430053,0.660146,2.550326,0.24613,0.33648,0.22994
1700499198343750,-9.427053,0.652146,2.561326,0.25313,0.32748,0.20094
1700499198351562,-9.425053,0.640146,2.554326,0.27513,0.28848,0.26194
1700499198359375,-9.422053,0.636146,2.554326,0.23913,0.27648,0.21594
1700499198367187,-9.441053,0.636146,2.583326,0.25613,0.27548,0.21494
1700499198375000,-9.436053,0.629146,2.563326,0.23713,0.25948,0.32894
1700499198382812,-9.423053,0.636146,2.583326,0.24413,0.22348,0.27794
1700499198390625,-9.421053,0.642146,2.559326,0.25913,0.22348,0.29394
1700499198398437,-9.400053,0.662146,2.547326,0.23813,0.25948,0.26394
1700499198406250,-9.405053,0.660146,2.538326,0.25213,0.21248,0.24794
1700499198414062,-9.410053,0.669146,2.529326,0.19313,0.27448,0.26394
1700499198421875,-9.407053,0.678146,2.543326,0.21813,0.32848,0.24994
1700499198429687,-9.409053,0.658146,2.522326,0.22313,0.21048,0.24794
1700499198437500,-9.403053,0.655146,2.514326,0.22913,0.25648,0.19794
1700499198445312,-9.407053,0.642146,2.500326,0.23013,0.17448,0.18094
1700499198453125,-9.409053,0.635146,2.489326,0.11713,0.20848,0.23194
1700499198460937,-9.416053,0.620146,2.466326,0.11913,0.19148,0.16694
1700499198468750,-9.431053,0.602146,2.475326,0.4413,0.14148,0.8594
1700499198476562,-9.427053,0.604146,2.478326,0.15513,0.12348,0.16494
1700499198484375,-9.431053,0.614146,2.491326,0.19813,0.14348,0.13394
1700499198492187,-9.436053,0.614146,2.489326,0.16813,0.15748,0.14994
1700499198500000,-9.440053,0.603146,2.477326,0.15013,0.16048,0.8694
1700499198507812,-9.429053,0.616146,2.478326,0.13713,0.17448,0.14994
1700499198515625,-9.424053,0.605146,2.480326,0.9013,0.15748,0.16694
1700499198523437,-9.424053,0.594146,2.466326,0.15113,0.15948,0.15094
1700499198531250,-9.440053,0.585146,2.457326,0.6813,0.19448,0.15294
1700499198539062,-9.453053,0.581146,2.455326,0.5913,0.15248,0.15594
1700499198546875,-9.465053,0.601146,2.459326,0.3913,0.14448,0.13594
1700499198554687,-9.460053,0.614146,2.468326,0.1187,0.17948,0.17094
1700499198562500,-9.461053,0.641146,2.514326,0.7713,0.23848,0.8594
1700499198570312,-9.479053,0.639146,2.541326,0.9013,0.28848,0.11894
1700499198578125,-9.463053,0.601146,2.489326,0.1413,0.20548,0.10294
1700499198585937,-9.440053,0.594146,2.435326,0.287,0.17448,0.8694
1700499198593750,-9.451053,0.623146,2.498326,0.3613,0.22848,0.10594
1700499198601562,-9.452053,0.629146,2.543326,0.4613,0.18948,0.8594
1700499198609375,-9.442053,0.614146,2.444326,0.2487,0.27648,0.10594
1700499198617187,-9.436053,0.605146,2.430326,0.4213,0.24148,0.8794
1700499198625000,-9.402053,0.604146,2.442326,0.4613,0.20548,0.10194
1700499198632812,-9.387053,0.633146,2.493326,0.1013,0.30648,0.8894
1700499198640625,-9.382053,0.624146,2.516326,0.11613,0.14548,0.15194
1700499198648437,-9.377053,0.615146,2.505326,0.15513,0.12348,0.11694
1700499198656250,-9.418053,0.609146,2.507326,0.12513,0.14048,0.8494
1700499198664062,-9.463053,0.601146,2.482326,0.4613,0.12348,0.10194
1700499198671875,-9.483053,0.617146,2.500326,0.687,0.14448,0.8794
1700499198679687,-9.503053,0.612146,2.507326,0.1687,0.18948,0.10294
1700499198687500,-9.515053,0.610146,2.507326,0.1387,0.25248,0.10194
1700499198695312,-9.512053,0.614146,2.489326,0.1387,0.30148,0.8594
1700499198703125,-9.501053,0.610146,2.484326,0.1313,0.32048,0.10394
1700499198710937,-9.467053,0.621146,2.484326,0.5487,0.38948,0.9094
1700499198718750,-9.440053,0.620146,2.495326,0.2287,0.42148,0.10594
1700499198726562,-9.413053,0.607146,2.486326,0.2287,0.35748,0.5794
1700499198734375,-9.413053,0.604146,2.480326,0.1213,0.32148,0.5594
1700499198742187,-9.418053,0.600146,2.471326,0.4887,0.30348,0.7194
1700499198750000,-9.411053,0.595146,2.478326,0.1587,0.30248,0.8694
1700499198757812,-9.417053,0.589146,2.464326,0.11587,0.29048,0.10594
1700499198765625,-9.431053,0.591146,2.475326,0.10987,0.30248,0.8794
1700499198773437,-9.444053,0.596146,2.484326,0.6887,0.30648,0.10594
1700499198781250,-9.458053,0.614146,2.484326,0.2913,0.30348,0.10294
1700499198789062,-9.454053,0.610146,2.475326,0.687,0.30648,0.15294
1700499198796875,-9.465053,0.601146,2.484326,0.4413,0.36948,0.10394
1700499198804687,-9.467053,0.603146,2.484326,0.487,0.37048,0.10494
1700499198812500,-9.478053,0.601146,2.480326,0.1313,0.35348,0.8794
1700499198820312,-9.494053,0.608146,2.473326,0.2513,0.30648,0.10494
1700499198828125,-9.497053,0.612146,2.475326,0.9613,0.33448,0.8494
1700499198835937,-9.483053,0.618146,2.493326,0.8213,0.33248,0.10094
1700499198843750,-9.490053,0.639146,2.484326,0.4413,0.40248,0.8794
1700499198851562,-9.486053,0.645146,2.502326,0.8013,0.35048,0.10194
1700499198859375,-9.484053,0.656146,2.489326,0.18813,0.36848,0.8494
1700499198867187,-9.459053,0.645146,2.477326,0.13013,0.44048,0.10594
1700499198875000,-9.447053,0.627146,2.471326,0.9113,0.41848,0.8694
1700499198882812,-9.397053,0.613146,2.480326,0.7113,0.42248,0.5694
1700499198890625,-9.380053,0.617146,2.448326,0.4013,0.51948,0.7394
1700499198898437,-9.400053,0.633146,2.493326,0.22713,0.47248,0.7194
1700499198906250,-9.396053,0.619146,2.487326,0.26713,0.40148,0.3594
1700499198914062,-9.396053,0.622146,2.473326,0.24913,0.35348,0.6894
1700499198921875,-9.396053,0.635146,2.480326,0.11913,0.40548,0.8794
1700499198929687,-9.410053,0.655146,2.484326,0.20713,0.25248,0.5094
1700499198937500,-9.419053,0.669146,2.507326,0.16613,0.24248,0.7094
1700499198945312,-9.423053,0.667146,2.489326,0.18513,0.27348,0.5394
1700499198953125,-9.452053,0.674146,2.489326,0.22813,0.29248,0.7094
1700499198960937,-9.457053,0.663146,2.480326,0.20213,0.30448,0.8494
1700499198968750,-9.468053,0.656146,2.468326,0.19913,0.29048,0.6994
1700499198976562,-9.466053,0.656146,2.475326,0.23513,0.30348,0.8394
1700499198984375,-9.456053,0.643146,2.473326,0.20113,0.28948,0.5394
1700499198992187,-9.463053,0.645146,2.462326,0.21313,0.33948,0.10294
1700499199000000,-9.461053,0.647146,2.469326,0.23113,0.33848,0.8594
1700499199007812,-9.461053,0.652146,2.464326,0.21613,0.35348,0.13394
1700499199015625,-9.452053,0.649146,2.466326,0.25313,0.39848,0.11594
1700499199023437,-9.430053,0.646146,2.451326,0.27113,0.38048,0.11494
1700499199031250,-9.419053,0.657146,2.444326,0.25013,0.40148,0.10094
1700499199039062,-9.423053,0.648146,2.453326,0.25613,0.38048,0.8294
1700499199046875,-9.421053,0.642146,2.453326,0.24813,0.38648,0.8494
1700499199054687,-9.429053,0.645146,2.453326,0.25913,0.42148,0.13494
1700499199062500,-9.446053,0.649146,2.444326,0.36013,0.44948,0.16394
1700499199070312,-9.448053,0.662146,2.460326,0.28113,0.41748,0.11694
1700499199078125,-9.459053,0.685146,2.453326,0.40613,0.40148,0.13094
1700499199085937,-9.475053,0.685146,2.473326,0.35713,0.35348,0.13194
1700499199093750,-9.480053,0.698146,2.478326,0.34413,0.35248,0.13194
1700499199101562,-9.482053,0.708146,2.473326,0.27313,0.30948,0.7094
1700499199109375,-9.493053,0.719146,2.480326,0.25813,0.32448,0.13494
1700499199117187,-9.485053,0.710146,2.491326,0.29513,0.32048,0.14894
1700499199125000,-9.480053,0.694146,2.480326,0.27213,0.40648,0.18394
1700499199132812,-9.468053,0.683146,2.475326,0.24213,0.38848,0.21594
1700499199140625,-9.457053,0.682146,2.462326,0.26513,0.40148,0.14894
1700499199148437,-9.441053,0.687146,2.453326,0.24813,0.38648,0.11794
1700499199156250,-9.441053,0.685146,2.466326,0.25913,0.43648,0.21494
1700499199164062,-9.437053,0.683146,2.473326,0.23913,0.37448,0.16894
1700499199171875,-9.434053,0.678146,2.471326,0.25113,0.45948,0.15394
1700499199179687,-9.435053,0.685146,2.448326,0.22513,0.38948,0.16794
1700499199187500,-9.432053,0.684146,2.451326,0.27813,0.45148,0.13394
1700499199195312,-9.430053,0.682146,2.468326,0.24413,0.42148,0.8694
1700499199203125,-9.435053,0.685146,2.475326,0.25913,0.38848,0.13494
1700499199210937,-9.446053,0.683146,2.473326,0.23913,0.40748,0.15294
1700499199218750,-9.450053,0.687146,2.477326,0.25113,0.41048,0.15394
1700499199226562,-9.462053,0.698146,2.493326,0.24113,0.39048,0.15194
1700499199234375,-9.471053,0.701146,2.486326,0.25713,0.40648,0.15194
1700499199242187,-9.450053,0.692146,2.484326,0.20813,0.44048,0.12094
1700499199250000,-9.455053,0.703146,2.484326,0.24013,0.42248,0.21694
1700499199257812,-9.462053,0.701146,2.484326,0.21113,0.50348,0.13594
1700499199265625,-9.467053,0.703146,2.514326,0.15513,0.48148,0.21494
1700499199273437,-9.455053,0.705146,2.487326,0.11913,0.46948,0.15294
1700499199281250,-9.446053,0.700146,2.477326,0.11613,0.48848,0.10594
1700499199289062,-9.443053,0.687146,2.477326,0.1913,0.44048,0.17094
1700499199296875,-9.439053,0.685146,2.455326,0.1813,0.44148,0.13994
1700499199304687,-9.417053,0.673146,2.442326,0.4413,0.40248,0.8794
1700499199312500,-9.423053,0.671146,2.444326,0.11913,0.45248,0.18494
1700499199320312,-9.423053,0.676146,2.453326,0.11513,0.42448,0.10594
1700499199328125,-9.444053,0.682146,2.482326,0.11113,0.43248,0.8594
1700499199335937,-9.441053,0.667146,2.480326,0.13813,0.45148,0.11894
1700499199343750,-9.441053,0.676146,2.491326,0.5613,0.40448,0.12094
1700499199351562,-9.446053,0.689146,2.502326,0.11513,0.52048,0.13794
1700499199359375,-9.450053,0.680146,2.509326,0.15013,0.45448,0.8794
1700499199367187,-9.448053,0.681146,2.516326,0.16313,0.55448,0.7294
1700499199375000,-9.443053,0.669146,2.525326,0.9913,0.57048,0.13894
1700499199382812,-9.452053,0.676146,2.523326,0.5713,0.55148,0.8894
1700499199390625,-9.446053,0.696146,2.554326,0.11813,0.56848,0.10594
1700499199398437,-9.439053,0.718146,2.590326,0.17613,0.63748,0.9094
1700499199406250,-9.423053,0.700146,2.588326,0.11313,0.63748,0.10694
1700499199414062,-9.403053,0.666146,2.518326,0.2813,0.48448,0.10494
1700499199421875,-9.387053,0.675146,2.538326,0.187,0.43348,0.15194
1700499199429687,-9.412053,0.700146,2.583326,0.12213,0.48448,0.10394
1700499199437500,-9.439053,0.685146,2.590326,0.9713,0.44148,0.10694
1700499199445312,-9.450053,0.667146,2.523326,0.2187,0.42148,0.8994
1700499199453125,-9.425053,0.656146,2.500326,0.2213,0.43848,0.12194
1700499199460937,-9.396053,0.662146,2.504326,0.2213,0.53748,0.10694
1700499199468750,-9.385053,0.666146,2.579326,0.7213,0.53648,0.5794
1700499199476562,-9.398053,0.653146,2.617326,0.15613,0.38448,0.11794
1700499199484375,-9.411053,0.642146,2.604326,0.19813,0.27448,0.11894
1700499199492187,-9.436053,0.642146,2.588326,0.29813,0.28648,0.9894
1700499199500000,-9.468053,0.647146,2.604326,0.12513,0.30248,0.8494
1700499199507812,-9.466053,0.665146,2.622326,0.0,0.36848,0.11994
1700499199515625,-9.470053,0.667146,2.626326,0.4213,0.40348,0.12094
1700499199523437,-9.464053,0.665146,2.583326,0.0,0.33548,0.11894
1700499199531250,-9.464053,0.660146,2.559326,0.4713,0.41548,0.15094
1700499199539062,-9.430053,0.662146,2.556326,0.2387,0.42148,0.15394
1700499199546875,-9.416053,0.653146,2.552326,0.4213,0.41848,0.21694
1700499199554687,-9.398053,0.644146,2.561326,0.3613,0.39148,0.15494
1700499199562500,-9.402053,0.640146,2.559326,0.11813,0.40448,0.13694
1700499199570312,-9.394053,0.653146,2.561326,0.13013,0.35848,0.13694
1700499199578125,-9.403053,0.649146,2.581326,0.19413,0.40648,0.16894
1700499199585937,-9.409053,0.653146,2.579326,0.8913,0.35448,0.11994
1700499199593750,-9.387053,0.644146,2.561326,0.8713,0.30648,0.15194
1700499199601562,-9.385053,0.653146,2.563326,0.19613,0.32448,0.8694
1700499199609375,-9.387053,0.664146,2.583326,0.18713,0.30248,0.13294
1700499199617187,-9.389053,0.666146,2.574326,0.24213,0.34048,0.13494
1700499199625000,-9.403053,0.660146,2.579326,0.23913,0.37648,0.8894
1700499199632812,-9.409053,0.651146,2.570326,0.25713,0.30948,0.10294
1700499199640625,-9.409053,0.649146,2.568326,0.24713,0.33848,0.8594
1700499199648437,-9.425053,0.664146,2.574326,0.24713,0.38648,0.13394
1700499199656250,-9.432053,0.667146,2.565326,0.25513,0.40748,0.15194
1700499199664062,-9.425053,0.678146,2.556326,0.28213,0.34648,0.12094
1700499199671875,-9.428053,0.692146,2.576326,0.26713,0.34448,0.15294
1700499199679687,-9.439053,0.694146,2.579326,0.23613,0.37748,0.13794
1700499199687500,-9.445053,0.679146,2.590326,0.24913,0.37948,0.15394
1700499199695312,-9.439053,0.679146,2.558326,0.23413,0.36248,0.12194
1700499199703125,-9.443053,0.683146,2.550326,0.25913,0.40648,0.7094
1700499199710937,-9.434053,0.672146,2.556326,0.23513,0.39348,0.16994
1700499199718750,-9.391053,0.660146,2.565326,0.23613,0.41048,0.13794
1700499199726562,-9.364053,0.673146,2.529326,0.23613,0.45948,0.10594
1700499199734375,-9.374053,0.697146,2.552326,0.23813,0.40948,0.12094
1700499199742187,-9.381053,0.700146,2.561326,0.23713,0.37748,0.10494
1700499199750000,-9.388053,0.697146,2.532326,0.24713,0.24048,0.13294
1700499199757812,-9.385053,0.697146,2.574326,0.24313,0.16048,0.13394
1700499199765625,-9.408053,0.688146,2.613326,0.25313,0.18748,0.11494
1700499199773437,-9.417053,0.689146,2.592326,0.24013,0.24348,0.18394
1700499199781250,-9.435053,0.689146,2.583326,0.24313,0.30648,0.16694
1700499199789062,-9.448053,0.683146,2.570326,0.24413,0.28848,0.22994
1700499199796875,-9.450053,0.698146,2.577326,0.24013,0.35848,0.15194
1700499199804687,-9.455053,0.709146,2.581326,0.24013,0.42248,0.21694
1700499199812500,-9.458053,0.718146,2.565326,0.24013,0.45548,0.18494
1700499199820312,-9.458053,0.718146,2.581326,0.25013,0.43448,0.8494
1700499199828125,-9.455053,0.714146,2.592326,0.25713,0.42248,0.15194
1700499199835937,-9.430053,0.705146,2.574326,0.25813,0.40448,0.19894
1700499199843750,-9.432053,0.700146,2.574326,0.22213,0.44048,0.21794
1700499199851562,-9.410053,0.687146,2.581326,0.7813,0.42648,0.18794
1700499199859375,-9.410053,0.691146,2.579326,0.19113,0.39248,0.12194
1700499199867187,-9.403053,0.704146,2.563326,0.11413,0.39148,0.15394
1700499199875000,-9.397053,0.710146,2.584326,0.18413,0.40048,0.24694
1700499199882812,-9.392053,0.715146,2.590326,0.24113,0.37148,0.24794
1700499199890625,-9.392053,0.709146,2.590326,0.22513,0.26048,0.13594
1700499199898437,-9.399053,0.706146,2.588326,0.18313,0.35448,0.15094
1700499199906250,-9.408053,0.706146,2.581326,0.11713,0.33948,0.18394
1700499199914062,-9.412053,0.700146,2.590326,0.22413,0.29248,0.18394
1700499199921875,-9.428053,0.687146,2.577326,0.19713,0.30548,0.21494
1700499199929687,-9.426053,0.685146,2.563326,0.22613,0.30648,0.26394
1700499199937500,-9.428053,0.687146,2.574326,0.13413,0.28848,0.24794
1700499199945312,-9.415053,0.700146,2.574326,0.19413,0.30748,0.18394
1700499199953125,-9.424053,0.709146,2.574326,0.16913,0.31848,0.22994
1700499199960937,-9.426053,0.716146,2.572326,0.9913,0.32348,0.23394
1700499199968750,-9.422053,0.722146,2.563326,0.12013,0.38748,0.11994
1700499199976562,-9.417053,0.720146,2.554326,0.9313,0.35048,0.19794
1700499199984375,-9.413053,0.722146,2.561326,0.3813,0.37148,0.21794
1700499199992187,-9.413053,0.720146,2.561326,0.11913,0.41948,0.19994
1700499200000000,-9.402053,0.724146,2.568326,0.15613,0.43248,0.16594
1700499200007812,-9.383053,0.726146,2.565326,0.15513,0.41148,0.13894
1700499200015625,-9.372053,0.721146,2.565326,0.7013,0.38848,0.18494
1700499200023437,-9.377053,0.719146,2.565326,0.3613,0.27648,0.15394
1700499200031250,-9.388053,0.709146,2.556326,0.14313,0.27748,0.20194
1700499200039062,-9.381053,0.711146,2.561326,0.13013,0.27648,0.18494
1700499200046875,-9.386053,0.699146,2.554326,0.22313,0.21848,0.14694
1700499200054687,-9.419053,0.702146,2.545326,0.20513,0.29948,0.22794
1700499200062500,-9.444053,0.711146,2.561326,0.21513,0.28748,0.21394
1700499200070312,-9.451053,0.723146,2.581326,0.6813,0.30748,0.23394
1700499200078125,-9.460053,0.727146,2.592326,0.14713,0.30748,0.18494
1700499200085937,-9.462053,0.720146,2.595326,0.20513,0.36748,0.11694
1700499200093750,-9.451053,0.727146,2.608326,0.5913,0.40048,0.21594
1700499200101562,-9.453053,0.718146,2.617326,0.3113,0.33348,0.21494
1700499200109375,-9.438053,0.715146,2.593326,0.0,0.33348,0.16694
1700499200117187,-9.417053,0.693146,2.615326,0.8713,0.38648,0.20094
1700499200125000,-9.399053,0.702146,2.590326,0.3913,0.37148,0.18594
1700499200132812,-9.381053,0.686146,2.574326,0.9013,0.35248,0.19994
1700499200140625,-9.363053,0.679146,2.570326,0.5213,0.29148,0.26594
1700499200148437,-9.344053,0.677146,2.550326,0.5213,0.30748,0.24994
1700499200156250,-9.342053,0.677146,2.565326,0.13313,0.28948,0.23194
1700499200164062,-9.356053,0.681146,2.552326,0.10613,0.22148,0.18194
1700499200171875,-9.361053,0.683146,2.545326,0.15813,0.17048,0.14794
1700499200179687,-9.381053,0.701146,2.550326,0.19413,0.16748,0.11394
1700499200187500,-9.405053,0.700146,2.563326,0.18113,0.16948,0.20394
1700499200195312,-9.421053,0.702146,2.545326,0.21313,0.23948,0.22994
1700499200203125,-9.433053,0.707146,2.565326,0.17013,0.20448,0.22894
1700499200210937,-9.437053,0.713146,2.565326,0.18413,0.23948,0.13394
1700499200218750,-9.444053,0.705146,2.568326,0.13913,0.20448,0.21294
1700499200226562,-9.444053,0.713146,2.552326,0.13813,0.22248,0.14994
1700499200234375,-9.444053,0.720146,2.574326,0.23113,0.32048,0.19794
1700499200242187,-9.444053,0.716146,2.622326,0.20113,0.36848,0.19794
1700499200250000,-9.437053,0.691146,2.572326,0.8113,0.18548,0.19694
1700499200257812,-9.421053,0.682146,2.527326,0.5613,0.14248,0.16794
1700499200265625,-9.422053,0.722146,2.561326,0.10213,0.12648,0.24794
1700499200273437,-9.440053,0.711146,2.577326,0.21613,0.17248,0.21294
1700499200281250,-9.446053,0.691146,2.565326,0.18613,0.17148,0.21294
1700499200289062,-9.437053,0.678146,2.505326,0.16413,0.10948,0.26294
1700499200296875,-9.412053,0.675146,2.489326,0.4613,0.20248,0.24594
1700499200304687,-9.390053,0.704146,2.500326,0.4013,0.25548,0.24894
1700499200312500,-9.379053,0.708146,2.554326,0.23113,0.14148,0.16494
1700499200320312,-9.396053,0.680146,2.554326,0.22513,0.9448,0.26294
1700499200328125,-9.407053,0.660146,2.541326,0.29413,0.5848,0.25994
1700499200335937,-9.457053,0.671146,2.552326,0.29613,0.12248,0.22694
1700499200343750,-9.462053,0.694146,2.572326,0.19313,0.6348,0.24694
1700499200351562,-9.473053,0.716146,2.588326,0.7013,0.10948,0.26394
1700499200359375,-9.482053,0.716146,2.570326,0.2613,0.12448,0.21494
1700499200367187,-9.480053,0.723146,2.523326,0.287,0.18848,0.19994
1700499200375000,-9.471053,0.721146,2.502326,0.487,0.27248,0.16894
1700499200382812,-9.457053,0.709146,2.507326,0.813,0.32248,0.20194
1700499200390625,-9.439053,0.682146,2.518326,0.2513,0.30448,0.23294
1700499200398437,-9.428053,0.667146,2.518326,0.513,0.30748,0.21794
1700499200406250,-9.423053,0.658146,2.514326,0.7613,0.28548,0.23094
1700499200414062,-9.423053,0.660146,2.523326,0.2313,0.30448,0.32994
1700499200421875,-9.428053,0.664146,2.523326,0.487,0.30348,0.24894
1700499200429687,-9.434053,0.672146,2.536326,0.313,0.27548,0.26694
1700499200437500,-9.430053,0.673146,2.525326,0.4413,0.30248,0.24794
1700499200445312,-9.421053,0.677146,2.532326,0.11313,0.28048,0.29194
1700499200453125,-9.426053,0.686146,2.518326,0.10613,0.26948,0.26294
1700499200460937,-9.423053,0.667146,2.509326,0.13713,0.27048,0.23094
1700499200468750,-9.439053,0.665146,2.511326,0.3413,0.27548,0.26694
1700499200476562,-9.444053,0.669146,2.509326,0.3213,0.29948,0.24594
1700499200484375,-9.446053,0.674146,2.509326,0.11513,0.24248,0.23294
1700499200492187,-9.448053,0.678146,2.511326,0.13513,0.33848,0.16694
1700499200500000,-9.444053,0.685146,2.502326,0.2313,0.30648,0.23394
1700499200507812,-9.434053,0.683146,2.502326,0.11513,0.37348,0.20094
1700499200515625,-9.439053,0.674146,2.511326,0.18313,0.28848,0.16694
1700499200523437,-9.446053,0.669146,2.511326,0.11913,0.30548,0.19994
1700499200531250,-9.457053,0.672146,2.507326,0.8913,0.30548,0.16794
1700499200539062,-9.450053,0.674146,2.513326,0.7713,0.32948,0.18794
1700499200546875,-9.448053,0.667146,2.502326,0.4013,0.37248,0.13694
1700499200554687,-9.439053,0.670146,2.498326,0.1713,0.37748,0.9194
1700499200562500,-9.407053,0.642146,2.498326,0.2887,0.45648,0.21994
1700499200570312,-9.391053,0.655146,2.464326,0.5113,0.42348,0.17094
1700499200578125,-9.394053,0.666146,2.495326,0.5013,0.45648,0.18694
1700499200585937,-9.402053,0.653146,2.502326,0.3313,0.27748,0.20294
1700499200593750,-9.409053,0.635146,2.509326,0.9113,0.25448,0.18294
1700499200601562,-9.430053,0.645146,2.541326,0.7213,0.30548,0.19994
1700499200609375,-9.443053,0.649146,2.556326,0.7113,0.30648,0.16894
1700499200617187,-9.445053,0.656146,2.532326,0.8913,0.25548,0.18394
1700499200625000,-9.448053,0.672146,2.520326,0.8713,0.27348,0.18394
1700499200632812,-9.443053,0.674146,2.511326,0.213,0.31048,0.20394
1700499200640625,-9.448053,0.660146,2.512326,0.19113,0.26748,0.14794
1700499200648437,-9.443053,0.645146,2.507326,0.11213,0.31048,0.18594
1700499200656250,-9.434053,0.656146,2.486326,0.11713,0.20748,0.24794
1700499200664062,-9.427053,0.651146,2.489326,0.11913,0.28848,0.21594
1700499200671875,-9.430053,0.651146,2.482326,0.11813,0.30648,0.15194
1700499200679687,-9.448053,0.649146,2.471326,0.10713,0.28748,0.11794
1700499200687500,-9.448053,0.658146,2.480326,0.11913,0.22448,0.16694
1700499200695312,-9.439053,0.651146,2.498326,0.10413,0.27448,0.8694
1700499200703125,-9.445053,0.636146,2.491326,0.11713,0.29048,0.19994
1700499200710937,-9.429053,0.638146,2.482326,0.2013,0.30748,0.24994
1700499200718750,-9.425053,0.636146,2.477326,0.5313,0.40648,0.13794
1700499200726562,-9.443053,0.638146,2.484326,0.5813,0.38748,0.8794
1700499200734375,-9.443053,0.643146,2.484326,0.8613,0.30848,0.10494
1700499200742187,-9.445053,0.634146,2.495326,0.11813,0.38848,0.15294
1700499200750000,-9.450053,0.634146,2.509326,0.15513,0.36848,0.13394
1700499200757812,-9.457053,0.634146,2.511326,0.11113,0.23548,0.16494
1700499200765625,-9.463053,0.632146,2.513326,0.8213,0.26148,0.15394
1700499200773437,-9.465053,0.632146,2.504326,0.13213,0.26048,0.8794
1700499200781250,-9.456053,0.625146,2.500326,0.13313,0.27548,0.13594
1700499200789062,-9.459053,0.641146,2.493326,0.4213,0.27248,0.13594
1700499200796875,-9.454053,0.638146,2.500326,0.7013,0.20948,0.13594
1700499200804687,-9.440053,0.638146,2.484326,0.1813,0.29348,0.20294
1700499200812500,-9.447053,0.634146,2.484326,0.14913,0.22648,0.11894
1700499200820312,-9.459053,0.632146,2.496326,0.7413,0.32148,0.8694
1700499200828125,-9.456053,0.632146,2.507326,0.5413,0.30748,0.13694
1700499200835937,-9.452053,0.639146,2.491326,0.12913,0.26148,0.15294
1700499200843750,-9.420053,0.635146,2.484326,0.5813,0.28748,0.21594
1700499200851562,-9.418053,0.640146,2.475326,0.14113,0.28648,0.11694
1700499200859375,-9.409053,0.649146,2.480326,0.10313,0.27348,0.15194
1700499200867187,-9.414053,0.656146,2.489326,0.5313,0.25848,0.21694
1700499200875000,-9.418053,0.645146,2.509326,0.3813,0.24248,0.18494
1700499200882812,-9.418053,0.636146,2.509326,0.1813,0.19748,0.13894
1700499200890625,-9.438053,0.640146,2.489326,0.2313,0.16048,0.18494
1700499200898437,-9.445053,0.649146,2.498326,0.687,0.19148,0.20094
1700499200906250,-9.457053,0.658146,2.484326,0.1413,0.18748,0.21494
1700499200914062,-9.457053,0.667146,2.500326,0.1313,0.15648,0.19894
1700499200921875,-9.479053,0.679146,2.500326,0.487,0.14148,0.18394
1700499200929687,-9.466053,0.670146,2.511326,0.3913,0.17648,0.13594
1700499200937500,-9.454053,0.665146,2.516326,0.3913,0.19348,0.15294
1700499200945312,-9.441053,0.669146,2.505326,0.487,0.20648,0.16794
1700499200953125,-9.459053,0.660146,2.523326,0.1413,0.23848,0.8694
1700499200960937,-9.470053,0.654146,2.543326,0.387,0.15748,0.15194
1700499200968750,-9.468053,0.632146,2.529326,0.7713,0.18948,0.10194
1700499200976562,-9.452053,0.638146,2.496326,0.6113,0.15448,0.19794
1700499200984375,-9.432053,0.640146,2.464326,0.1587,0.25148,0.19894
1700499200992187,-9.416053,0.640146,2.446326,0.3213,0.15548,0.11794
1700499201000000,-9.416053,0.647146,2.426326,0.2713,0.17448,0.15094
1700499201007812,-9.420053,0.638146,2.437326,0.2613,0.12648,0.13594
1700499201015625,-9.429053,0.636146,2.455326,0.913,0.7848,0.11994
1700499201023437,-9.441053,0.643146,2.477326,0.1087,0.16148,0.20194
1700499201031250,-9.441053,0.660146,2.486326,0.713,0.14348,0.20094
1700499201039062,-9.443053,0.672146,2.464326,0.13113,0.9748,0.8794
1700499201046875,-9.448053,0.669146,2.471326,0.7413,0.12648,0.10294
1700499201054687,-9.459053,0.663146,2.480326,0.2213,0.21148,0.10494
1700499201062500,-9.459053,0.674146,2.484326,0.987,0.19448,0.12194
1700499201070312,-9.452053,0.649146,2.469326,0.0,0.15648,0.8594
1700499201078125,-9.443053,0.642146,2.453326,0.1513,0.14048,0.10194
1700499201085937,-9.446053,0.665146,2.473326,0.0,0.22048,0.10194
1700499201093750,-9.443053,0.671146,2.511326,0.7313,0.29048,0.8794
1700499201101562,-9.437053,0.655146,2.498326,0.8013,0.30148,0.11794
1700499201109375,-9.418053,0.633146,2.403326,0.1887,0.14148,0.10294
1700499201117187,-9.416053,0.658146,2.426326,0.5913,0.17448,0.10294
1700499201125000,-9.448053,0.669146,2.477326,0.11913,0.19248,0.13494
1700499201132812,-9.475053,0.652146,2.534326,0.10413,0.17548,0.11894
1700499201140625,-9.488053,0.641146,2.464326,0.4213,0.17448,0.16694
1700499201148437,-9.469053,0.621146,2.428326,0.4913,0.16448,0.15394
1700499201156250,-9.422053,0.625146,2.443326,0.3687,0.25148,0.12594
1700499201164062,-9.418053,0.636146,2.495326,0.5213,0.24548,0.5794
1700499201171875,-9.429053,0.641146,2.554326,0.14213,0.19848,0.10594
1700499201179687,-9.443053,0.636146,2.511326,0.20913,0.11448,0.10294
1700499201187500,-9.474053,0.641146,2.493326,0.20113,0.2748,0.14794
1700499201195312,-9.484053,0.666146,2.502326,0.6913,0.12948,0.13594
1700499201203125,-9.459053,0.687146,2.496326,0.1413,0.10748,0.16594
1700499201210937,-9.466053,0.685146,2.491326,0.513,0.11948,0.11594
1700499201218750,-9.466053,0.681146,2.482326,0.1787,0.13948,0.15094
1700499201226562,-9.457053,0.658146,2.450326,0.3887,0.16048,0.12094
1700499201234375,-9.452053,0.636146,2.446326,0.687,0.16048,0.12094
1700499201242187,-9.431053,0.625146,2.450326,0.15487,0.19648,0.15694
1700499201250000,-9.420053,0.620146,2.428326,0.387,0.14148,0.15094
1700499201257812,-9.407053,0.635146,2.435326,0.6687,0.22348,0.12094
1700499201265625,-9.404053,0.636146,2.439326,0.12287,0.21148,0.18794
1700499201273437,-9.407053,0.633146,2.432326,0.713,0.19148,0.24894
1700499201281250,-9.409053,0.642146,2.435326,0.3787,0.14248,0.18494
1700499201289062,-9.441053,0.625146,2.455326,0.1587,0.14048,0.8694
1700499201296875,-9.461053,0.618146,2.480326,0.5687,0.15048,0.13294
1700499201304687,-9.485053,0.605146,2.500326,0.6387,0.17248,0.10294
1700499201312500,-9.503053,0.593146,2.507326,0.587,0.20848,0.11994
1700499201320312,-9.505053,0.599146,2.469326,0.4887,0.22148,0.10394
1700499201328125,-9.496053,0.610146,2.462326,0.287,0.22348,0.8794
1700499201335937,-9.483053,0.612146,2.459326,0.387,0.25648,0.10394
1700499201343750,-9.479053,0.625146,2.451326,0.187,0.23848,0.10294
1700499201351562,-9.479053,0.616146,2.441326,0.1213,0.27248,0.8794
1700499201359375,-9.479053,0.618146,2.451326,0.0,0.23748,0.10194
1700499201367187,-9.472053,0.625146,2.444326,0.1013,0.29048,0.8894
1700499201375000,-9.465053,0.636146,2.460326,0.3013,0.28748,0.7094
1700499201382812,-9.456053,0.616146,2.466326,0.387,0.30548,0.10394
1700499201390625,-9.456053,0.614146,2.457326,0.1213,0.30548,0.8794
1700499201398437,-9.458053,0.610146,2.471326,0.2713,0.30648,0.3994
1700499201406250,-9.465053,0.612146,2.469326,0.1613,0.30248,0.5394
1700499201414062,-9.449053,0.587146,2.468326,0.4313,0.35648,0.794
1700499201421875,-9.407053,0.600146,2.430326,0.313,0.43248,0.1006
1700499201429687,-9.400053,0.617146,2.455326,0.4613,0.36948,0.2294
1700499201437500,-9.413053,0.618146,2.478326,0.1513,0.32248,0.5706
1700499201445312,-9.427053,0.613146,2.450326,0.4513,0.20748,0.2294
1700499201453125,-9.431053,0.627146,2.491326,0.3013,0.17448,0.1006
1700499201460937,-9.459053,0.632146,2.509326,0.6413,0.18948,0.2706
1700499201468750,-9.470053,0.630146,2.500326,0.4513,0.20948,0.7406
1700499201476562,-9.468053,0.629146,2.491326,0.3713,0.30248,0.9106
1700499201484375,-9.483053,0.616146,2.475326,0.3313,0.23948,0.5806
1700499201492187,-9.476053,0.614146,2.478326,0.6413,0.28848,0.7406
1700499201500000,-9.481053,0.607146,2.496326,0.8113,0.23748,0.2706
1700499201507812,-9.474053,0.614146,2.466326,0.6113,0.25848,0.7306
1700499201515625,-9.478053,0.615146,2.461326,0.13513,0.30448,0.6706
1700499201523437,-9.474053,0.617146,2.455326,0.17313,0.29948,0.2206
1700499201531250,-9.467053,0.614146,2.441326,0.13713,0.35848,0.8906
1700499201539062,-9.450053,0.627146,2.430326,0.14313,0.31948,0.494
1700499201546875,-9.438053,0.636146,2.414326,0.14013,0.24048,0.1106
1700499201554687,-9.445053,0.640146,2.435326,0.16813,0.32348,0.694
1700499201562500,-9.448053,0.652146,2.428326,0.18413,0.25848,0.594
1700499201570312,-9.463053,0.654146,2.437326,0.18113,0.21148,0.906
1700499201578125,-9.470053,0.658146,2.444326,0.12513,0.32248,0.9006
1700499201585937,-9.479053,0.650146,2.455326,0.13613,0.25948,0.2506
1700499201593750,-9.468053,0.648146,2.448326,0.12113,0.30848,0.7306
1700499201601562,-9.459053,0.665146,2.430326,0.12813,0.27048,0.2806
1700499201609375,-9.454053,0.658146,2.426326,0.13413,0.29348,0.806
1700499201617187,-9.445053,0.663146,2.419326,0.2713,0.27448,0.794
1700499201625000,-9.448053,0.660146,2.423326,0.12213,0.29048,0.906
1700499201632812,-9.439053,0.671146,2.412326,0.13713,0.30748,0.694
1700499201640625,-9.419053,0.673146,2.394326,0.10913,0.20748,0.1006
1700499201648437,-9.432053,0.671146,2.392326,0.2813,0.14348,0.694
1700499201656250,-9.445053,0.656146,2.403326,0.10513,0.17748,0.906
1700499201664062,-9.457053,0.663146,2.401326,0.15413,0.15948,0.2706
1700499201671875,-9.450053,0.660146,2.403326,0.18113,0.11948,0.0
1700499201679687,-9.434053,0.667146,2.390326,0.16713,0.17748,0.594
1700499201687500,-9.430053,0.673146,2.390326,0.15513,0.24048,0.2194
1700499201695312,-9.419053,0.686146,2.378326,0.25013,0.15848,0.2906
1700499201703125,-9.426053,0.689146,2.367326,0.26113,0.17748,0.494
1700499201710937,-9.428053,0.698146,2.403326,0.24613,0.16148,0.494
1700499201718750,-9.457053,0.696146,2.412326,0.24713,0.19248,0.5294
1700499201726562,-9.496053,0.706146,2.405326,0.26213,0.16148,0.1106
1700499201734375,-9.502053,0.708146,2.396326,0.25013,0.15848,0.394
1700499201742187,-9.502053,0.708146,2.392326,0.26113,0.16148,0.5294
1700499201750000,-9.500053,0.715146,2.376326,0.28513,0.23048,0.10394
1700499201757812,-9.492053,0.732146,2.369326,0.24913,0.14248,0.1994
1700499201765625,-9.496053,0.743146,2.379326,0.30013,0.13948,0.4994
1700499201773437,-9.494053,0.743146,2.381326,0.29613,0.20748,0.3594
1700499201781250,-9.497053,0.747146,2.383326,0.25513,0.23448,0.8194
1700499201789062,-9.490053,0.745146,2.397326,0.26313,0.28948,0.8494
1700499201796875,-9.481053,0.745146,2.412326,0.24813,0.17448,0.10094
1700499201804687,-9.474053,0.758146,2.408326,0.24913,0.24048,0.1994
1700499201812500,-9.454053,0.756146,2.394326,0.26013,0.32548,0.594
1700499201820312,-9.445053,0.762146,2.385326,0.24913,0.33848,0.1106
1700499201828125,-9.447053,0.756146,2.351326,0.26213,0.25848,0.3694
1700499201835937,-9.429053,0.762146,2.358326,0.20013,0.28948,0.8594
1700499201843750,-9.434053,0.771146,2.372326,0.23713,0.27048,0.1894
1700499201851562,-9.452053,0.765146,2.399326,0.26413,0.22448,0.3594
1700499201859375,-9.456053,0.758146,2.419326,0.24913,0.17448,0.5194
1700499201867187,-9.456053,0.767146,2.419326,0.27113,0.17148,0.194
1700499201875000,-9.447053,0.760146,2.410326,0.25213,0.17348,0.294
1700499201882812,-9.443053,0.771146,2.417326,0.24913,0.25648,0.394
1700499201890625,-9.436053,0.775146,2.385326,0.26813,0.17248,0.5094
1700499201898437,-9.434053,0.775146,2.383326,0.25113,0.25548,0.1206
1700499201906250,-9.447053,0.760146,2.388326,0.26513,0.28948,0.4406
1700499201914062,-9.440053,0.755146,2.374326,0.23713,0.28648,0.394
1700499201921875,-9.449053,0.756146,2.367326,0.17413,0.27048,0.1994
1700499201929687,-9.452053,0.782146,2.403326,0.25513,0.28548,0.294
1700499201937500,-9.452053,0.773146,2.437326,0.26813,0.33648,0.1306
1700499201945312,-9.454053,0.745146,2.406326,0.15513,0.32248,0.1006
1700499201953125,-9.431053,0.738146,2.333326,0.4613,0.20548,0.6994
1700499201960937,-9.429053,0.777146,2.358326,0.11113,0.13948,0.8394
1700499201968750,-9.450053,0.782146,2.421326,0.15213,0.12648,0.8594
1700499201976562,-9.467053,0.772146,2.360326,0.4213,0.15948,0.10294
1700499201984375,-9.481053,0.761146,2.333326,0.26213,0.17648,0.8494
1700499201992187,-9.465053,0.747146,2.347326,0.25213,0.15548,0.9894
1700499202000000,-9.463053,0.749146,2.379326,0.23613,0.15548,0.9894
1700499202007812,-9.472053,0.747146,2.397326,0.16613,0.8448,0.8094
1700499202015625,-9.458053,0.749146,2.381326,0.25413,0.5548,0.11394
1700499202023437,-9.483053,0.772146,2.392326,0.24613,0.15948,0.10094
1700499202031250,-9.515053,0.779146,2.397326,0.27013,0.8848,0.9794
1700499202039062,-9.510053,0.790146,2.401326,0.10213,0.8048,0.5494
1700499202046875,-9.490053,0.799146,2.399326,0.613,0.19648,0.5794
1700499202054687,-9.494053,0.779146,2.394326,0.1013,0.21048,0.794
1700499202062500,-9.474053,0.761146,2.378326,0.1187,0.23048,0.2694
1700499202070312,-9.462053,0.755146,2.344326,0.2087,0.30148,0.6194
1700499202078125,-9.449053,0.734146,2.351326,0.913,0.30848,0.4094
1700499202085937,-9.442053,0.740146,2.356326,0.1087,0.30948,0.13894
1700499202093750,-9.442053,0.749146,2.365326,0.0,0.21448,0.10794
1700499202101562,-9.433053,0.760146,2.372326,0.2213,0.26048,0.8994
1700499202109375,-9.425053,0.782146,2.385326,0.287,0.30348,0.11994
1700499202117187,-9.434053,0.780146,2.390326,0.1013,0.20848,0.13594
1700499202125000,-9.459053,0.789146,2.392326,0.813,0.20948,0.10494
1700499202132812,-9.447053,0.789146,2.408326,0.1087,0.17948,0.12194
1700499202140625,-9.458053,0.781146,2.383326,0.5013,0.19748,0.8994
1700499202148437,-9.478053,0.772146,2.378326,0.14613,0.14748,0.10394
1700499202156250,-9.501053,0.763146,2.401326,0.14913,0.20948,0.11894
1700499202164062,-9.501053,0.761146,2.392326,0.10413,0.27448,0.10394
1700499202171875,-9.508053,0.772146,2.381326,0.18313,0.20748,0.16594
1700499202179687,-9.501053,0.790146,2.378326,0.13313,0.27548,0.10394
1700499202187500,-9.515053,0.806146,2.372326,0.7213,0.30648,0.11994
1700499202195312,-9.511053,0.819146,2.365326,0.813,0.22648,0.10494
1700499202203125,-9.513053,0.817146,2.376326,0.387,0.30548,0.8794
1700499202210937,-9.502053,0.823146,2.374326,0.3113,0.22048,0.13394
1700499202218750,-9.495053,0.816146,2.360326,0.913,0.32248,0.10494
1700499202226562,-9.495053,0.823146,2.347326,0.1787,0.38548,0.10394
1700499202234375,-9.482053,0.823146,2.347326,0.6313,0.33548,0.6994
1700499202242187,-9.466053,0.822146,2.336326,0.6613,0.36748,0.2094
1700499202250000,-9.432053,0.793146,2.345326,0.413,0.39248,0.7494
1700499202257812,-9.389053,0.793146,2.320326,0.4113,0.43748,0.7294
1700499202265625,-9.392053,0.815146,2.327326,0.7213,0.38848,0.7294
1700499202273437,-9.407053,0.786146,2.345326,0.19913,0.29048,0.2194
1700499202281250,-9.416053,0.768146,2.311326,0.12313,0.24048,0.5394
1700499202289062,-9.438053,0.780146,2.342326,0.23213,0.19248,0.2094
1700499202296875,-9.445053,0.798146,2.356326,0.8713,0.19348,0.7194
1700499202304687,-9.450053,0.827146,2.388326,0.6013,0.17448,0.5394
1700499202312500,-9.466053,0.847146,2.385326,0.5613,0.17648,0.10394
1700499202320312,-9.489053,0.850146,2.347326,0.2413,0.27548,0.8894
1700499202328125,-9.502053,0.843146,2.354326,0.987,0.34248,0.7394
1700499202335937,-9.497053,0.825146,2.345326,0.1213,0.33848,0.8794
1700499202343750,-9.500053,0.823146,2.349326,0.687,0.29048,0.15294
1700499202351562,-9.493053,0.801146,2.345326,0.1113,0.32148,0.11994
1700499202359375,-9.503053,0.783146,2.363326,0.987,0.39148,0.9094
1700499202367187,-9.505053,0.779146,2.351326,0.0,0.36248,0.10894
1700499202375000,-9.492053,0.785146,2.338326,0.4513,0.25448,0.8694
1700499202382812,-9.493053,0.805146,2.327326,0.1213,0.30548,0.10394
1700499202390625,-9.484053,0.820146,2.331326,0.4713,0.30248,0.8594
1700499202398437,-9.469053,0.840146,2.345326,0.7813,0.33548,0.10194
1700499202406250,-9.457053,0.833146,2.343326,0.4513,0.35348,0.8694
1700499202414062,-9.437053,0.824146,2.333326,0.5613,0.33948,0.10494
1700499202421875,-9.446053,0.806146,2.331326,0.9413,0.35148,0.8594
1700499202429687,-9.439053,0.793146,2.338326,0.7313,0.43648,0.13694
1700499202437500,-9.438053,0.793146,2.324326,0.18013,0.40648,0.8794
1700499202445312,-9.445053,0.791146,2.324326,0.20613,0.37648,0.15294
1700499202453125,-9.447053,0.796146,2.329326,0.25513,0.39148,0.13594
1700499202460937,-9.465053,0.801146,2.331326,0.24013,0.35848,0.11994
1700499202468750,-9.472053,0.803146,2.331326,0.26113,0.35448,0.14994
1700499202476562,-9.479053,0.812146,2.342326,0.24113,0.28948,0.27894
1700499202484375,-9.488053,0.823146,2.329326,0.24913,0.37748,0.26594
1700499202492187,-9.502053,0.814146,2.336326,0.20613,0.39048,0.24994
1700499202500000,-9.502053,0.808146,2.349326,0.25413,0.34248,0.21594
1700499202507812,-9.497053,0.814146,2.340326,0.19713,0.38548,0.29494
1700499202515625,-9.497053,0.794146,2.358326,0.22513,0.38848,0.27994
1700499202523437,-9.481053,0.792146,2.338326,0.25913,0.40348,0.21494
1700499202531250,-9.484053,0.794146,2.338326,0.25713,0.38648,0.34394
1700499202539062,-9.481053,0.788146,2.365326,0.23313,0.40848,0.34694
1700499202546875,-9.479053,0.785146,2.338326,0.25213,0.40748,0.28094
1700499202554687,-9.472053,0.783146,2.329326,0.19513,0.38648,0.32794
1700499202562500,-9.479053,0.774146,2.336326,0.22913,0.40048,0.35894
1700499202570312,-9.488053,0.776146,2.342326,0.25713,0.38648,0.34394
1700499202578125,-9.492053,0.776146,2.336326,0.23813,0.40548,0.31294
1700499202585937,-9.492053,0.783146,2.336326,0.25713,0.37048,0.32694
1700499202593750,-9.506053,0.795146,2.345326,0.23513,0.39048,0.36194
1700499202601562,-9.511053,0.803146,2.363326,0.25813,0.41948,0.27894
1700499202609375,-9.508053,0.808146,2.365326,0.23913,0.53548,0.29694
1700499202617187,-9.506053,0.807146,2.370326,0.26113,0.46648,0.29494
1700499202625000,-9.511053,0.814146,2.392326,0.27313,0.48648,0.21594
1700499202632812,-9.504053,0.790146,2.378326,0.23713,0.52048,0.29794
1700499202640625,-9.503053,0.772146,2.360326,0.25413,0.52048,0.26494
1700499202648437,-9.492053,0.776146,2.354326,0.24013,0.51948,0.28094
1700499202656250,-9.469053,0.774146,2.320326,0.23213,0.47548,0.31594
1700499202664062,-9.453053,0.765146,2.329326,0.18113,0.54148,0.36594
1700499202671875,-9.444053,0.756146,2.324326,0.23213,0.52448,0.28394
1700499202679687,-9.451053,0.749146,2.331326,0.23313,0.49048,0.31494
1700499202687500,-9.442053,0.745146,2.347326,0.23713,0.47148,0.32994
1700499202695312,-9.447053,0.749146,2.342326,0.25113,0.39048,0.36194
1700499202703125,-9.449053,0.736146,2.342326,0.23313,0.42448,0.34694
1700499202710937,-9.459053,0.723146,2.338326,0.12913,0.41448,0.36694
1700499202718750,-9.462053,0.741146,2.347326,0.5513,0.42848,0.35094
1700499202726562,-9.480053,0.738146,2.347326,0.14713,0.40248,0.36094
1700499202734375,-9.485053,0.743146,2.363326,0.13313,0.40148,0.34494
1700499202742187,-9.485053,0.741146,2.336326,0.1487,0.40648,0.33294
1700499202750000,-9.494053,0.768146,2.356326,0.1013,0.44348,0.33494
1700499202757812,-9.488053,0.785146,2.405326,0.9613,0.48948,0.25194
1700499202765625,-9.487053,0.756146,2.401326,0.3413,0.50348,0.26794
1700499202773437,-9.475053,0.719146,2.329326,0.9487,0.39348,0.22194
1700499202781250,-9.467053,0.745146,2.318326,0.1187,0.42348,0.18794
1700499202789062,-9.478053,0.761146,2.372326,0.413,0.43848,0.25194
1700499202796875,-9.487053,0.747146,2.360326,0.687,0.43548,0.20194
1700499202804687,-9.491053,0.710146,2.302326,0.2887,0.48848,0.20494
1700499202812500,-9.457053,0.685146,2.282326,0.4187,0.50248,0.26794
1700499202820312,-9.394053,0.702146,2.288326,0.6687,0.42848,0.17494
1700499202828125,-9.376053,0.704146,2.353326,0.1587,0.52448,0.15794
1700499202835937,-9.385053,0.701146,2.367326,0.787,0.41948,0.23394
1700499202843750,-9.408053,0.702146,2.369326,0.713,0.28948,0.23394
1700499202851562,-9.446053,0.694146,2.369326,0.887,0.30548,0.26594
1700499202859375,-9.466053,0.712146,2.394326,0.213,0.27748,0.18694
1700499202867187,-9.471053,0.743146,2.403326,0.6387,0.36048,0.23794
1700499202875000,-9.480053,0.728146,2.396326,0.6187,0.39148,0.23694
1700499202882812,-9.512053,0.744146,2.367326,0.21987,0.37648,0.22294
1700499202890625,-9.516053,0.733146,2.344326,0.23487,0.39348,0.17494
1700499202898437,-9.502053,0.713146,2.344326,0.25387,0.37748,0.22394
1700499202906250,-9.482053,0.701146,2.347326,0.22487,0.39548,0.25694
1700499202914062,-9.475053,0.681146,2.342326,0.22987,0.40348,0.26894
1700499202921875,-9.461053,0.676146,2.342326,0.25287,0.40948,0.27194
1700499202929687,-9.455053,0.674146,2.345326,0.20187,0.45548,0.25494
1700499202937500,-9.445053,0.667146,2.356326,0.25087,0.40748,0.27194
1700499202945312,-9.447053,0.674146,2.369326,0.19487,0.39748,0.20894
1700499202953125,-9.443053,0.650146,2.385326,0.7787,0.40848,0.22094
1700499202960937,-9.441053,0.654146,2.380326,0.6387,0.39348,0.23794
1700499202968750,-9.432053,0.640146,2.381326,0.6987,0.40448,0.15494
1700499202976562,-9.445053,0.647146,2.399326,0.313,0.42348,0.21994
1700499202984375,-9.458053,0.650146,2.403326,0.1787,0.41148,0.20594
1700499202992187,-9.477053,0.663146,2.399326,0.113,0.44148,0.18794
1700499203000000,-9.508053,0.666146,2.401326,0.1587,0.45948,0.17294
1700499203007812,-9.533053,0.673146,2.428326,0.287,0.43548,0.8894
1700499203015625,-9.538053,0.695146,2.439326,0.413,0.53848,0.12394
1700499203023437,-9.536053,0.690146,2.460326,0.387,0.53348,0.13794
1700499203031250,-9.516053,0.690146,2.450326,0.5513,0.48648,0.10594
1700499203039062,-9.505053,0.708146,2.469326,0.5713,0.56748,0.8894
1700499203046875,-9.473053,0.692146,2.469326,0.2613,0.51848,0.10594
1700499203054687,-9.473053,0.701146,2.468326,0.10013,0.55348,0.8994
1700499203062500,-9.462053,0.694146,2.491326,0.7213,0.56748,0.10494
1700499203070312,-9.448053,0.694146,2.480326,0.6513,0.50748,0.9194
1700499203078125,-9.408053,0.677146,2.487326,0.387,0.51648,0.10494
1700499203085937,-9.356053,0.674146,2.455326,0.587,0.56748,0.12194
1700499203093750,-9.336053,0.698146,2.426326,0.10713,0.46748,0.8794
1700499203101562,-9.329053,0.701146,2.482326,0.16313,0.50448,0.10494
1700499203109375,-9.336053,0.701146,2.475326,0.13313,0.35748,0.8794
1700499203117187,-9.336053,0.694146,2.475326,0.24313,0.30848,0.10294
1700499203125000,-9.358053,0.684146,2.491326,0.11813,0.27548,0.8794
1700499203132812,-9.379053,0.690146,2.496326,0.17313,0.30248,0.8494
1700499203140625,-9.428053,0.711146,2.489326,0.21513,0.33848,0.10194
1700499203148437,-9.487053,0.716146,2.480326,0.26113,0.25748,0.8594
1700499203156250,-9.523053,0.726146,2.491326,0.25013,0.35248,0.13294
1700499203164062,-9.550053,0.740146,2.505326,0.26113,0.27248,0.18194
1700499203171875,-9.555053,0.740146,2.511326,0.26113,0.38748,0.14994
1700499203179687,-9.546053,0.740146,2.500326,0.24513,0.40348,0.15094
1700499203187500,-9.532053,0.724146,2.489326,0.22613,0.45348,0.21594
1700499203195312,-9.512053,0.721146,2.491326,0.23413,0.43248,0.19694
1700499203203125,-9.500053,0.723146,2.491326,0.21213,0.41948,0.21594
1700499203210937,-9.471053,0.717146,2.493326,0.23013,0.42948,0.20394
1700499203218750,-9.439053,0.707146,2.491326,0.22413,0.45548,0.21694
1700499203226562,-9.433053,0.709146,2.471326,0.20913,0.40448,0.26394
1700499203234375,-9.421053,0.707146,2.480326,0.24013,0.40648,0.21594
1700499203242187,-9.397053,0.710146,2.484326,0.26113,0.43448,0.21394
1700499203250000,-9.395053,0.719146,2.493326,0.24213,0.45248,0.26394
1700499203257812,-9.386053,0.706146,2.493326,0.26313,0.40048,0.24594
1700499203265625,-9.386053,0.715146,2.493326,0.24613,0.38448,0.29394
1700499203273437,-9.397053,0.717146,2.482326,0.24513,0.40248,0.24694
1700499203281250,-9.401053,0.704146,2.482326,0.24413,0.40348,0.21494
1700499203289062,-9.403053,0.702146,2.489326,0.23513,0.39248,0.26594
1700499203296875,-9.421053,0.702146,2.487326,0.24513,0.40248,0.24694
1700499203304687,-9.440053,0.716146,2.509326,0.24413,0.40148,0.27894
1700499203312500,-9.433053,0.722146,2.502326,0.23913,0.38948,0.26494
1700499203320312,-9.442053,0.736146,2.507326,0.24113,0.33948,0.29594
1700499203328125,-9.444053,0.732146,2.502326,0.23513,0.29348,0.29794
1700499203335937,-9.444053,0.740146,2.491326,0.24013,0.33848,0.32794
1700499203343750,-9.444053,0.741146,2.493326,0.23513,0.34348,0.26594
1700499203351562,-9.447053,0.729146,2.502326,0.24213,0.40348,0.27994
1700499203359375,-9.446053,0.736146,2.511326,0.23413,0.35948,0.31394
1700499203367187,-9.435053,0.709146,2.502326,0.24913,0.31748,0.24494
1700499203375000,-9.426053,0.709146,2.498326,0.23913,0.47148,0.21694
1700499203382812,-9.408053,0.709146,2.509326,0.23813,0.39148,0.20094
1700499203390625,-9.428053,0.705146,2.509326,0.23113,0.44548,0.15594
1700499203398437,-9.421053,0.694146,2.511326,0.24813,0.44448,0.21894
1700499203406250,-9.425053,0.685146,2.504326,0.23813,0.42348,0.20094
1700499203414062,-9.423053,0.687146,2.511326,0.25513,0.39148,0.16794
1700499203421875,-9.437053,0.685146,2.518326,0.24213,0.40648,0.13594
1700499203429687,-9.432053,0.694146,2.509326,0.25513,0.35848,0.15194
1700499203437500,-9.437053,0.705146,2.520326,0.19213,0.37448,0.16894
1700499203445312,-9.451053,0.721146,2.525326,0.20513,0.37748,0.10594
1700499203453125,-9.464053,0.725146,2.545326,0.24113,0.34048,0.19994
1700499203460937,-9.476053,0.730146,2.547326,0.25613,0.30748,0.21594
1700499203468750,-9.478053,0.728146,2.545326,0.23613,0.29548,0.15294
1700499203476562,-9.478053,0.730146,2.545326,0.26013,0.37248,0.10294
1700499203484375,-9.464053,0.725146,2.525326,0.19913,0.38748,0.8694
1700499203492187,-9.455053,0.716146,2.511326,0.24313,0.29148,0.10294
1700499203500000,-9.446053,0.711146,2.500326,0.24913,0.35348,0.8494
1700499203507812,-9.433053,0.709146,2.509326,0.22613,0.35748,0.15194
1700499203515625,-9.421053,0.709146,2.502326,0.25613,0.34248,0.11994
1700499203523437,-9.425053,0.685146,2.507326,0.25613,0.40848,0.8794
1700499203531250,-9.428053,0.686146,2.507326,0.23513,0.30348,0.9994
1700499203539062,-9.426053,0.684146,2.514326,0.18413,0.32248,0.8594
1700499203546875,-9.426053,0.689146,2.511326,0.26213,0.32248,0.11794
1700499203554687,-9.432053,0.692146,2.509326,0.23313,0.36448,0.10694
1700499203562500,-9.426053,0.696146,2.534326,0.25213,0.31248,0.13694
1700499203570312,-9.426053,0.720146,2.511326,0.15613,0.36248,0.12294
1700499203578125,-9.430053,0.712146,2.511326,0.12413,0.31448,0.9094
1700499203585937,-9.430053,0.698146,2.491326,0.17313,0.37948,0.7494
1700499203593750,-9.433053,0.705146,2.482326,0.16513,0.27548,0.10394
1700499203601562,-9.440053,0.725146,2.514326,0.16713,0.30648,0.8694
1700499203609375,-9.451053,0.714146,2.545326,0.14713,0.29348,0.10494
1700499203617187,-9.457053,0.681146,2.480326,0.5513,0.29148,0.10494
1700499203625000,-9.441053,0.680146,2.455326,0.987,0.22748,0.15394
1700499203632812,-9.446053,0.716146,2.504326,0.1487,0.29548,0.17194
1700499203640625,-9.446053,0.727146,2.523326,0.2513,0.29048,0.13694
1700499203648437,-9.446053,0.707146,2.464326,0.5213,0.21048,0.16894
1700499203656250,-9.423053,0.680146,2.421326,0.2413,0.20948,0.12094
1700499203664062,-9.385053,0.680146,2.417326,0.3513,0.29248,0.23494
1700499203671875,-9.354053,0.681146,2.430326,0.587,0.24048,0.13694
1700499203679687,-9.371053,0.680146,2.486326,0.9713,0.21248,0.20194
1700499203687500,-9.391053,0.671146,2.489326,0.25313,0.9748,0.26394
1700499203695312,-9.430053,0.676146,2.471326,0.21313,0.452,0.21294
1700499203703125,-9.457053,0.692146,2.475326,0.23013,0.4348,0.24494
1700499203710937,-9.458053,0.718146,2.475326,0.10713,0.7448,0.21394
1700499203718750,-9.462053,0.725146,2.477326,0.2587,0.9548,0.21794
1700499203726562,-9.482053,0.723146,2.475326,0.913,0.15848,0.18394
1700499203734375,-9.478053,0.714146,2.453326,0.187,0.13948,0.16694
1700499203742187,-9.475053,0.699146,2.435326,0.313,0.21248,0.17094
1700499203750000,-9.455053,0.676146,2.412326,0.587,0.17548,0.16894
1700499203757812,-9.441053,0.669146,2.401326,0.987,0.19248,0.21794
1700499203765625,-9.423053,0.649146,2.385326,0.2413,0.17548,0.23294
1700499203773437,-9.427053,0.644146,2.390326,0.9413,0.18648,0.21294
1700499203781250,-9.432053,0.667146,2.387326,0.8913,0.10848,0.23094
1700499203789062,-9.441053,0.669146,2.390326,0.2987,0.12948,0.26694
1700499203796875,-9.446053,0.678146,2.401326,0.4713,0.13748,0.24594
1700499203804687,-9.450053,0.692146,2.394326,0.10013,0.11048,0.26394
1700499203812500,-9.446053,0.689146,2.399326,0.7113,0.9348,0.23194
1700499203820312,-9.450053,0.694146,2.410326,0.14713,0.7848,0.24694
1700499203828125,-9.455053,0.689146,2.390326,0.10413,0.12448,0.26294
1700499203835937,-9.450053,0.694146,2.372326,0.24513,0.7748,0.14894
1700499203843750,-9.471053,0.709146,2.354326,0.26213,0.9248,0.21294
1700499203851562,-9.482053,0.707146,2.356326,0.24313,0.9348,0.26194
1700499203859375,-9.493053,0.708146,2.342326,0.23713,0.14848,0.13594
1700499203867187,-9.513053,0.692146,2.345326,0.24713,0.12548,0.16494
1700499203875000,-9.527053,0.688146,2.363326,0.24113,0.14548,0.15094
1700499203882812,-9.525053,0.695146,2.374326,0.26113,0.9448,0.13294
1700499203890625,-9.515053,0.690146,2.360326,0.24213,0.14548,0.10194
1700499203898437,-9.522053,0.700146,2.365326,0.25313,0.9948,0.16794
1700499203906250,-9.514053,0.715146,2.358326,0.24413,0.16048,0.11794
1700499203914062,-9.518053,0.717146,2.347326,0.26113,0.15948,0.11694
1700499203921875,-9.507053,0.712146,2.347326,0.28813,0.21148,0.13494
1700499203929687,-9.498053,0.708146,2.358326,0.25913,0.27548,0.6994
1700499203937500,-9.446053,0.693146,2.320326,0.21813,0.27148,0.6894
1700499203945312,-9.422053,0.713146,2.291326,0.26013,0.33948,0.10194
1700499203953125,-9.442053,0.707146,2.320326,0.24713,0.33848,0.8594
1700499203960937,-9.459053,0.696146,2.309326,0.27513,0.25948,0.10194
1700499203968750,-9.464053,0.705146,2.349326,0.30313,0.27648,0.15094
1700499203976562,-9.484053,0.714146,2.376326,0.32013,0.29148,0.14994
1700499203984375,-9.482053,0.725146,2.369326,0.24213,0.25848,0.18294
1700499203992187,-9.494053,0.750146,2.354326,0.26613,0.30348,0.11594
1700499204000000,-9.492053,0.752146,2.331326,0.24613,0.28948,0.14994
1700499204007812,-9.503053,0.759146,2.336326,0.26013,0.33948,0.13494
1700499204015625,-9.514053,0.750146,2.347326,0.25713,0.40648,0.16794
1700499204023437,-9.512053,0.734146,2.342326,0.24513,0.38748,0.18294
1700499204031250,-9.511053,0.724146,2.324326,0.20713,0.37648,0.13694
1700499204039062,-9.503053,0.721146,2.315326,0.26113,0.35448,0.16594
1700499204046875,-9.493053,0.723146,2.324326,0.20813,0.35848,0.16894
1700499204054687,-9.498053,0.725146,2.345326,0.24513,0.38748,0.16694
1700499204062500,-9.496053,0.746146,2.342326,0.25613,0.43948,0.18394
1700499204070312,-9.485053,0.748146,2.324326,0.23613,0.37648,0.23394
1700499204078125,-9.499053,0.750146,2.309326,0.24213,0.38848,0.19994
1700499204085937,-9.492053,0.746146,2.322326,0.23713,0.40948,0.16894
1700499204093750,-9.487053,0.741146,2.336326,0.19113,0.42548,0.12194
1700499204101562,-9.480053,0.736146,2.347326,0.26013,0.40548,0.8694
1700499204109375,-9.480053,0.741146,2.340326,0.24513,0.47048,0.5494
1700499204117187,-9.469053,0.734146,2.336326,0.26113,0.42048,0.13394
1700499204125000,-9.458053,0.729146,2.338326,0.13413,0.51948,0.10494
1700499204132812,-9.440053,0.727146,2.331326,0.22613,0.47248,0.11994
1700499204140625,-9.440053,0.725146,2.322326,0.25613,0.50448,0.15294
1700499204148437,-9.449053,0.731146,2.315326,0.22813,0.42148,0.11894
1700499204156250,-9.478053,0.726146,2.324326,0.23613,0.45948,0.12194
1700499204164062,-9.480053,0.721146,2.340326,0.27013,0.45648,0.18494
1700499204171875,-9.498053,0.732146,2.376326,0.18213,0.56748,0.13594
1700499204179687,-9.503053,0.735146,2.360326,0.23613,0.40848,0.21794
1700499204187500,-9.503053,0.725146,2.345326,0.21313,0.45248,0.18394
1700499204195312,-9.491053,0.732146,2.342326,0.17213,0.53948,0.21894
1700499204203125,-9.484053,0.723146,2.340326,0.25213,0.57248,0.15394
1700499204210937,-9.464053,0.721146,2.345326,0.20413,0.65448,0.15594
1700499204218750,-9.451053,0.709146,2.338326,0.26413,0.54848,0.14994
1700499204226562,-9.426053,0.693146,2.351326,0.23013,0.56748,0.8794
1700499204234375,-9.428053,0.682146,2.356326,0.14913,0.56848,0.10494
1700499204242187,-9.441053,0.683146,2.365326,0.19213,0.60248,0.16994
1700499204250000,-9.448053,0.685146,2.347326,0.14713,0.51948,0.20194
1700499204257812,-9.471053,0.707146,2.360326,0.13213,0.53748,0.10594
1700499204265625,-9.498053,0.732146,2.376326,0.22713,0.50348,0.11994
1700499204273437,-9.514053,0.735146,2.399326,0.16513,0.48748,0.10394
1700499204281250,-9.516053,0.739146,2.408326,0.7313,0.60048,0.8994
1700499204289062,-9.523053,0.750146,2.403326,0.5913,0.59848,0.10494
1700499204296875,-9.530053,0.757146,2.430326,0.3013,0.58148,0.8894
1700499204304687,-9.517053,0.752146,2.451326,0.813,0.68348,0.7494
1700499204312500,-9.505053,0.743146,2.459326,0.5313,0.70148,0.4294
1700499204320312,-9.489053,0.744146,2.480326,0.0,0.68848,0.4594
1700499204328125,-9.462053,0.736146,2.493326,0.613,0.71748,0.7594
1700499204335937,-9.438053,0.738146,2.487326,0.587,0.69848,0.5894
1700499204343750,-9.420053,0.738146,2.498326,0.813,0.71648,0.4294
1700499204351562,-9.384053,0.737146,2.462326,0.387,0.66448,0.8994
1700499204359375,-9.352053,0.741146,2.466326,0.413,0.65348,0.7694
1700499204367187,-9.348053,0.732146,2.468326,0.987,0.65148,0.10794
1700499204375000,-9.347053,0.726146,2.464326,0.3213,0.60648,0.9294
1700499204382812,-9.370053,0.726146,2.466326,0.6213,0.60848,0.6094
1700499204390625,-9.390053,0.717146,2.477326,0.2487,0.58648,0.7594
1700499204398437,-9.433053,0.718146,2.509326,0.7613,0.54848,0.11994
1700499204406250,-9.458053,0.734146,2.536326,0.1213,0.43448,0.13694
1700499204414062,-9.487053,0.741146,2.552326,0.813,0.51948,0.10594
1700499204421875,-9.497053,0.758146,2.550326,0.1587,0.56348,0.10394
1700499204429687,-9.483053,0.757146,2.556326,0.4687,0.55748,0.12594
1700499204437500,-9.465053,0.759146,2.561326,0.9087,0.62148,0.6194
1700499204445312,-9.456053,0.743146,2.577326,0.1287,0.60348,0.14094
1700499204453125,-9.435053,0.720146,2.575326,0.1787,0.56448,0.13694
1700499204460937,-9.422053,0.709146,2.570326,0.16187,0.55048,0.9194
1700499204468750,-9.413053,0.726146,2.579326,0.4787,0.44948,0.10494
1700499204476562,-9.408053,0.722146,2.626326,0.2013,0.57148,0.9194
1700499204484375,-9.385053,0.686146,2.577326,0.14987,0.43848,0.10794
1700499204492187,-9.363053,0.697146,2.536326,0.27987,0.44148,0.12694
1700499204500000,-9.352053,0.737146,2.545326,0.18087,0.45448,0.10894
1700499204507812,-9.361053,0.737146,2.597326,0.1013,0.33748,0.16894
1700499204515625,-9.368053,0.726146,2.581326,0.687,0.35548,0.12194
1700499204523437,-9.372053,0.704146,2.525326,0.1987,0.25548,0.15294
1700499204531250,-9.358053,0.699146,2.527326,0.3787,0.30648,0.12194
1700499204539062,-9.341053,0.723146,2.513326,0.1187,0.27748,0.12294
1700499204546875,-9.352053,0.713146,2.565326,0.513,0.11448,0.8894
1700499204554687,-9.378053,0.700146,2.583326,0.11613,0.13048,0.5594
1700499204562500,-9.412053,0.700146,2.586326,0.3813,0.9648,0.11994
1700499204570312,-9.448053,0.709146,2.583326,0.7413,0.9348,0.10294
1700499204578125,-9.460053,0.741146,2.585326,0.2213,0.11448,0.2494
1700499204585937,-9.458053,0.745146,2.599326,0.3887,0.6348,0.5694
1700499204593750,-9.478053,0.743146,2.592326,0.387,0.7748,0.7094
1700499204601562,-9.483053,0.743146,2.556326,0.11587,0.14448,0.7394
1700499204609375,-9.476053,0.730146,2.536326,0.7287,0.19448,0.13794
1700499204617187,-9.460053,0.734146,2.554326,0.2487,0.17848,0.12194
1700499204625000,-9.439053,0.718146,2.554326,0.713,0.14548,0.8894
1700499204632812,-9.421053,0.707146,2.538326,0.2587,0.24348,0.15394
1700499204640625,-9.417053,0.706146,2.525326,0.4687,0.17148,0.13494
1700499204648437,-9.403053,0.705146,2.511326,0.10787,0.16448,0.13994
1700499204656250,-9.392053,0.691146,2.529326,0.1887,0.18348,0.22094
1700499204664062,-9.385053,0.689146,2.529326,0.1587,0.13148,0.25094
1700499204671875,-9.392053,0.686146,2.532326,0.713,0.14348,0.20094
1700499204679687,-9.394053,0.700146,2.523326,0.5313,0.17648,0.24894
1700499204687500,-9.408053,0.707146,2.541326,0.3713,0.16048,0.23294
1700499204695312,-9.421053,0.720146,2.552326,0.6713,0.17948,0.13694
1700499204703125,-9.440053,0.738146,2.565326,0.19213,0.17948,0.15194
1700499204710937,-9.458053,0.736146,2.565326,0.15913,0.16448,0.12094
1700499204718750,-9.469053,0.743146,2.567326,0.15713,0.18248,0.15394
1700499204726562,-9.463053,0.765146,2.565326,0.10113,0.16248,0.10394
1700499204734375,-9.463053,0.770146,2.545326,0.17613,0.24548,0.15294
1700499204742187,-9.461053,0.783146,2.550326,0.8613,0.32248,0.18494
1700499204750000,-9.458053,0.781146,2.543326,0.6213,0.31148,0.21994
1700499204757812,-9.456053,0.778146,2.511326,0.1913,0.37448,0.21894
1700499204765625,-9.447053,0.759146,2.520326,0.10813,0.32948,0.18794
1700499204773437,-9.447053,0.763146,2.531326,0.3213,0.31048,0.25194
1700499204781250,-9.458053,0.749146,2.518326,0.5213,0.37348,0.20194
1700499204789062,-9.476053,0.743146,2.541326,0.6613,0.40548,0.26694
1700499204796875,-9.476053,0.719146,2.552326,0.19313,0.40648,0.21694
1700499204804687,-9.432053,0.700146,2.522326,0.11313,0.39048,0.21794
1700499204812500,-9.413053,0.731146,2.475326,0.18813,0.44148,0.26694
1700499204820312,-9.404053,0.740146,2.518326,0.25513,0.37348,0.26394
1700499204828125,-9.393053,0.753146,2.518326,0.24813,0.39348,0.29894
1700499204835937,-9.397053,0.758146,2.516326,0.18313,0.34748,0.23594
1700499204843750,-9.407053,0.777146,2.559326,0.24413,0.28848,0.22994
1700499204851562,-9.411053,0.780146,2.550326,0.19413,0.37148,0.24794
1700499204859375,-9.409053,0.795146,2.538326,0.12813,0.25948,0.26594
1700499204867187,-9.421053,0.804146,2.514326,0.14713,0.25748,0.27994
1700499204875000,-9.425053,0.793146,2.536326,0.9913,0.30748,0.21694
1700499204882812,-9.404053,0.778146,2.529326,0.9813,0.30948,0.20194
1700499204890625,-9.413053,0.753146,2.509326,0.2487,0.29148,0.18594
1700499204898437,-9.413053,0.744146,2.496326,0.5513,0.25748,0.21694
1700499204906250,-9.409053,0.746146,2.493326,0.6713,0.38948,0.23394
1700499204914062,-9.400053,0.744146,2.493326,0.613,0.30548,0.26594
1700499204921875,-9.413053,0.742146,2.480326,0.313,0.34148,0.25194
1700499204929687,-9.420053,0.745146,2.473326,0.1787,0.39348,0.26994
1700499204937500,-9.413053,0.744146,2.475326,0.2413,0.37048,0.24994
1700499204945312,-9.433053,0.742146,2.489326,0.613,0.32248,0.26594
1700499204953125,-9.449053,0.747146,2.491326,0.3113,0.29548,0.23594
1700499204960937,-9.449053,0.754146,2.486326,0.5213,0.37348,0.20194
1700499204968750,-9.456053,0.769146,2.493326,0.5213,0.37348,0.23394
1700499204976562,-9.440053,0.778146,2.498326,0.17413,0.34348,0.21794
1700499204984375,-9.445053,0.776146,2.502326,0.5013,0.37448,0.21894
1700499204992187,-9.447053,0.780146,2.502326,0.4513,0.38448,0.16794
1700499205000000,-9.438053,0.781146,2.500326,0.14013,0.34648,0.15494
1700499205007812,-9.440053,0.765146,2.502326,0.8713,0.33948,0.15294
1700499205015625,-9.420053,0.751146,2.502326,0.13013,0.39148,0.13794
1700499205023437,-9.411053,0.749146,2.498326,0.13013,0.40748,0.12194
1700499205031250,-9.409053,0.755146,2.480326,0.13113,0.38948,0.16894
1700499205039062,-9.409053,0.758146,2.473326,0.10913,0.41048,0.18794
1700499205046875,-9.409053,0.755146,2.477326,0.17413,0.37548,0.21794
1700499205054687,-9.440053,0.747146,2.498326,0.23913,0.37348,0.24794
1700499205062500,-9.447053,0.752146,2.518326,0.23513,0.47548,0.15494
1700499205070312,-9.460053,0.759146,2.511326,0.18913,0.40848,0.23394
1700499205078125,-9.463053,0.745146,2.509326,0.22913,0.33748,0.21494
1700499205085937,-9.462053,0.743146,2.511326,0.22413,0.45548,0.23294
1700499205093750,-9.453053,0.738146,2.493326,0.21313,0.43648,0.19994
1700499205101562,-9.442053,0.747146,2.480326,0.24713,0.38448,0.24594
1700499205109375,-9.447053,0.752146,2.475326,0.22013,0.29448,0.24894
1700499205117187,-9.427053,0.765146,2.468326,0.23513,0.34448,0.20194
1700499205125000,-9.429053,0.771146,2.466326,0.25913,0.33748,0.26294
1700499205132812,-9.431053,0.763146,2.473326,0.25013,0.27948,0.24994
1700499205140625,-9.436053,0.751146,2.482326,0.24413,0.28848,0.26294
1700499205148437,-9.424053,0.742146,2.484326,0.17413,0.29448,0.20194
1700499205156250,-9.428053,0.745146,2.500326,0.15413,0.31348,0.23494
1700499205164062,-9.419053,0.738146,2.489326,0.12613,0.22848,0.26594
1700499205171875,-9.415053,0.738146,2.471326,0.14113,0.31148,0.18694
1700499205179687,-9.433053,0.740146,2.491326,0.19213,0.22748,0.23194
1700499205187500,-9.439053,0.741146,2.479326,0.17913,0.30048,0.26894
1700499205195312,-9.440053,0.738146,2.475326,0.17113,0.31148,0.25094
1700499205203125,-9.440053,0.734146,2.471326,0.17113,0.29548,0.25094
1700499205210937,-9.444053,0.738146,2.464326,0.11313,0.34148,0.23394
1700499205218750,-9.458053,0.732146,2.464326,0.9913,0.28948,0.32894
1700499205226562,-9.460053,0.718146,2.444326,0.14613,0.34048,0.24894
1700499205234375,-9.457053,0.723146,2.439326,0.4813,0.40848,0.21994
1700499205242187,-9.458053,0.718146,2.437326,0.11913,0.30548,0.21594
1700499205250000,-9.448053,0.714146,2.430326,0.6513,0.35848,0.23494
1700499205257812,-9.433053,0.704146,2.428326,0.10313,0.40348,0.20094
1700499205265625,-9.441053,0.703146,2.423326,0.12413,0.31148,0.28294
1700499205273437,-9.437053,0.703146,2.434326,0.15213,0.31448,0.23594
1700499205281250,-9.430053,0.707146,2.455326,0.19513,0.37148,0.23194
1700499205289062,-9.435053,0.721146,2.450326,0.2813,0.29648,0.26894
1700499205296875,-9.446053,0.736146,2.441326,0.1713,0.17948,0.25094
1700499205304687,-9.446053,0.734146,2.444326,0.5013,0.17748,0.26594
1700499205312500,-9.444053,0.725146,2.428326,0.4013,0.12648,0.21594
1700499205320312,-9.451053,0.725146,2.430326,0.887,0.22548,0.18594
1700499205328125,-9.442053,0.722146,2.441326,0.613,0.30548,0.26594
1700499205335937,-9.448053,0.703146,2.421326,0.1687,0.27848,0.25294
1700499205343750,-9.432053,0.709146,2.394326,0.0,0.29548,0.18794
1700499205351562,-9.435053,0.723146,2.439326,0.1387,0.31048,0.20394
1700499205359375,-9.453053,0.712146,2.482326,0.413,0.29248,0.20294
1700499205367187,-9.434053,0.671146,2.423326,0.2187,0.22448,0.13694
1700499205375000,-9.419053,0.673146,2.365326,0.13487,0.15948,0.25094
1700499205382812,-9.441053,0.703146,2.396326,0.2787,0.12848,0.28294
1700499205390625,-9.457053,0.703146,2.437326,0.787,0.10948,0.26494
1700499205398437,-9.475053,0.708146,2.378326,0.413,0.11248,0.24994
1700499205406250,-9.471053,0.690146,2.390326,0.787,0.17448,0.26494
1700499205414062,-9.448053,0.671146,2.385326,0.813,0.12548,0.24894
1700499205421875,-9.432053,0.669146,2.442326,0.5287,0.17348,0.23294
1700499205429687,-9.425053,0.667146,2.457326,0.3887,0.17548,0.23294
1700499205437500,-9.425053,0.676146,2.464326,0.687,0.19148,0.18494
1700499205445312,-9.443053,0.676146,2.484326,0.813,0.14248,0.21594
1700499205453125,-9.468053,0.661146,2.475326,0.6087,0.6548,0.21894
1700499205460937,-9.461053,0.666146,2.450326,0.12687,0.21448,0.23794
1700499205468750,-9.465053,0.653146,2.441326,0.24387,0.17048,0.20894
1700499205476562,-9.479053,0.663146,2.412326,0.23087,0.12848,0.25294
1700499205484375,-9.479053,0.661146,2.403326,0.22787,0.12548,0.26694
1700499205492187,-9.481053,0.652146,2.403326,0.18087,0.17448,0.26694
1700499205500000,-9.483053,0.639146,2.401326,0.18287,0.20848,0.25194
1700499205507812,-9.466053,0.649146,2.408326,0.16287,0.14048,0.26594
1700499205515625,-9.456053,0.652146,2.408326,0.12387,0.17848,0.25194
1700499205523437,-9.443053,0.641146,2.401326,0.12087,0.19448,0.20294
1700499205531250,-9.443053,0.638146,2.417326,0.15287,0.14648,0.17194
1700499205539062,-9.449053,0.625146,2.421326,0.11787,0.12548,0.24994
1700499205546875,-9.463053,0.612146,2.426326,0.2787,0.12848,0.26594
1700499205554687,-9.467053,0.621146,2.423326,0.613,0.14348,0.21694
1700499205562500,-9.485053,0.628146,2.437326,0.587,0.12648,0.18394
1700499205570312,-9.497053,0.639146,2.432326,0.813,0.16048,0.12094
1700499205578125,-9.494053,0.637146,2.423326,0.987,0.17848,0.15394
1700499205585937,-9.492053,0.641146,2.410326,0.613,0.25848,0.21794
1700499205593750,-9.483053,0.643146,2.414326,0.3913,0.22548,0.15294
1700499205601562,-9.477053,0.656146,2.435326,0.2513,0.24048,0.15294
1700499205609375,-9.472053,0.641146,2.423326,0.1187,0.24448,0.15494
1700499205617187,-9.454053,0.632146,2.421326,0.8413,0.32548,0.8894
1700499205625000,-9.452053,0.634146,2.423326,0.11213,0.35948,0.17094
1700499205632812,-9.458053,0.632146,2.421326,0.5213,0.32548,0.13794
1700499205640625,-9.461053,0.634146,2.419326,0.16213,0.30948,0.12094
1700499205648437,-9.461053,0.634146,2.421326,0.23913,0.35848,0.20094
1700499205656250,-9.459053,0.649146,2.423326,0.25913,0.40348,0.21494
1700499205664062,-9.459053,0.665146,2.448326,0.24113,0.34048,0.19994
1700499205671875,-9.459053,0.654146,2.446326,0.24213,0.39048,0.10394
1700499205679687,-9.420053,0.620146,2.430326,0.24113,0.39148,0.8794
1700499205687500,-9.362053,0.624146,2.428326,0.16713,0.40348,0.11894
1700499205695312,-9.340053,0.650146,2.432326,0.28913,0.35748,0.11894
1700499205703125,-9.375053,0.646146,2.439326,0.31913,0.29348,0.13494
1700499205710937,-9.398053,0.651146,2.408326,0.34013,0.25648,0.16494
1700499205718750,-9.430053,0.651146,2.459326,0.30513,0.25948,0.16594
1700499205726562,-9.461053,0.667146,2.505326,0.27513,0.30648,0.18194
1700499205734375,-9.495053,0.704146,2.527326,0.29113,0.29948,0.23494
1700499205742187,-9.522053,0.702146,2.504326,0.25413,0.35848,0.23294
1700499205750000,-9.533053,0.689146,2.484326,0.28413,0.37648,0.18494
