time,Acceleration X (m/s^2),Acceleration Y (m/s^2),Acceleration Z (m/s^2),Angular Velocity X (rad/s),Angular Velocity Y (rad/s),Angular Velocity Z (rad/s)
1700499502000000,-9.129598,-0.132098,,,,
1700499502007812,-9.124598,0.212685,0.602568,0.16931,0.192459,0.143698
1700499502015625,-9.219598,0.242685,0.503568,0.17021,0.198059,0.151398
1700499502023437,-9.352598,0.229685,0.420568,0.15421,0.204559,0.157998
1700499502031250,-9.453598,0.244685,0.359568,0.13001,0.212759,0.184098
1700499502039062,-9.527598,0.256685,0.314568,0.10691,0.213459,0.201798
1700499502054687,-9.595598,0.245685,0.236568,0.6921,0.174459,0.215298
1700499502062500,-9.576598,0.219685,0.157568,0.3541,0.139759,0.219298
1700499502070312,-9.556598,0.207685,0.51568,0.1681,0.120459,0.221198
1700499502078125,-9.499598,0.200685,0.30432,0.91,0.109459,0.220398
1700499502101562,-9.527598,0.222685,0.160432,0.1749,0.108659,0.186298
1700499502109375,-9.634598,0.171685,0.212432,0.929,0.116759,0.173298
1700499502117187,-9.768598,0.117685,0.214432,0.1129,0.111359,0.162298
1700499502125000,-9.961598,0.96685,0.209432,0.1629,0.111959,0.145898
1700499502132812,-10.144598,0.45685,0.207432,0.3229,0.100159,0.133498
1700499502140625,-10.279598,0.16685,0.196432,0.4719,0.90659,0.120598
1700499502148437,-10.335598,0.17685,0.156432,0.6639,0.80559,0.116198
1700499502156250,-10.342598,0.26685,0.61432,0.9099,0.56459,0.113298
1700499502164062,-10.345598,0.51685,0.32432,0.12269,0.33459,0.113898
1700499502171875,-10.302598,0.66685,0.16432,0.14349,0.3859,0.115998
1700499502179687,-10.225598,0.35685,0.28568,0.16969,0.23541,0.111498
1700499502187500,-10.169598,0.11685,0.118568,0.18319,0.35641,0.107198
1700499502195312,-10.87598,0.18315,0.177568,0.21389,0.73841,0.99998
1700499502203125,-9.954598,0.32315,0.183568,0.22409,0.88241,0.87198
1700499502210937,-9.804598,0.43315,0.174568,0.23819,0.114241,0.89098
1700499502218750,-9.711598,0.49315,0.129568,0.24389,0.120741,0.68198
1700499502226562,-9.630598,0.47315,0.41568,0.24349,0.139541,0.63898
1700499502234375,-9.581598,0.42315,0.3568,0.24959,0.147841,0.49498
1700499502242187,-9.594598,0.70315,0.12568,0.24929,0.142941,0.39798
1700499502250000,-9.634598,0.110315,0.5432,0.25059,0.149241,0.41298
1700499502257812,-9.717598,0.113315,0.30568,0.25649,0.150841,0.25298
1700499502265625,-9.812598,0.98315,0.89568,0.25329,0.160741,0.14098
1700499502273437,-9.909598,0.79315,0.150568,0.24319,0.180041,0.2598
1700499502281250,-9.961598,0.67315,0.204568,0.25539,0.199641,0.10002
1700499502289062,-9.947598,0.54315,0.202568,0.25369,0.217641,0.22802
1700499502296875,-9.882598,0.46315,0.222568,0.25509,0.224441,0.42002
1700499502304687,-9.833598,0.33315,0.296568,0.26449,0.234241,0.43402
1700499502312500,-9.810598,0.34315,0.339568,0.26609,0.244241,0.56202
1700499502320312,-9.786598,0.47315,0.357568,0.27999,0.237741,0.62502
1700499502328125,-9.762598,0.94315,0.415568,0.27829,0.242441,0.60902
1700499502335937,-9.782598,0.121315,0.463568,0.27859,0.231341,0.65702
1700499502343750,-9.770598,0.163315,0.496568,0.28169,0.228241,0.75302
1700499502351562,-9.736598,0.203315,0.512568,0.27949,0.208341,0.80402
1700499502359375,-9.762598,0.236315,0.508568,0.29479,0.198341,0.86902
1700499502367187,-9.789598,0.249315,0.501568,0.30019,0.193741,0.80202
1700499502375000,-9.745598,0.217315,0.544568,0.29459,0.193241,0.83702
1700499502382812,-9.649598,0.171315,0.623568,0.30249,0.188541,0.90102
1700499502390625,-9.555598,0.140315,0.692568,0.29929,0.180341,0.91802
1700499502398437,-9.454598,0.103315,0.710568,0.29279,0.178741,0.98302
1700499502406250,-9.338598,0.101315,0.706568,0.27939,0.168541,0.111602
1700499502414062,-9.243598,0.125315,0.654568,0.27669,0.162441,0.117902
1700499502421875,-9.186598,0.139315,0.627568,0.26999,0.149441,0.132602
1700499502429687,-9.177598,0.168315,0.614568,0.26019,0.142641,0.132902
1700499502437500,-9.235598,0.191315,0.658568,0.24969,0.126841,0.139302
1700499502445312,-9.318598,0.185315,0.663568,0.24599,0.115141,0.142802
1700499502453125,-9.364598,0.143315,0.631568,0.23179,0.84141,0.149502
1700499502460937,-9.443598,0.112315,0.571568,0.21469,0.71241,0.146502
1700499502468750,-9.526598,0.109315,0.526568,0.18549,0.54241,0.140902
1700499502476562,-9.600598,0.132315,0.535568,0.17339,0.21841,0.139402
1700499502484375,-9.649598,0.147315,0.474568,0.15709,0.16059,0.138402
1700499502492187,-9.737598,0.144315,0.379568,0.14019,0.35459,0.133802
1700499502500000,-9.834598,0.107315,0.312568,0.12389,0.49059,0.123102
1700499502507812,-9.928598,0.41315,0.215568,0.10189,0.62159,0.120202
1700499502515625,-9.976598,0.13685,0.80568,0.9009,0.70859,0.122302
1700499502523437,-9.995598,0.76685,0.27432,0.5789,0.85059,0.117602
1700499502531250,-9.961598,0.143685,0.133432,0.4339,0.89159,0.114202
1700499502539062,-9.949598,0.204685,0.241432,0.939,0.88259,0.115002
1700499502546875,-9.962598,0.278685,0.372432,0.611,0.91159,0.119902
1700499502554687,-9.972598,0.360685,0.491432,0.2511,0.92959,0.120202
1700499502562500,-9.965598,0.493685,0.540432,0.4091,0.110859,0.122102
1700499502570312,-9.987598,0.608685,0.549432,0.5171,0.115659,0.122202
1700499502578125,-10.13598,0.699685,0.576432,0.5391,0.114459,0.122402
1700499502585937,-10.4598,0.735685,0.630432,0.7331,0.116959,0.122302
1700499502593750,-9.984598,0.730685,0.707432,0.8031,0.115859,0.119402
1700499502601562,-9.945598,0.685685,0.768432,0.8741,0.112359,0.103202
1700499502609375,-9.913598,0.611685,0.790432,0.9611,0.113059,0.98902
1700499502617187,-9.901598,0.571685,0.840432,0.10101,0.96059,0.87202
1700499502625000,-9.860598,0.551685,0.921432,0.10391,0.84659,0.77502
1700499502632812,-9.837598,0.532685,0.959432,0.11191,0.83259,0.68002
1700499502640625,-9.767598,0.509685,-1.22432,0.12411,0.83159,0.58402
1700499502648437,-9.714598,0.522685,-1.99432,0.12401,0.84759,0.53602
1700499502656250,-9.649598,0.583685,-1.160432,0.13241,0.74459,0.46902
1700499502664062,-9.610598,0.673685,-1.182432,0.14241,0.76659,0.34402
1700499502671875,-9.617598,0.784685,-1.229432,0.15311,0.70159,0.24802
1700499502679687,-9.598598,0.875685,-1.243432,0.15431,0.58559,0.21502
1700499502687500,-9.590598,0.959685,-1.209432,0.16401,0.42459,0.20002
1700499502695312,-9.557598,0.996685,-1.184432,0.17351,0.35959,0.18502
1700499502703125,-9.509598,0.971685,-1.218432,0.17271,0.17559,0.14902
1700499502710937,-9.468598,0.935685,-1.245432,0.18341,0.9459,0.2102
1700499502718750,-9.474598,0.886685,-1.202432,0.18001,0.6059,0.1298
1700499502726562,-9.537598,0.847685,-1.164432,0.17281,0.9641,0.9198
1700499502734375,-9.577598,0.828685,-1.169432,0.17001,0.16841,0.22498
1700499502742187,-9.522598,0.787685,-1.148432,0.15791,0.29441,0.25698
1700499502750000,-9.537598,0.710685,-1.72432,0.15311,0.40941,0.25898
1700499502757812,-9.556598,0.650685,-1.65432,0.14291,0.68941,0.35998
1700499502765625,-9.526598,0.592685,-1.56432,0.14291,0.68941,0.34398
1700499502773437,-9.471598,0.547685,0.979432,0.12931,0.83341,0.35998
1700499502781250,-9.449598,0.533685,0.925432,0.13361,0.91741,0.34598
1700499502789062,-9.440598,0.551685,0.910432,0.13451,0.90541,0.36398
1700499502796875,-9.415598,0.568685,0.887432,0.14571,0.96941,0.34598
1700499502804687,-9.415598,0.539685,0.815432,0.14591,0.96841,0.34498
1700499502812500,-9.457598,0.525685,0.768432,0.12951,0.110341,0.34998
1700499502820312,-9.505598,0.552685,0.817432,0.11591,0.98541,0.36598
1700499502828125,-9.504598,0.614685,0.757432,0.12661,0.103641,0.34898
1700499502835937,-9.511598,0.630685,0.572432,0.14621,0.106341,0.36098
1700499502843750,-9.561598,0.533685,0.504432,0.14611,0.91841,0.32798
1700499502851562,-9.672598,0.421685,0.401432,0.14841,0.83541,0.13298
1700499502859375,-9.813598,0.384685,0.238432,0.14891,0.73441,0.9898
1700499502867187,-9.944598,0.335685,0.106432,0.13661,0.63041,0.4098
1700499502875000,-10.34598,0.339685,0.6568,0.13121,0.49441,0.1102
1700499502882812,-10.87598,0.364685,0.112568,0.12821,0.41241,0.2702
1700499502890625,-10.98598,0.364685,0.172568,0.14411,0.36441,0.12602
1700499502898437,-10.98598,0.373685,0.265568,0.14761,0.26441,0.17602
1700499502906250,-10.125598,0.389685,0.362568,0.14701,0.30341,0.27002
1700499502914062,-10.127598,0.369685,0.447568,0.16381,0.18441,0.38802
1700499502921875,-10.127598,0.394685,0.546568,0.17621,0.15241,0.42102
1700499502929687,-10.175598,0.426685,0.616568,0.17571,0.15641,0.43502
1700499502937500,-10.180598,0.483685,0.679568,0.19511,0.8941,0.52002
1700499502945312,-10.136598,0.525685,0.675568,0.19951,0.2541,0.43902
1700499502953125,-10.71598,0.537685,0.627568,0.20781,0.9259,0.47502
1700499502960937,-9.988598,0.529685,0.580568,0.21251,0.12459,0.45902
1700499502968750,-9.929598,0.510685,0.558568,0.22071,0.14359,0.41302
1700499502976562,-9.875598,0.472685,0.526568,0.20291,0.14159,0.34602
1700499502984375,-9.843598,0.460685,0.443568,0.19801,0.19159,0.21702
1700499502992187,-9.825598,0.460685,0.373568,0.19761,0.10859,0.16702
1700499503000000,-9.814598,0.450685,0.324568,0.20001,0.13159,0.7402
1700499503007812,-9.811598,0.433685,0.308568,0.19801,0.19659,0.5498
1700499503015625,-9.840598,0.424685,0.301568,0.19631,0.18059,0.10398
1700499503023437,-9.867598,0.427685,0.272568,0.17721,0.14859,0.23498
1700499503031250,-9.879598,0.461685,0.251568,0.17631,0.241,0.33498
1700499503039062,-9.870598,0.487685,0.231568,0.17951,0.6259,0.34998
1700499503046875,-9.884598,0.483685,0.267568,0.16861,0.9759,0.39898
1700499503054687,-9.895598,0.474685,0.326568,0.15461,0.9541,0.49698
1700499503062500,-9.886598,0.465685,0.369568,0.14191,0.19341,0.54798
1700499503070312,-9.875598,0.456685,0.452568,0.12271,0.22741,0.63098
1700499503078125,-9.881598,0.425685,0.565568,0.9601,0.37241,0.68298
1700499503085937,-9.833598,0.396685,0.621568,0.7621,0.44241,0.75298
1700499503093750,-9.767598,0.364685,0.596568,0.5391,0.60741,0.82198
1700499503101562,-9.677598,0.351685,0.526568,0.3381,0.70241,0.80698
1700499503109375,-9.610598,0.335685,0.540568,0.2011,0.66841,0.74298
1700499503117187,-9.596598,0.332685,0.564568,0.39,0.68441,0.79398
1700499503125000,-9.571598,0.341685,0.562568,0.2549,0.63641,0.70098
1700499503132812,-9.567598,0.325685,0.551568,0.4769,0.54041,0.67098
1700499503140625,-9.587598,0.319685,0.494568,0.6479,0.49141,0.62498
1700499503148437,-9.659598,0.326685,0.409568,0.8019,0.43941,0.67298
1700499503156250,-9.747598,0.337685,0.353568,0.8299,0.40541,0.62398
1700499503164062,-9.839598,0.338685,0.357568,0.9389,0.35541,0.59298
1700499503171875,-9.927598,0.368685,0.463568,0.10309,0.33941,0.51298
1700499503179687,-9.997598,0.369685,0.652568,0.11389,0.51841,0.46698
1700499503187500,-10.42598,0.357685,0.864568,0.11859,0.74841,0.40498
1700499503195312,-9.974598,0.336685,0.945568,0.12879,0.106441,0.28198
1700499503203125,-9.836598,0.297685,0.911568,0.14789,0.124741,0.18998
1700499503210937,-9.669598,0.243685,0.839568,0.15599,0.129941,0.12798
1700499503218750,-9.504598,0.180685,0.848568,0.15709,0.131341,0.9498
1700499503226562,-9.368598,0.136685,0.859568,0.17109,0.123141,0.4698
1700499503234375,-9.248598,0.70685,0.830568,0.16729,0.98141,0.5898
1700499503242187,-9.177598,0.13685,0.753568,0.17519,0.83541,0.5998
1700499503250000,-9.172598,0.30315,0.735568,0.17559,0.64141,0.12398
1700499503257812,-9.199598,0.41315,0.713568,0.18459,0.42741,0.12298
1700499503265625,-9.334598,0.56315,0.694568,0.18029,0.39641,0.13998
1700499503273437,-9.482598,0.63315,0.774568,0.18729,0.32641,0.8898
1700499503281250,-9.631598,0.43315,0.945568,0.20279,0.27641,0.5798
1700499503289062,-9.708598,0.24315,0.992568,0.20249,0.24141,0.8898
1700499503296875,-9.709598,0.50315,0.963568,0.20499,0.31341,0.6098
1700499503304687,-9.661598,0.111315,1.53568,0.20399,0.29241,0.7102
1700499503312500,-9.644598,0.203315,1.80568,0.21319,0.32541,0.16602
1700499503320312,-9.662598,0.300315,0.965568,0.20929,0.16641,0.11702
1700499503328125,-9.677598,0.406315,0.834568,0.20209,0.3041,0.12202
1700499503335937,-9.689598,0.495315,0.719568,0.20009,0.34759,0.10902
1700499503343750,-9.713598,0.541315,0.575568,0.19719,0.67259,0.11102
1700499503351562,-9.715598,0.568315,0.406568,0.18669,0.92659,0.2698
1700499503359375,-9.752598,0.589315,0.253568,0.17539,0.117859,0.4498
1700499503367187,-9.869598,0.594315,0.197568,0.15929,0.123059,0.5798
1700499503375000,-10.36598,0.560315,0.183568,0.14589,0.129259,0.12198
1700499503382812,-10.194598,0.505315,0.172568,0.11739,0.134159,0.10198
1700499503390625,-10.256598,0.433315,0.219568,0.10349,0.115959,0.3798
1700499503398437,-10.210598,0.356315,0.199568,0.10099,0.106459,0.14102
1700499503406250,-10.77598,0.274315,0.91568,0.7919,0.86659,0.22202
1700499503414062,-9.965598,0.189315,0.32432,0.7039,0.69659,0.38002
1700499503421875,-9.840598,0.149315,0.124432,0.5079,0.45559,0.44802
1700499503429687,-9.752598,0.172315,0.228432,0.4489,0.32159,0.51002
1700499503437500,-9.882598,0.186315,0.372432,0.1479,0.18959,0.69002
1700499503445312,-10.164598,0.122315,0.374432,0.841,0.12059,0.78702
1700499503453125,-10.285598,0.51315,0.363432,0.2971,0.20759,0.82502
1700499503460937,-10.243598,0.20685,0.394432,0.5181,0.40159,0.92502
1700499503468750,-10.268598,0.72685,0.329432,0.8951,0.46659,0.96202
1700499503476562,-10.315598,0.8685,0.340432,0.11011,0.41459,0.114002
1700499503484375,-10.322598,0.106315,0.437432,0.12901,0.61159,0.112802
1700499503492187,-10.240598,0.143315,0.446432,0.14271,0.41359,0.109502
1700499503500000,-10.153598,0.122315,0.381432,0.17401,0.2259,0.100102
1700499503507812,-10.105598,0.147315,0.523432,0.20121,0.35841,0.93402
1700499503515625,-10.39598,0.117315,0.527432,0.22221,0.53341,0.92202
1700499503523437,-9.956598,0.43315,0.482432,0.22951,0.68141,0.76002
1700499503531250,-9.838598,0.12685,0.516432,0.22961,0.79141,0.58402
1700499503539062,-9.702598,0.58685,0.507432,0.22941,0.95341,0.43902
1700499503546875,-9.561598,0.110685,0.538432,0.22491,0.109041,0.27302
1700499503554687,-9.492598,0.155685,0.545432,0.22391,0.111741,0.19402
1700499503562500,-9.469598,0.225685,0.545432,0.20791,0.118441,0.14302
1700499503570312,-9.499598,0.299685,0.538432,0.18721,0.129841,0.4302
1700499503578125,-9.527598,0.409685,0.464432,0.14731,0.138341,0.2002
1700499503585937,-9.561598,0.546685,0.410432,0.11171,0.139441,0.7898
1700499503593750,-9.645598,0.736685,0.351432,0.7351,0.138041,0.16498
1700499503601562,-9.655598,0.934685,0.252432,0.3701,0.118541,0.23298
1700499503609375,-9.613598,1.131685,0.142432,0.779,0.106741,0.15498
1700499503617187,-9.512598,1.329685,0.144432,0.5929,0.93541,0.7998
1700499503625000,-9.414598,1.509685,0.195432,0.9169,0.85441,0.14302
1700499503632812,-9.336598,1.679685,0.292432,0.12279,0.82341,0.36402
1700499503640625,-9.302598,1.811685,0.377432,0.14269,0.78041,0.57702
1700499503648437,-9.401598,1.937685,0.517432,0.16989,0.82141,0.89202
1700499503656250,-9.680598,1.992685,0.684432,0.17119,0.88941,0.116402
1700499503664062,-10.64598,1.987685,0.756432,0.16459,0.85841,0.137402
1700499503671875,-10.466598,1.922685,0.704432,0.15289,0.67841,0.160302
1700499503679687,-10.924598,1.790685,0.524432,0.14919,0.31741,0.168702
1700499503687500,-11.272598,1.598685,0.220432,0.16599,0.6159,0.167302
1700499503695312,-11.366598,1.440685,0.207568,0.18279,0.29259,0.168902
1700499503703125,-11.312598,1.384685,0.464568,0.21909,0.16059,0.171602
1700499503710937,-11.210598,1.366685,0.491568,0.25529,0.31241,0.170902
1700499503718750,-11.65598,1.395685,0.410568,0.29119,0.76941,0.184702
1700499503726562,-10.829598,1.414685,0.398568,0.30699,0.119541,0.193902
1700499503734375,-10.575598,1.430685,0.457568,0.32439,0.142641,0.203102
1700499503742187,-10.264598,1.383685,0.529568,0.33399,0.154241,0.207702
1700499503750000,-9.912598,1.271685,0.567568,0.34909,0.142441,0.212602
1700499503757812,-9.606598,1.246685,0.592568,0.34509,0.127341,0.219402
1700499503765625,-9.371598,1.205685,0.614568,0.33159,0.116341,0.214602
1700499503773437,-9.173598,1.169685,0.639568,0.33609,0.87041,0.222702
1700499503781250,-9.56598,1.149685,0.614568,0.32649,0.67341,0.229402
1700499503789062,-8.995598,1.132685,0.603568,0.32729,0.42541,0.237802
1700499503796875,-9.6598,1.130685,0.619568,0.32329,0.20941,0.247902
1700499503804687,-9.40598,1.146685,0.565568,0.32199,0.1841,0.262202
1700499503812500,-9.103598,1.141685,0.488568,0.31919,0.12459,0.273402
1700499503820312,-9.215598,1.138685,0.382568,0.31999,0.15859,0.291302
1700499503828125,-9.278598,1.141685,0.317568,0.30079,0.20859,0.298102
1700499503835937,-9.330598,1.151685,0.308568,0.29369,0.34759,0.313902
1700499503843750,-9.353598,1.171685,0.285568,0.26949,0.39859,0.325602
1700499503851562,-9.376598,1.200685,0.234568,0.24969,0.38659,0.337402
1700499503859375,-9.412598,1.212685,0.119568,0.23859,0.38459,0.352002
1700499503867187,-9.429598,1.256685,0.85568,0.20959,0.46959,0.360602
1700499503875000,-9.411598,1.321685,0.76568,0.18949,0.44859,0.376702
1700499503882812,-9.380598,1.353685,0.94568,0.16129,0.59359,0.381902
1700499503890625,-9.407598,1.372685,0.96568,0.12859,0.50859,0.390102
1700499503898437,-9.437598,1.394685,0.135568,0.8919,0.58959,0.397102
1700499503906250,-9.494598,1.422685,0.144568,0.6529,0.52759,0.391102
1700499503914062,-9.495598,1.459685,0.119568,0.3809,0.51459,0.391602
1700499503921875,-9.495598,1.482685,0.81568,0.1899,0.49059,0.386502
1700499503929687,-9.471598,1.532685,0.115568,0.821,0.34759,0.379002
1700499503937500,-9.469598,1.581685,0.117568,0.2451,0.29359,0.374002
1700499503945312,-9.434598,1.643685,0.54568,0.3721,0.23059,0.363002
1700499503953125,-9.424598,1.707685,0.22568,0.6361,0.5359,0.337502
1700499503960937,-9.445598,1.767685,0.16568,0.8851,0.841,0.313702
1700499503968750,-9.424598,1.817685,0.4432,0.10481,0.19141,0.289502
1700499503976562,-9.363598,1.832685,0.16568,0.13121,0.22241,0.272102
1700499503984375,-9.273598,1.795685,0.18568,0.15571,0.40141,0.246502
1700499503992187,-9.146598,1.733685,0.35432,0.16261,0.41841,0.211002
1700499504000000,-9.53598,1.676685,0.76432,0.17771,0.61241,0.177302
1700499504007812,-8.971598,1.633685,0.56432,0.17101,0.73241,0.133302
1700499504015625,-8.949598,1.624685,0.44432,0.17381,0.84341,0.101202
1700499504023437,-8.945598,1.675685,0.85432,0.17491,0.92041,0.61002
1700499504031250,-8.950598,1.739685,0.180432,0.17191,0.107041,0.22002
1700499504039062,-9.8598,1.840685,0.233432,0.17471,0.114841,0.10098
1700499504046875,-9.131598,1.955685,0.236432,0.18321,0.137841,0.37598
1700499504054687,-9.322598,2.60685,0.199432,0.19591,0.140841,0.47098
1700499504062500,-9.534598,2.130685,0.103432,0.22081,0.147241,0.61298
1700499504070312,-9.777598,2.129685,0.21432,0.22861,0.148741,0.72398
1700499504078125,-9.981598,2.121685,0.63568,0.22471,0.157441,0.72798
1700499504085937,-10.143598,2.151685,0.180568,0.24481,0.168941,0.79098
1700499504093750,-10.244598,2.238685,0.259568,0.24501,0.175141,0.85398
1700499504101562,-10.272598,2.312685,0.257568,0.26001,0.193641,0.85598
1700499504109375,-10.245598,2.323685,0.324568,0.27051,0.207041,0.84098
1700499504117187,-10.141598,2.291685,0.403568,0.27161,0.216941,0.95498
1700499504125000,-9.956598,2.237685,0.509568,0.28291,0.237941,0.93798
1700499504132812,-9.741598,2.167685,0.547568,0.29441,0.244141,0.93498
1700499504140625,-9.569598,2.100685,0.583568,0.29571,0.259041,0.93598
1700499504148437,-9.461598,2.85685,0.660568,0.29661,0.249441,0.106598
1700499504156250,-9.306598,2.98685,0.689568,0.28991,0.231641,0.116298
1700499504164062,-9.129598,2.82685,0.606568,0.27791,0.193441,0.128898
1700499504171875,-9.1598,2.144685,0.628568,0.26831,0.167341,0.138498
1700499504179687,-8.962598,2.186685,0.612568,0.27041,0.142541,0.138198
1700499504187500,-8.960598,2.181685,0.628568,0.26971,0.119241,0.136198
1700499504195312,-8.970598,2.122685,0.635568,0.27421,0.85241,0.126398
1700499504203125,-9.81598,2.37685,0.651568,0.27751,0.65741,0.113398
1700499504210937,-9.330598,2.5685,0.761568,0.27661,0.55741,0.106798
1700499504218750,-9.486598,1.935685,0.736568,0.27441,0.38241,0.102098
1700499504226562,-9.511598,1.818685,0.626568,0.25241,0.12341,0.95898
1700499504234375,-9.425598,1.747685,0.572568,0.23481,0.6559,0.100398
1700499504242187,-9.343598,1.681685,0.500568,0.20981,0.31159,0.105298
1700499504250000,-9.267598,1.576685,0.400568,0.18091,0.66759,0.112098
1700499504257812,-9.271598,1.545685,0.272568,0.16101,0.91659,0.113598
1700499504265625,-9.326598,1.632685,0.130568,0.14711,0.114759,0.119898
1700499504273437,-9.409598,1.766685,0.22568,0.12461,0.157759,0.114898
1700499504281250,-9.519598,1.902685,0.123432,0.11721,0.179759,0.111998
1700499504289062,-9.619598,1.938685,0.276432,0.9841,0.190659,0.109998
1700499504296875,-9.716598,1.851685,0.355432,0.9331,0.190459,0.110198
1700499504304687,-9.784598,1.712685,0.368432,0.7651,0.192359,0.111898
1700499504312500,-9.785598,1.530685,0.373432,0.6361,0.183959,0.107398
1700499504320312,-9.704598,1.347685,0.391432,0.3211,0.172559,0.107798
1700499504328125,-9.625598,1.179685,0.477432,0.1091,0.155259,0.112698
1700499504335937,-9.648598,1.47685,0.612432,0.269,0.129959,0.111698
1700499504343750,-9.658598,0.976685,0.738432,0.1239,0.121759,0.115198
1700499504351562,-9.611598,1.19685,0.790432,0.3019,0.115059,0.128398
1700499504359375,-9.582598,1.127685,0.797432,0.2939,0.105759,0.126598
1700499504367187,-9.593598,1.274685,0.812432,0.3419,0.94159,0.113898
1700499504375000,-9.595598,1.443685,0.831432,0.2879,0.91859,0.112598
1700499504382812,-9.602598,1.567685,0.837432,0.2699,0.105059,0.112398
1700499504390625,-9.663598,1.622685,0.826432,0.1629,0.104459,0.86698
1700499504398437,-9.773598,1.634685,0.887432,0.389,0.104959,0.63698
1700499504406250,-9.935598,1.639685,0.959432,0.41,0.96159,0.46298
1700499504414062,-10.86598,1.630685,-1.17432,0.1791,0.93859,0.29498
1700499504421875,-10.229598,1.554685,-1.44432,0.2251,0.96859,0.14998
1700499504429687,-10.335598,1.427685,-1.67432,0.2741,0.88559,0.3798
1700499504437500,-10.366598,1.310685,-1.98432,0.3661,0.72059,0.2298
1700499504445312,-10.339598,1.137685,-1.112432,0.4721,0.57359,0.13498
1700499504453125,-10.239598,0.947685,-1.65432,0.4831,0.49059,0.24898
1700499504460937,-10.94598,0.734685,-1.56432,0.4431,0.37259,0.34898
1700499504468750,-9.842598,0.539685,-1.169432,0.2791,0.35059,0.58798
1700499504476562,-9.602598,0.456685,-1.182432,0.2961,0.16359,0.76998
1700499504484375,-9.284598,0.382685,-1.286432,0.4591,0.11259,0.101098
1700499504492187,-8.922598,0.323685,-1.356432,0.4851,0.2441,0.115198
1700499504500000,-8.654598,0.308685,-1.394432,0.4411,0.12741,0.131698
1700499504507812,-8.447598,0.324685,-1.491432,0.5821,0.10841,0.153998
1700499504515625,-8.315598,0.345685,-1.635432,0.6701,0.19041,0.173298
1700499504523437,-8.382598,0.463685,-1.824432,0.5741,0.19041,0.183098
1700499504531250,-8.728598,0.619685,-2.2432,0.4761,0.20741,0.191298
1700499504539062,-9.73598,0.827685,-1.943432,0.5071,0.15159,0.192698
1700499504546875,-9.279598,1.74685,-1.842432,0.5881,0.43159,0.201998
1700499504554687,-9.468598,1.196685,-1.803432,0.6531,0.67659,0.195298
1700499504562500,-9.780598,1.197685,-1.740432,0.7241,0.59859,0.182198
1700499504570312,-10.146598,1.176685,-1.756432,0.5011,0.34859,0.161898
1700499504578125,-10.468598,1.194685,-1.727432,0.4471,0.7459,0.147398
1700499504585937,-10.758598,1.239685,-1.646432,0.4351,0.18041,0.131898
1700499504593750,-11.4598,1.256685,-1.547432,0.3921,0.52241,0.120798
1700499504601562,-11.127598,1.245685,-1.445432,0.3251,0.77041,0.113198
1700499504609375,-11.84598,1.213685,-1.357432,0.1451,0.105841,0.114898
1700499504617187,-10.857598,1.194685,-1.238432,0.919,0.127141,0.113698
1700499504625000,-10.599598,1.214685,-1.117432,0.3829,0.158541,0.119298
1700499504632812,-10.322598,1.208685,-1.60432,0.6529,0.174841,0.130998
1700499504640625,-10.18598,1.150685,-1.4432,0.9529,0.192641,0.144298
1700499504648437,-9.785598,1.93685,0.918432,0.12249,0.199241,0.160798
1700499504656250,-9.580598,1.23685,0.880432,0.14539,0.201841,0.168898
1700499504664062,-9.484598,0.949685,0.813432,0.16889,0.207541,0.185698
1700499504671875,-9.490598,0.913685,0.707432,0.19399,0.221841,0.200398
1700499504679687,-9.567598,0.928685,0.572432,0.21029,0.210441,0.227998
1700499504687500,-9.684598,0.945685,0.308432,0.22779,0.197041,0.253798
1700499504695312,-9.824598,0.939685,0.11568,0.23219,0.195141,0.260098
1700499504703125,-9.974598,0.913685,0.315568,0.24879,0.205041,0.283098
1700499504710937,-10.90598,0.921685,0.528568,0.26059,0.203641,0.300998
1700499504718750,-10.136598,0.933685,0.858568,0.27249,0.215941,0.315398
1700499504726562,-10.201598,0.975685,1.91568,0.28659,0.228341,0.319298
1700499504734375,-10.296598,0.980685,1.155568,0.27789,0.224241,0.336598
1700499504742187,-10.354598,0.959685,1.222568,0.28679,0.221441,0.354598
1700499504750000,-10.424598,0.955685,1.249568,0.28809,0.219341,0.368898
1700499504757812,-10.435598,0.956685,1.200568,0.27299,0.198241,0.384798
1700499504765625,-10.363598,0.916685,1.135568,0.25959,0.176241,0.397098
1700499504773437,-10.290598,0.846685,1.87568,0.26269,0.151541,0.411398
1700499504781250,-10.255598,0.782685,0.916568,0.26509,0.139041,0.411598
1700499504789062,-10.265598,0.724685,0.745568,0.26559,0.134341,0.418098
1700499504796875,-10.312598,0.687685,0.711568,0.26069,0.134241,0.416398
1700499504804687,-10.330598,0.667685,0.677568,0.25619,0.138241,0.414398
1700499504812500,-10.259598,0.606685,0.621568,0.24749,0.143941,0.398498
1700499504820312,-10.185598,0.515685,0.612568,0.25079,0.154241,0.377898
1700499504828125,-10.121598,0.405685,0.607568,0.24329,0.170241,0.347098
1700499504835937,-10.50598,0.299685,0.560568,0.24759,0.173541,0.329398
1700499504843750,-9.945598,0.209685,0.533568,0.25769,0.183141,0.300498
1700499504851562,-9.761598,0.84685,0.501568,0.25999,0.182441,0.281498
1700499504859375,-9.596598,0.2315,0.490568,0.25559,0.188341,0.263498
1700499504867187,-9.480598,0.57315,0.521568,0.26159,0.203141,0.247598
1700499504875000,-9.399598,0.78315,0.566568,0.24599,0.208241,0.237798
1700499504882812,-9.319598,0.26315,0.654568,0.23419,0.203141,0.219798
1700499504890625,-9.236598,0.12685,0.792568,0.22709,0.200441,0.215098
1700499504898437,-9.156598,0.46685,0.920568,0.20749,0.203741,0.185898
1700499504906250,-9.150598,0.106685,1.8568,0.20429,0.200841,0.168198
1700499504914062,-9.104598,0.196685,1.51568,0.18189,0.199341,0.143798
1700499504921875,-9.22598,0.248685,1.143568,0.16259,0.176641,0.116098
1700499504929687,-8.995598,0.290685,1.217568,0.14869,0.168041,0.91498
1700499504937500,-9.1598,0.334685,1.202568,0.12929,0.150341,0.60598
1700499504945312,-9.37598,0.400685,1.147568,0.11369,0.136041,0.37998
1700499504953125,-9.94598,0.423685,1.184568,0.8779,0.101841,0.9998
1700499504960937,-9.190598,0.384685,1.78568,0.7749,0.67441,0.13002
1700499504968750,-9.289598,0.354685,0.844568,0.7819,0.21341,0.23102
1700499504976562,-9.383598,0.367685,0.618568,0.7439,0.9859,0.36302
1700499504984375,-9.450598,0.372685,0.521568,0.5879,0.25759,0.55702
1700499504992187,-9.480598,0.384685,0.470568,0.4819,0.58859,0.72402
1700499505000000,-9.516598,0.378685,0.569568,0.5799,0.63359,0.81802
1700499505007812,-9.667598,0.442685,0.681568,0.7189,0.67859,0.110502
1700499505015625,-9.702598,0.503685,0.569568,0.5239,0.61359,0.136502
1700499505023437,-9.673598,0.502685,0.537568,0.5609,0.64959,0.156002
1700499505031250,-9.619598,0.501685,0.623568,0.6669,0.69859,0.173702
1700499505039062,-9.523598,0.538685,0.663568,0.8429,0.80759,0.187802
1700499505046875,-9.444598,0.563685,0.594568,0.9809,0.90559,0.199002
1700499505054687,-9.448598,0.618685,0.519568,0.9369,0.104259,0.212402
1700499505062500,-9.430598,0.638685,0.431568,0.8499,0.108459,0.220202
1700499505070312,-9.386598,0.668685,0.337568,0.7219,0.137259,0.229202
1700499505078125,-9.347598,0.659685,0.290568,0.6649,0.151359,0.241902
1700499505085937,-9.358598,0.657685,0.247568,0.5509,0.156459,0.243802
1700499505093750,-9.394598,0.648685,0.155568,0.4599,0.169259,0.243802
1700499505101562,-9.444598,0.678685,0.94568,0.2209,0.174459,0.237802
1700499505109375,-9.522598,0.757685,0.67568,0.2069,0.158059,0.236102
1700499505117187,-9.604598,0.836685,0.9432,0.271,0.146559,0.236302
1700499505125000,-9.657598,0.936685,0.139432,0.2571,0.126659,0.236302
1700499505132812,-9.697598,1.46685,0.205432,0.2861,0.95459,0.236102
1700499505140625,-9.753598,1.161685,0.202432,0.5261,0.72959,0.236402
1700499505148437,-9.791598,1.291685,0.108432,0.5641,0.54559,0.229602
1700499505156250,-9.814598,1.358685,0.24432,0.7501,0.39559,0.231302
1700499505164062,-9.794598,1.380685,0.4432,0.7951,0.31259,0.232802
1700499505171875,-9.763598,1.382685,0.15432,0.9841,0.19859,0.231402
1700499505179687,-9.776598,1.393685,0.26568,0.9951,0.21259,0.229702
1700499505187500,-9.774598,1.397685,0.60568,0.10611,0.23559,0.207502
1700499505195312,-9.754598,1.399685,0.22568,0.11361,0.28359,0.196302
1700499505203125,-9.777598,1.437685,0.71432,0.12771,0.17159,0.178802
1700499505210937,-9.773598,1.446685,0.168432,0.13481,0.15359,0.162602
1700499505218750,-9.768598,1.437685,0.216432,0.14211,0.13559,0.149702
1700499505226562,-9.732598,1.446685,0.315432,0.13861,0.2059,0.144702
1700499505234375,-9.735598,1.517685,0.376432,0.14281,0.7941,0.130102
1700499505242187,-9.719598,1.593685,0.474432,0.13581,0.36541,0.123802
1700499505250000,-9.670598,1.653685,0.632432,0.14391,0.58441,0.113702
1700499505257812,-9.633598,1.716685,0.686432,0.13631,0.93941,0.102302
1700499505265625,-9.760598,1.791685,0.628432,0.14371,0.131541,0.90902
1700499505273437,-10.53598,1.816685,0.607432,0.14281,0.145041,0.79302
1700499505281250,-9.895598,1.660685,0.652432,0.14011,0.131441,0.66702
1700499505289062,-9.855598,1.554685,0.416432,0.12511,0.119041,0.66302
1700499505296875,-9.776598,1.523685,0.387432,0.12291,0.111741,0.61802
1700499505304687,-9.837598,1.529685,0.227432,0.12411,0.110241,0.56902
1700499505312500,-9.940598,1.499685,0.166432,0.10551,0.111541,0.45602
1700499505320312,-9.804598,1.393685,0.166432,0.10711,0.91841,0.40902
1700499505328125,-9.579598,1.228685,0.65432,0.10551,0.86941,0.37702
1700499505335937,-9.385598,1.85685,0.33432,0.7861,0.83741,0.32502
1700499505343750,-9.163598,0.991685,0.148432,0.6671,0.92241,0.19202
1700499505351562,-8.909598,0.965685,0.268432,0.5391,0.92041,0.198
1700499505359375,-8.661598,0.921685,0.329432,0.3641,0.82141,0.16398
1700499505367187,-8.550598,0.854685,0.346432,0.4811,0.78141,0.31998
1700499505375000,-8.668598,0.772685,0.369432,0.4511,0.87041,0.42198
1700499505382812,-8.929598,0.668685,0.464432,0.5261,0.67541,0.56498
1700499505390625,-9.227598,0.574685,0.389432,0.7191,0.39241,0.70398
1700499505398437,-9.514598,0.537685,0.263432,0.8751,0.17941,0.79698
1700499505406250,-9.881598,0.470685,0.164432,0.10381,0.11741,0.97398
1700499505414062,-10.336598,0.372685,0.162432,0.12121,0.18241,0.98798
1700499505421875,-10.755598,0.268685,0.99432,0.14211,0.35741,0.106498
1700499505429687,-11.25598,0.188685,0.64568,0.17131,0.36141,0.106398
1700499505437500,-11.83598,0.115685,0.188568,0.19481,0.54041,0.107798
1700499505445312,-11.18598,0.17685,0.278568,0.22131,0.75341,0.112498
1700499505453125,-10.824598,0.63315,0.343568,0.24291,0.93541,0.112398
1700499505460937,-10.526598,0.116315,0.280568,0.26001,0.98341,0.125098
1700499505468750,-10.186598,0.166315,0.120568,0.27531,0.119641,0.139598
1700499505476562,-9.915598,0.243315,0.165568,0.27331,0.125941,0.168598
1700499505484375,-9.760598,0.237315,0.274568,0.26841,0.135341,0.194298
1700499505492187,-9.698598,0.198315,0.260568,0.28171,0.138841,0.210398
1700499505500000,-9.727598,0.184315,0.242568,0.29281,0.128141,0.229898
1700499505507812,-9.831598,0.149315,0.316568,0.27921,0.112741,0.245798
1700499505515625,-10.28598,0.79315,0.415568,0.27911,0.94941,0.248998
1700499505523437,-10.257598,0.23685,0.512568,0.27791,0.84941,0.243998
1700499505531250,-10.432598,0.201685,0.681568,0.27171,0.58841,0.237498
1700499505539062,-10.543598,0.382685,0.787568,0.25911,0.40241,0.217898
1700499505546875,-10.644598,0.484685,0.853568,0.24771,0.45641,0.206998
1700499505554687,-10.716598,0.536685,0.835568,0.23051,0.70541,0.180098
1700499505562500,-10.746598,0.568685,0.706568,0.21861,0.99941,0.149798
1700499505570312,-10.602598,0.592685,0.562568,0.20901,0.118641,0.116398
1700499505578125,-10.373598,0.568685,0.571568,0.18711,0.139141,0.85898
1700499505585937,-10.145598,0.518685,0.578568,0.17321,0.147541,0.60398
1700499505593750,-9.982598,0.445685,0.655568,0.17391,0.145841,0.36098
1700499505601562,-9.898598,0.368685,0.722568,0.17501,0.146441,0.23498
1700499505609375,-9.863598,0.299685,0.767568,0.17051,0.149741,0.13898
1700499505617187,-9.817598,0.216685,0.778568,0.17271,0.147741,0.8798
1700499505625000,-9.768598,0.142685,0.828568,0.17091,0.146241,0.12098
1700499505632812,-9.698598,0.90685,0.879568,0.17261,0.132941,0.21598
1700499505640625,-9.646598,0.54685,0.879568,0.18011,0.128141,0.29598
1700499505648437,-9.592598,0.57685,0.807568,0.18831,0.129341,0.40598
1700499505656250,-9.493598,0.82685,0.693568,0.19721,0.121241,0.54998
1700499505664062,-9.427598,0.143685,0.663568,0.19611,0.106141,0.64398
1700499505671875,-9.388598,0.207685,0.666568,0.19741,0.98041,0.73998
1700499505679687,-9.384598,0.258685,0.679568,0.19501,0.86941,0.88698
1700499505687500,-9.450598,0.303685,0.691568,0.19881,0.81441,0.97998
1700499505695312,-9.482598,0.359685,0.607568,0.18401,0.60641,0.101498
1700499505703125,-9.440598,0.416685,0.501568,0.16881,0.35741,0.104598
1700499505710937,-9.416598,0.469685,0.501568,0.17361,0.25941,0.102798
1700499505718750,-9.473598,0.516685,0.540568,0.16771,0.16141,0.86698
1700499505726562,-9.498598,0.528685,0.425568,0.16751,0.16441,0.75598
1700499505734375,-9.507598,0.528685,0.290568,0.17701,0.1941,0.65798
1700499505742187,-9.527598,0.488685,0.251568,0.15561,0.1659,0.59398
1700499505750000,-9.568598,0.418685,0.227568,0.14621,0.14659,0.56298
1700499505757812,-9.637598,0.379685,0.231568,0.14641,0.21259,0.56198
1700499505765625,-9.695598,0.334685,0.157568,0.12591,0.39259,0.57898
1700499505773437,-9.771598,0.290685,0.227568,0.10441,0.44659,0.69198
1700499505781250,-9.824598,0.269685,0.161568,0.9891,0.45959,0.80698
1700499505789062,-9.856598,0.261685,0.85568,0.9581,0.31359,0.83998
1700499505796875,-9.837598,0.252685,0.168568,0.8431,0.16359,0.82798
1700499505804687,-9.817598,0.236685,0.199568,0.7521,0.8459,0.84398
1700499505812500,-9.833598,0.233685,0.267568,0.4891,0.7441,0.92698
1700499505820312,-9.858598,0.251685,0.278568,0.6461,0.18941,0.87798
1700499505828125,-9.826598,0.213685,0.130568,0.7101,0.22141,0.89298
1700499505835937,-9.755598,0.128685,0.82568,0.5361,0.39341,0.101298
1700499505843750,-9.718598,0.83685,0.112568,0.3291,0.51441,0.104398
1700499505851562,-9.720598,0.45685,0.148568,0.1961,0.63341,0.109698
1700499505859375,-9.715598,0.37685,0.168568,0.341,0.73241,0.122898
1700499505867187,-9.706598,0.32685,0.165568,0.1449,0.86541,0.129798
1700499505875000,-9.681598,0.7315,0.120568,0.2539,0.94541,0.131498
1700499505882812,-9.595598,0.22315,0.9432,0.2839,0.110741,0.129998
1700499505890625,-9.476598,0.26315,0.37568,0.4879,0.133541,0.133498
1700499505898437,-9.493598,0.61315,0.294568,0.6799,0.141941,0.132298
1700499505906250,-9.601598,0.88315,0.409568,0.7299,0.153541,0.130898
1700499505914062,-9.691598,0.71315,0.460568,0.8379,0.165041,0.118198
1700499505921875,-9.746598,0.13315,0.490568,0.8269,0.153041,0.109798
1700499505929687,-9.780598,0.31685,0.544568,0.8239,0.156241,0.100098
1700499505937500,-9.792598,0.42685,0.609568,0.8899,0.168141,0.87598
1700499505945312,-9.794598,0.65685,0.650568,0.9879,0.184941,0.70298
1700499505953125,-9.797598,0.80685,0.731568,0.10229,0.189241,0.58798
1700499505960937,-9.774598,0.85685,0.764568,0.10489,0.191941,0.39898
1700499505968750,-9.731598,0.62685,0.785568,0.10579,0.193141,0.34898
1700499505976562,-9.699598,0.4685,0.830568,0.10429,0.198441,0.17398
1700499505984375,-9.649598,0.43315,0.877568,0.10819,0.194741,0.9098
1700499505992187,-9.625598,0.128315,0.922568,0.11219,0.191141,0.2498
1700499506000000,-9.612598,0.201315,0.926568,0.11449,0.187041,0.13202
1700499506007812,-9.553598,0.269315,0.974568,0.12539,0.179541,0.26502
1700499506015625,-9.501598,0.311315,0.987568,0.13439,0.177241,0.34002
1700499506023437,-9.482598,0.347315,0.976568,0.14849,0.173941,0.37102
1700499506031250,-9.448598,0.356315,0.996568,0.15459,0.172141,0.35502
1700499506039062,-9.399598,0.322315,0.996568,0.15069,0.158841,0.45402
1700499506046875,-9.357598,0.291315,1.3568,0.14739,0.141041,0.60002
1700499506054687,-9.355598,0.260315,1.14568,0.14299,0.128341,0.69602
1700499506062500,-9.345598,0.236315,1.26568,0.13049,0.117841,0.83102
1700499506070312,-9.356598,0.189315,1.64568,0.12609,0.90541,0.96002
1700499506078125,-9.408598,0.159315,1.120568,0.12589,0.72941,0.120102
1700499506085937,-9.497598,0.118315,1.206568,0.11219,0.59141,0.127202
1700499506093750,-9.522598,0.91315,1.197568,0.10429,0.34941,0.141802
1700499506101562,-9.503598,0.5315,1.156568,0.9129,0.18641,0.158202
1700499506109375,-9.547598,0.57685,1.62568,0.6789,0.9141,0.169702
1700499506117187,-9.576598,0.68685,0.945568,0.4079,0.10559,0.175002
1700499506125000,-9.576598,0.46685,0.877568,0.1859,0.44559,0.191502
1700499506132812,-9.569598,0.17685,0.846568,0.1371,0.90759,0.197202
1700499506140625,-9.578598,0.17685,0.751568,0.3091,0.118459,0.197502
1700499506148437,-9.634598,0.29685,0.652568,0.5321,0.144859,0.185202
1700499506156250,-9.693598,0.70685,0.481568,0.7371,0.171059,0.180802
1700499506164062,-9.774598,0.107685,0.323568,0.10291,0.195259,0.174702
1700499506171875,-9.931598,0.202685,0.215568,0.13121,0.216659,0.164002
1700499506179687,-10.32598,0.317685,0.94568,0.14871,0.220159,0.154702
1700499506187500,-10.53598,0.424685,0.28568,0.16181,0.226259,0.141702
1700499506195312,-10.33598,0.537685,0.10568,0.17581,0.227859,0.133802
1700499506203125,-10.1598,0.647685,0.29432,0.17561,0.221359,0.128902
1700499506210937,-9.955598,0.766685,0.85432,0.17731,0.210059,0.128902
1700499506218750,-9.914598,0.863685,0.106432,0.17571,0.201959,0.120902
1700499506226562,-9.891598,0.933685,0.123432,0.17191,0.179759,0.122602
1700499506234375,-9.837598,0.961685,0.139432,0.16151,0.167759,0.117302
1700499506242187,-9.759598,0.962685,0.157432,0.15331,0.153059,0.105802
1700499506250000,-9.696598,0.957685,0.196432,0.13281,0.140059,0.103902
1700499506257812,-9.657598,0.932685,0.243432,0.10591,0.125159,0.105002
1700499506265625,-9.634598,0.925685,0.297432,0.8401,0.117159,0.100002
1700499506273437,-9.621598,0.904685,0.382432,0.6381,0.110959,0.90202
1700499506281250,-9.641598,0.898685,0.473432,0.4851,0.98859,0.84702
1700499506289062,-9.649598,0.874685,0.529432,0.3181,0.91159,0.86302
1700499506296875,-9.685598,0.852685,0.558432,0.2241,0.83159,0.76502
1700499506304687,-9.723598,0.826685,0.630432,0.441,0.79359,0.77602
1700499506312500,-9.761598,0.807685,0.689432,0.139,0.69959,0.76102
1700499506320312,-9.848598,0.812685,0.741432,0.619,0.63359,0.72802
1700499506328125,-9.907598,0.811685,0.811432,0.829,0.41859,0.75702
1700499506335937,-9.981598,0.834685,0.840432,0.329,0.35559,0.72602
1700499506343750,-10.25598,0.897685,0.869432,0.1689,0.21259,0.72502
1700499506351562,-10.78598,0.964685,0.846432,0.2809,0.3059,0.77002
1700499506359375,-10.133598,1.34685,0.797432,0.2229,0.11941,0.76902
1700499506367187,-10.145598,1.74685,0.770432,0.1749,0.20041,0.78502
1700499506375000,-10.116598,1.103685,0.745432,0.2669,0.20041,0.84902
1700499506382812,-10.52598,1.157685,0.713432,0.2609,0.32741,0.91402
1700499506390625,-9.955598,1.198685,0.682432,0.3649,0.48141,0.95702
1700499506398437,-9.859598,1.219685,0.666432,0.4759,0.49941,0.101902
1700499506406250,-9.801598,1.233685,0.680432,0.4339,0.54341,0.115102
1700499506414062,-9.790598,1.224685,0.682432,0.4039,0.60941,0.113502
1700499506421875,-9.778598,1.228685,0.682432,0.4329,0.49641,0.128002
1700499506429687,-9.786598,1.242685,0.670432,0.4269,0.50841,0.131402
1700499506437500,-9.810598,1.237685,0.702432,0.3579,0.42341,0.131702
1700499506445312,-9.857598,1.247685,0.747432,0.2759,0.41441,0.128202
1700499506453125,-9.878598,1.269685,0.767432,0.2199,0.39141,0.123802
1700499506460937,-9.871598,1.276685,0.817432,0.579,0.39841,0.117202
1700499506468750,-9.883598,1.281685,0.862432,0.299,0.40141,0.120302
1700499506476562,-9.867598,1.296685,0.875432,0.79,0.51041,0.118902
1700499506484375,-9.834598,1.320685,0.945432,0.71,0.54341,0.115702
1700499506492187,-9.825598,1.317685,-1.24432,0.401,0.52541,0.112602
1700499506500000,-9.827598,1.293685,-1.17432,0.131,0.56241,0.97702
1700499506507812,-9.813598,1.276685,-1.6432,0.209,0.51441,0.91202
1700499506515625,-9.774598,1.230685,-1.13432,0.29,0.52641,0.78602
1700499506523437,-9.744598,1.166685,-1.6432,0.219,0.65841,0.71902
1700499506531250,-9.698598,1.125685,0.984432,0.131,0.73641,0.65702
1700499506539062,-9.624598,1.119685,0.975432,0.841,0.78741,0.51102
1700499506546875,-9.525598,1.138685,0.993432,0.2111,0.88441,0.51202
1700499506554687,-9.503598,1.157685,0.975432,0.2071,0.93641,0.52702
1700499506562500,-9.550598,1.163685,0.930432,0.4251,0.87141,0.44902
1700499506570312,-9.557598,1.149685,0.909432,0.4251,0.88741,0.41702
1700499506578125,-9.527598,1.118685,0.842432,0.4521,0.85741,0.38402
1700499506585937,-9.518598,1.109685,0.713432,0.4901,0.81741,0.25902
1700499506593750,-9.520598,1.102685,0.585432,0.5331,0.85241,0.22502
1700499506601562,-9.557598,1.107685,0.515432,0.4921,0.75041,0.21202
1700499506609375,-9.599598,1.99685,0.536432,0.4821,0.69041,0.11302
1700499506617187,-9.577598,1.143685,0.448432,0.7141,0.61141,0.9802
1700499506625000,-9.533598,1.174685,0.369432,0.7321,0.59141,0.402
1700499506632812,-9.501598,1.178685,0.137432,0.9671,0.62341,0.7398
1700499506640625,-9.483598,1.138685,0.31568,0.9751,0.65941,0.14098
1700499506648437,-9.459598,1.44685,0.238568,0.9451,0.55941,0.21998
1700499506656250,-9.406598,0.988685,0.504568,0.11351,0.41141,0.24798
1700499506664062,-9.335598,0.880685,0.626568,0.14551,0.26041,0.28998
1700499506671875,-9.254598,0.717685,0.722568,0.14521,0.17941,0.35498
1700499506679687,-9.201598,0.650685,0.855568,0.15161,0.3241,0.33698
1700499506687500,-9.221598,0.621685,0.938568,0.15301,0.16459,0.47998
1700499506695312,-9.258598,0.578685,1.17568,0.16011,0.38859,0.54498
1700499506703125,-9.372598,0.542685,1.100568,0.16361,0.65359,0.65398
1700499506710937,-9.486598,0.490685,1.130568,0.17011,0.82059,0.76298
1700499506718750,-9.636598,0.435685,1.73568,0.16481,0.104659,0.87698
1700499506726562,-9.795598,0.413685,0.992568,0.17301,0.126259,0.92098
1700499506734375,-9.885598,0.406685,0.916568,0.17421,0.135959,0.104998
1700499506742187,-9.927598,0.373685,0.785568,0.17841,0.137359,0.111498
1700499506750000,-10.598,0.326685,0.643568,0.18271,0.141959,0.113198
1700499506757812,-10.118598,0.261685,0.521568,0.17141,0.136859,0.110198
1700499506765625,-10.269598,0.243685,0.443568,0.16401,0.138859,0.118198
1700499506773437,-10.380598,0.302685,0.423568,0.14771,0.139559,0.117998
1700499506781250,-10.435598,0.390685,0.413568,0.13731,0.135859,0.129698
1700499506789062,-10.403598,0.475685,0.350568,0.11721,0.131259,0.134698
1700499506796875,-10.330598,0.563685,0.276568,0.10291,0.109859,0.123798
1700499506804687,-10.232598,0.657685,0.204568,0.8481,0.76359,0.109998
1700499506812500,-10.114598,0.720685,0.161568,0.7791,0.58859,0.93898
1700499506820312,-10.44598,0.787685,0.116568,0.5771,0.35859,0.76598
1700499506828125,-9.986598,0.837685,0.67568,0.4561,0.17759,0.52698
1700499506835937,-9.914598,0.869685,0.58568,0.3631,0.5141,0.38498
1700499506843750,-9.847598,0.864685,0.64568,0.2801,0.17241,0.17998
1700499506851562,-9.797598,0.856685,0.96568,0.1971,0.31341,0.6598
1700499506859375,-9.772598,0.826685,0.130568,0.301,0.60141,0.15102
1700499506867187,-9.776598,0.803685,0.166568,0.239,0.67841,0.24902
1700499506875000,-9.787598,0.785685,0.170568,0.2049,0.78941,0.37702
1700499506882812,-9.830598,0.764685,0.216568,0.3739,0.90141,0.39202
1700499506890625,-9.883598,0.727685,0.265568,0.5379,0.98841,0.40302
1700499506898437,-9.903598,0.674685,0.373568,0.7009,0.106341,0.45202
1700499506906250,-9.879598,0.620685,0.477568,0.7939,0.119241,0.45102
1700499506914062,-9.874598,0.578685,0.481568,0.9759,0.134641,0.49302
1700499506921875,-9.865598,0.547685,0.504568,0.12089,0.134341,0.41102
1700499506929687,-9.817598,0.516685,0.555568,0.13719,0.143041,0.48602
1700499506937500,-9.729598,0.519685,0.591568,0.15869,0.150941,0.56502
1700499506945312,-9.643598,0.584685,0.625568,0.15369,0.149241,0.61502
1700499506953125,-9.583598,0.632685,0.596568,0.16929,0.152641,0.75702
1700499506960937,-9.560598,0.663685,0.614568,0.17919,0.154741,0.81802
1700499506968750,-9.536598,0.684685,0.598568,0.19229,0.150941,0.91602
1700499506976562,-9.509598,0.700685,0.684568,0.20679,0.156241,0.100902
1700499506984375,-9.520598,0.680685,0.823568,0.21269,0.165941,0.112102
1700499506992187,-9.452598,0.648685,0.866568,0.22509,0.164341,0.120002
1700499507000000,-9.352598,0.577685,0.866568,0.22499,0.161041,0.124902
1700499507007812,-9.300598,0.478685,0.920568,0.23799,0.168641,0.133102
1700499507015625,-9.217598,0.373685,0.904568,0.25439,0.159241,0.131102
1700499507023437,-9.143598,0.246685,0.841568,0.25779,0.143141,0.131002
1700499507031250,-9.45598,0.162685,0.758568,0.25309,0.116941,0.123202
1700499507039062,-8.997598,0.90685,0.616568,0.26489,0.96641,0.113802
1700499507046875,-9.90598,0.50685,0.508568,0.25249,0.52741,0.112602
1700499507054687,-9.207598,0.56685,0.406568,0.25139,0.13641,0.98202
1700499507062500,-9.343598,0.122685,0.337568,0.22439,0.25759,0.92402
1700499507070312,-9.519598,0.187685,0.204568,0.20569,0.63359,0.81602
1700499507078125,-9.644598,0.215685,0.179568,0.20079,0.76759,0.70602
1700499507085937,-9.767598,0.211685,0.224568,0.18499,0.87059,0.68702
1700499507093750,-9.927598,0.235685,0.138568,0.17429,0.89659,0.66102
1700499507101562,-10.60598,0.252685,0.37568,0.15459,0.90259,0.65102
1700499507109375,-10.81598,0.257685,0.1568,0.14019,0.95359,0.66902
1700499507117187,-9.936598,0.231685,0.7432,0.12479,0.80459,0.65302
1700499507125000,-9.877598,0.201685,0.40432,0.12649,0.70759,0.57202
1700499507132812,-10.174598,0.212685,0.9432,0.12249,0.53959,0.52102
1700499507140625,-10.499598,0.315685,0.70432,0.11419,0.63359,0.35902
1700499507148437,-10.528598,0.541685,0.47432,0.10319,0.101959,0.33602
1700499507156250,-10.431598,0.822685,0.153568,0.9519,0.149259,0.37202
1700499507164062,-10.58598,0.987685,0.153568,0.7779,0.165459,0.45502
1700499507171875,-9.888598,1.15685,0.189568,0.5899,0.168359,0.63302
1700499507179687,-9.920598,0.934685,0.42432,0.3539,0.148759,0.68302
1700499507187500,-9.923598,0.823685,0.331432,0.1019,0.137359,0.67002
1700499507195312,-9.955598,0.834685,0.400432,0.1511,0.134259,0.68902
1700499507203125,-9.921598,0.876685,0.423432,0.3491,0.132459,0.49702
1700499507210937,-9.835598,0.970685,0.470432,0.5611,0.127359,0.35302
1700499507218750,-9.785598,1.87685,0.506432,0.7321,0.112759,0.20902
1700499507226562,-9.744598,1.195685,0.545432,0.8051,0.97859,0.11202
1700499507234375,-9.688598,1.351685,0.632432,0.9911,0.94759,0.6298
1700499507242187,-9.647598,1.475685,0.698432,0.9921,0.91659,0.12698
1700499507250000,-9.611598,1.580685,0.697432,0.9281,0.78759,0.25698
1700499507257812,-9.569598,1.611685,0.643432,0.7981,0.68859,0.35598
1700499507265625,-9.573598,1.569685,0.574432,0.6091,0.57459,0.35898
1700499507273437,-9.673598,1.544685,0.511432,0.3881,0.39459,0.34698
1700499507281250,-9.752598,1.578685,0.436432,0.2311,0.52559,0.41198
1700499507289062,-9.771598,1.637685,0.360432,0.861,0.59059,0.50998
1700499507296875,-9.797598,1.728685,0.315432,0.3019,0.62559,0.46598
1700499507304687,-9.817598,1.841685,0.371432,0.5289,0.58159,0.41798
1700499507312500,-9.778598,1.947685,0.411432,0.7619,0.62159,0.42398
1700499507320312,-9.719598,2.24685,0.425432,0.10309,0.70359,0.47598
1700499507328125,-9.787598,2.61685,0.560432,0.13569,0.63959,0.38298
1700499507335937,-10.38598,2.17685,0.767432,0.16109,0.72959,0.36498
1700499507343750,-10.345598,1.980685,0.853432,0.17949,0.73859,0.38698
1700499507351562,-10.542598,1.928685,0.783432,0.19519,0.90059,0.33998
1700499507359375,-10.534598,1.846685,0.639432,0.23019,0.105359,0.27598
1700499507367187,-10.490598,1.743685,0.495432,0.27779,0.101759,0.23498
1700499507375000,-10.526598,1.628685,0.488432,0.30899,0.87059,0.14298
1700499507382812,-10.590598,1.549685,0.490432,0.35199,0.58259,0.6598
1700499507390625,-10.559598,1.547685,0.439432,0.38929,0.41159,0.5898
1700499507398437,-10.424598,1.554685,0.418432,0.41649,0.21359,0.9698
1700499507406250,-10.267598,1.571685,0.403432,0.44909,0.7841,0.2098
1700499507414062,-10.112598,1.584685,0.375432,0.45469,0.15641,0.6002
1700499507421875,-9.936598,1.557685,0.312432,0.47189,0.32041,0.13702
1700499507429687,-9.738598,1.525685,0.186432,0.48109,0.37041,0.23302
1700499507437500,-9.592598,1.483685,0.116432,0.47509,0.33141,0.43002
1700499507445312,-9.517598,1.437685,0.107432,0.49119,0.48441,0.60202
1700499507453125,-9.501598,1.421685,0.13432,0.48219,0.39941,0.89502
1700499507460937,-9.449598,1.389685,0.27568,0.47369,0.41641,0.113802
1700499507468750,-9.385598,1.380685,0.13432,0.47689,0.42041,0.137802
1700499507476562,-9.378598,1.362685,0.36568,0.44539,0.40841,0.163802
1700499507484375,-9.389598,1.334685,0.58432,0.41069,0.46241,0.193002
1700499507492187,-9.382598,1.276685,0.99432,0.38299,0.47441,0.211302
1700499507500000,-9.336598,1.235685,0.62432,0.37299,0.42241,0.216402
1700499507507812,-9.325598,1.270685,0.27568,0.37089,0.37441,0.243802
1700499507515625,-9.367598,1.360685,0.31432,0.33959,0.49141,0.252102
1700499507523437,-9.447598,1.432685,0.180432,0.31279,0.36341,0.265302
1700499507531250,-9.540598,1.473685,0.184432,0.29739,0.33341,0.270202
1700499507539062,-9.581598,1.519685,0.47432,0.29899,0.31841,0.279802
1700499507546875,-9.582598,1.587685,0.0,0.29199,0.39541,0.276902
1700499507554687,-9.601598,1.678685,0.85432,0.27829,0.41441,0.278502
1700499507562500,-9.638598,1.730685,0.161432,0.26619,0.63041,0.279902
1700499507570312,-9.636598,1.752685,0.211432,0.24679,0.64341,0.285202
1700499507578125,-9.573598,1.778685,0.225432,0.23989,0.58441,0.283302
1700499507585937,-9.484598,1.821685,0.303432,0.21939,0.53441,0.275602
1700499507593750,-9.435598,1.862685,0.382432,0.20409,0.58441,0.269202
1700499507601562,-9.407598,1.877685,0.436432,0.18739,0.56141,0.271402
1700499507609375,-9.402598,1.866685,0.423432,0.15139,0.54641,0.270202
1700499507617187,-9.399598,1.835685,0.376432,0.14529,0.57341,0.261602
1700499507625000,-9.380598,1.795685,0.328432,0.12219,0.69441,0.255902
1700499507632812,-9.398598,1.751685,0.290432,0.10379,0.99141,0.254202
1700499507640625,-9.372598,1.715685,0.243432,0.9509,0.120641,0.245902
1700499507648437,-9.297598,1.667685,0.173432,0.7799,0.140141,0.233102
1700499507656250,-9.189598,1.603685,0.89432,0.7009,0.174141,0.220302
1700499507664062,-8.966598,1.564685,0.94432,0.6329,0.197241,0.195902
1700499507671875,-8.742598,1.498685,0.62432,0.5349,0.216141,0.175302
1700499507679687,-8.569598,1.474685,0.20432,0.7219,0.240941,0.140902
1700499507687500,-8.441598,1.499685,0.76432,0.7819,0.251241,0.114702
1700499507695312,-8.456598,1.607685,0.141432,0.7699,0.272141,0.84102
1700499507703125,-8.699598,1.760685,0.202432,0.5429,0.281841,0.50402
1700499507710937,-9.56598,1.901685,0.236432,0.5449,0.278441,0.29602
1700499507718750,-9.430598,2.80685,0.112432,0.4409,0.258941,0.13602
1700499507726562,-9.844598,2.250685,0.50568,0.3759,0.253741,0.5802
1700499507734375,-10.187598,2.369685,0.160568,0.4589,0.260341,0.7298
1700499507742187,-10.496598,2.453685,0.187568,0.3079,0.273741,0.12198
1700499507750000,-10.749598,2.508685,0.232568,0.2899,0.278541,0.8898
1700499507757812,-10.878598,2.541685,0.329568,0.539,0.294841,0.7098
1700499507765625,-10.887598,2.573685,0.466568,0.71,0.313041,0.2398
1700499507773437,-10.682598,2.534685,0.586568,0.2431,0.329341,0.3798
1700499507781250,-10.337598,2.411685,0.678568,0.3131,0.356541,0.3598
1700499507789062,-10.25598,2.209685,0.736568,0.4401,0.386641,0.15298
1700499507796875,-9.712598,1.969685,0.770568,0.4441,0.402441,0.31198
1700499507804687,-9.329598,1.797685,0.903568,0.5451,0.414141,0.47398
1700499507812500,-9.598,1.639685,0.941568,0.6761,0.422641,0.68498
1700499507820312,-8.792598,1.551685,1.45568,0.8271,0.420741,0.105298
1700499507828125,-8.655598,1.525685,1.63568,0.9781,0.399541,0.132398
1700499507835937,-8.635598,1.569685,1.119568,0.11671,0.358241,0.160798
1700499507843750,-8.729598,1.632685,1.209568,0.11651,0.323741,0.181398
1700499507851562,-8.896598,1.693685,1.241568,0.11751,0.289541,0.202198
1700499507859375,-9.114598,1.741685,1.245568,0.11871,0.276741,0.207098
1700499507867187,-9.318598,1.803685,1.268568,0.11661,0.262941,0.205098
1700499507875000,-9.488598,1.886685,1.286568,0.11861,0.254641,0.195298
1700499507882812,-9.664598,1.964685,1.286568,0.12161,0.242041,0.177598
1700499507890625,-9.823598,2.55685,1.268568,0.11591,0.248341,0.166298
1700499507898437,-9.997598,2.131685,1.257568,0.13481,0.252041,0.143698
1700499507906250,-10.116598,2.106685,1.281568,0.14431,0.258741,0.129198
1700499507914062,-10.56598,2.12685,1.290568,0.15911,0.247141,0.114398
1700499507921875,-9.862598,1.838685,1.320568,0.16541,0.232541,0.109398
1700499507929687,-9.583598,1.699685,1.236568,0.16391,0.222841,0.101398
1700499507937500,-9.385598,1.609685,1.67568,0.17101,0.189541,0.107198
1700499507945312,-9.259598,1.614685,0.871568,0.16581,0.148941,0.116798
1700499507953125,-9.193598,1.683685,0.790568,0.17191,0.118541,0.124198
1700499507960937,-9.289598,1.712685,0.844568,0.17251,0.91341,0.135498
1700499507968750,-9.444598,1.659685,0.882568,0.16381,0.63741,0.158198
1700499507976562,-9.664598,1.524685,0.955568,0.15231,0.41641,0.167398
1700499507984375,-9.823598,1.347685,0.959568,0.14021,0.22541,0.182198
1700499507992187,-9.852598,1.181685,0.959568,0.13071,0.9241,0.203098
1700499508000000,-9.816598,1.37685,0.905568,0.10561,0.4141,0.212998
1700499508007812,-9.781598,0.947685,0.761568,0.8341,0.12041,0.234198
1700499508015625,-9.715598,0.895685,0.644568,0.6101,0.12041,0.248998
1700499508023437,-9.582598,0.891685,0.607568,0.4171,0.18741,0.260598
1700499508031250,-9.400598,0.895685,0.589568,0.4311,0.15341,0.270198
1700499508039062,-9.277598,0.933685,0.522568,0.3801,0.13841,0.281598
1700499508046875,-9.233598,0.992685,0.452568,0.2891,0.13741,0.275198
1700499508054687,-9.247598,1.41685,0.360568,0.3941,0.14141,0.268798
1700499508062500,-9.318598,1.109685,0.303568,0.4351,0.5859,0.257198
1700499508070312,-9.389598,1.185685,0.308568,0.5281,0.23359,0.240998
1700499508078125,-9.491598,1.263685,0.362568,0.6861,0.36159,0.216698
1700499508085937,-9.629598,1.327685,0.362568,0.8051,0.57459,0.190598
1700499508093750,-9.760598,1.375685,0.324568,0.9331,0.65259,0.161498
1700499508101562,-9.866598,1.366685,0.297568,0.11041,0.77259,0.139998
1700499508109375,-9.933598,1.336685,0.243568,0.12001,0.88359,0.114098
1700499508117187,-9.962598,1.307685,0.195568,0.12221,0.76859,0.89998
1700499508125000,-9.979598,1.250685,0.180568,0.13181,0.71959,0.76998
1700499508132812,-9.978598,1.176685,0.150568,0.14631,0.62159,0.67198
1700499508140625,-9.918598,1.115685,0.150568,0.14511,0.49259,0.62298
1700499508148437,-9.836598,1.35685,0.168568,0.14561,0.47059,0.67498
1700499508156250,-9.768598,0.994685,0.139568,0.14871,0.32259,0.62698
1700499508164062,-9.677598,0.946685,0.107568,0.16281,0.35659,0.75398
1700499508171875,-9.567598,0.910685,0.87568,0.17141,0.21459,0.70298
1700499508179687,-9.474598,0.887685,0.69568,0.17371,0.19259,0.75398
1700499508187500,-9.422598,0.838685,0.22568,0.19031,0.28659,0.78498
1700499508195312,-9.379598,0.821685,0.72432,0.19821,0.37059,0.91198
1700499508203125,-9.370598,0.794685,0.146432,0.19751,0.54159,0.97198
1700499508210937,-9.376598,0.808685,0.185432,0.20301,0.63459,0.103798
1700499508218750,-9.424598,0.830685,0.202432,0.20341,0.63859,0.109998
1700499508226562,-9.501598,0.836685,0.243432,0.20271,0.74259,0.109698
1700499508234375,-9.571598,0.845685,0.335432,0.20311,0.81259,0.120698
1700499508242187,-9.631598,0.867685,0.414432,0.19621,0.80659,0.112998
1700499508250000,-9.663598,0.878685,0.457432,0.18931,0.83559,0.116498
1700499508257812,-9.687598,0.879685,0.486432,0.18081,0.73359,0.116798
1700499508265625,-9.710598,0.884685,0.509432,0.15451,0.66959,0.110698
1700499508273437,-9.737598,0.871685,0.563432,0.14001,0.50459,0.112598
1700499508281250,-9.804598,0.869685,0.619432,0.12491,0.44359,0.111098
1700499508289062,-9.917598,0.864685,0.605432,0.11451,0.44759,0.110998
1700499508296875,-10.22598,0.848685,0.567432,0.8751,0.47759,0.108198
1700499508304687,-10.121598,0.864685,0.576432,0.5401,0.62059,0.107098
1700499508312500,-10.201598,0.928685,0.623432,0.2721,0.54859,0.98898
1700499508320312,-10.265598,1.59685,0.682432,0.2101,0.53559,0.86698
1700499508328125,-10.343598,1.120685,0.691432,0.1111,0.40759,0.59298
1700499508335937,-10.400598,1.132685,0.529432,0.79,0.32859,0.44898
1700499508343750,-10.475598,1.104685,0.256432,0.3429,0.17559,0.31198
1700499508351562,-10.503598,1.118685,0.54432,0.5489,0.8259,0.598
1700499508359375,-10.431598,1.141685,0.76568,0.6209,0.3359,0.25102
1700499508367187,-10.332598,1.131685,0.274568,0.7759,0.9941,0.47302
1700499508375000,-10.197598,1.96685,0.562568,0.10119,0.16941,0.72602
1700499508382812,-9.985598,1.106685,0.774568,0.11969,0.16941,0.90102
1700499508390625,-9.743598,1.118685,0.981568,0.14229,0.24441,0.90102
1700499508398437,-9.551598,1.157685,1.207568,0.15179,0.24641,0.94802
1700499508406250,-9.340598,1.211685,1.339568,0.15029,0.28041,0.99502
1700499508414062,-9.141598,1.259685,1.454568,0.15029,0.29541,0.94802
1700499508421875,-8.952598,1.306685,1.454568,0.15259,0.16941,0.89702
1700499508429687,-8.804598,1.306685,1.344568,0.14169,0.7241,0.91502
1700499508437500,-8.746598,1.304685,1.222568,0.12719,0.30659,0.82402
1700499508445312,-8.755598,1.296685,1.98568,0.12369,0.55359,0.81002
1700499508453125,-8.854598,1.341685,0.988568,0.11989,0.104959,0.70402
1700499508460937,-8.954598,1.414685,0.732568,0.10569,0.168759,0.61302
1700499508468750,-9.116598,1.529685,0.448568,0.10029,0.226359,0.57102
1700499508476562,-9.353598,1.635685,0.211568,0.10229,0.275059,0.52402
1700499508484375,-9.635598,1.699685,0.24568,0.11519,0.305859,0.52302
1700499508492187,-9.849598,1.722685,0.89432,0.12429,0.338559,0.57202
1700499508500000,-10.51598,1.699685,0.206432,0.14049,0.353859,0.62302
1700499508507812,-10.235598,1.655685,0.337432,0.14829,0.350459,0.73302
1700499508515625,-10.373598,1.588685,0.429432,0.16059,0.324459,0.78002
1700499508523437,-10.507598,1.537685,0.477432,0.17639,0.311059,0.92102
1700499508531250,-10.537598,1.442685,0.502432,0.18309,0.271659,0.94902
1700499508539062,-10.457598,1.359685,0.479432,0.19399,0.232459,0.101002
1700499508546875,-10.344598,1.309685,0.443432,0.19639,0.189259,0.113202
1700499508554687,-10.188598,1.275685,0.394432,0.20419,0.137159,0.114502
1700499508562500,-9.993598,1.260685,0.335432,0.20499,0.101759,0.117802
1700499508570312,-9.770598,1.262685,0.274432,0.20399,0.75359,0.117502
1700499508578125,-9.584598,1.283685,0.227432,0.19799,0.45659,0.120502
1700499508585937,-9.441598,1.305685,0.130432,0.17979,0.30059,0.116102
1700499508593750,-9.359598,1.287685,0.18568,0.17329,0.7959,0.117302
1700499508601562,-9.312598,1.273685,0.123568,0.15819,0.4459,0.107602
1700499508609375,-9.289598,1.282685,0.209568,0.14579,0.7359,0.115702
1700499508617187,-9.310598,1.295685,0.245568,0.14199,0.6841,0.117502
1700499508625000,-9.308598,1.343685,0.232568,0.13229,0.21341,0.116002
1700499508632812,-9.339598,1.433685,0.256568,0.10669,0.36741,0.120702
1700499508640625,-9.385598,1.509685,0.220568,0.8789,0.46841,0.130402
1700499508648437,-9.417598,1.578685,0.186568,0.7509,0.59641,0.130602
1700499508656250,-9.470598,1.630685,0.207568,0.6399,0.82541,0.133902
1700499508664062,-9.547598,1.669685,0.205568,0.5169,0.90841,0.132302
1700499508671875,-9.667598,1.702685,0.117568,0.4649,0.95541,0.138902
1700499508679687,-9.768598,1.714685,0.65568,0.2479,0.97341,0.137402
1700499508687500,-9.847598,1.738685,0.99568,0.289,0.103741,0.128002
1700499508695312,-9.930598,1.746685,0.175568,0.321,0.113541,0.123202
1700499508703125,-9.969598,1.744685,0.184568,0.2491,0.128341,0.116902
1700499508710937,-9.966598,1.753685,0.191568,0.3771,0.145341,0.106902
1700499508718750,-9.915598,1.799685,0.261568,0.4891,0.166241,0.95802
1700499508726562,-9.844598,1.844685,0.356568,0.7281,0.180541,0.89702
1700499508734375,-9.719598,1.887685,0.407568,0.7391,0.195441,0.83102
1700499508742187,-9.625598,1.888685,0.416568,0.10021,0.210141,0.67202
1700499508750000,-9.519598,1.899685,0.423568,0.11911,0.218241,0.67402
1700499508757812,-9.414598,1.913685,0.394568,0.12951,0.213541,0.54502
1700499508765625,-9.306598,1.936685,0.304568,0.15191,0.200041,0.43802
1700499508773437,-9.255598,1.984685,0.198568,0.17341,0.179041,0.36002
1700499508781250,-9.247598,2.23685,0.140568,0.19851,0.169041,0.23602
1700499508789062,-9.297598,2.35685,0.104568,0.21301,0.145841,0.16002
1700499508796875,-9.326598,2.33685,0.122568,0.22271,0.148841,0.11402
1700499508804687,-9.377598,2.17685,0.250568,0.22801,0.154341,0.3102
1700499508812500,-9.437598,1.971685,0.372568,0.23261,0.173841,0.4998
1700499508820312,-9.410598,1.953685,0.423568,0.23631,0.198741,0.18198
1700499508828125,-9.246598,1.986685,0.353568,0.24671,0.211941,0.29498
1700499508835937,-9.103598,2.48685,0.248568,0.26441,0.219741,0.35698
1700499508843750,-9.11598,2.158685,0.175568,0.26981,0.233241,0.45598
1700499508851562,-8.973598,2.314685,0.122568,0.28271,0.214741,0.59598
1700499508859375,-8.939598,2.431685,0.15432,0.30761,0.196941,0.65698
1700499508867187,-8.904598,2.526685,0.199432,0.33681,0.185741,0.78298
1700499508875000,-8.964598,2.609685,0.352432,0.35651,0.168641,0.88898
1700499508882812,-9.65598,2.609685,0.416432,0.37091,0.151441,0.100198
1700499508890625,-9.237598,2.551685,0.400432,0.38061,0.146241,0.104798
1700499508898437,-9.445598,2.468685,0.384432,0.39171,0.147541,0.120698
1700499508906250,-9.614598,2.348685,0.359432,0.39611,0.157241,0.138298
1700499508914062,-9.711598,2.235685,0.308432,0.39201,0.165741,0.156398
1700499508921875,-9.759598,2.120685,0.233432,0.39031,0.176841,0.180498
1700499508929687,-9.712598,2.11685,0.186432,0.37711,0.188141,0.204898
1700499508937500,-9.819598,1.943685,0.127432,0.36721,0.210841,0.234098
1700499508945312,-9.936598,1.830685,0.56432,0.36311,0.215941,0.260098
1700499508953125,-9.693598,1.638685,0.83568,0.35061,0.181341,0.280798
1700499508960937,-9.540598,1.509685,0.297568,0.32241,0.148441,0.290598
1700499508968750,-9.497598,1.479685,0.232568,0.30101,0.136341,0.303398
1700499508976562,-9.372598,1.546685,0.144568,0.27371,0.100841,0.311698
1700499508984375,-9.289598,1.698685,0.151568,0.24851,0.65041,0.306998
1700499508992187,-9.258598,1.866685,0.110568,0.23491,0.42141,0.290898
1700499509000000,-9.160598,1.934685,0.54568,0.21831,0.22541,0.266798
1700499509007812,-9.78598,1.872685,0.0,0.22241,0.8659,0.239098
1700499509015625,-9.128598,1.717685,0.105432,0.22171,0.30059,0.219498
1700499509023437,-9.172598,1.421685,0.182432,0.21861,0.57659,0.211398
1700499509031250,-9.194598,1.62685,0.171432,0.21131,0.87059,0.193498
1700499509039062,-9.250598,0.788685,0.173432,0.19251,0.116659,0.199998
1700499509046875,-9.326598,0.603685,0.221432,0.17161,0.134259,0.206698
1700499509054687,-9.331598,0.479685,0.246432,0.16971,0.137459,0.211598
1700499509062500,-9.266598,0.365685,0.286432,0.16861,0.159059,0.216098
1700499509070312,-9.190598,0.226685,0.387432,0.18091,0.160759,0.228898
1700499509078125,-9.178598,0.68685,0.430432,0.18361,0.147359,0.229098
1700499509085937,-9.278598,0.54315,0.536432,0.18101,0.128259,0.232198
1700499509093750,-9.647598,0.166315,0.705432,0.18981,0.98459,0.234098
1700499509101562,-10.251598,0.369315,0.705432,0.20281,0.89159,0.243398
1700499509109375,-10.890598,0.570315,0.469432,0.21931,0.90459,0.254698
1700499509117187,-11.568598,0.604315,0.97432,0.20811,0.87059,0.256498
1700499509125000,-12.106598,0.442315,0.206568,0.18931,0.88859,0.263098
1700499509132812,-12.294598,0.195315,0.663568,0.17261,0.94259,0.266298
1700499509140625,-12.161598,0.48685,1.46568,0.15351,0.76159,0.268298
1700499509148437,-11.865598,0.239685,0.999568,0.14581,0.61559,0.261998
1700499509156250,-11.588598,0.334685,0.781568,0.15061,0.31859,0.241298
1700499509164062,-11.346598,0.435685,0.767568,0.15061,0.7741,0.215798
1700499509171875,-11.186598,0.534685,0.963568,0.16391,0.25541,0.194798
1700499509179687,-10.935598,0.579685,1.67568,0.18881,0.16141,0.184898
1700499509187500,-10.593598,0.528685,1.64568,0.21891,0.27841,0.158898
1700499509195312,-10.213598,0.526685,1.96568,0.24251,0.29741,0.140998
1700499509203125,-9.866598,0.510685,1.42568,0.26691,0.37641,0.124498
1700499509210937,-9.557598,0.432685,0.882568,0.28381,0.47741,0.119698
1700499509218750,-9.352598,0.364685,0.798568,0.29801,0.60941,0.111498
1700499509226562,-9.264598,0.354685,0.695568,0.31961,0.72341,0.124298
1700499509234375,-9.223598,0.351685,0.558568,0.34471,0.85341,0.130498
1700499509242187,-9.243598,0.347685,0.497568,0.34841,0.74241,0.151498
1700499509250000,-9.306598,0.317685,0.490568,0.34711,0.68841,0.172198
1700499509257812,-9.348598,0.302685,0.467568,0.34261,0.72541,0.198298
1700499509265625,-9.434598,0.301685,0.413568,0.34451,0.67141,0.214198
1700499509273437,-9.467598,0.313685,0.316568,0.33731,0.88641,0.232198
1700499509281250,-9.472598,0.328685,0.253568,0.31941,0.95341,0.245498
1700499509289062,-9.472598,0.312685,0.222568,0.31541,0.112741,0.251798
1700499509296875,-9.472598,0.279685,0.200568,0.30021,0.130141,0.258298
1700499509304687,-9.485598,0.272685,0.191568,0.28571,0.135141,0.264998
1700499509312500,-9.517598,0.298685,0.229568,0.26951,0.137141,0.263798
1700499509320312,-9.549598,0.336685,0.272568,0.26651,0.133841,0.255698
1700499509328125,-9.567598,0.360685,0.263568,0.25111,0.120741,0.250998
1700499509335937,-9.583598,0.370685,0.263568,0.23241,0.120741,0.243098
1700499509343750,-9.610598,0.361685,0.290568,0.21231,0.119141,0.230498
1700499509351562,-9.642598,0.355685,0.303568,0.19591,0.117141,0.219198
1700499509359375,-9.697598,0.334685,0.314568,0.16131,0.120641,0.205198
1700499509367187,-9.746598,0.321685,0.350568,0.14081,0.137341,0.186398
1700499509375000,-9.790598,0.342685,0.366568,0.12421,0.148541,0.167198
1700499509382812,-9.837598,0.345685,0.380568,0.8941,0.154041,0.143698
1700499509390625,-9.827598,0.320685,0.411568,0.7941,0.161741,0.132298
1700499509398437,-9.787598,0.299685,0.459568,0.4851,0.168141,0.114998
1700499509406250,-9.770598,0.266685,0.562568,0.2481,0.186241,0.110598
1700499509414062,-9.764598,0.272685,0.598568,0.279,0.199141,0.93198
1700499509421875,-9.779598,0.253685,0.645568,0.2369,0.217741,0.76098
1700499509429687,-9.756598,0.215685,0.724568,0.4069,0.227541,0.61798
1700499509437500,-9.749598,0.177685,0.816568,0.5609,0.239041,0.44398
1700499509445312,-9.710598,0.152685,0.859568,0.7449,0.248641,0.38098
1700499509453125,-9.665598,0.154685,0.875568,0.9969,0.252041,0.33598
1700499509460937,-9.668598,0.165685,0.931568,0.10039,0.261641,0.9398
1700499509468750,-9.663598,0.145685,1.53568,0.10849,0.267041,0.8002
1700499509476562,-9.642598,0.125685,1.152568,0.10979,0.262141,0.22502
1700499509484375,-9.631598,0.109685,1.229568,0.12129,0.263441,0.41902
1700499509492187,-9.644598,0.96685,1.226568,0.12829,0.264041,0.48002
1700499509500000,-9.671598,0.70685,1.269568,0.12829,0.259441,0.62402
1700499509507812,-9.700598,0.71685,1.413568,0.12959,0.244741,0.70502
1700499509515625,-9.724598,0.38685,1.445568,0.12729,0.236141,0.75602
1700499509523437,-9.719598,0.6685,1.436568,0.12519,0.221141,0.80702
1700499509531250,-9.737598,0.2685,1.427568,0.12379,0.201741,0.82402
1700499509539062,-9.734598,0.5685,1.469568,0.12519,0.194541,0.78702
1700499509546875,-9.714598,0.22315,1.479568,0.12159,0.180041,0.81202
1700499509554687,-9.691598,0.42315,1.501568,0.11109,0.170641,0.81102
1700499509562500,-9.640598,0.36315,1.541568,0.11419,0.159141,0.78002
1700499509570312,-9.591598,0.28315,1.560568,0.11789,0.141941,0.67202
1700499509578125,-9.560598,0.2315,1.571568,0.11209,0.129241,0.65502
1700499509585937,-9.546598,0.19685,1.589568,0.12669,0.119841,0.68502
1700499509593750,-9.516598,0.54685,1.562568,0.11979,0.98141,0.62402
1700499509601562,-9.483598,0.114685,1.512568,0.12819,0.87141,0.70202
1700499509609375,-9.384598,0.141685,1.458568,0.11739,0.58141,0.78402
1700499509617187,-9.299598,0.191685,1.409568,0.10239,0.26741,0.85502
1700499509625000,-9.282598,0.234685,1.312568,0.9529,0.5041,0.92302
1700499509632812,-9.298598,0.239685,1.238568,0.7319,0.30859,0.94402
1700499509640625,-9.325598,0.224685,1.150568,0.5309,0.66559,0.91502
1700499509648437,-9.381598,0.219685,1.91568,0.3089,0.105659,0.96802
1700499509656250,-9.464598,0.244685,1.8568,0.1839,0.141559,0.92302
1700499509664062,-9.579598,0.290685,0.870568,0.351,0.164459,0.86302
1700499509671875,-9.677598,0.325685,0.774568,0.3321,0.175959,0.77102
1700499509679687,-9.781598,0.364685,0.693568,0.4871,0.179259,0.67602
1700499509687500,-9.813598,0.434685,0.548568,0.6391,0.201859,0.54902
1700499509695312,-9.828598,0.493685,0.443568,0.7901,0.202659,0.49102
1700499509703125,-9.858598,0.553685,0.342568,0.9781,0.206259,0.28502
1700499509710937,-9.895598,0.580685,0.258568,0.10761,0.213059,0.23902
1700499509718750,-9.960598,0.604685,0.150568,0.12161,0.220359,0.7602
1700499509726562,-10.12598,0.607685,0.55568,0.12361,0.217559,0.1302
1700499509734375,-10.93598,0.606685,0.38432,0.12501,0.224159,0.9898
1700499509742187,-10.169598,0.609685,0.121432,0.11991,0.217459,0.19698
1700499509750000,-10.194598,0.629685,0.175432,0.10731,0.211159,0.31098
1700499509757812,-10.230598,0.639685,0.216432,0.10241,0.206259,0.37598
1700499509765625,-10.219598,0.628685,0.268432,0.10011,0.196059,0.42798
1700499509773437,-10.180598,0.638685,0.284432,0.9181,0.179559,0.49498
1700499509781250,-10.129598,0.622685,0.308432,0.7471,0.166759,0.57698
1700499509789062,-10.65598,0.610685,0.371432,0.7291,0.143859,0.62698
1700499509796875,-10.4598,0.584685,0.450432,0.6841,0.117959,0.62798
1700499509804687,-9.926598,0.554685,0.504432,0.5791,0.90659,0.66098
1700499509812500,-9.867598,0.531685,0.507432,0.4751,0.76959,0.63398
1700499509820312,-9.788598,0.508685,0.536432,0.3961,0.68959,0.73198
1700499509828125,-9.729598,0.498685,0.543432,0.2071,0.62259,0.65498
1700499509835937,-9.684598,0.499685,0.581432,0.2061,0.55659,0.70298
1700499509843750,-9.682598,0.497685,0.590432,0.851,0.54359,0.65498
1700499509851562,-9.684598,0.504685,0.617432,0.101,0.54459,0.60698
1700499509859375,-9.644598,0.556685,0.673432,0.1019,0.42859,0.57798
1700499509867187,-9.616598,0.634685,0.743432,0.2919,0.24759,0.50098
1700499509875000,-9.577598,0.704685,0.799432,0.3289,0.17659,0.39198
1700499509882812,-9.531598,0.778685,0.846432,0.4099,0.5259,0.26098
1700499509890625,-9.511598,0.818685,0.896432,0.5349,0.6541,0.3898
1700499509898437,-9.485598,0.833685,0.901432,0.5039,0.18341,0.16802
1700499509906250,-9.480598,0.840685,0.937432,0.6709,0.26441,0.40802
1700499509914062,-9.483598,0.846685,0.923432,0.8029,0.37341,0.48902
1700499509921875,-9.445598,0.848685,0.885432,0.9109,0.42441,0.68002
1700499509929687,-9.413598,0.870685,0.862432,0.10189,0.47641,0.88702
1700499509937500,-9.398598,0.923685,0.840432,0.10009,0.59241,0.112802
1700499509945312,-9.417598,0.974685,0.808432,0.10349,0.56341,0.120702
1700499509953125,-9.446598,0.977685,0.905432,0.12029,0.46541,0.138302
1700499509960937,-9.471598,0.993685,0.889432,0.12619,0.41441,0.144702
1700499509968750,-9.542598,1.41685,0.941432,0.12429,0.30041,0.156102
1700499509976562,-9.648598,1.55685,-1.47432,0.12429,0.30041,0.156102
1700499509984375,-9.721598,1.35685,-1.65432,0.10079,0.17341,0.172402
1700499509992187,-9.798598,1.31685,0.982432,0.10079,0.17441,0.178802
1700499510000000,-9.967598,1.40685,0.930432,0.9229,0.12241,0.184002
1700499510007812,-10.77598,1.51685,-1.11432,0.7369,0.12341,0.182502
1700499510015625,-10.137598,1.12685,-1.69432,0.5889,0.7041,0.186202
1700499510023437,-10.179598,0.995685,0.984432,0.6669,0.5241,0.178102
1700499510031250,-10.179598,0.972685,0.970432,0.5799,0.4741,0.180102
1700499510039062,-10.130598,0.981685,-1.8432,0.5109,0.2041,0.175102
1700499510046875,-10.58598,0.968685,-1.6432,0.4629,0.6741,0.168702
1700499510054687,-10.30598,0.957685,-1.4432,0.3299,0.12141,0.162202
1700499510062500,-9.967598,0.961685,-1.49432,0.2339,0.21041,0.153802
1700499510070312,-9.841598,0.943685,-1.40432,0.89,0.13941,0.141402
1700499510078125,-9.731598,0.930685,0.993432,0.901,0.15041,0.127302
1700499510085937,-9.637598,0.931685,0.970432,0.3101,0.11641,0.116402
1700499510093750,-9.522598,0.931685,0.939432,0.5581,0.3441,0.103902
1700499510101562,-9.407598,0.910685,0.876432,0.6751,0.10341,0.90802
1700499510109375,-9.297598,0.895685,0.750432,0.8921,0.18541,0.81402
1700499510117187,-9.204598,0.880685,0.572432,0.10461,0.16941,0.68702
1700499510125000,-9.128598,0.859685,0.432432,0.11371,0.29941,0.57402
1700499510132812,-9.94598,0.823685,0.238432,0.12371,0.34141,0.38502
1700499510140625,-9.29598,0.820685,0.31432,0.12341,0.35741,0.24002
1700499510148437,-8.927598,0.819685,0.188568,0.13771,0.36341,0.7702
1700499510156250,-8.841598,0.799685,0.407568,0.14741,0.24641,0.4898
1700499510164062,-8.846598,0.777685,0.508568,0.14671,0.21341,0.30698
1700499510171875,-8.916598,0.721685,0.524568,0.15871,0.2141,0.33798
1700499510179687,-9.74598,0.619685,0.580568,0.16971,0.25759,0.43198
1700499510187500,-9.286598,0.514685,0.641568,0.17231,0.41859,0.55998
1700499510195312,-9.631598,0.406685,0.729568,0.18861,0.76859,0.74698
1700499510203125,-10.34598,0.286685,0.781568,0.18571,0.92059,0.93698
1700499510210937,-10.388598,0.229685,0.794568,0.18641,0.117759,0.106698
1700499510218750,-10.623598,0.200685,0.751568,0.17471,0.135459,0.119698
1700499510226562,-10.769598,0.157685,0.657568,0.17371,0.142559,0.130698
1700499510234375,-10.890598,0.135685,0.499568,0.16701,0.142659,0.151698
1700499510242187,-11.598,0.130685,0.364568,0.14931,0.132859,0.164998
1700499510250000,-11.50598,0.161685,0.267568,0.15001,0.120259,0.164798
1700499510257812,-11.11598,0.257685,0.199568,0.12991,0.111459,0.176698
1700499510265625,-10.866598,0.331685,0.105568,0.11341,0.94159,0.181498
1700499510273437,-10.640598,0.404685,0.31568,0.11271,0.73959,0.170598
1700499510281250,-10.502598,0.499685,0.4568,0.10651,0.67259,0.157898
1700499510289062,-10.321598,0.596685,0.43432,0.10021,0.44059,0.138898
1700499510296875,-10.135598,0.710685,0.51432,0.9531,0.36659,0.128998
1700499510304687,-9.952598,0.830685,0.47432,0.8721,0.21459,0.108398
1700499510312500,-9.787598,0.894685,0.22568,0.7791,0.6441,0.94198
1700499510320312,-9.677598,0.912685,0.42568,0.6091,0.14641,0.79998
1700499510328125,-9.583598,0.920685,0.76568,0.4381,0.40641,0.73898
1700499510335937,-9.513598,0.880685,0.130568,0.3661,0.46841,0.68998
1700499510343750,-9.459598,0.805685,0.157568,0.2151,0.50741,0.64698
1700499510351562,-9.423598,0.771685,0.155568,0.1251,0.58741,0.61498
1700499510359375,-9.411598,0.733685,0.137568,0.629,0.66741,0.68098
1700499510367187,-9.408598,0.651685,0.101568,0.189,0.66941,0.66598
1700499510375000,-9.408598,0.553685,0.87568,0.699,0.70341,0.73198
1700499510382812,-9.452598,0.452685,0.132568,0.3039,0.78341,0.74998
1700499510390625,-9.550598,0.378685,0.209568,0.5219,0.91241,0.75298
1700499510398437,-9.634598,0.322685,0.224568,0.6509,0.101241,0.80398
1700499510406250,-9.633598,0.282685,0.202568,0.7929,0.114241,0.80698
1700499510414062,-9.615598,0.235685,0.240568,0.9229,0.127641,0.79498
1700499510421875,-9.600598,0.172685,0.290568,0.10729,0.138741,0.69898
1700499510429687,-9.618598,0.126685,0.310568,0.12189,0.148741,0.70198
1700499510437500,-9.623598,0.67685,0.350568,0.13789,0.160541,0.65798
1700499510445312,-9.578598,0.17685,0.380568,0.15269,0.163041,0.67298
1700499510453125,-9.528598,0.10685,0.357568,0.15509,0.170141,0.67598
1700499510460937,-9.508598,0.11685,0.400568,0.16699,0.177941,0.64398
1700499510468750,-9.524598,0.14685,0.443568,0.18089,0.172841,0.64398
1700499510476562,-9.472598,0.2315,0.517568,0.17849,0.170741,0.60898
1700499510484375,-9.449598,0.17315,0.616568,0.18129,0.173341,0.54998
1700499510492187,-9.430598,0.78315,0.675568,0.18619,0.174141,0.43398
1700499510500000,-9.402598,0.136315,0.704568,0.19299,0.181141,0.40498
1700499510507812,-9.376598,0.216315,0.686568,0.18719,0.163541,0.38898
1700499510515625,-9.365598,0.329315,0.640568,0.18569,0.144041,0.38798
1700499510523437,-9.346598,0.425315,0.548568,0.18539,0.122741,0.35398
1700499510531250,-9.381598,0.505315,0.461568,0.17929,0.100541,0.36298
1700499510539062,-9.459598,0.574315,0.377568,0.18269,0.72941,0.39498
1700499510546875,-9.496598,0.633315,0.228568,0.17529,0.39041,0.36198
1700499510554687,-9.493598,0.671315,0.55568,0.17239,0.12941,0.47298
1700499510562500,-9.487598,0.636315,0.57432,0.15789,0.6959,0.54898
1700499510570312,-9.564598,0.546315,0.154432,0.15809,0.11759,0.54998
1700499510578125,-9.732598,0.455315,0.304432,0.14339,0.10259,0.44998
1700499510585937,-9.893598,0.368315,0.464432,0.12679,0.9759,0.36998
1700499510593750,-10.79598,0.261315,0.480432,0.10229,0.11959,0.34798
1700499510601562,-10.201598,0.217315,0.473432,0.8009,0.359,0.20098
1700499510609375,-10.260598,0.205315,0.437432,0.7639,0.17441,0.5598
1700499510617187,-10.467598,0.171315,0.466432,0.7719,0.70541,0.21102
1700499510625000,-11.44598,0.86315,0.385432,0.7579,0.118241,0.36802
1700499510632812,-11.290598,0.148685,0.408432,0.6029,0.117141,0.57702
1700499510640625,-11.67598,0.284685,0.38432,0.6389,0.75841,0.67802
1700499510648437,-10.752598,0.221685,0.310568,0.7559,0.85341,0.83902
1700499510656250,-10.518598,0.207685,0.332568,0.7729,0.98741,0.99802
1700499510664062,-10.379598,0.262685,0.276568,0.7389,0.100441,0.114302
1700499510671875,-10.289598,0.334685,0.267568,0.6659,0.91541,0.116402
1700499510679687,-10.117598,0.453685,0.330568,0.5109,0.65541,0.105402
1700499510687500,-9.807598,0.633685,0.436568,0.5069,0.43141,0.87502
1700499510695312,-9.462598,0.825685,0.463568,0.5249,0.21941,0.81102
1700499510703125,-9.67598,1.16685,0.402568,0.4919,0.15241,0.74902
1700499510710937,-8.749598,1.249685,0.366568,0.4449,0.13641,0.74902
1700499510718750,-8.520598,1.522685,0.234568,0.3349,0.21741,0.68602
1700499510726562,-8.432598,1.787685,0.90432,0.2439,0.25241,0.75002
1700499510734375,-8.551598,1.966685,0.434432,0.261,0.20341,0.80202
1700499510742187,-8.910598,2.45685,0.547432,0.1531,0.14059,0.77402
1700499510750000,-9.296598,1.997685,0.492432,0.641,0.37259,0.77602
1700499510757812,-9.567598,1.820685,0.342432,0.2039,0.81259,0.75902
1700499510765625,-10.71598,1.681685,0.211432,0.6669,0.116159,0.71002
1700499510773437,-10.678598,1.564685,0.171432,0.8949,0.122259,0.65702
1700499510781250,-11.78598,1.411685,0.42432,0.11799,0.166359,0.52702
1700499510789062,-11.128598,1.287685,0.322568,0.17809,0.183459,0.54102
1700499510796875,-10.934598,1.247685,0.389568,0.23969,0.166959,0.53102
1700499510804687,-10.809598,1.276685,0.141568,0.28839,0.113059,0.58702
1700499510812500,-10.666598,1.356685,0.15432,0.32479,0.57659,0.49902
1700499510820312,-10.586598,1.408685,0.135568,0.36569,0.16859,0.46002
1700499510828125,-10.487598,1.413685,0.362568,0.39629,0.25841,0.38702
1700499510835937,-10.226598,1.404685,0.421568,0.42589,0.53241,0.30302
1700499510843750,-9.972598,1.396685,0.432568,0.44689,0.60341,0.36202
1700499510851562,-9.727598,1.401685,0.504568,0.47439,0.56441,0.34602
1700499510859375,-9.521598,1.413685,0.585568,0.50429,0.56541,0.35802
1700499510867187,-9.362598,1.493685,0.639568,0.53249,0.66341,0.41902
1700499510875000,-9.303598,1.581685,0.601568,0.54999,0.70041,0.60802
1700499510882812,-9.378598,1.629685,0.576568,0.55429,0.69941,0.68802
1700499510890625,-9.476598,1.613685,0.545568,0.55219,0.52041,0.91502
1700499510898437,-9.545598,1.558685,0.585568,0.55299,0.40641,0.122202
1700499510906250,-9.620598,1.431685,0.587568,0.55239,0.32341,0.138502
1700499510914062,-9.672598,1.292685,0.486568,0.55689,0.39141,0.162402
1700499510921875,-9.722598,1.179685,0.385568,0.55199,0.42441,0.175402
1700499510929687,-9.772598,1.93685,0.337568,0.54519,0.40741,0.191602
1700499510937500,-9.800598,1.12685,0.296568,0.52219,0.46341,0.202802
1700499510945312,-9.860598,0.933685,0.247568,0.50819,0.66741,0.214602
1700499510953125,-9.886598,0.900685,0.229568,0.50249,0.83541,0.222402
1700499510960937,-9.910598,0.863685,0.249568,0.47459,0.95341,0.230502
1700499510968750,-9.897598,0.878685,0.312568,0.45129,0.103741,0.232302
1700499510976562,-9.842598,0.944685,0.351568,0.44109,0.116341,0.237402
1700499510984375,-9.793598,1.5685,0.425568,0.41819,0.124941,0.239002
1700499510992187,-9.731598,1.64685,0.504568,0.38839,0.138041,0.234502
1700499511000000,-9.655598,1.96685,0.547568,0.37379,0.144341,0.241202
1700499511007812,-9.587598,1.91685,0.574568,0.36809,0.148041,0.242602
1700499511015625,-9.502598,1.74685,0.583568,0.35239,0.151141,0.234802
1700499511023437,-9.416598,1.75685,0.589568,0.33679,0.149541,0.228502
1700499511031250,-9.331598,1.82685,0.542568,0.32569,0.149441,0.227102
1700499511039062,-9.303598,1.117685,0.517568,0.31609,0.140941,0.216202
1700499511046875,-9.341598,1.144685,0.518568,0.29109,0.140741,0.203602
1700499511054687,-9.351598,1.191685,0.538568,0.27459,0.152641,0.197102
1700499511062500,-9.381598,1.236685,0.540568,0.25259,0.154141,0.189302
1700499511070312,-9.411598,1.274685,0.527568,0.23059,0.157341,0.186402
1700499511078125,-9.447598,1.313685,0.547568,0.20649,0.179041,0.171802
1700499511085937,-9.465598,1.315685,0.587568,0.18869,0.195741,0.154002
1700499511093750,-9.393598,1.294685,0.639568,0.17429,0.205141,0.146202
1700499511101562,-9.333598,1.329685,0.729568,0.14439,0.224641,0.136902
1700499511109375,-9.295598,1.375685,0.761568,0.10169,0.243141,0.122502
1700499511117187,-9.268598,1.364685,0.765568,0.6789,0.271141,0.106502
1700499511125000,-9.275598,1.356685,0.846568,0.4059,0.285041,0.89402
1700499511132812,-9.277598,1.339685,0.981568,0.1399,0.297341,0.71402
1700499511140625,-9.272598,1.348685,1.96568,0.2241,0.311541,0.51102
1700499511148437,-9.223598,1.356685,1.196568,0.5081,0.317641,0.35402
1700499511156250,-9.163598,1.357685,1.315568,0.7811,0.324241,0.5002
1700499511164062,-9.109598,1.367685,1.409568,0.11051,0.330741,0.18798
1700499511171875,-9.77598,1.365685,1.529568,0.13661,0.335841,0.37898
1700499511179687,-9.84598,1.385685,1.572568,0.15841,0.329041,0.55298
1700499511187500,-9.140598,1.379685,1.572568,0.17351,0.330641,0.80898
1700499511195312,-9.208598,1.385685,1.605568,0.19011,0.309541,0.103298
1700499511203125,-9.282598,1.415685,1.650568,0.19421,0.301441,0.125798
1700499511210937,-9.380598,1.467685,1.657568,0.21811,0.264841,0.157198
1700499511218750,-9.592598,1.522685,1.682568,0.22401,0.240441,0.165098
1700499511226562,-9.815598,1.578685,1.662568,0.23151,0.216041,0.179398
1700499511234375,-10.18598,1.631685,1.700568,0.23881,0.193441,0.184198
1700499511242187,-10.175598,1.695685,1.754568,0.23781,0.176641,0.190298
1700499511250000,-10.236598,1.723685,1.777568,0.22161,0.163941,0.193798
1700499511257812,-10.193598,1.742685,1.716568,0.20221,0.148441,0.195198
1700499511265625,-10.18598,1.727685,1.637568,0.17771,0.131841,0.193698
1700499511273437,-9.810598,1.671685,1.504568,0.15371,0.114341,0.185998
1700499511281250,-9.601598,1.659685,1.299568,0.12361,0.91541,0.189498
1700499511289062,-9.458598,1.688685,1.130568,0.9931,0.53441,0.190898
1700499511296875,-9.370598,1.711685,0.977568,0.7951,0.12341,0.185998
1700499511304687,-9.402598,1.745685,0.896568,0.5401,0.19859,0.179798
1700499511312500,-9.509598,1.667685,0.853568,0.3521,0.57259,0.170198
1700499511320312,-9.632598,1.484685,0.813568,0.1601,0.79159,0.160298
1700499511328125,-9.711598,1.244685,0.860568,0.859,0.113659,0.153898
1700499511335937,-9.760598,1.27685,0.857568,0.4159,0.131659,0.157398
1700499511343750,-9.786598,0.850685,0.731568,0.6419,0.142759,0.164198
1700499511351562,-9.743598,0.714685,0.600568,0.7209,0.131459,0.173998
1700499511359375,-9.684598,0.622685,0.515568,0.9419,0.120159,0.183898
1700499511367187,-9.550598,0.531685,0.490568,0.11009,0.118459,0.185798
1700499511375000,-9.405598,0.481685,0.445568,0.10769,0.118059,0.195598
1700499511382812,-9.205598,0.482685,0.377568,0.10589,0.120059,0.201898
1700499511390625,-9.17598,0.512685,0.290568,0.10219,0.126859,0.196798
1700499511398437,-8.936598,0.559685,0.170568,0.8789,0.146459,0.193298
1700499511406250,-8.917598,0.619685,0.44568,0.6749,0.156059,0.184998
1700499511414062,-8.985598,0.644685,0.58432,0.5279,0.171059,0.181398
1700499511421875,-9.109598,0.670685,0.169432,0.2719,0.197259,0.171198
1700499511429687,-9.239598,0.675685,0.302432,0.999,0.218259,0.161298
1700499511437500,-9.440598,0.687685,0.394432,0.771,0.242759,0.147998
1700499511445312,-9.657598,0.670685,0.504432,0.3321,0.265559,0.136298
1700499511453125,-9.886598,0.620685,0.585432,0.4151,0.270359,0.111998
1700499511460937,-10.63598,0.605685,0.619432,0.4471,0.270259,0.102398
1700499511468750,-10.225598,0.601685,0.637432,0.4661,0.255359,0.81498
1700499511476562,-10.360598,0.608685,0.646432,0.4821,0.234059,0.73598
1700499511484375,-10.425598,0.606685,0.648432,0.4911,0.208359,0.55798
1700499511492187,-10.449598,0.576685,0.646432,0.5201,0.189959,0.43198
1700499511500000,-10.431598,0.555685,0.653432,0.6321,0.170459,0.35098
1700499511507812,-10.366598,0.556685,0.671432,0.7311,0.149459,0.33298
1700499511515625,-10.253598,0.550685,0.657432,0.8481,0.125959,0.27098
1700499511523437,-10.145598,0.536685,0.635432,0.9381,0.99459,0.19298
1700499511531250,-10.28598,0.513685,0.617432,0.9881,0.75359,0.24098
1700499511539062,-9.924598,0.479685,0.644432,0.9851,0.71959,0.28998
1700499511546875,-9.825598,0.466685,0.667432,0.10301,0.63759,0.35498
1700499511554687,-9.760598,0.450685,0.631432,0.11991,0.58559,0.32198
1700499511562500,-9.699598,0.464685,0.581432,0.12621,0.58659,0.40098
1700499511570312,-9.670598,0.462685,0.662432,0.12131,0.63459,0.44998
1700499511578125,-9.655598,0.483685,0.784432,0.12301,0.62159,0.54598
1700499511585937,-9.626598,0.505685,0.883432,0.12171,0.64059,0.60898
1700499511593750,-9.575598,0.530685,0.966432,0.12501,0.47959,0.65698
1700499511601562,-9.521598,0.532685,-1.38432,0.12761,0.46159,0.75398
1700499511609375,-9.480598,0.529685,-1.22432,0.11121,0.34259,0.75898
1700499511617187,-9.503598,0.541685,-1.27432,0.10181,0.26059,0.72898
1700499511625000,-9.537598,0.561685,-1.117432,0.11281,0.17859,0.72798
1700499511632812,-9.606598,0.564685,-1.193432,0.10231,0.11559,0.64798
1700499511640625,-9.653598,0.559685,-1.169432,0.9551,0.3159,0.69898
1700499511648437,-9.712598,0.579685,-1.153432,0.8311,0.1659,0.71598
1700499511656250,-9.781598,0.643685,-1.137432,0.5951,0.6441,0.73498
1700499511664062,-9.849598,0.690685,-1.432,0.4901,0.7641,0.78298
1700499511671875,-9.912598,0.722685,0.795432,0.3611,0.25741,0.76998
1700499511679687,-9.957598,0.719685,0.576432,0.2041,0.45441,0.75698
1700499511687500,-9.955598,0.721685,0.412432,0.651,0.63341,0.66298
1700499511695312,-9.873598,0.800685,0.211432,0.1869,0.76541,0.61898
1700499511703125,-9.768598,0.862685,0.49568,0.2829,0.86341,0.63698
1700499511710937,-9.659598,0.888685,0.330568,0.4109,0.101141,0.62398
1700499511718750,-9.544598,0.888685,0.628568,0.5299,0.97541,0.60698
1700499511726562,-9.418598,0.875685,0.918568,0.5679,0.106041,0.64198
1700499511734375,-9.376598,0.890685,1.186568,0.5749,0.89141,0.62198
1700499511742187,-9.400598,0.902685,1.233568,0.5849,0.68441,0.75298
1700499511750000,-9.484598,0.917685,1.200568,0.5579,0.42541,0.86498
1700499511757812,-9.603598,0.936685,1.175568,0.5529,0.10741,0.106898
1700499511765625,-9.790598,0.966685,1.125568,0.5139,0.13259,0.118198
1700499511773437,-9.984598,0.995685,1.46568,0.4549,0.39359,0.132498
1700499511781250,-10.225598,1.3685,0.900568,0.3099,0.56359,0.159398
1700499511789062,-10.569598,1.26685,0.722568,0.2599,0.72159,0.180398
1700499511796875,-10.861598,1.20685,0.508568,0.1619,0.79159,0.189798
1700499511804687,-10.968598,0.959685,0.403568,0.669,0.85859,0.197598
1700499511812500,-11.12598,0.884685,0.335568,0.2739,0.72659,0.201198
1700499511820312,-11.36598,0.843685,0.299568,0.3399,0.56159,0.199898
1700499511828125,-10.999598,0.806685,0.245568,0.2849,0.36959,0.191598
1700499511835937,-10.922598,0.736685,0.213568,0.4759,0.8859,0.180898
1700499511843750,-10.776598,0.618685,0.177568,0.5459,0.16841,0.169698
1700499511851562,-10.630598,0.497685,0.166568,0.7089,0.51641,0.160598
1700499511859375,-10.462598,0.357685,0.220568,0.8199,0.84541,0.144898
1700499511867187,-10.237598,0.213685,0.285568,0.9489,0.115841,0.142198
1700499511875000,-9.952598,0.96685,0.316568,0.10589,0.135441,0.135998
1700499511882812,-9.675598,0.36685,0.361568,0.10759,0.142141,0.132898
1700499511890625,-9.461598,0.35685,0.429568,0.10179,0.146441,0.124498
1700499511898437,-9.298598,0.61685,0.434568,0.8109,0.141641,0.111298
1700499511906250,-9.213598,0.120685,0.420568,0.6639,0.140641,0.111498
1700499511914062,-9.178598,0.170685,0.467568,0.5309,0.138641,0.101498
1700499511921875,-9.183598,0.229685,0.523568,0.3199,0.139541,0.87098
1700499511929687,-9.216598,0.314685,0.526568,0.3049,0.138141,0.80698
1700499511937500,-9.298598,0.394685,0.539568,0.1069,0.139441,0.59398
1700499511945312,-9.369598,0.453685,0.519568,0.551,0.139241,0.54198
1700499511953125,-9.424598,0.516685,0.522568,0.2281,0.154041,0.46098
1700499511960937,-9.474598,0.550685,0.508568,0.2351,0.148941,0.31398
1700499511968750,-9.530598,0.562685,0.503568,0.3551,0.164241,0.15498
1700499511976562,-9.579598,0.570685,0.521568,0.4851,0.167641,0.5502
1700499511984375,-9.584598,0.587685,0.504568,0.6831,0.163941,0.17302
1700499511992187,-9.625598,0.606685,0.492568,0.7611,0.175741,0.38102
1700499512000000,-9.666598,0.615685,0.549568,0.9751,0.167241,0.57902
1700499512007812,-9.663598,0.586685,0.549568,0.11911,0.161141,0.64502
1700499512015625,-9.636598,0.568685,0.515568,0.12551,0.157941,0.71002
1700499512023437,-9.600598,0.569685,0.461568,0.14351,0.149541,0.87502
1700499512031250,-9.596598,0.598685,0.447568,0.16511,0.140041,0.84502
1700499512039062,-9.582598,0.618685,0.472568,0.17431,0.138541,0.84502
1700499512046875,-9.533598,0.644685,0.490568,0.19431,0.135541,0.83002
1700499512054687,-9.482598,0.641685,0.513568,0.19831,0.126841,0.85002
1700499512062500,-9.420598,0.696685,0.576568,0.21231,0.123641,0.82002
1700499512070312,-9.381598,0.792685,0.623568,0.22351,0.125141,0.82202
1700499512078125,-9.373598,0.877685,0.621568,0.23581,0.122041,0.80602
1700499512085937,-9.338598,0.945685,0.591568,0.24471,0.117641,0.90202
1700499512093750,-9.264598,0.970685,0.540568,0.24751,0.95741,0.95502
1700499512101562,-9.213598,1.21685,0.513568,0.25011,0.78141,0.93902
1700499512109375,-9.212598,1.54685,0.529568,0.25971,0.51941,0.95802
1700499512117187,-9.165598,1.89685,0.544568,0.25551,0.40241,0.96002
1700499512125000,-9.138598,1.122685,0.490568,0.24851,0.29441,0.105302
1700499512132812,-9.117598,1.168685,0.400568,0.25101,0.22341,0.107302
1700499512140625,-9.77598,1.219685,0.360568,0.24881,0.16341,0.111802
1700499512148437,-9.67598,1.291685,0.357568,0.25081,0.16141,0.116802
1700499512156250,-9.90598,1.342685,0.310568,0.24881,0.13641,0.115602
1700499512164062,-9.125598,1.385685,0.281568,0.25021,0.13741,0.117202
1700499512171875,-9.167598,1.393685,0.263568,0.25111,0.14341,0.120102
1700499512179687,-9.216598,1.353685,0.146568,0.27541,0.10541,0.122302
1700499512187500,-9.236598,1.331685,0.42432,0.28491,0.3841,0.112902
1700499512195312,-9.299598,1.321685,0.182432,0.30521,0.2459,0.114702
1700499512203125,-9.341598,1.302685,0.319432,0.32271,0.1859,0.101702
1700499512210937,-9.404598,1.303685,0.446432,0.34591,0.6759,0.82602
1700499512218750,-9.550598,1.307685,0.522432,0.35681,0.9241,0.66702
1700499512226562,-9.718598,1.267685,0.549432,0.37251,0.27041,0.54002
1700499512234375,-9.823598,1.218685,0.502432,0.39031,0.33741,0.26602
1700499512242187,-9.777598,1.157685,0.340432,0.39811,0.59441,0.4102
1700499512250000,-9.566598,1.119685,0.182432,0.40821,0.85941,0.12198
1700499512257812,-9.807598,1.200685,0.126432,0.41731,0.116841,0.26698
1700499512265625,-9.856598,1.134685,0.180432,0.42381,0.119641,0.44198
1700499512273437,-9.331598,0.927685,0.17568,0.45001,0.80841,0.46998
1700499512281250,-9.228598,0.774685,0.263568,0.43641,0.58841,0.69298
1700499512289062,-9.201598,0.663685,0.207568,0.42511,0.34341,0.82198
1700499512296875,-9.68598,0.650685,0.236568,0.42361,0.21159,0.88298
1700499512304687,-8.815598,0.681685,0.198568,0.42271,0.73759,0.83098
1700499512312500,-8.775598,0.743685,0.107568,0.41441,0.109259,0.81498
1700499512320312,-8.890598,0.716685,0.106432,0.42101,0.133959,0.82798
1700499512328125,-9.20598,0.596685,0.178432,0.42451,0.176459,0.77598
1700499512335937,-9.135598,0.420685,0.266432,0.41101,0.224159,0.72598
1700499512343750,-9.350598,0.235685,0.475432,0.38131,0.250359,0.75898
1700499512351562,-9.744598,0.132685,0.691432,0.37311,0.259959,0.79298
1700499512359375,-10.159598,0.116685,0.860432,0.36551,0.271559,0.80798
1700499512367187,-10.402598,0.118685,0.752432,0.35281,0.271359,0.71398
1700499512375000,-10.499598,0.168685,0.520432,0.33001,0.266759,0.58698
1700499512382812,-10.619598,0.197685,0.342432,0.28561,0.228759,0.46698
1700499512390625,-10.839598,0.173685,0.297432,0.26091,0.160359,0.31198
1700499512398437,-11.113598,0.142685,0.182432,0.22701,0.95259,0.10898
1700499512406250,-11.319598,0.135685,0.60568,0.18391,0.40459,0.15202
1700499512414062,-11.482598,0.190685,0.303568,0.15771,0.1459,0.34102
1700499512421875,-11.562598,0.267685,0.492568,0.11731,0.31341,0.59202
1700499512429687,-11.502598,0.320685,0.655568,0.9201,0.52941,0.74702
1700499512437500,-11.442598,0.406685,0.877568,0.5741,0.63241,0.101402
1700499512445312,-11.384598,0.517685,0.988568,0.4921,0.66041,0.124102
1700499512453125,-11.218598,0.588685,0.993568,0.4511,0.41341,0.137202
1700499512460937,-10.927598,0.623685,1.35568,0.4911,0.39341,0.148802
1700499512468750,-10.775598,0.679685,1.107568,0.5171,0.27041,0.169502
1700499512476562,-10.725598,0.696685,1.76568,0.7011,0.37141,0.171102
1700499512484375,-10.684598,0.660685,1.37568,0.8111,0.42241,0.180802
1700499512492187,-10.639598,0.643685,1.33568,0.10081,0.51441,0.179602
1700499512500000,-10.550598,0.682685,1.64568,0.10921,0.78141,0.177702
1700499512507812,-10.407598,0.729685,1.109568,0.14331,0.109541,0.181002
1700499512515625,-10.288598,0.740685,1.44568,0.17331,0.141841,0.171602
1700499512523437,-10.117598,0.726685,0.914568,0.18991,0.179541,0.150602
1700499512531250,-9.885598,0.689685,0.808568,0.20231,0.220141,0.142502
1700499512539062,-9.668598,0.629685,0.738568,0.21041,0.233741,0.119702
1700499512546875,-9.508598,0.568685,0.666568,0.22651,0.241241,0.96002
1700499512554687,-9.412598,0.505685,0.648568,0.24731,0.230041,0.62302
1700499512562500,-9.368598,0.422685,0.709568,0.24861,0.228041,0.30202
1700499512570312,-9.363598,0.411685,0.677568,0.25031,0.222041,0.4202
1700499512578125,-9.399598,0.398685,0.614568,0.25171,0.208541,0.24598
1700499512585937,-9.430598,0.383685,0.594568,0.24641,0.211741,0.53598
1700499512593750,-9.428598,0.405685,0.566568,0.24341,0.210341,0.97298
1700499512601562,-9.408598,0.409685,0.542568,0.24461,0.213341,0.126298
1700499512609375,-9.363598,0.398685,0.503568,0.24261,0.221341,0.150498
1700499512617187,-9.339598,0.410685,0.465568,0.23301,0.224541,0.161898
1700499512625000,-9.379598,0.420685,0.454568,0.22521,0.215941,0.181098
1700499512632812,-9.425598,0.425685,0.504568,0.21781,0.207341,0.190598
1700499512640625,-9.476598,0.437685,0.571568,0.21621,0.193441,0.208698
1700499512648437,-9.489598,0.417685,0.643568,0.19721,0.175341,0.223198
1700499512656250,-9.478598,0.395685,0.708568,0.19131,0.166941,0.224698
1700499512664062,-9.478598,0.420685,0.720568,0.18001,0.157341,0.228098
1700499512671875,-9.523598,0.423685,0.738568,0.15951,0.155641,0.234798
1700499512679687,-9.580598,0.448685,0.747568,0.14901,0.142041,0.241098
1700499512687500,-9.585598,0.470685,0.767568,0.13631,0.137241,0.242798
1700499512695312,-9.576598,0.470685,0.758568,0.12201,0.140641,0.241498
1700499512703125,-9.573598,0.434685,0.740568,0.10281,0.135941,0.243398
1700499512710937,-9.590598,0.410685,0.722568,0.9081,0.147041,0.241798
1700499512718750,-9.585598,0.363685,0.690568,0.7371,0.145341,0.235598
1700499512726562,-9.580598,0.326685,0.720568,0.6601,0.166541,0.232498
1700499512734375,-9.564598,0.281685,0.803568,0.5091,0.171141,0.221298
1700499512742187,-9.550598,0.248685,0.850568,0.3291,0.179941,0.213798
1700499512750000,-9.518598,0.243685,0.909568,0.831,0.194541,0.199598
1700499512757812,-9.494598,0.269685,0.972568,0.609,0.202941,0.190298
1700499512765625,-9.449598,0.284685,1.50568,0.2189,0.201841,0.169698
1700499512773437,-9.368598,0.297685,1.118568,0.3469,0.203841,0.150698
1700499512781250,-9.289598,0.305685,1.165568,0.4609,0.204241,0.144598
1700499512789062,-9.227598,0.321685,1.161568,0.6159,0.201741,0.123398
1700499512796875,-9.261598,0.330685,1.130568,0.5399,0.189641,0.111598
1700499512804687,-9.370598,0.281685,1.109568,0.5729,0.177041,0.97298
1700499512812500,-9.472598,0.198685,1.105568,0.5529,0.150841,0.84198
1700499512820312,-9.567598,0.95685,1.145568,0.7319,0.143241,0.79698
1700499512828125,-9.692598,0.16315,1.206568,0.7529,0.135141,0.66098
1700499512835937,-9.794598,0.129315,1.271568,0.8999,0.130741,0.59998
1700499512843750,-9.858598,0.193315,1.343568,0.10489,0.128841,0.40698
1700499512851562,-9.837598,0.190315,1.350568,0.12979,0.137741,0.49498
1700499512859375,-9.791598,0.136315,1.357568,0.14829,0.144241,0.39998
1700499512867187,-9.740598,0.81315,1.370568,0.17159,0.147341,0.38598
1700499512875000,-9.692598,0.0,1.388568,0.18149,0.144441,0.35698
1700499512882812,-9.605598,0.36685,1.427568,0.19779,0.142441,0.19598
1700499512890625,-9.496598,0.96685,1.474568,0.20669,0.121341,0.7802
1700499512898437,-9.391598,0.148685,1.418568,0.21539,0.98341,0.25702
1700499512906250,-9.308598,0.171685,1.267568,0.20689,0.70641,0.48502
1700499512914062,-9.267598,0.175685,1.152568,0.20209,0.35041,0.71202
1700499512921875,-9.296598,0.151685,1.53568,0.17429,0.1059,0.96102
1700499512929687,-9.392598,0.99685,0.942568,0.15279,0.38959,0.119302
1700499512937500,-9.576598,0.68685,0.771568,0.13209,0.68159,0.135702
1700499512945312,-9.778598,0.38685,0.618568,0.10559,0.86059,0.134502
1700499512953125,-10.8598,0.64685,0.542568,0.10039,0.102659,0.130002
1700499512960937,-10.222598,0.147685,0.494568,0.9489,0.113759,0.120302
1700499512968750,-10.391598,0.287685,0.420568,0.7409,0.128759,0.115902
1700499512976562,-10.461598,0.461685,0.364568,0.6809,0.123859,0.106302
1700499512984375,-10.450598,0.638685,0.330568,0.7149,0.122059,0.101302
1700499512992187,-10.367598,0.808685,0.276568,0.6849,0.103959,0.107602
1700499513000000,-10.232598,0.921685,0.189568,0.5189,0.88159,0.112802
1700499513007812,-10.33598,0.989685,0.164568,0.5059,0.74759,0.125502
1700499513015625,-9.802598,0.987685,0.162568,0.4769,0.67159,0.145202
1700499513023437,-9.612598,0.940685,0.107568,0.4889,0.56359,0.152602
1700499513031250,-9.464598,0.838685,0.64568,0.5409,0.44659,0.154002
1700499513039062,-9.341598,0.705685,0.40568,0.5039,0.49959,0.152602
1700499513046875,-9.252598,0.602685,0.22432,0.5489,0.61559,0.147902
1700499513054687,-9.226598,0.519685,0.126432,0.5389,0.56559,0.131702
1700499513062500,-9.274598,0.447685,0.248432,0.5089,0.64959,0.112502
1700499513070312,-9.390598,0.413685,0.315432,0.4989,0.86059,0.96502
1700499513078125,-9.573598,0.429685,0.376432,0.4859,0.96059,0.72502
1700499513085937,-9.715598,0.480685,0.455432,0.4819,0.108059,0.56702
1700499513093750,-9.869598,0.573685,0.509432,0.3659,0.106059,0.38902
1700499513101562,-9.994598,0.664685,0.563432,0.3909,0.103859,0.33702
1700499513109375,-10.72598,0.747685,0.633432,0.3499,0.86659,0.27602
1700499513117187,-10.129598,0.830685,0.669432,0.3569,0.68259,0.28902
1700499513125000,-10.140598,0.910685,0.605432,0.3029,0.44159,0.35402
1700499513132812,-10.84598,0.920685,0.689432,0.4879,0.21559,0.36802
1700499513140625,-10.15598,0.937685,0.700432,0.5059,0.3359,0.41402
1700499513148437,-9.903598,0.962685,0.673432,0.5699,0.12941,0.39602
1700499513156250,-9.774598,0.940685,0.711432,0.5439,0.33041,0.47402
1700499513164062,-9.695598,0.921685,0.711432,0.5149,0.31541,0.47302
1700499513171875,-9.636598,0.907685,0.676432,0.5369,0.46741,0.50202
1700499513179687,-9.621598,0.904685,0.587432,0.3929,0.39141,0.60602
1700499513187500,-9.594598,0.908685,0.633432,0.2129,0.44641,0.63802
1700499513195312,-9.569598,0.906685,0.705432,0.1629,0.42841,0.65502
1700499513203125,-9.571598,0.906685,0.642432,0.2269,0.41341,0.68602
1700499513210937,-9.603598,0.920685,0.581432,0.1199,0.41541,0.65402
1700499513218750,-9.626598,0.940685,0.594432,0.359,0.36341,0.70502
1700499513226562,-9.657598,0.960685,0.569432,0.411,0.39841,0.73702
1700499513234375,-9.662598,0.934685,0.518432,0.1891,0.50741,0.74102
1700499513242187,-9.682598,0.914685,0.463432,0.2351,0.67141,0.77202
1700499513250000,-9.717598,0.881685,0.382432,0.4531,0.72141,0.72602
1700499513257812,-9.773598,0.867685,0.326432,0.5161,0.81241,0.65702
1700499513265625,-9.732598,0.866685,0.223432,0.6831,0.85441,0.67802
1700499513273437,-9.674598,0.868685,0.92432,0.7101,0.74241,0.61402
1700499513281250,-9.616598,0.860685,0.22568,0.8421,0.83441,0.48902
1700499513289062,-9.552598,0.844685,0.153568,0.9931,0.83641,0.42502
1700499513296875,-9.512598,0.821685,0.324568,0.9801,0.70241,0.29802
1700499513304687,-9.477598,0.785685,0.506568,0.9761,0.72041,0.21702
1700499513312500,-9.441598,0.766685,0.655568,0.11031,0.68441,0.9102
1700499513320312,-9.382598,0.739685,0.770568,0.12381,0.57341,0.5902
1700499513328125,-9.382598,0.704685,0.916568,0.12251,0.48841,0.6798
1700499513335937,-9.441598,0.632685,1.10568,0.12841,0.39341,0.8398
1700499513343750,-9.557598,0.567685,1.109568,0.13601,0.24741,0.14698
1700499513351562,-9.687598,0.545685,1.191568,0.13881,0.11641,0.25898
1700499513359375,-9.808598,0.513685,1.285568,0.14741,0.5259,0.30298
1700499513367187,-9.958598,0.485685,1.285568,0.14791,0.2959,0.35498
1700499513375000,-10.70598,0.444685,1.238568,0.14661,0.12859,0.33698
1700499513382812,-10.123598,0.407685,1.184568,0.14831,0.29259,0.35198
1700499513390625,-10.94598,0.378685,1.155568,0.14551,0.42659,0.39798
1700499513398437,-10.78598,0.369685,1.73568,0.14711,0.55759,0.44598
1700499513406250,-10.44598,0.384685,0.945568,0.14841,0.60559,0.47798
1700499513414062,-10.40598,0.405685,0.803568,0.15041,0.65759,0.47598
1700499513421875,-10.29598,0.423685,0.679568,0.17081,0.80459,0.53698
1700499513429687,-10.55598,0.483685,0.601568,0.16141,0.82159,0.53798
1700499513437500,-10.51598,0.537685,0.546568,0.16311,0.92659,0.58998
1700499513445312,-10.7598,0.576685,0.472568,0.16411,0.96659,0.58598
1700499513453125,-10.15598,0.678685,0.448568,0.17241,0.87159,0.63198
1700499513460937,-10.21598,0.771685,0.375568,0.17781,0.89759,0.56998
1700499513468750,-9.979598,0.837685,0.333568,0.19411,0.70459,0.48698
1700499513476562,-9.946598,0.888685,0.339568,0.18731,0.55459,0.50698
1700499513484375,-9.907598,0.947685,0.394568,0.17541,0.37859,0.44298
1700499513492187,-9.847598,0.997685,0.434568,0.17141,0.16059,0.41498
1700499513500000,-9.784598,0.978685,0.457568,0.16701,0.8341,0.35198
1700499513507812,-9.729598,0.942685,0.508568,0.15891,0.29741,0.33898
1700499513515625,-9.677598,0.903685,0.590568,0.13591,0.34141,0.35598
1700499513523437,-9.642598,0.845685,0.670568,0.12301,0.36041,0.34298
1700499513531250,-9.624598,0.794685,0.718568,0.11381,0.43941,0.39198
1700499513539062,-9.636598,0.738685,0.763568,0.8601,0.36941,0.48898
1700499513546875,-9.642598,0.666685,0.799568,0.7651,0.37941,0.57598
1700499513554687,-9.677598,0.613685,0.781568,0.5621,0.17141,0.58698
1700499513562500,-9.731598,0.585685,0.770568,0.4651,0.22041,0.66898
1700499513570312,-9.766598,0.545685,0.785568,0.2851,0.25641,0.75398
1700499513578125,-9.811598,0.528685,0.797568,0.2101,0.36841,0.73798
1700499513585937,-9.819598,0.515685,0.797568,0.1611,0.41841,0.75598
1700499513593750,-9.819598,0.520685,0.814568,0.469,0.48841,0.66398
1700499513601562,-9.811598,0.547685,0.819568,0.549,0.62441,0.61998
1700499513609375,-9.759598,0.548685,0.772568,0.1769,0.68741,0.63598
1700499513617187,-9.674598,0.551685,0.717568,0.2589,0.81941,0.63898
1700499513625000,-9.639598,0.492685,0.702568,0.2659,0.92941,0.58898
1700499513632812,-9.593598,0.439685,0.713568,0.2819,0.88141,0.52498
1700499513640625,-9.550598,0.374685,0.684568,0.3149,0.79941,0.60498
1700499513648437,-9.492598,0.295685,0.677568,0.3059,0.81041,0.56998
1700499513656250,-9.480598,0.226685,0.744568,0.3949,0.75141,0.62198
1700499513664062,-9.468598,0.162685,0.751568,0.4389,0.65141,0.60498
1700499513671875,-9.474598,0.137685,0.708568,0.4259,0.60341,0.63798
1700499513679687,-9.456598,0.103685,0.652568,0.4599,0.49741,0.61698
1700499513687500,-9.438598,0.103685,0.630568,0.3439,0.38941,0.63498
1700499513695312,-9.469598,0.101685,0.636568,0.4619,0.18841,0.63298
1700499513703125,-9.523598,0.112685,0.623568,0.4399,0.17941,0.61898
1700499513710937,-9.564598,0.138685,0.585568,0.3679,0.3859,0.59798
1700499513718750,-9.573598,0.157685,0.555568,0.3739,0.3459,0.63298
1700499513726562,-9.633598,0.122685,0.580568,0.3979,0.12059,0.54998
1700499513734375,-9.716598,0.74685,0.623568,0.2839,0.20359,0.48298
1700499513742187,-9.760598,0.22685,0.697568,0.2859,0.16759,0.37198
1700499513750000,-9.770598,0.44315,0.726568,0.3929,0.23459,0.35598
1700499513757812,-9.762598,0.132315,0.713568,0.2899,0.23059,0.42098
1700499513765625,-9.716598,0.191315,0.717568,0.2889,0.31259,0.38798
1700499513773437,-9.664598,0.240315,0.701568,0.2719,0.34659,0.43498
1700499513781250,-9.616598,0.272315,0.591568,0.3079,0.39359,0.45298
1700499513789062,-9.597598,0.222315,0.519568,0.2809,0.41559,0.38398
1700499513796875,-9.550598,0.178315,0.427568,0.2829,0.65859,0.38398
1700499513804687,-9.530598,0.181315,0.280568,0.2309,0.85659,0.31698
1700499513812500,-9.588598,0.180315,0.132568,0.1709,0.108159,0.21998
1700499513820312,-9.649598,0.150315,0.42568,0.1039,0.121359,0.13698
1700499513828125,-9.671598,0.83315,0.9432,0.501,0.141559,0.3398
1700499513835937,-9.744598,0.11315,0.104432,0.1701,0.142659,0.4602
1700499513843750,-9.845598,0.14685,0.221432,0.3501,0.133159,0.16202
1700499513851562,-9.909598,0.32685,0.344432,0.5251,0.120059,0.26002
1700499513859375,-9.850598,0.34685,0.419432,0.4761,0.108359,0.40202
1700499513867187,-9.972598,0.56685,0.484432,0.5531,0.77059,0.51302
1700499513875000,-10.404598,0.131685,0.520432,0.6001,0.49159,0.57602
1700499513882812,-10.403598,0.187685,0.631432,0.6571,0.55259,0.57502
1700499513890625,-10.214598,0.281685,0.374432,0.6661,0.68759,0.67502
1700499513898437,-10.219598,0.379685,0.252432,0.5211,0.42459,0.68602
1700499513906250,-10.272598,0.453685,0.340432,0.5341,0.32259,0.78102
1700499513914062,-10.346598,0.545685,0.302432,0.5241,0.37459,0.86302
1700499513921875,-10.407598,0.595685,0.315432,0.4651,0.45759,0.92802
1700499513929687,-10.447598,0.707685,0.261432,0.3641,0.51759,0.90902
1700499513937500,-10.487598,0.814685,0.286432,0.4621,0.58559,0.89602
1700499513945312,-10.506598,0.892685,0.308432,0.5271,0.65859,0.89202
1700499513953125,-10.410598,0.919685,0.196432,0.6031,0.73359,0.83402
1700499513960937,-10.255598,0.935685,0.4432,0.7061,0.72959,0.78502
1700499513968750,-10.113598,0.905685,0.17568,0.8211,0.58759,0.75502
1700499513976562,-9.939598,0.845685,0.155432,0.8511,0.29359,0.67402
1700499513984375,-9.769598,0.753685,0.310432,0.8931,0.3259,0.49502
1700499513992187,-9.687598,0.681685,0.362432,0.6611,0.16641,0.26402
1700499514000000,-9.553598,0.604685,0.365432,0.5021,0.16541,0.11702
1700499514007812,-9.355598,0.563685,0.362432,0.1851,0.16441,0.4798
1700499514015625,-9.169598,0.613685,0.268432,0.1369,0.12059,0.17598
1700499514023437,-9.23598,0.744685,0.175432,0.4499,0.25359,0.27398
1700499514031250,-8.865598,0.895685,0.139432,0.7969,0.30059,0.19898
1700499514039062,-8.694598,1.41685,0.135432,0.11159,0.37659,0.13998
1700499514046875,-8.517598,1.180685,0.232432,0.14759,0.24659,0.6398
1700499514054687,-8.439598,1.358685,0.398432,0.18459,0.8659,0.1302
1700499514062500,-8.444598,1.576685,0.587432,0.20609,0.5741,0.10702
1700499514070312,-8.578598,1.775685,0.724432,0.21549,0.10841,0.20202
1700499514078125,-8.943598,1.956685,0.760432,0.21499,0.12241,0.28402
1700499514085937,-9.471598,2.104685,0.706432,0.20319,0.9641,0.37902
1700499514093750,-10.53598,2.137685,0.485432,0.20249,0.3759,0.39802
1700499514101562,-10.627598,2.685,0.141432,0.20109,0.41259,0.38302
1700499514109375,-11.3598,1.767685,0.252568,0.19819,0.60559,0.40002
1700499514117187,-11.114598,1.514685,0.644568,0.20569,0.67459,0.36902
1700499514125000,-11.207598,1.329685,0.698568,0.22329,0.52559,0.31702
1700499514132812,-11.237598,1.223685,0.502568,0.24109,0.1859,0.19802
1700499514140625,-11.142598,1.185685,0.394568,0.25239,0.32141,0.4598
1700499514148437,-10.994598,1.168685,0.461568,0.27199,0.58141,0.32398
1700499514156250,-10.818598,1.174685,0.572568,0.28049,0.79741,0.39198
1700499514164062,-10.682598,1.203685,0.675568,0.28229,0.90841,0.64998
1700499514171875,-10.550598,1.241685,0.765568,0.28149,0.95941,0.84498
1700499514179687,-10.350598,1.253685,0.815568,0.27989,0.89141,0.93998
1700499514187500,-10.116598,1.225685,0.817568,0.27669,0.85941,0.90698
1700499514195312,-9.904598,1.189685,0.770568,0.28559,0.97341,0.73098
1700499514203125,-9.754598,1.131685,0.747568,0.28269,0.105941,0.53998
1700499514210937,-9.611598,1.27685,0.682568,0.28199,0.95941,0.39298
1700499514218750,-9.511598,0.925685,0.583568,0.27839,0.89341,0.27898
1700499514226562,-9.456598,0.730685,0.497568,0.28049,0.80241,0.10398
1700499514234375,-9.418598,0.562685,0.445568,0.29049,0.69841,0.3798
1700499514242187,-9.389598,0.438685,0.384568,0.28269,0.68341,0.1102
1700499514250000,-9.342598,0.339685,0.272568,0.26949,0.71341,0.9502
1700499514257812,-9.301598,0.290685,0.161568,0.25889,0.71541,0.7902
1700499514265625,-9.267598,0.283685,0.114568,0.25369,0.87041,0.5902
1700499514273437,-9.229598,0.311685,0.53568,0.24319,0.100941,0.9502
1700499514281250,-9.208598,0.359685,0.10568,0.23159,0.98241,0.1302
1700499514289062,-9.191598,0.430685,0.25432,0.22939,0.87941,0.3198
1700499514296875,-9.221598,0.506685,0.95432,0.22859,0.85241,0.3398
1700499514304687,-9.286598,0.604685,0.119432,0.20559,0.64941,0.5898
1700499514312500,-9.353598,0.721685,0.137432,0.20149,0.63741,0.4498
1700499514320312,-9.453598,0.813685,0.121432,0.19259,0.51641,0.2298
1700499514328125,-9.538598,0.912685,0.114432,0.18229,0.60241,0.5698
1700499514335937,-9.629598,0.996685,0.106432,0.19089,0.70741,0.5102
1700499514343750,-9.740598,1.66685,0.58432,0.19769,0.84841,0.14902
1700499514351562,-9.840598,1.101685,0.45568,0.20409,0.114341,0.17802
1700499514359375,-9.910598,1.138685,0.119568,0.21049,0.137541,0.38402
1700499514367187,-10.27598,1.175685,0.229568,0.22449,0.168841,0.62102
1700499514375000,-10.124598,1.175685,0.308568,0.22749,0.196941,0.90802
1700499514382812,-10.99598,1.165685,0.412568,0.22189,0.224541,0.115002
1700499514390625,-9.966598,1.123685,0.560568,0.21679,0.245941,0.139102
1700499514398437,-9.808598,1.97685,0.682568,0.20099,0.252741,0.160102
1700499514406250,-9.675598,1.77685,0.743568,0.18999,0.274041,0.168102
1700499514414062,-9.535598,1.41685,0.767568,0.17229,0.279041,0.189202
1700499514421875,-9.413598,0.979685,0.846568,0.14979,0.285241,0.189602
1700499514429687,-9.313598,0.895685,0.862568,0.12589,0.285041,0.193202
1700499514437500,-9.204598,0.845685,0.853568,0.9399,0.295541,0.193202
1700499514445312,-9.192598,0.834685,0.886568,0.6619,0.287541,0.180602
1700499514453125,-9.280598,0.814685,0.963568,0.3529,0.287641,0.166402
1700499514460937,-9.354598,0.790685,1.60568,0.39,0.279041,0.152502
1700499514468750,-9.428598,0.785685,1.136568,0.3481,0.276041,0.131902
1700499514476562,-9.545598,0.789685,1.148568,0.4851,0.285541,0.96702
1700499514484375,-9.689598,0.822685,1.204568,0.7171,0.300041,0.72702
1700499514492187,-9.767598,0.892685,1.285568,0.9581,0.313441,0.51802
1700499514500000,-9.756598,0.961685,1.321568,0.10031,0.324641,0.34102
1700499514507812,-9.670598,1.57685,1.335568,0.12051,0.332741,0.18302
1700499514515625,-9.595598,1.153685,1.378568,0.12131,0.339441,0.402
1700499514523437,-9.586598,1.253685,1.418568,0.12711,0.346141,0.7698
1700499514531250,-9.578598,1.339685,1.425568,0.13411,0.339041,0.15398
1700499514539062,-9.538598,1.388685,1.405568,0.13311,0.325141,0.12498
1700499514546875,-9.541598,1.441685,1.439568,0.12781,0.321141,0.13798
1700499514554687,-9.526598,1.489685,1.472568,0.12111,0.308141,0.28298
1700499514562500,-9.490598,1.489685,1.499568,0.11761,0.285541,0.26798
1700499514570312,-9.459598,1.480685,1.490568,0.10721,0.260741,0.24998
1700499514578125,-9.402598,1.445685,1.427568,0.9521,0.235741,0.34398
1700499514585937,-9.356598,1.391685,1.396568,0.9251,0.184741,0.37198
1700499514593750,-9.290598,1.339685,1.358568,0.7181,0.152341,0.35798
1700499514601562,-9.272598,1.328685,1.247568,0.4991,0.108241,0.37398
1700499514609375,-9.339598,1.386685,1.128568,0.3251,0.77941,0.38598
1700499514617187,-9.462598,1.395685,1.63568,0.2231,0.49141,0.38798
1700499514625000,-9.625598,1.342685,1.47568,0.2251,0.17841,0.46598
1700499514632812,-9.764598,1.189685,1.22568,0.521,0.1541,0.46698
1700499514640625,-9.879598,1.20685,1.17568,0.1939,0.3859,0.53198
1700499514648437,-9.971598,0.877685,0.932568,0.3879,0.8559,0.66398
1700499514656250,-10.1598,0.771685,0.846568,0.5129,0.5659,0.79298
1700499514664062,-9.959598,0.691685,0.821568,0.5549,0.13359,0.98898
1700499514671875,-9.944598,0.608685,0.772568,0.7089,0.18559,0.105298
1700499514679687,-9.858598,0.567685,0.636568,0.7999,0.26059,0.110598
1700499514687500,-9.753598,0.576685,0.578568,0.7919,0.23459,0.118298
1700499514695312,-9.623598,0.608685,0.517568,0.6199,0.26559,0.114998
1700499514703125,-9.462598,0.647685,0.465568,0.5209,0.33459,0.117798
1700499514710937,-9.345598,0.692685,0.465568,0.3979,0.31559,0.109798
1700499514718750,-9.277598,0.762685,0.423568,0.1799,0.52459,0.104698
1700499514726562,-9.237598,0.808685,0.380568,0.179,0.54159,0.89898
1700499514734375,-9.238598,0.841685,0.326568,0.1711,0.60659,0.88098
1700499514742187,-9.319598,0.853685,0.288568,0.3241,0.77659,0.82598
1700499514750000,-9.402598,0.879685,0.225568,0.4771,0.88659,0.74498
1700499514757812,-9.499598,0.890685,0.110568,0.4581,0.98059,0.68198
1700499514765625,-9.600598,0.873685,0.31568,0.4801,0.117959,0.61398
1700499514773437,-9.739598,0.828685,0.13568,0.5351,0.116859,0.59498
1700499514781250,-9.868598,0.782685,0.54432,0.4801,0.116359,0.61498
1700499514789062,-9.979598,0.711685,0.155432,0.5411,0.114559,0.59898
1700499514796875,-10.91598,0.677685,0.243432,0.5901,0.113059,0.59698
1700499514804687,-10.173598,0.607685,0.284432,0.6021,0.99859,0.61498
1700499514812500,-10.211598,0.559685,0.315432,0.5431,0.93559,0.59898
1700499514820312,-10.205598,0.517685,0.354432,0.5151,0.84559,0.63598
1700499514828125,-10.228598,0.479685,0.369432,0.4411,0.70259,0.65198
1700499514835937,-10.216598,0.448685,0.374432,0.5801,0.60459,0.69898
1700499514843750,-10.177598,0.414685,0.360432,0.6451,0.58859,0.69798
1700499514851562,-10.125598,0.393685,0.398432,0.4961,0.44859,0.76198
1700499514859375,-10.29598,0.400685,0.434432,0.4761,0.33259,0.82798
1700499514867187,-9.919598,0.421685,0.482432,0.4771,0.28559,0.85998
1700499514875000,-9.859598,0.460685,0.529432,0.4031,0.21359,0.91298
1700499514882812,-9.830598,0.488685,0.547432,0.4111,0.13859,0.95898
1700499514890625,-9.810598,0.477685,0.561432,0.3911,0.10359,0.99298
1700499514898437,-9.782598,0.444685,0.572432,0.3171,0.25959,0.99598
1700499514906250,-9.771598,0.441685,0.599432,0.1941,0.17859,0.98098
1700499514914062,-9.775598,0.445685,0.617432,0.461,0.13459,0.88398
1700499514921875,-9.803598,0.486685,0.588432,0.629,0.4341,0.88598
1700499514929687,-9.810598,0.488685,0.491432,0.2329,0.12441,0.83998
1700499514937500,-9.798598,0.470685,0.356432,0.4089,0.32341,0.74798
1700499514945312,-9.829598,0.433685,0.216432,0.5329,0.55141,0.71798
1700499514953125,-9.800598,0.433685,0.90432,0.6279,0.61841,0.65598
1700499514960937,-9.739598,0.450685,0.67568,0.8189,0.65341,0.59498
1700499514968750,-9.679598,0.468685,0.254568,0.9529,0.60041,0.52998
1700499514976562,-9.583598,0.498685,0.459568,0.12129,0.61241,0.51498
1700499514984375,-9.496598,0.550685,0.679568,0.12379,0.52241,0.42198
1700499514992187,-9.450598,0.598685,0.846568,0.11339,0.43541,0.31998
1700499515000000,-9.379598,0.642685,0.968568,0.10699,0.22441,0.23798
1700499515007812,-9.314598,0.721685,1.91568,0.10739,0.26141,0.17598
1700499515015625,-9.341598,0.850685,1.238568,0.11099,0.18341,0.14598
1700499515023437,-9.390598,0.966685,1.292568,0.10359,0.19541,0.3502
1700499515031250,-9.500598,1.76685,1.344568,0.8749,0.11341,0.13502
1700499515039062,-9.638598,1.172685,1.308568,0.8639,0.5141,0.18102
1700499515046875,-9.754598,1.240685,1.261568,0.7959,0.4859,0.23302
1700499515054687,-9.813598,1.270685,1.184568,0.5859,0.24759,0.27002
1700499515062500,-9.820598,1.277685,1.58568,0.4939,0.42359,0.38302
1700499515070312,-9.866598,1.249685,0.914568,0.3109,0.77759,0.40102
1700499515078125,-9.933598,1.205685,0.756568,0.2619,0.109959,0.42602
1700499515085937,-10.47598,1.164685,0.617568,0.2499,0.129159,0.44102
1700499515093750,-10.158598,1.175685,0.508568,0.2609,0.150459,0.60402
1700499515101562,-10.218598,1.165685,0.474568,0.2509,0.158059,0.66602
1700499515109375,-10.292598,1.146685,0.443568,0.2529,0.162259,0.67102
1700499515117187,-10.354598,1.107685,0.371568,0.2309,0.148459,0.73102
1700499515125000,-10.335598,1.27685,0.281568,0.1819,0.130559,0.81202
1700499515132812,-10.246598,0.905685,0.240568,0.1909,0.113059,0.79702
1700499515140625,-10.118598,0.837685,0.238568,0.3439,0.84559,0.79002
1700499515148437,-9.960598,0.788685,0.243568,0.4979,0.57059,0.82002
1700499515156250,-9.781598,0.783685,0.272568,0.4859,0.35759,0.72202
1700499515164062,-9.587598,0.765685,0.269568,0.5249,0.20459,0.76602
1700499515171875,-9.380598,0.750685,0.301568,0.5169,0.4759,0.72002
1700499515179687,-9.211598,0.734685,0.350568,0.5539,0.5241,0.66902
1700499515187500,-9.76598,0.703685,0.382568,0.5529,0.23041,0.60402
1700499515195312,-8.988598,0.689685,0.398568,0.5539,0.19841,0.62002
1700499515203125,-8.934598,0.690685,0.436568,0.5179,0.17841,0.55802
1700499515210937,-8.950598,0.711685,0.449568,0.5159,0.31841,0.60102
1700499515218750,-9.2598,0.747685,0.432568,0.5059,0.36141,0.62002
1700499515226562,-9.89598,0.803685,0.414568,0.5189,0.37641,0.66902
1700499515234375,-9.195598,0.861685,0.470568,0.5149,0.43341,0.68102
1700499515242187,-9.306598,0.945685,0.519568,0.5169,0.41841,0.68002
1700499515250000,-9.442598,0.989685,0.571568,0.2779,0.53241,0.79502
1700499515257812,-9.594598,1.44685,0.576568,0.2569,0.56341,0.87702
1700499515265625,-9.712598,1.126685,0.574568,0.209,0.69541,0.97502
1700499515273437,-9.809598,1.192685,0.551568,0.19,0.72841,0.115302
1700499515281250,-9.927598,1.247685,0.571568,0.2351,0.89141,0.121902
1700499515289062,-10.4598,1.259685,0.599568,0.4751,0.92241,0.128702
1700499515296875,-10.59598,1.231685,0.569568,0.7541,0.87641,0.130602
1700499515304687,-10.97598,1.196685,0.569568,0.10011,0.83741,0.140902
1700499515312500,-10.133598,1.157685,0.592568,0.10281,0.88941,0.139102
1700499515320312,-10.117598,1.152685,0.614568,0.13591,0.96941,0.133102
1700499515328125,-10.50598,1.173685,0.650568,0.15131,0.93741,0.125202
1700499515335937,-9.934598,1.200685,0.732568,0.16281,0.112741,0.111002
1700499515343750,-9.829598,1.249685,0.871568,0.18071,0.121341,0.98102
1700499515351562,-9.716598,1.277685,0.927568,0.19811,0.118841,0.85002
1700499515359375,-9.541598,1.289685,0.876568,0.22561,0.103441,0.74502
1700499515367187,-9.378598,1.325685,0.817568,0.24371,0.90641,0.63302
1700499515375000,-9.307598,1.388685,0.853568,0.25621,0.74241,0.52302
1700499515382812,-9.265598,1.438685,0.860568,0.27801,0.46441,0.39902
1700499515390625,-9.235598,1.518685,0.736568,0.29221,0.44641,0.32102
1700499515398437,-9.225598,1.604685,0.565568,0.30311,0.25141,0.30602
1700499515406250,-9.223598,1.660685,0.484568,0.31371,0.25241,0.21002
1700499515414062,-9.204598,1.697685,0.482568,0.32171,0.10441,0.16502
1700499515421875,-9.172598,1.694685,0.369568,0.30951,0.9941,0.6902
1700499515429687,-9.224598,1.697685,0.263568,0.30471,0.18141,0.1902
1700499515437500,-9.290598,1.733685,0.205568,0.30901,0.36241,0.1498
1700499515445312,-9.313598,1.762685,0.180568,0.30281,0.44241,0.4698
1700499515453125,-9.265598,1.742685,0.115568,0.30311,0.59641,0.16498
1700499515460937,-9.242598,1.733685,0.155568,0.31651,0.84441,0.24698
1700499515468750,-9.241598,1.764685,0.252568,0.32381,0.103141,0.30698
1700499515476562,-9.219598,1.796685,0.196568,0.34601,0.96541,0.31998
1700499515484375,-9.172598,1.798685,0.67568,0.35021,0.94941,0.44898
1700499515492187,-9.109598,1.848685,0.72568,0.36241,0.96741,0.52798
1700499515500000,-9.144598,1.907685,0.92568,0.34801,0.96041,0.71198
1700499515507812,-9.277598,1.913685,0.6568,0.34831,0.92341,0.82298
1700499515515625,-9.378598,1.933685,0.11432,0.34501,0.93941,0.93598
1700499515523437,-9.434598,1.935685,0.47568,0.35021,0.93341,0.106198
1700499515531250,-9.499598,1.919685,0.103568,0.34471,0.105241,0.114598
1700499515539062,-9.716598,1.942685,0.117568,0.34681,0.119441,0.119198
1700499515546875,-10.246598,1.928685,0.115568,0.35351,0.137941,0.130798
1700499515554687,-10.393598,1.699685,0.108568,0.38011,0.107541,0.133098
1700499515562500,-10.199598,1.492685,0.412568,0.37431,0.43841,0.123098
