time,Acceleration X (m/s^2),Acceleration Y (m/s^2),Acceleration Z (m/s^2),Angular Velocity X (rad/s),Angular Velocity Y (rad/s),Angular Velocity Z (rad/s)
1700499608000000,-9.626397,1.474998,-0.054068,,,
1700499608007812,-9.654397,0.625645,1.446998,0.55668,0.40464,0.11247
1700499608015625,-9.663397,0.603645,1.449998,0.53568,0.48064,0.20647
1700499608023437,-9.678397,0.588645,1.462998,0.55868,0.43664,0.20947
1700499608031250,-9.692397,0.583645,1.487998,0.55968,0.45264,0.27347
1700499608039062,-9.694397,0.583645,1.485998,0.55568,0.43264,0.33547
1700499608054687,-9.661397,0.610645,1.482998,0.56768,0.42364,0.37247
1700499608062500,-9.654397,0.638645,1.464998,0.54568,0.38664,0.38547
1700499608070312,-9.630397,0.649645,1.453998,0.55368,0.44764,0.36747
1700499608078125,-9.617397,0.642645,1.435998,0.50868,0.38164,0.46347
1700499608101562,-9.609397,0.580645,1.428998,0.38768,0.41864,0.39947
1700499608109375,-9.617397,0.569645,1.455998,0.33468,0.42364,0.48247
1700499608117187,-9.627397,0.569645,1.478998,0.30668,0.36664,0.46147
1700499608125000,-9.629397,0.551645,1.496998,0.30668,0.36664,0.47747
1700499608132812,-9.624397,0.536645,1.496998,0.26168,0.49964,0.41447
1700499608140625,-9.631397,0.545645,1.505998,0.26168,0.41864,0.38247
1700499608148437,-9.626397,0.513645,1.514998,0.30368,0.43164,0.39647
1700499608156250,-9.625397,0.505645,1.512998,0.29668,0.42164,0.36747
1700499608164062,-9.642397,0.527645,1.534998,0.15468,0.43664,0.38147
1700499608171875,-9.664397,0.523645,1.579998,0.5068,0.47364,0.38247
1700499608179687,-9.677397,0.483645,1.561998,0.4268,0.48464,0.36347
1700499608187500,-9.686397,0.470645,1.500998,0.12468,0.45464,0.34947
1700499608195312,-9.722397,0.524645,1.561998,0.10668,0.45364,0.34947
1700499608203125,-9.743397,0.560645,1.561998,0.12368,0.48764,0.30147
1700499608210937,-9.743397,0.549645,1.487998,0.6568,0.39164,0.38247
1700499608218750,-9.670397,0.506645,1.451998,0.9468,0.32464,0.36547
1700499608226562,-9.612397,0.516645,1.566998,0.15768,0.40664,0.38247
1700499608234375,-9.603397,0.533645,1.581998,0.3068,0.43864,0.36447
1700499608242187,-9.601397,0.495645,1.548998,0.2268,0.33464,0.37747
1700499608250000,-9.612397,0.489645,1.566998,0.1732,0.27464,0.37947
1700499608257812,-9.617397,0.522645,1.577998,0.432,0.20764,0.36247
1700499608265625,-9.604397,0.542645,1.559998,0.5868,0.17464,0.37847
1700499608273437,-9.602397,0.565645,1.568998,0.9368,0.16164,0.36447
1700499608281250,-9.598397,0.598645,1.543998,0.12268,0.17664,0.34747
1700499608289062,-9.598397,0.586645,1.501998,0.3668,0.15464,0.37647
1700499608296875,-9.620397,0.576645,1.487998,0.12268,0.17664,0.36347
1700499608304687,-9.618397,0.580645,1.449998,0.4368,0.16064,0.34647
1700499608312500,-9.610397,0.556645,1.444998,0.6568,0.18064,0.34947
1700499608320312,-9.620397,0.549645,1.449998,0.3768,0.12364,0.31247
1700499608328125,-9.621397,0.547645,1.464998,0.4768,0.9764,0.33147
1700499608335937,-9.655397,0.550645,1.464998,0.5668,0.17564,0.29847
1700499608343750,-9.653397,0.538645,1.460998,0.4068,0.15764,0.37747
1700499608351562,-9.667397,0.529645,1.478998,0.4968,0.16964,0.32747
1700499608359375,-9.671397,0.543645,1.473998,0.1568,0.16164,0.37947
1700499608367187,-9.669397,0.548645,1.460998,0.5332,0.23964,0.32847
1700499608375000,-9.673397,0.545645,1.460998,0.4132,0.20564,0.27947
1700499608382812,-9.667397,0.550645,1.478998,0.868,0.19064,0.32947
1700499608390625,-9.644397,0.547645,1.480998,0.2968,0.21064,0.31547
1700499608398437,-9.637397,0.536645,1.491998,0.3968,0.19164,0.21747
1700499608406250,-9.639397,0.530645,1.476998,0.2668,0.22564,0.23447
1700499608414062,-9.625397,0.514645,1.446998,0.5968,0.17864,0.21847
1700499608421875,-9.603397,0.504645,1.449998,0.3268,0.22164,0.13547
1700499608429687,-9.596397,0.491645,1.462998,0.2832,0.20664,0.13547
1700499608437500,-9.582397,0.471645,1.426998,0.5732,0.17664,0.5547
1700499608445312,-9.598397,0.453645,1.431998,0.5532,0.17764,0.5547
1700499608453125,-9.620397,0.460645,1.422998,0.9032,0.19164,0.8647
1700499608460937,-9.656397,0.447645,1.453998,0.12532,0.17464,0.1153
1700499608468750,-9.683397,0.428645,1.440998,0.11732,0.22664,0.8747
1700499608476562,-9.710397,0.455645,1.422998,0.21332,0.22564,0.10247
1700499608484375,-9.742397,0.458645,1.442998,0.26032,0.27464,0.10247
1700499608492187,-9.769397,0.460645,1.464998,0.24432,0.20964,0.11747
1700499608500000,-9.775397,0.470645,1.476998,0.22232,0.27864,0.10447
1700499608507812,-9.772397,0.507645,1.500998,0.19932,0.32264,0.7047
1700499608515625,-9.738397,0.538645,1.503998,0.21632,0.32264,0.547
1700499608523437,-9.718397,0.544645,1.532998,0.27432,0.34164,0.5447
1700499608531250,-9.680397,0.545645,1.532998,0.24932,0.35464,0.447
1700499608539062,-9.633397,0.540645,1.512998,0.20432,0.32164,0.5953
1700499608546875,-9.588397,0.557645,1.501998,0.22432,0.33364,0.1353
1700499608554687,-9.548397,0.568645,1.469998,0.31032,0.25964,0.4353
1700499608562500,-9.532397,0.563645,1.465998,0.31832,0.23964,0.14253
1700499608570312,-9.530397,0.574645,1.451998,0.27332,0.18864,0.15953
1700499608578125,-9.528397,0.578645,1.424998,0.38132,0.22264,0.17553
1700499608585937,-9.514397,0.596645,1.431998,0.39132,0.22664,0.17353
1700499608593750,-9.540397,0.601645,1.422998,0.46532,0.17364,0.32253
1700499608601562,-9.557397,0.606645,1.410998,0.46732,0.11564,0.20653
1700499608609375,-9.595397,0.625645,1.410998,0.44432,0.16964,0.25153
1700499608617187,-9.641397,0.620645,1.410998,0.50432,0.16064,0.20853
1700499608625000,-9.663397,0.632645,1.426998,0.50532,0.17564,0.19253
1700499608632812,-9.701397,0.626645,1.404998,0.48432,0.16364,0.20653
1700499608640625,-9.728397,0.608645,1.415998,0.51432,0.16264,0.14253
1700499608648437,-9.752397,0.591645,1.424998,0.62032,0.18264,0.14253
1700499608656250,-9.768397,0.582645,1.406998,0.54932,0.14364,0.9653
1700499608664062,-9.768397,0.567645,1.401998,0.48132,0.16264,0.2953
1700499608671875,-9.764397,0.578645,1.399998,0.49032,0.17264,0.1653
1700499608679687,-9.764397,0.616645,1.390998,0.45132,0.16064,0.2953
1700499608687500,-9.754397,0.659645,1.381998,0.47832,0.22064,0.12953
1700499608695312,-9.738397,0.686645,1.388998,0.40832,0.22564,0.12653
1700499608703125,-9.728397,0.712645,1.406998,0.44432,0.22164,0.11253
1700499608710937,-9.707397,0.712645,1.426998,0.47232,0.32264,0.15853
1700499608718750,-9.670397,0.725645,1.438998,0.35332,0.33464,0.17553
1700499608726562,-9.654397,0.740645,1.435998,0.43032,0.36964,0.20753
1700499608734375,-9.631397,0.747645,1.426998,0.42132,0.42364,0.18853
1700499608742187,-9.623397,0.757645,1.433998,0.45932,0.43764,0.30253
1700499608750000,-9.621397,0.757645,1.442998,0.44532,0.35464,0.27153
1700499608757812,-9.607397,0.751645,1.431998,0.45132,0.44364,0.31653
1700499608765625,-9.598397,0.742645,1.419998,0.47132,0.47364,0.33353
1700499608773437,-9.611397,0.737645,1.415998,0.47632,0.30664,0.32053
1700499608781250,-9.618397,0.733645,1.397998,0.44932,0.29664,0.26853
1700499608789062,-9.620397,0.717645,1.395998,0.44232,0.30664,0.20753
1700499608796875,-9.631397,0.715645,1.404998,0.39532,0.30664,0.22253
1700499608804687,-9.670397,0.722645,1.420998,0.27432,0.23664,0.11153
1700499608812500,-9.699397,0.732645,1.422998,0.23332,0.32464,0.13853
1700499608820312,-9.710397,0.741645,1.426998,0.23932,0.28764,0.12553
1700499608828125,-9.724397,0.748645,1.442998,0.20132,0.32264,0.2653
1700499608835937,-9.726397,0.735645,1.465998,0.19832,0.32464,0.2247
1700499608843750,-9.708397,0.741645,1.462998,0.21232,0.34164,0.747
1700499608851562,-9.697397,0.745645,1.483998,0.15332,0.38864,0.2247
1700499608859375,-9.697397,0.754645,1.530998,0.18532,0.50164,0.647
1700499608867187,-9.674397,0.754645,1.523998,0.22032,0.46664,0.5247
1700499608875000,-9.640397,0.720645,1.422998,0.18732,0.35264,0.5347
1700499608882812,-9.636397,0.716645,1.442998,0.19832,0.43764,0.7147
1700499608890625,-9.654397,0.749645,1.498998,0.21132,0.40564,0.15147
1700499608898437,-9.661397,0.736645,1.458998,0.20232,0.30164,0.22947
1700499608906250,-9.651397,0.689645,1.348998,0.21932,0.18764,0.19547
1700499608914062,-9.603397,0.673645,1.413998,0.14732,0.19264,0.27947
1700499608921875,-9.584397,0.690645,1.476998,0.18432,0.23764,0.26147
1700499608929687,-9.590397,0.702645,1.419998,0.30632,0.20764,0.22947
1700499608937500,-9.620397,0.716645,1.386998,0.30032,0.19564,0.24747
1700499608945312,-9.667397,0.734645,1.451998,0.29832,0.21264,0.28047
1700499608953125,-9.715397,0.748645,1.483998,0.26032,0.18764,0.37347
1700499608960937,-9.683397,0.741645,1.467998,0.19232,0.22464,0.36047
1700499608968750,-9.683397,0.752645,1.469998,0.14832,0.25464,0.37547
1700499608976562,-9.693397,0.785645,1.455998,0.2968,0.34064,0.36447
1700499608984375,-9.697397,0.799645,1.458998,0.6768,0.31164,0.38247
1700499608992187,-9.702397,0.783645,1.438998,0.3968,0.35264,0.36247
1700499609000000,-9.687397,0.741645,1.440998,0.12668,0.34164,0.38147
1700499609007812,-9.678397,0.719645,1.458998,0.18768,0.35664,0.38247
1700499609015625,-9.667397,0.694645,1.456998,0.25968,0.33564,0.38047
1700499609023437,-9.667397,0.700645,1.483998,0.30668,0.40164,0.38147
1700499609031250,-9.624397,0.691645,1.489998,0.31068,0.35464,0.36647
1700499609039062,-9.588397,0.689645,1.500998,0.29868,0.37364,0.38447
1700499609046875,-9.581397,0.684645,1.496998,0.35568,0.41864,0.36747
1700499609054687,-9.567397,0.661645,1.485998,0.32468,0.40264,0.38247
1700499609062500,-9.564397,0.624645,1.491998,0.29468,0.32164,0.36647
1700499609070312,-9.573397,0.606645,1.471998,0.26368,0.32164,0.38247
1700499609078125,-9.598397,0.593645,1.483998,0.28768,0.25264,0.34747
1700499609085937,-9.624397,0.569645,1.467998,0.10568,0.19264,0.29947
1700499609093750,-9.640397,0.565645,1.449998,0.8768,0.22264,0.34647
1700499609101562,-9.651397,0.569645,1.451998,0.8668,0.20464,0.37747
1700499609109375,-9.674397,0.581645,1.460998,0.22668,0.22164,0.36347
1700499609117187,-9.688397,0.585645,1.465998,0.19468,0.21964,0.37847
1700499609125000,-9.708397,0.581645,1.444998,0.14868,0.23764,0.36247
1700499609132812,-9.746397,0.573645,1.449998,0.29468,0.27264,0.38247
1700499609140625,-9.737397,0.575645,1.467998,0.29468,0.38764,0.36647
1700499609148437,-9.708397,0.581645,1.498998,0.30668,0.41564,0.44547
1700499609156250,-9.669397,0.559645,1.482998,0.26168,0.32064,0.38147
1700499609164062,-9.602397,0.560645,1.449998,0.32968,0.37264,0.43247
1700499609171875,-9.579397,0.568645,1.467998,0.16468,0.43264,0.39547
1700499609179687,-9.570397,0.555645,1.462998,0.2068,0.25164,0.39247
1700499609187500,-9.577397,0.562645,1.440998,0.5468,0.25464,0.36147
1700499609195312,-9.586397,0.573645,1.440998,0.4668,0.17764,0.37947
1700499609203125,-9.613397,0.585645,1.431998,0.4568,0.15964,0.44347
1700499609210937,-9.633397,0.585645,1.442998,0.5868,0.15864,0.39447
1700499609218750,-9.669397,0.583645,1.446998,0.1468,0.7964,0.37847
1700499609226562,-9.687397,0.572645,1.440998,0.2668,0.7664,0.39347
1700499609234375,-9.723397,0.573645,1.458998,0.3668,0.13864,0.36047
1700499609242187,-9.730397,0.570645,1.442998,0.1032,0.10564,0.37547
1700499609250000,-9.710397,0.571645,1.446998,0.5968,0.6164,0.37847
1700499609257812,-9.678397,0.574645,1.447998,0.3568,0.7264,0.35947
1700499609265625,-9.649397,0.589645,1.469998,0.4068,0.17364,0.34547
1700499609273437,-9.611397,0.571645,1.464998,0.15268,0.17464,0.37947
1700499609281250,-9.593397,0.573645,1.462998,0.10368,0.15764,0.36247
1700499609289062,-9.570397,0.548645,1.433998,0.5668,0.17564,0.29847
1700499609296875,-9.584397,0.539645,1.429998,0.4868,0.15364,0.26347
1700499609304687,-9.585397,0.526645,1.419998,0.17568,0.23664,0.23347
1700499609312500,-9.590397,0.533645,1.426998,0.11468,0.17264,0.24947
1700499609320312,-9.595397,0.551645,1.401998,0.15068,0.19364,0.18747
1700499609328125,-9.624397,0.536645,1.390998,0.16268,0.20864,0.10647
1700499609335937,-9.644397,0.540645,1.381998,0.20968,0.15764,0.18647
1700499609343750,-9.642397,0.538645,1.368998,0.24068,0.17564,0.7447
1700499609351562,-9.632397,0.525645,1.359998,0.20968,0.19264,0.7447
1700499609359375,-9.637397,0.525645,1.356998,0.19568,0.12964,0.2647
1700499609367187,-9.646397,0.518645,1.354998,0.21668,0.10864,0.10453
1700499609375000,-9.646397,0.525645,1.383998,0.12368,0.10864,0.7353
1700499609382812,-9.637397,0.536645,1.419998,0.11468,0.17964,0.15053
1700499609390625,-9.653397,0.537645,1.426998,0.13468,0.16564,0.11753
1700499609398437,-9.639397,0.532645,1.433998,0.8968,0.16664,0.10053
1700499609406250,-9.637397,0.538645,1.449998,0.16168,0.19564,0.13453
1700499609414062,-9.631397,0.558645,1.451998,0.9868,0.24564,0.15053
1700499609421875,-9.592397,0.569645,1.433998,0.8668,0.16564,0.13353
1700499609429687,-9.559397,0.593645,1.399998,0.1032,0.19764,0.19953
1700499609437500,-9.530397,0.603645,1.392998,0.11132,0.24164,0.21953
1700499609445312,-9.551397,0.619645,1.397998,0.19932,0.14964,0.26653
1700499609453125,-9.578397,0.613645,1.388998,0.23732,0.14564,0.30153
1700499609460937,-9.609397,0.591645,1.370998,0.42532,0.4764,0.27153
1700499609468750,-9.656397,0.569645,1.343998,0.46432,0.9064,0.24253
1700499609476562,-9.680397,0.563645,1.343998,0.50632,0.7864,0.27353
1700499609484375,-9.703397,0.570645,1.359998,0.64632,0.9564,0.25853
1700499609492187,-9.727397,0.566645,1.338998,0.71832,0.11564,0.24153
1700499609500000,-9.741397,0.569645,1.354998,0.91832,0.11864,0.20953
1700499609507812,-9.763397,0.574645,1.343998,0.94932,0.19964,0.16153
1700499609515625,-9.777397,0.603645,1.347998,0.96732,0.14664,0.6753
1700499609523437,-9.792397,0.638645,1.366998,0.99232,0.17364,0.5453
1700499609531250,-9.789397,0.638645,1.404998,0.94632,0.23164,0.1653
1700499609539062,-9.778397,0.643645,1.428998,0.102232,0.10164,0.6247
1700499609546875,-9.781397,0.665645,1.404998,0.99332,0.16464,0.11047
1700499609554687,-9.775397,0.723645,1.442998,0.94432,0.26364,0.9647
1700499609562500,-9.759397,0.740645,1.487998,0.95832,0.19964,0.11247
1700499609570312,-9.737397,0.753645,1.401998,0.77332,0.16364,0.16147
1700499609578125,-9.724397,0.790645,1.370998,0.69732,0.17664,0.20947
1700499609585937,-9.743397,0.835645,1.444998,0.70632,0.18064,0.25947
1700499609593750,-9.747397,0.817645,1.417998,0.73032,0.14164,0.30347
1700499609601562,-9.704397,0.817645,1.271998,0.69032,0.1664,0.30647
1700499609609375,-9.657397,0.809645,1.275998,0.69032,0.4964,0.29047
1700499609617187,-9.621397,0.831645,1.361998,0.74332,0.11164,0.28847
1700499609625000,-9.647397,0.860645,1.397998,0.79132,0.6264,0.23947
1700499609632812,-9.678397,0.860645,1.336998,0.74732,0.2036,0.20647
1700499609640625,-9.709397,0.826645,1.341998,0.73932,0.4636,0.12947
1700499609648437,-9.740397,0.811645,1.356998,0.62932,0.1536,0.25847
1700499609656250,-9.695397,0.796645,1.329998,0.48032,0.1164,0.25747
1700499609664062,-9.668397,0.821645,1.314998,0.26732,0.4864,0.31147
1700499609671875,-9.664397,0.840645,1.311998,0.18032,0.7764,0.24647
1700499609679687,-9.653397,0.849645,1.273998,0.20832,0.20964,0.24747
1700499609687500,-9.637397,0.838645,1.246998,0.2268,0.20664,0.23247
1700499609695312,-9.610397,0.824645,1.253998,0.3868,0.25564,0.24947
1700499609703125,-9.594397,0.802645,1.248998,0.15368,0.25964,0.22047
1700499609710937,-9.576397,0.781645,1.257998,0.30768,0.32264,0.23747
1700499609718750,-9.582397,0.764645,1.266998,0.35368,0.28964,0.20547
1700499609726562,-9.597397,0.731645,1.280998,0.52968,0.29264,0.19247
1700499609734375,-9.629397,0.720645,1.289998,0.57968,0.30964,0.25847
1700499609742187,-9.628397,0.698645,1.298998,0.62368,0.32364,0.29047
1700499609750000,-9.626397,0.669645,1.318998,0.71868,0.34064,0.24347
1700499609757812,-9.614397,0.636645,1.320998,0.67568,0.32764,0.24447
1700499609765625,-9.593397,0.618645,1.291998,0.72468,0.40864,0.29347
1700499609773437,-9.593397,0.595645,1.284998,0.58968,0.37264,0.14547
1700499609781250,-9.631397,0.567645,1.277998,0.55168,0.32864,0.21147
1700499609789062,-9.630397,0.534645,1.282998,0.54768,0.34264,0.21047
1700499609796875,-9.637397,0.502645,1.289998,0.39568,0.36764,0.20447
1700499609804687,-9.675397,0.505645,1.311998,0.30668,0.41964,0.23747
1700499609812500,-9.713397,0.508645,1.286998,0.31368,0.40664,0.30447
1700499609820312,-9.736397,0.513645,1.318998,0.22868,0.43464,0.34847
1700499609828125,-9.767397,0.522645,1.352998,0.13768,0.45364,0.31747
1700499609835937,-9.803397,0.507645,1.365998,0.6868,0.51364,0.37847
1700499609843750,-9.816397,0.494645,1.406998,0.4568,0.51864,0.39747
1700499609851562,-9.778397,0.473645,1.397998,0.3668,0.43064,0.45747
1700499609859375,-9.722397,0.486645,1.354998,0.832,0.41464,0.48947
1700499609867187,-9.725397,0.566645,1.390998,0.15932,0.46864,0.47447
1700499609875000,-9.730397,0.602645,1.386998,0.27632,0.48864,0.55547
1700499609882812,-9.721397,0.604645,1.406998,0.42832,0.30364,0.50147
1700499609890625,-9.715397,0.599645,1.442998,0.40832,0.33964,0.50347
1700499609898437,-9.724397,0.611645,1.442998,0.41832,0.32564,0.56847
1700499609906250,-9.715397,0.644645,1.408998,0.42432,0.33564,0.67947
1700499609914062,-9.705397,0.674645,1.372998,0.43832,0.33764,0.64747
1700499609921875,-9.671397,0.683645,1.381998,0.45932,0.34964,0.64547
1700499609929687,-9.655397,0.687645,1.386998,0.44232,0.31864,0.62947
1700499609937500,-9.660397,0.681645,1.361998,0.43732,0.33864,0.61547
1700499609945312,-9.661397,0.659645,1.334998,0.27232,0.34364,0.63647
1700499609953125,-9.660397,0.669645,1.329998,0.18932,0.38464,0.64947
1700499609960937,-9.651397,0.671645,1.325998,0.14132,0.40064,0.69847
1700499609968750,-9.639397,0.680645,1.323998,0.15432,0.37064,0.65147
1700499609976562,-9.630397,0.678645,1.325998,0.4532,0.35464,0.60447
1700499609984375,-9.634397,0.654645,1.318998,0.8068,0.32264,0.57347
1700499609992187,-9.634397,0.638645,1.309998,0.4368,0.33564,0.53947
1700499610000000,-9.625397,0.638645,1.302998,0.12868,0.32464,0.49447
1700499610007812,-9.618397,0.624645,1.302998,0.29568,0.32164,0.43047
1700499610015625,-9.603397,0.613645,1.314998,0.33768,0.33564,0.38147
1700499610023437,-9.598397,0.590645,1.320998,0.49068,0.29964,0.36547
1700499610031250,-9.584397,0.575645,1.314998,0.54368,0.28764,0.38447
1700499610039062,-9.570397,0.544645,1.298998,0.55468,0.31764,0.33547
1700499610046875,-9.556397,0.521645,1.293998,0.53868,0.27064,0.23847
1700499610054687,-9.529397,0.497645,1.271998,0.60468,0.33864,0.20847
1700499610062500,-9.535397,0.476645,1.246998,0.56168,0.29964,0.12447
1700499610070312,-9.535397,0.463645,1.251998,0.61268,0.23864,0.4547
1700499610078125,-9.541397,0.436645,1.287998,0.54568,0.28464,0.1147
1700499610085937,-9.548397,0.421645,1.291998,0.59268,0.35064,0.3553
1700499610093750,-9.570397,0.419645,1.282998,0.56568,0.28864,0.5053
1700499610101562,-9.604397,0.416645,1.273998,0.55168,0.25764,0.8253
1700499610109375,-9.662397,0.410645,1.291998,0.51968,0.24164,0.9853
1700499610117187,-9.712397,0.406645,1.316998,0.48868,0.15964,0.5153
1700499610125000,-9.743397,0.420645,1.334998,0.39668,0.29064,0.1247
1700499610132812,-9.748397,0.431645,1.349998,0.35068,0.30864,0.3553
1700499610140625,-9.762397,0.447645,1.352998,0.23368,0.15564,0.847
1700499610148437,-9.762397,0.458645,1.332998,0.20068,0.31864,0.847
1700499610156250,-9.784397,0.461645,1.338998,0.11268,0.32264,0.2547
1700499610164062,-9.793397,0.465645,1.345998,0.6968,0.30864,0.1047
1700499610171875,-9.778397,0.476645,1.354998,0.4968,0.24064,0.2447
1700499610179687,-9.760397,0.496645,1.361998,0.2268,0.32564,0.947
1700499610187500,-9.736397,0.529645,1.392998,0.1868,0.32264,0.2447
1700499610195312,-9.727397,0.555645,1.406998,0.21532,0.30764,0.953
1700499610203125,-9.698397,0.550645,1.426998,0.19532,0.34364,0.2453
1700499610210937,-9.667397,0.561645,1.406998,0.19732,0.32564,0.747
1700499610218750,-9.638397,0.572645,1.388998,0.22732,0.32764,0.4053
1700499610226562,-9.611397,0.595645,1.374998,0.33932,0.34064,0.2147
1700499610234375,-9.605397,0.617645,1.359998,0.24832,0.29064,0.547
1700499610242187,-9.587397,0.613645,1.359998,0.36032,0.28964,0.1353
1700499610250000,-9.594397,0.622645,1.383998,0.45332,0.33864,0.247
1700499610257812,-9.621397,0.627645,1.410998,0.46632,0.32364,0.3447
1700499610265625,-9.629397,0.582645,1.388998,0.45332,0.33864,0.1847
1700499610273437,-9.621397,0.538645,1.291998,0.46132,0.21264,0.5247
1700499610281250,-9.629397,0.567645,1.309998,0.44632,0.22764,0.11647
1700499610289062,-9.660397,0.592645,1.347998,0.46232,0.17864,0.11547
1700499610296875,-9.663397,0.578645,1.253998,0.44732,0.14364,0.19547
1700499610304687,-9.629397,0.555645,1.226998,0.47032,0.10564,0.19247
1700499610312500,-9.619397,0.547645,1.284998,0.27032,0.24464,0.19947
1700499610320312,-9.622397,0.578645,1.372998,0.19432,0.25964,0.15147
1700499610328125,-9.629397,0.614645,1.370998,0.19532,0.17764,0.11847
1700499610335937,-9.643397,0.607645,1.332998,0.30532,0.17764,0.13347
1700499610343750,-9.659397,0.603645,1.356998,0.34332,0.12464,0.8247
1700499610351562,-9.636397,0.593645,1.354998,0.24232,0.18564,0.3347
1700499610359375,-9.674397,0.612645,1.329998,0.15832,0.20564,0.447
1700499610367187,-9.684397,0.637645,1.313998,0.14732,0.21164,0.7147
1700499610375000,-9.678397,0.669645,1.307998,0.19132,0.22064,0.347
1700499610382812,-9.693397,0.652645,1.305998,0.22232,0.25464,0.6053
1700499610390625,-9.701397,0.595645,1.316998,0.23332,0.27464,0.5953
1700499610398437,-9.725397,0.555645,1.311998,0.40132,0.22764,0.447
1700499610406250,-9.745397,0.535645,1.316998,0.47332,0.22164,0.0
1700499610414062,-9.741397,0.539645,1.347998,0.42532,0.28664,0.4947
1700499610421875,-9.750397,0.551645,1.365998,0.44632,0.27664,0.8447
1700499610429687,-9.763397,0.552645,1.379998,0.44832,0.38264,0.16947
1700499610437500,-9.772397,0.556645,1.399998,0.44032,0.32864,0.16647
1700499610445312,-9.779397,0.563645,1.408998,0.47132,0.34264,0.27847
1700499610453125,-9.782397,0.592645,1.417998,0.56632,0.22664,0.37247
1700499610460937,-9.778397,0.600645,1.415998,0.56032,0.28564,0.35347
1700499610468750,-9.753397,0.622645,1.384998,0.52832,0.30164,0.37047
1700499610476562,-9.713397,0.623645,1.348998,0.70032,0.17064,0.44747
1700499610484375,-9.675397,0.607645,1.321998,0.65532,0.24964,0.47947
1700499610492187,-9.681397,0.614645,1.352998,0.47632,0.30264,0.51647
1700499610500000,-9.677397,0.670645,1.338998,0.43332,0.32464,0.63347
1700499610507812,-9.638397,0.716645,1.289998,0.42932,0.30964,0.71447
1700499610515625,-9.622397,0.731645,1.284998,0.43432,0.30564,0.77647
1700499610523437,-9.622397,0.735645,1.273998,0.45332,0.31864,0.80747
1700499610531250,-9.654397,0.751645,1.224998,0.43432,0.30364,0.85647
1700499610539062,-9.696397,0.734645,1.210998,0.42732,0.35664,0.89147
1700499610546875,-9.735397,0.730645,1.226998,0.27932,0.35164,0.87447
1700499610554687,-9.718397,0.666645,1.246998,0.17932,0.30564,0.89247
1700499610562500,-9.679397,0.652645,1.210998,0.17832,0.38764,0.87747
1700499610570312,-9.705397,0.672645,1.253998,0.12332,0.31864,0.84347
1700499610578125,-9.705397,0.667645,1.244998,0.16132,0.39464,0.87347
1700499610585937,-9.713397,0.657645,1.233998,0.2968,0.31564,0.84347
1700499610593750,-9.726397,0.622645,1.305998,0.8268,0.31964,0.84647
1700499610601562,-9.758397,0.611645,1.336998,0.24868,0.42864,0.86247
1700499610609375,-9.757397,0.593645,1.332998,0.33168,0.43364,0.73747
1700499610617187,-9.736397,0.546645,1.354998,0.36268,0.49764,0.75347
1700499610625000,-9.731397,0.500645,1.359998,0.48768,0.59564,0.73947
1700499610632812,-9.706397,0.459645,1.354998,0.53168,0.64464,0.62747
1700499610640625,-9.665397,0.445645,1.370998,0.56768,0.58064,0.69247
1700499610648437,-9.640397,0.418645,1.356998,0.55168,0.69564,0.66147
1700499610656250,-9.626397,0.409645,1.343998,0.58168,0.66164,0.67647
1700499610664062,-9.604397,0.400645,1.327998,0.57868,0.60964,0.75547
1700499610671875,-9.601397,0.387645,1.356998,0.58068,0.54664,0.65947
1700499610679687,-9.617397,0.378645,1.354998,0.69068,0.54664,0.69347
1700499610687500,-9.626397,0.360645,1.356998,0.72368,0.59564,0.74247
1700499610695312,-9.628397,0.343645,1.352998,0.69068,0.51364,0.70947
1700499610703125,-9.647397,0.328645,1.365998,0.65968,0.49964,0.64447
1700499610710937,-9.629397,0.323645,1.379998,0.70468,0.46464,0.64447
1700499610718750,-9.647397,0.314645,1.394998,0.56668,0.41864,0.59547
1700499610726562,-9.654397,0.299645,1.417998,0.54668,0.43464,0.48247
1700499610734375,-9.647397,0.290645,1.410998,0.55868,0.43164,0.48047
1700499610742187,-9.629397,0.285645,1.397998,0.50268,0.41164,0.36547
1700499610750000,-9.615397,0.276645,1.383998,0.41868,0.40264,0.38347
1700499610757812,-9.617397,0.283645,1.379998,0.31468,0.43964,0.36847
1700499610765625,-9.620397,0.291645,1.377998,0.30268,0.36564,0.38047
1700499610773437,-9.625397,0.289645,1.377998,0.28868,0.35064,0.38047
1700499610781250,-9.622397,0.289645,1.381998,0.27468,0.33564,0.36447
1700499610789062,-9.618397,0.298645,1.370998,0.28668,0.28364,0.37947
1700499610796875,-9.623397,0.320645,1.365998,0.34668,0.20064,0.36247
1700499610804687,-9.666397,0.336645,1.365998,0.39768,0.28364,0.41247
1700499610812500,-9.686397,0.344645,1.356998,0.37668,0.22664,0.41647
1700499610820312,-9.704397,0.353645,1.352998,0.38568,0.20564,0.36547
1700499610828125,-9.704397,0.340645,1.372998,0.41768,0.28764,0.38247
1700499610835937,-9.703397,0.313645,1.370998,0.44168,0.34264,0.37047
1700499610843750,-9.712397,0.309645,1.376998,0.48468,0.32264,0.38547
1700499610851562,-9.706397,0.308645,1.374998,0.52568,0.30264,0.36747
1700499610859375,-9.670397,0.328645,1.361998,0.48768,0.33164,0.33347
1700499610867187,-9.623397,0.340645,1.350998,0.44468,0.28664,0.23747
1700499610875000,-9.616397,0.356645,1.354998,0.35268,0.25764,0.17347
1700499610882812,-9.619397,0.351645,1.325998,0.29768,0.22064,0.7347
1700499610890625,-9.621397,0.359645,1.340998,0.26268,0.21464,0.1853
1700499610898437,-9.614397,0.338645,1.359998,0.18568,0.18864,0.853
1700499610906250,-9.605397,0.320645,1.365998,0.9068,0.20564,0.8953
1700499610914062,-9.616397,0.316645,1.365998,0.13568,0.20464,0.10653
1700499610921875,-9.639397,0.327645,1.354998,0.8668,0.21964,0.10753
1700499610929687,-9.654397,0.339645,1.352998,0.2968,0.20864,0.16953
1700499610937500,-9.686397,0.348645,1.338998,0.1532,0.22664,0.16953
1700499610945312,-9.699397,0.346645,1.336998,0.1232,0.16164,0.13653
1700499610953125,-9.717397,0.335645,1.361998,0.17632,0.25564,0.12453
1700499610960937,-9.746397,0.324645,1.417998,0.20732,0.23864,0.7653
1700499610968750,-9.762397,0.282645,1.417998,0.21132,0.20164,0.147
1700499610976562,-9.736397,0.235645,1.305998,0.16332,0.2636,0.3347
1700499610984375,-9.755397,0.293645,1.336998,0.18932,0.5664,0.16347
1700499610992187,-9.776397,0.372645,1.361998,0.16932,0.17364,0.14947
1700499611000000,-9.752397,0.389645,1.282998,0.19432,0.19364,0.16747
1700499611007812,-9.713397,0.386645,1.219998,0.21332,0.1264,0.16547
1700499611015625,-9.657397,0.372645,1.266998,0.16632,0.12764,0.13447
1700499611023437,-9.619397,0.382645,1.336998,0.20132,0.20664,0.11647
1700499611031250,-9.622397,0.420645,1.316998,0.32532,0.19164,0.10047
1700499611039062,-9.651397,0.425645,1.287998,0.42132,0.15764,0.11447
1700499611046875,-9.703397,0.423645,1.332998,0.47432,0.17064,0.9547
1700499611054687,-9.716397,0.424645,1.354998,0.44632,0.21064,0.10047
1700499611062500,-9.703397,0.424645,1.318998,0.35432,0.20964,0.11647
1700499611070312,-9.726397,0.453645,1.305998,0.26332,0.28864,0.10047
1700499611078125,-9.764397,0.465645,1.320998,0.20032,0.33764,0.11747
1700499611085937,-9.773397,0.458645,1.321998,0.28732,0.28364,0.9747
1700499611093750,-9.762397,0.442645,1.302998,0.25232,0.33364,0.14747
1700499611101562,-9.748397,0.411645,1.300998,0.26832,0.38264,0.11547
1700499611109375,-9.737397,0.399645,1.329998,0.20732,0.39764,0.14747
1700499611117187,-9.707397,0.388645,1.338998,0.21332,0.33864,0.15047
1700499611125000,-9.707397,0.393645,1.350998,0.20032,0.40364,0.8647
1700499611132812,-9.703397,0.388645,1.372998,0.20632,0.43064,0.16447
1700499611140625,-9.689397,0.394645,1.390998,0.21732,0.39964,0.21347
1700499611148437,-9.687397,0.408645,1.379998,0.18732,0.41664,0.13347
1700499611156250,-9.662397,0.396645,1.383998,0.20432,0.49764,0.13347
1700499611164062,-9.635397,0.389645,1.399998,0.21632,0.48364,0.15047
1700499611171875,-9.617397,0.371645,1.410998,0.19832,0.50164,0.18347
1700499611179687,-9.619397,0.353645,1.383998,0.22232,0.48164,0.5247
1700499611187500,-9.607397,0.334645,1.383998,0.19732,0.50264,0.13547
1700499611195312,-9.612397,0.327645,1.365998,0.21532,0.45264,0.13447
1700499611203125,-9.618397,0.331645,1.347998,0.20032,0.45064,0.16647
1700499611210937,-9.627397,0.325645,1.331998,0.20932,0.42164,0.21647
1700499611218750,-9.641397,0.318645,1.314998,0.21632,0.30364,0.19747
1700499611226562,-9.668397,0.335645,1.298998,0.23832,0.34064,0.29647
1700499611234375,-9.722397,0.353645,1.295998,0.27332,0.30564,0.31047
1700499611242187,-9.736397,0.380645,1.307998,0.44132,0.29164,0.34247
1700499611250000,-9.770397,0.387645,1.323998,0.41032,0.37964,0.28947
1700499611257812,-9.775397,0.403645,1.356998,0.40232,0.41764,0.29247
1700499611265625,-9.745397,0.371645,1.361998,0.27432,0.40064,0.39047
1700499611273437,-9.696397,0.372645,1.329998,0.30932,0.43264,0.30947
1700499611281250,-9.675397,0.397645,1.334998,0.34732,0.42264,0.29647
1700499611289062,-9.635397,0.387645,1.347998,0.43832,0.42464,0.34347
1700499611296875,-9.631397,0.407645,1.356998,0.33632,0.43564,0.35847
1700499611304687,-9.606397,0.407645,1.349998,0.36332,0.40464,0.37547
1700499611312500,-9.617397,0.420645,1.388998,0.48932,0.42164,0.35847
1700499611320312,-9.618397,0.440645,1.388998,0.36132,0.43964,0.36047
1700499611328125,-9.623397,0.449645,1.388998,0.38432,0.41764,0.37347
1700499611335937,-9.642397,0.427645,1.367998,0.40932,0.37364,0.35947
1700499611343750,-9.667397,0.417645,1.358998,0.37432,0.29464,0.37647
1700499611351562,-9.696397,0.399645,1.343998,0.43032,0.32064,0.35647
1700499611359375,-9.709397,0.391645,1.329998,0.25532,0.27264,0.42347
1700499611367187,-9.716397,0.371645,1.347998,0.21332,0.23664,0.39047
1700499611375000,-9.720397,0.344645,1.341998,0.32332,0.23764,0.35647
1700499611382812,-9.715397,0.351645,1.334998,0.31532,0.30864,0.35947
1700499611390625,-9.719397,0.335645,1.336998,0.19032,0.35764,0.32947
1700499611398437,-9.708397,0.331645,1.359998,0.21132,0.32064,0.37547
1700499611406250,-9.699397,0.326645,1.381998,0.19432,0.28864,0.32747
1700499611414062,-9.675397,0.341645,1.365998,0.21532,0.25364,0.26147
1700499611421875,-9.688397,0.348645,1.383998,0.19132,0.32464,0.26447
1700499611429687,-9.702397,0.360645,1.390998,0.19232,0.42264,0.21747
1700499611437500,-9.704397,0.342645,1.397998,0.19732,0.38764,0.13547
1700499611445312,-9.688397,0.319645,1.401998,0.21532,0.35564,0.7047
1700499611453125,-9.677397,0.337645,1.394998,0.19632,0.45464,0.8747
1700499611460937,-9.659397,0.341645,1.372998,0.19832,0.38964,0.2347
1700499611468750,-9.643397,0.354645,1.338998,0.16532,0.35864,0.747
1700499611476562,-9.648397,0.354645,1.318998,0.20332,0.32164,0.1153
1700499611484375,-9.635397,0.376645,1.318998,0.2432,0.33964,0.8947
1700499611492187,-9.644397,0.383645,1.325998,0.2532,0.30764,0.4047
1700499611500000,-9.659397,0.386645,1.340998,0.2432,0.19364,0.7247
1700499611507812,-9.668397,0.390645,1.325998,0.6532,0.26364,0.2647
1700499611515625,-9.684397,0.390645,1.322998,0.2332,0.27564,0.7347
1700499611523437,-9.718397,0.385645,1.327998,0.4668,0.39564,0.1347
1700499611531250,-9.727397,0.400645,1.309998,0.4268,0.39164,0.10747
1700499611539062,-9.729397,0.404645,1.318998,0.5768,0.38964,0.17147
1700499611546875,-9.722397,0.402645,1.324998,0.4868,0.41164,0.10947
1700499611554687,-9.732397,0.398645,1.359998,0.5368,0.42064,0.17047
1700499611562500,-9.741397,0.391645,1.381998,0.4068,0.40464,0.18647
1700499611570312,-9.747397,0.391645,1.392998,0.5968,0.48964,0.14047
1700499611578125,-9.743397,0.389645,1.390998,0.2468,0.47064,0.17147
1700499611585937,-9.718397,0.373645,1.383998,0.3268,0.56164,0.21647
1700499611593750,-9.706397,0.368645,1.379998,0.5668,0.51964,0.18747
1700499611601562,-9.693397,0.375645,1.386998,0.3868,0.45164,0.25047
1700499611609375,-9.664397,0.366645,1.358998,0.6068,0.42364,0.18847
1700499611617187,-9.646397,0.363645,1.356998,0.1532,0.44164,0.23647
1700499611625000,-9.637397,0.365645,1.361998,0.2268,0.38764,0.20247
1700499611632812,-9.630397,0.347645,1.358998,0.2268,0.32364,0.12147
1700499611640625,-9.643397,0.332645,1.356998,0.7132,0.33964,0.10447
1700499611648437,-9.674397,0.324645,1.390998,0.632,0.34164,0.12247
1700499611656250,-9.661397,0.326645,1.385998,0.5768,0.32664,0.9147
1700499611664062,-9.661397,0.324645,1.372998,0.4068,0.30964,0.4247
1700499611671875,-9.667397,0.326645,1.383998,0.6068,0.39464,0.2847
1700499611679687,-9.665397,0.324645,1.394998,0.3868,0.37464,0.553
1700499611687500,-9.661397,0.323645,1.376998,0.5568,0.50564,0.1147
1700499611695312,-9.636397,0.325645,1.359998,0.3068,0.43264,0.5547
1700499611703125,-9.625397,0.349645,1.379998,0.5368,0.48764,0.2647
1700499611710937,-9.616397,0.351645,1.415998,0.3468,0.55164,0.3853
1700499611718750,-9.616397,0.321645,1.388998,0.2568,0.45764,0.1147
1700499611726562,-9.606397,0.285645,1.320998,0.5768,0.39364,0.453
1700499611734375,-9.634397,0.325645,1.383998,0.12468,0.35064,0.8847
1700499611742187,-9.675397,0.341645,1.388998,0.10368,0.34064,0.13947
1700499611750000,-9.728397,0.333645,1.316998,0.8368,0.28964,0.12147
1700499611757812,-9.704397,0.326645,1.296998,0.7868,0.18864,0.10347
1700499611765625,-9.695397,0.328645,1.388998,0.4668,0.31764,0.13547
1700499611773437,-9.709397,0.351645,1.408998,0.3168,0.27064,0.5547
1700499611781250,-9.722397,0.353645,1.350998,0.15732,0.28764,0.2047
1700499611789062,-9.765397,0.347645,1.377998,0.13632,0.32264,0.8747
1700499611796875,-9.771397,0.343645,1.433998,0.7932,0.33664,0.547
1700499611804687,-9.747397,0.355645,1.426998,0.6632,0.26764,0.5247
1700499611812500,-9.736397,0.380645,1.424998,0.7168,0.39164,0.1147
1700499611820312,-9.727397,0.402645,1.428998,0.468,0.43864,0.3853
1700499611828125,-9.700397,0.404645,1.428998,0.1468,0.41864,0.2453
1700499611835937,-9.676397,0.399645,1.435998,0.1968,0.42064,0.2547
1700499611843750,-9.635397,0.374645,1.424998,0.1232,0.45564,0.11953
1700499611851562,-9.603397,0.367645,1.406998,0.4732,0.43664,0.8853
1700499611859375,-9.577397,0.359645,1.384998,0.3032,0.39464,0.10953
1700499611867187,-9.560397,0.355645,1.392998,0.3832,0.38364,0.13953
1700499611875000,-9.576397,0.358645,1.399998,0.6132,0.32464,0.15353
1700499611882812,-9.596397,0.356645,1.417998,0.10832,0.27564,0.17053
1700499611890625,-9.617397,0.344645,1.401998,0.7032,0.30164,0.14053
1700499611898437,-9.625397,0.345645,1.433998,0.4332,0.30964,0.15253
1700499611906250,-9.623397,0.338645,1.435998,0.8132,0.30564,0.20353
1700499611914062,-9.601397,0.351645,1.417998,0.15932,0.37164,0.18753
1700499611921875,-9.590397,0.369645,1.426998,0.20832,0.30464,0.18953
1700499611929687,-9.574397,0.391645,1.413998,0.22632,0.37064,0.28553
1700499611937500,-9.552397,0.408645,1.395998,0.22232,0.37364,0.28353
1700499611945312,-9.559397,0.424645,1.390998,0.26632,0.39264,0.34753
1700499611953125,-9.593397,0.422645,1.383998,0.28832,0.33964,0.35053
1700499611960937,-9.613397,0.411645,1.376998,0.37732,0.34364,0.38153
1700499611968750,-9.651397,0.397645,1.385998,0.42432,0.31064,0.36553
1700499611976562,-9.686397,0.384645,1.417998,0.45632,0.17864,0.28753
1700499611984375,-9.716397,0.373645,1.395998,0.47332,0.30864,0.28753
1700499611992187,-9.741397,0.387645,1.390998,0.48932,0.27564,0.27153
1700499612000000,-9.757397,0.402645,1.386998,0.60232,0.32164,0.25753
1700499612007812,-9.765397,0.407645,1.392998,0.58932,0.41164,0.22053
1700499612015625,-9.781397,0.403645,1.426998,0.67332,0.37564,0.22353
1700499612023437,-9.750397,0.396645,1.383998,0.64432,0.38864,0.14453
1700499612031250,-9.701397,0.432645,1.363998,0.70932,0.37064,0.16153
1700499612039062,-9.696397,0.453645,1.374998,0.71632,0.35964,0.11153
1700499612046875,-9.692397,0.466645,1.399998,0.76832,0.33964,0.8153
1700499612054687,-9.706397,0.466645,1.381998,0.82432,0.37564,0.3153
1700499612062500,-9.720397,0.497645,1.413998,0.93332,0.39264,0.1653
1700499612070312,-9.736397,0.540645,1.447998,0.94032,0.38664,0.2847
1700499612078125,-9.755397,0.569645,1.485998,0.82732,0.34064,0.153
1700499612085937,-9.744397,0.602645,1.485998,0.80932,0.37464,0.1647
1700499612093750,-9.765397,0.635645,1.487998,0.81732,0.36964,0.253
1700499612101562,-9.760397,0.660645,1.476998,0.71132,0.39464,0.6153
1700499612109375,-9.729397,0.672645,1.456998,0.70832,0.45164,0.6553
1700499612117187,-9.680397,0.674645,1.447998,0.65932,0.45364,0.12753
1700499612125000,-9.644397,0.669645,1.462998,0.66332,0.48464,0.16153
1700499612132812,-9.615397,0.671645,1.456998,0.64132,0.50464,0.14253
1700499612140625,-9.615397,0.659645,1.417998,0.58932,0.46664,0.25753
1700499612148437,-9.601397,0.648645,1.426998,0.49132,0.45264,0.25553
1700499612156250,-9.580397,0.626645,1.420998,0.52432,0.38764,0.30453
1700499612164062,-9.587397,0.619645,1.415998,0.47432,0.41964,0.20753
1700499612171875,-9.616397,0.613645,1.399998,0.47132,0.40464,0.14253
1700499612179687,-9.652397,0.614645,1.390998,0.42532,0.42064,0.18953
1700499612187500,-9.683397,0.612645,1.392998,0.42132,0.35764,0.14053
1700499612195312,-9.695397,0.605645,1.390998,0.41732,0.36664,0.16053
1700499612203125,-9.688397,0.583645,1.413998,0.35232,0.38364,0.15953
1700499612210937,-9.692397,0.563645,1.435998,0.25132,0.42064,0.12353
1700499612218750,-9.694397,0.554645,1.435998,0.20532,0.43564,0.5953
1700499612226562,-9.696397,0.550645,1.451998,0.21432,0.42264,0.953
1700499612234375,-9.689397,0.568645,1.428998,0.20032,0.40464,0.647
1700499612242187,-9.674397,0.577645,1.433998,0.19532,0.42364,0.4047
1700499612250000,-9.653397,0.563645,1.446998,0.13632,0.47064,0.2347
1700499612257812,-9.660397,0.572645,1.444998,0.19632,0.42364,0.2347
1700499612265625,-9.664397,0.559645,1.431998,0.15032,0.43864,0.4047
1700499612273437,-9.653397,0.556645,1.426998,0.18332,0.40464,0.5447
1700499612281250,-9.645397,0.581645,1.426998,0.21132,0.35864,0.5547
1700499612289062,-9.658397,0.598645,1.428998,0.16832,0.38864,0.3847
1700499612296875,-9.647397,0.609645,1.415998,0.19632,0.37464,0.3947
1700499612304687,-9.643397,0.611645,1.406998,0.21732,0.35464,0.3747
1700499612312500,-9.638397,0.602645,1.413998,0.20232,0.32364,0.5853
1700499612320312,-9.614397,0.600645,1.401998,0.21932,0.33864,0.2753
1700499612328125,-9.618397,0.607645,1.397998,0.20332,0.32164,0.4353
1700499612335937,-9.621397,0.638645,1.377998,0.21132,0.34364,0.5653
1700499612343750,-9.628397,0.640645,1.383998,0.23132,0.32464,0.7453
1700499612351562,-9.637397,0.638645,1.392998,0.20232,0.33764,0.2147
1700499612359375,-9.657397,0.625645,1.397998,0.22232,0.33564,0.347
1700499612367187,-9.670397,0.601645,1.406998,0.19632,0.38964,0.8747
1700499612375000,-9.674397,0.587645,1.419998,0.21532,0.32164,0.13347
1700499612382812,-9.669397,0.567645,1.433998,0.23432,0.34964,0.24447
1700499612390625,-9.673397,0.552645,1.446998,0.19332,0.40564,0.26447
1700499612398437,-9.662397,0.543645,1.446998,0.20732,0.42164,0.31347
1700499612406250,-9.664397,0.534645,1.417998,0.22832,0.38464,0.37547
1700499612414062,-9.668397,0.528645,1.401998,0.28532,0.37264,0.36047
1700499612421875,-9.685397,0.534645,1.395998,0.29532,0.26764,0.37247
1700499612429687,-9.707397,0.541645,1.374998,0.25832,0.25464,0.35847
1700499612437500,-9.711397,0.544645,1.390998,0.26332,0.24464,0.40947
1700499612445312,-9.721397,0.546645,1.392998,0.17632,0.37064,0.40847
1700499612453125,-9.730397,0.560645,1.408998,0.31232,0.30964,0.39247
1700499612460937,-9.728397,0.557645,1.422998,0.36732,0.30364,0.38947
1700499612468750,-9.730397,0.562645,1.417998,0.33632,0.32064,0.39047
1700499612476562,-9.712397,0.572645,1.424998,0.33032,0.31364,0.35447
1700499612484375,-9.677397,0.605645,1.431998,0.41632,0.30264,0.37247
1700499612492187,-9.681397,0.600645,1.424998,0.29732,0.31564,0.35547
1700499612500000,-9.672397,0.612645,1.410998,0.39932,0.33664,0.37347
1700499612507812,-9.639397,0.631645,1.413998,0.42732,0.29064,0.35747
1700499612515625,-9.652397,0.625645,1.449998,0.44032,0.34064,0.35847
1700499612523437,-9.632397,0.595645,1.390998,0.29432,0.20264,0.37247
1700499612531250,-9.623397,0.591645,1.330998,0.20432,0.21664,0.35547
1700499612539062,-9.632397,0.642645,1.370998,0.17432,0.17664,0.37647
1700499612546875,-9.636397,0.627645,1.314998,0.17432,0.16064,0.40847
1700499612554687,-9.627397,0.615645,1.233998,0.14832,0.17264,0.43947
1700499612562500,-9.580397,0.586645,1.235998,0.3932,0.15664,0.37647
1700499612570312,-9.535397,0.583645,1.320998,0.768,0.18864,0.37647
1700499612578125,-9.568397,0.588645,1.352998,0.16732,0.25364,0.32647
1700499612585937,-9.606397,0.555645,1.323998,0.16932,0.25264,0.29347
1700499612593750,-9.680397,0.530645,1.383998,0.10532,0.20464,0.27847
1700499612601562,-9.689397,0.505645,1.442998,0.1568,0.15264,0.27847
1700499612609375,-9.664397,0.499645,1.388998,0.12968,0.17264,0.23347
1700499612617187,-9.654397,0.499645,1.365998,0.28068,0.30864,0.25447
1700499612625000,-9.680397,0.512645,1.365998,0.25468,0.33664,0.15547
1700499612632812,-9.720397,0.522645,1.390998,0.30868,0.17764,0.17347
1700499612640625,-9.745397,0.504645,1.377998,0.28868,0.19064,0.23547
1700499612648437,-9.742397,0.473645,1.354998,0.30368,0.23964,0.15547
1700499612656250,-9.750397,0.445645,1.399998,0.41768,0.17664,0.22247
1700499612664062,-9.746397,0.444645,1.404998,0.44068,0.25164,0.26847
1700499612671875,-9.741397,0.438645,1.390998,0.46668,0.30664,0.27247
1700499612679687,-9.746397,0.422645,1.417998,0.52668,0.37164,0.20847
1700499612687500,-9.734397,0.427645,1.401998,0.43468,0.33964,0.23947
1700499612695312,-9.723397,0.424645,1.395998,0.43468,0.37164,0.30347
1700499612703125,-9.728397,0.433645,1.426998,0.33068,0.42464,0.28847
1700499612710937,-9.710397,0.444645,1.410998,0.32268,0.32064,0.28547
1700499612718750,-9.667397,0.452645,1.419998,0.30668,0.30264,0.39747
1700499612726562,-9.627397,0.449645,1.424998,0.29668,0.32364,0.36647
1700499612734375,-9.618397,0.458645,1.413998,0.29968,0.21664,0.37847
1700499612742187,-9.620397,0.449645,1.412998,0.15668,0.27564,0.36547
1700499612750000,-9.654397,0.439645,1.401998,0.7268,0.25564,0.37847
1700499612757812,-9.656397,0.456645,1.381998,0.10168,0.18864,0.36147
1700499612765625,-9.663397,0.488645,1.367998,0.4468,0.15964,0.39547
1700499612773437,-9.693397,0.501645,1.345998,0.6068,0.17464,0.45947
1700499612781250,-9.688397,0.503645,1.356998,0.4268,0.17364,0.44247
1700499612789062,-9.693397,0.526645,1.354998,0.4068,0.15564,0.47347
1700499612796875,-9.682397,0.508645,1.347998,0.2968,0.17464,0.52347
1700499612804687,-9.689397,0.523645,1.327998,0.5168,0.15164,0.53647
1700499612812500,-9.698397,0.519645,1.325998,0.4068,0.28564,0.52247
1700499612820312,-9.696397,0.514645,1.363998,0.2168,0.26564,0.55247
1700499612828125,-9.641397,0.471645,1.361998,0.5068,0.16664,0.53547
1700499612835937,-9.587397,0.473645,1.314998,0.9168,0.25364,0.60347
1700499612843750,-9.585397,0.506645,1.314998,0.4268,0.25164,0.63447
1700499612851562,-9.621397,0.495645,1.318998,0.14968,0.18464,0.61847
1700499612859375,-9.650397,0.500645,1.293998,0.10168,0.23264,0.63447
1700499612867187,-9.668397,0.470645,1.287998,0.18168,0.18464,0.61947
1700499612875000,-9.690397,0.439645,1.325998,0.21368,0.25064,0.63647
1700499612882812,-9.725397,0.418645,1.358998,0.27468,0.21164,0.59347
1700499612890625,-9.739397,0.404645,1.361998,0.29168,0.25064,0.62047
1700499612898437,-9.758397,0.376645,1.367998,0.30268,0.29064,0.60847
1700499612906250,-9.765397,0.369645,1.377998,0.31368,0.27264,0.57547
1700499612914062,-9.787397,0.358645,1.422998,0.32568,0.28564,0.54247
1700499612921875,-9.778397,0.336645,1.453998,0.30968,0.33564,0.51047
1700499612929687,-9.769397,0.327645,1.444998,0.30868,0.31864,0.49347
1700499612937500,-9.742397,0.336645,1.453998,0.38468,0.36664,0.43047
1700499612945312,-9.726397,0.331645,1.467998,0.40768,0.50364,0.40147
1700499612953125,-9.724397,0.315645,1.487998,0.31968,0.43164,0.39647
1700499612960937,-9.699397,0.293645,1.503998,0.30968,0.40264,0.39847
1700499612968750,-9.665397,0.288645,1.487998,0.29468,0.42064,0.36747
1700499612976562,-9.658397,0.268645,1.471998,0.30968,0.43564,0.38247
1700499612984375,-9.653397,0.272645,1.471998,0.29468,0.42064,0.36747
1700499612992187,-9.631397,0.270645,1.473998,0.30968,0.41864,0.38247
1700499613000000,-9.629397,0.267645,1.444998,0.29068,0.36664,0.46147
1700499613007812,-9.644397,0.270645,1.428998,0.31068,0.35264,0.49447
1700499613015625,-9.658397,0.283645,1.399998,0.35468,0.31764,0.50947
1700499613023437,-9.665397,0.312645,1.368998,0.33768,0.31564,0.54147
1700499613031250,-9.663397,0.321645,1.356998,0.30568,0.33264,0.52447
1700499613039062,-9.686397,0.324645,1.390998,0.32568,0.28764,0.47847
1700499613046875,-9.695397,0.321645,1.426998,0.30668,0.31764,0.49347
1700499613054687,-9.699397,0.315645,1.399998,0.30668,0.30264,0.39747
1700499613062500,-9.690397,0.302645,1.390998,0.29968,0.38964,0.43247
1700499613070312,-9.688397,0.308645,1.401998,0.35868,0.43464,0.49647
1700499613078125,-9.677397,0.319645,1.390998,0.32468,0.38564,0.39847
1700499613085937,-9.654397,0.321645,1.399998,0.29368,0.35364,0.39847
1700499613093750,-9.631397,0.292645,1.410998,0.30868,0.38664,0.36647
1700499613101562,-9.633397,0.283645,1.410998,0.27568,0.31964,0.38047
1700499613109375,-9.629397,0.292645,1.422998,0.36768,0.39964,0.36547
1700499613117187,-9.622397,0.279645,1.412998,0.40668,0.38864,0.38447
1700499613125000,-9.620397,0.265645,1.408998,0.35268,0.28664,0.36547
1700499613132812,-9.639397,0.232645,1.428998,0.40868,0.32464,0.38447
1700499613140625,-9.661397,0.222645,1.415998,0.29868,0.22764,0.33547
1700499613148437,-9.654397,0.195645,1.403998,0.32468,0.30564,0.33447
1700499613156250,-9.654397,0.186645,1.424998,0.31068,0.33964,0.28647
1700499613164062,-9.652397,0.179645,1.403998,0.25968,0.33764,0.28447
1700499613171875,-9.647397,0.171645,1.401998,0.17468,0.31364,0.15847
1700499613179687,-9.656397,0.177645,1.435998,0.27568,0.30764,0.12547
1700499613187500,-9.667397,0.168645,1.444998,0.20968,0.27464,0.9147
1700499613195312,-9.663397,0.170645,1.426998,0.21068,0.25964,0.4347
1700499613203125,-9.659397,0.177645,1.404998,0.21968,0.22064,0.10547
1700499613210937,-9.640397,0.175645,1.397998,0.15368,0.32764,0.7647
1700499613218750,-9.638397,0.190645,1.412998,0.23068,0.27664,0.14147
1700499613226562,-9.623397,0.203645,1.435998,0.17968,0.27364,0.12347
1700499613234375,-9.612397,0.194645,1.415998,0.16168,0.23964,0.12147
1700499613242187,-9.623397,0.200645,1.401998,0.7568,0.15464,0.7047
1700499613250000,-9.634397,0.196645,1.370998,0.3468,0.24064,0.5647
1700499613257812,-9.650397,0.190645,1.345998,0.4668,0.18864,0.8647
1700499613265625,-9.686397,0.182645,1.381998,0.3568,0.20764,0.10447
1700499613273437,-9.691397,0.193645,1.377998,0.4568,0.20364,0.11847
1700499613281250,-9.709397,0.206645,1.397998,0.7868,0.22164,0.10347
1700499613289062,-9.727397,0.233645,1.404998,0.1568,0.17264,0.8647
1700499613296875,-9.738397,0.232645,1.433998,0.2468,0.17864,0.5747
1700499613304687,-9.741397,0.247645,1.435998,0.1868,0.24064,0.747
1700499613312500,-9.736397,0.242645,1.433998,0.2132,0.16964,0.2047
1700499613320312,-9.738397,0.247645,1.433998,0.1768,0.37164,0.5553
1700499613328125,-9.709397,0.233645,1.404998,0.3168,0.30464,0.4053
1700499613335937,-9.657397,0.228645,1.397998,0.4732,0.30664,0.13753
1700499613343750,-9.635397,0.252645,1.415998,0.7832,0.43764,0.18553
1700499613351562,-9.626397,0.254645,1.437998,0.20632,0.35464,0.17153
1700499613359375,-9.583397,0.226645,1.388998,0.14932,0.33664,0.26953
1700499613367187,-9.577397,0.242645,1.345998,0.16232,0.20764,0.28553
1700499613375000,-9.602397,0.276645,1.399998,0.20832,0.15864,0.23753
1700499613382812,-9.595397,0.291645,1.356998,0.23132,0.17164,0.28853
1700499613390625,-9.593397,0.273645,1.314998,0.18632,0.16964,0.32053
1700499613398437,-9.594397,0.234645,1.372998,0.16332,0.14464,0.39753
1700499613406250,-9.608397,0.244645,1.462998,0.20532,0.15264,0.35353
1700499613414062,-9.616397,0.276645,1.447998,0.22032,0.15364,0.41753
1700499613421875,-9.629397,0.287645,1.395998,0.32332,0.14364,0.44853
1700499613429687,-9.662397,0.265645,1.406998,0.37632,0.12364,0.49953
1700499613437500,-9.647397,0.268645,1.408998,0.29432,0.6164,0.56153
1700499613445312,-9.652397,0.285645,1.377998,0.22532,0.8764,0.57953
1700499613453125,-9.681397,0.323645,1.352998,0.23332,0.7664,0.54553
1700499613460937,-9.704397,0.353645,1.356998,0.21832,0.10764,0.52953
1700499613468750,-9.704397,0.351645,1.343998,0.25932,0.24364,0.55953
1700499613476562,-9.693397,0.341645,1.336998,0.40632,0.19064,0.54753
1700499613484375,-9.677397,0.314645,1.338998,0.50232,0.20564,0.53253
1700499613492187,-9.657397,0.320645,1.323998,0.57032,0.21764,0.51953
1700499613500000,-9.655397,0.354645,1.298998,0.60732,0.17564,0.46853
1700499613507812,-9.686397,0.357645,1.296998,0.73132,0.14264,0.40553
1700499613515625,-9.735397,0.342645,1.327998,0.71032,0.16164,0.35553
1700499613523437,-9.778397,0.354645,1.352998,0.72832,0.17464,0.26053
1700499613531250,-9.796397,0.358645,1.345998,0.71432,0.17364,0.24453
1700499613539062,-9.799397,0.385645,1.352998,0.73332,0.13764,0.19853
1700499613546875,-9.797397,0.414645,1.332998,0.72332,0.16064,0.17853
1700499613554687,-9.791397,0.434645,1.332998,0.81832,0.17564,0.14753
1700499613562500,-9.773397,0.465645,1.325998,0.83232,0.16064,0.14753
1700499613570312,-9.764397,0.478645,1.323998,0.87932,0.16064,0.16453
1700499613578125,-9.738397,0.491645,1.325998,0.82032,0.17464,0.14853
1700499613585937,-9.705397,0.505645,1.327998,0.76632,0.15264,0.19953
1700499613593750,-9.673397,0.534645,1.318998,0.71332,0.22064,0.13253
1700499613601562,-9.651397,0.533645,1.330998,0.73332,0.29964,0.14953
1700499613609375,-9.629397,0.549645,1.332998,0.71632,0.33464,0.19653
1700499613617187,-9.624397,0.569645,1.327998,0.72132,0.33964,0.4853
1700499613625000,-9.620397,0.564645,1.320998,0.70532,0.32464,0.14453
1700499613632812,-9.622397,0.566645,1.318998,0.72632,0.33664,0.13053
1700499613640625,-9.638397,0.556645,1.305998,0.71132,0.35364,0.14653
1700499613648437,-9.662397,0.542645,1.314998,0.73132,0.28464,0.16453
1700499613656250,-9.695397,0.517645,1.343998,0.59832,0.35464,0.11253
1700499613664062,-9.661397,0.489645,1.302998,0.47732,0.23664,0.6553
1700499613671875,-9.689397,0.541645,1.302998,0.50432,0.35364,0.11153
1700499613679687,-9.691397,0.543645,1.293998,0.47532,0.25464,0.8053
1700499613687500,-9.662397,0.538645,1.287998,0.47432,0.22164,0.4853
1700499613695312,-9.667397,0.541645,1.347998,0.33032,0.25664,0.7753
1700499613703125,-9.669397,0.543645,1.345998,0.26132,0.25164,0.15953
1700499613710937,-9.674397,0.552645,1.318998,0.20732,0.32064,0.10853
1700499613718750,-9.689397,0.563645,1.320998,0.21932,0.33864,0.2753
1700499613726562,-9.705397,0.543645,1.318998,0.17832,0.31764,0.7753
1700499613734375,-9.691397,0.530645,1.323998,0.3032,0.33964,0.12153
1700499613742187,-9.689397,0.510645,1.291998,0.9432,0.32164,0.5853
1700499613750000,-9.666397,0.498645,1.251998,0.268,0.33064,0.14153
1700499613757812,-9.651397,0.498645,1.244998,0.1268,0.22964,0.15953
1700499613765625,-9.632397,0.504645,1.242998,0.2168,0.25264,0.22053
1700499613773437,-9.630397,0.504645,1.239998,0.732,0.22064,0.18853
1700499613781250,-9.623397,0.507645,1.230998,0.1732,0.27464,0.20153
1700499613789062,-9.633397,0.536645,1.226998,0.6032,0.34264,0.21653
1700499613796875,-9.626397,0.533645,1.246998,0.18132,0.36764,0.22153
1700499613804687,-9.651397,0.531645,1.289998,0.17832,0.37064,0.23653
1700499613812500,-9.680397,0.518645,1.309998,0.18532,0.31764,0.28753
1700499613820312,-9.704397,0.481645,1.332998,0.24932,0.39964,0.38453
1700499613828125,-9.690397,0.465645,1.343998,0.21432,0.36764,0.30253
1700499613835937,-9.684397,0.488645,1.345998,0.19332,0.40464,0.33253
1700499613843750,-9.679397,0.487645,1.375998,0.24532,0.41764,0.30253
1700499613851562,-9.677397,0.485645,1.399998,0.30432,0.41864,0.22253
1700499613859375,-9.652397,0.471645,1.363998,0.29732,0.31464,0.20953
1700499613867187,-9.625397,0.471645,1.327998,0.43032,0.32064,0.22453
1700499613875000,-9.605397,0.484645,1.293998,0.46332,0.36764,0.20853
1700499613882812,-9.618397,0.475645,1.289998,0.50632,0.38764,0.22353
1700499613890625,-9.632397,0.471645,1.284998,0.60432,0.28664,0.17853
1700499613898437,-9.656397,0.449645,1.289998,0.67932,0.22164,0.6653
1700499613906250,-9.692397,0.445645,1.300998,0.73032,0.20164,0.1147
1700499613914062,-9.717397,0.463645,1.294998,0.76532,0.19864,0.2547
1700499613921875,-9.742397,0.468645,1.323998,0.90332,0.13464,0.10447
1700499613929687,-9.742397,0.488645,1.323998,0.97632,0.12164,0.10547
1700499613937500,-9.736397,0.504645,1.314998,0.95932,0.15464,0.15447
1700499613945312,-9.709397,0.521645,1.320998,0.97032,0.14064,0.17147
1700499613953125,-9.714397,0.546645,1.311998,0.95132,0.17464,0.22147
1700499613960937,-9.704397,0.601645,1.289998,0.91032,0.15564,0.15547
1700499613968750,-9.671397,0.642645,1.309998,0.90132,0.16664,0.20147
1700499613976562,-9.662397,0.660645,1.336998,0.88532,0.11764,0.20147
1700499613984375,-9.673397,0.685645,1.330998,0.84732,0.5764,0.18747
1700499613992187,-9.669397,0.691645,1.307998,0.80132,0.2464,0.12347
1700499614000000,-9.689397,0.705645,1.298998,0.69032,0.10764,0.11047
1700499614007812,-9.703397,0.712645,1.302998,0.69932,0.6264,0.12747
1700499614015625,-9.726397,0.723645,1.282998,0.49932,0.10864,0.12947
1700499614023437,-9.719397,0.705645,1.285998,0.50732,0.11964,0.9447
1700499614031250,-9.728397,0.697645,1.282998,0.39732,0.21764,0.11247
1700499614039062,-9.716397,0.705645,1.282998,0.22332,0.16964,0.9847
1700499614046875,-9.705397,0.714645,1.285998,0.16232,0.18464,0.9847
1700499614054687,-9.723397,0.703645,1.258998,0.3832,0.26664,0.1253
1700499614062500,-9.687397,0.718645,1.228998,0.3168,0.32164,0.2453
1700499614070312,-9.633397,0.718645,1.215998,0.9368,0.33764,0.8853
1700499614078125,-9.628397,0.695645,1.239998,0.23368,0.32164,0.13453
1700499614085937,-9.615397,0.686645,1.244998,0.30568,0.33364,0.15253
1700499614093750,-9.611397,0.677645,1.228998,0.47468,0.31464,0.13553
1700499614101562,-9.621397,0.658645,1.255998,0.54768,0.36964,0.9853
1700499614109375,-9.623397,0.640645,1.255998,0.54768,0.43564,0.14653
1700499614117187,-9.629397,0.618645,1.242998,0.59668,0.35464,0.9753
1700499614125000,-9.634397,0.587645,1.217998,0.67068,0.40164,0.13053
1700499614132812,-9.647397,0.547645,1.235998,0.79468,0.38364,0.12953
1700499614140625,-9.678397,0.530645,1.266998,0.77968,0.33564,0.14553
1700499614148437,-9.684397,0.481645,1.226998,0.77868,0.39964,0.12953
1700499614156250,-9.703397,0.461645,1.262998,0.73768,0.43664,0.12753
1700499614164062,-9.728397,0.446645,1.345998,0.61168,0.50264,0.20953
1700499614171875,-9.748397,0.442645,1.347998,0.58968,0.56264,0.14753
1700499614179687,-9.743397,0.408645,1.253998,0.55768,0.46464,0.14853
1700499614187500,-9.764397,0.422645,1.302998,0.53168,0.45164,0.14653
1700499614195312,-9.759397,0.427645,1.347998,0.45068,0.51464,0.11653
1700499614203125,-9.730397,0.424645,1.282998,0.27968,0.48264,0.5453
1700499614210937,-9.658397,0.409645,1.248998,0.23068,0.44964,0.10353
1700499614218750,-9.599397,0.393645,1.320998,0.11368,0.48664,0.2153
1700499614226562,-9.582397,0.428645,1.410998,0.3068,0.40164,0.853
1700499614234375,-9.589397,0.451645,1.334998,0.21432,0.35664,0.647
1700499614242187,-9.618397,0.440645,1.341998,0.40832,0.32064,0.247
1700499614250000,-9.636397,0.438645,1.392998,0.47132,0.20564,0.3247
1700499614257812,-9.632397,0.467645,1.334998,0.45432,0.20564,0.8147
1700499614265625,-9.673397,0.498645,1.298998,0.47332,0.16864,0.20747
1700499614273437,-9.759397,0.551645,1.302998,0.44632,0.27364,0.26047
1700499614281250,-9.786397,0.574645,1.313998,0.47332,0.21064,0.30947
1700499614289062,-9.784397,0.565645,1.336998,0.50932,0.20764,0.27547
1700499614296875,-9.798397,0.571645,1.361998,0.56132,0.31864,0.28947
1700499614304687,-9.766397,0.571645,1.341998,0.61132,0.25064,0.35147
1700499614312500,-9.717397,0.599645,1.329998,0.62132,0.30364,0.35347
1700499614320312,-9.675397,0.632645,1.314998,0.57032,0.33864,0.33947
1700499614328125,-9.655397,0.643645,1.316998,0.71232,0.33764,0.36947
1700499614335937,-9.630397,0.631645,1.320998,0.65432,0.36964,0.22547
1700499614343750,-9.605397,0.642645,1.318998,0.70432,0.28664,0.20747
1700499614351562,-9.583397,0.628645,1.321998,0.62532,0.23664,0.25647
1700499614359375,-9.572397,0.657645,1.291998,0.65732,0.20464,0.20747
1700499614367187,-9.586397,0.670645,1.285998,0.67932,0.18364,0.20447
1700499614375000,-9.590397,0.677645,1.273998,0.67032,0.20764,0.17647
1700499614382812,-9.624397,0.670645,1.253998,0.53832,0.20164,0.9447
1700499614390625,-9.655397,0.667645,1.246998,0.54632,0.19064,0.12947
1700499614398437,-9.691397,0.650645,1.255998,0.48732,0.20464,0.12847
1700499614406250,-9.702397,0.636645,1.239998,0.41132,0.20264,0.11247
1700499614414062,-9.718397,0.634645,1.248998,0.28032,0.27064,0.16447
1700499614421875,-9.754397,0.637645,1.246998,0.20132,0.30364,0.14947
1700499614429687,-9.749397,0.635645,1.253998,0.21632,0.32164,0.10147
1700499614437500,-9.740397,0.626645,1.271998,0.19932,0.30464,0.16647
1700499614445312,-9.722397,0.621645,1.275998,0.13932,0.35264,0.13447
1700499614453125,-9.731397,0.619645,1.291998,0.9032,0.43564,0.11947
1700499614460937,-9.742397,0.606645,1.291998,0.9832,0.43164,0.547
1700499614468750,-9.748397,0.586645,1.325998,0.6432,0.46564,0.2247
1700499614476562,-9.689397,0.543645,1.320998,0.5268,0.42164,0.1047
1700499614484375,-9.637397,0.551645,1.248998,0.3668,0.32364,0.947
1700499614492187,-9.645397,0.573645,1.257998,0.4468,0.30164,0.2247
1700499614500000,-9.633397,0.569645,1.273998,0.4368,0.25264,0.1053
1700499614507812,-9.647397,0.593645,1.271998,0.2868,0.22164,0.5853
1700499614515625,-9.632397,0.602645,1.282998,0.6068,0.31964,0.5753
1700499614523437,-9.654397,0.602645,1.300998,0.10368,0.33364,0.7353
1700499614531250,-9.666397,0.634645,1.305998,0.27568,0.31764,0.8853
1700499614539062,-9.655397,0.682645,1.294998,0.29068,0.33364,0.13653
1700499614546875,-9.640397,0.700645,1.302998,0.27868,0.35264,0.13453
1700499614554687,-9.638397,0.689645,1.303998,0.29068,0.40064,0.24753
1700499614562500,-9.640397,0.680645,1.291998,0.27468,0.46664,0.27953
1700499614570312,-9.641397,0.651645,1.282998,0.26368,0.51864,0.26153
1700499614578125,-9.654397,0.623645,1.284998,0.26268,0.56764,0.29353
1700499614585937,-9.656397,0.585645,1.298998,0.27868,0.51864,0.26153
1700499614593750,-9.633397,0.554645,1.309998,0.20268,0.56864,0.29353
1700499614601562,-9.631397,0.542645,1.316998,0.21068,0.54764,0.24853
1700499614609375,-9.633397,0.531645,1.334998,0.7068,0.56364,0.23353
1700499614617187,-9.633397,0.526645,1.334998,0.1868,0.51164,0.25153
1700499614625000,-9.642397,0.531645,1.354998,0.332,0.45164,0.15353
1700499614632812,-9.646397,0.540645,1.343998,0.20732,0.46864,0.18753
1700499614640625,-9.656397,0.549645,1.336998,0.21232,0.48264,0.22153
1700499614648437,-9.663397,0.567645,1.354998,0.22332,0.49964,0.12353
1700499614656250,-9.665397,0.572645,1.356998,0.28232,0.58464,0.15453
1700499614664062,-9.676397,0.586645,1.358998,0.44632,0.44364,0.13853
1700499614671875,-9.694397,0.574645,1.354998,0.50132,0.47164,0.15753
1700499614679687,-9.696397,0.546645,1.354998,0.61132,0.51964,0.9453
1700499614687500,-9.694397,0.536645,1.366998,0.66232,0.49864,0.3253
1700499614695312,-9.698397,0.534645,1.372998,0.72332,0.48364,0.1753
1700499614703125,-9.709397,0.541645,1.368998,0.89632,0.43364,0.6047
1700499614710937,-9.730397,0.550645,1.397998,0.95332,0.43564,0.14147
1700499614718750,-9.741397,0.548645,1.390998,0.94032,0.44964,0.18847
1700499614726562,-9.748397,0.575645,1.392998,0.102532,0.48764,0.23947
1700499614734375,-9.735397,0.613645,1.390998,0.110532,0.40364,0.28547
1700499614742187,-9.729397,0.637645,1.411998,0.116932,0.35464,0.26847
1700499614750000,-9.725397,0.681645,1.424998,0.120132,0.33864,0.21947
1700499614757812,-9.703397,0.716645,1.413998,0.121832,0.43564,0.23547
1700499614765625,-9.683397,0.752645,1.399998,0.120132,0.40464,0.20347
1700499614773437,-9.684397,0.760645,1.390998,0.117432,0.35264,0.21847
1700499614781250,-9.672397,0.774645,1.397998,0.118732,0.33764,0.23547
1700499614789062,-9.637397,0.811645,1.375998,0.110632,0.35464,0.26847
1700499614796875,-9.624397,0.822645,1.370998,0.95132,0.41864,0.25447
1700499614804687,-9.624397,0.855645,1.357998,0.96332,0.38864,0.27147
1700499614812500,-9.620397,0.853645,1.361998,0.95332,0.32064,0.18947
1700499614820312,-9.624397,0.855645,1.363998,0.93432,0.37264,0.14247
1700499614828125,-9.626397,0.853645,1.372998,0.76332,0.32164,0.20847
1700499614835937,-9.633397,0.860645,1.361998,0.69832,0.34164,0.9747
1700499614843750,-9.633397,0.860645,1.361998,0.65132,0.30864,0.11347
1700499614851562,-9.624397,0.849645,1.361998,0.61132,0.33164,0.3747
1700499614859375,-9.619397,0.828645,1.309998,0.51432,0.33964,0.247
1700499614867187,-9.628397,0.804645,1.291998,0.46232,0.35864,0.3647
1700499614875000,-9.632397,0.767645,1.257998,0.33732,0.32564,0.5347
1700499614882812,-9.625397,0.751645,1.255998,0.31832,0.34364,0.8747
1700499614890625,-9.647397,0.747645,1.251998,0.24632,0.28964,0.8547
1700499614898437,-9.665397,0.725645,1.268998,0.20832,0.29364,0.12047
1700499614906250,-9.674397,0.716645,1.275998,0.13732,0.35364,0.10247
1700499614914062,-9.683397,0.714645,1.269998,0.968,0.34164,0.12247
1700499614921875,-9.701397,0.707645,1.287998,0.4668,0.36764,0.10347
1700499614929687,-9.714397,0.708645,1.309998,0.13168,0.40364,0.13847
1700499614937500,-9.723397,0.701645,1.305998,0.27468,0.33964,0.14047
1700499614945312,-9.705397,0.703645,1.320998,0.30268,0.45164,0.15647
1700499614953125,-9.671397,0.701645,1.359998,0.29268,0.47164,0.14247
1700499614960937,-9.651397,0.714645,1.406998,0.30768,0.55364,0.7847
1700499614968750,-9.635397,0.691645,1.404998,0.38268,0.50164,0.9447
1700499614976562,-9.619397,0.693645,1.336998,0.49068,0.43464,0.14247
1700499614984375,-9.620397,0.715645,1.361998,0.55668,0.41964,0.20847
1700499614992187,-9.618397,0.748645,1.395998,0.55468,0.43464,0.22347
1700499615000000,-9.597397,0.717645,1.323998,0.51368,0.40764,0.12947
1700499615007812,-9.554397,0.674645,1.269998,0.41468,0.35564,0.11047
1700499615015625,-9.534397,0.665645,1.336998,0.34768,0.40264,0.4447
1700499615023437,-9.574397,0.683645,1.379998,0.25468,0.40264,0.9147
1700499615031250,-9.626397,0.651645,1.336998,0.7568,0.30064,0.10247
1700499615039062,-9.672397,0.614645,1.368998,0.4768,0.20664,0.3947
1700499615046875,-9.721397,0.604645,1.431998,0.6568,0.23864,0.10447
1700499615054687,-9.728397,0.601645,1.397998,0.10268,0.18264,0.13347
1700499615062500,-9.731397,0.624645,1.374998,0.19368,0.22164,0.23447
1700499615070312,-9.738397,0.655645,1.372998,0.14968,0.25564,0.28247
1700499615078125,-9.745397,0.648645,1.361998,0.6568,0.30064,0.31247
1700499615085937,-9.729397,0.635645,1.372998,0.9868,0.23564,0.37647
1700499615093750,-9.708397,0.623645,1.379998,0.4868,0.23364,0.35947
1700499615101562,-9.665397,0.603645,1.366998,0.5168,0.30064,0.39347
1700499615109375,-9.638397,0.596645,1.347998,0.7668,0.33864,0.42847
1700499615117187,-9.623397,0.597645,1.341998,0.3668,0.33364,0.37647
1700499615125000,-9.643397,0.614645,1.361998,0.6368,0.30664,0.49347
1700499615132812,-9.643397,0.631645,1.390998,0.832,0.25164,0.50447
1700499615140625,-9.655397,0.631645,1.366998,0.7232,0.28264,0.53547
1700499615148437,-9.659397,0.633645,1.368998,0.15332,0.23264,0.53347
1700499615156250,-9.675397,0.629645,1.406998,0.18132,0.20064,0.61447
1700499615164062,-9.679397,0.638645,1.375998,0.20932,0.18564,0.66247
1700499615171875,-9.666397,0.647645,1.361998,0.21332,0.18464,0.59747
1700499615179687,-9.682397,0.670645,1.383998,0.18632,0.6164,0.63347
1700499615187500,-9.696397,0.667645,1.377998,0.24532,0.6864,0.66047
1700499615195312,-9.680397,0.654645,1.345998,0.23832,0.5764,0.66347
1700499615203125,-9.680397,0.658645,1.336998,0.19132,0.5764,0.63147
1700499615210937,-9.671397,0.672645,1.307998,0.23432,0.2564,0.77647
1700499615218750,-9.662397,0.690645,1.298998,0.16632,0.7864,0.74747
1700499615226562,-9.651397,0.698645,1.282998,0.14332,0.5564,0.79247
1700499615234375,-9.631397,0.715645,1.273998,0.432,0.10464,0.66547
1700499615242187,-9.651397,0.718645,1.257998,0.7168,0.11964,0.66547
1700499615250000,-9.663397,0.725645,1.251998,0.7968,0.22164,0.70047
1700499615257812,-9.676397,0.722645,1.276998,0.22668,0.16664,0.65147
1700499615265625,-9.699397,0.714645,1.293998,0.27668,0.16964,0.58847
1700499615273437,-9.700397,0.670645,1.318998,0.35468,0.18564,0.58947
1700499615281250,-9.648397,0.631645,1.262998,0.49468,0.16964,0.51047
1700499615289062,-9.632397,0.631645,1.264998,0.52968,0.19064,0.43247
1700499615296875,-9.647397,0.609645,1.284998,0.54268,0.17164,0.46347
1700499615304687,-9.636397,0.584645,1.287998,0.55468,0.20264,0.38247
1700499615312500,-9.651397,0.556645,1.287998,0.57068,0.21964,0.38247
1700499615320312,-9.666397,0.543645,1.325998,0.73668,0.24164,0.37147
1700499615328125,-9.682397,0.525645,1.347998,0.80968,0.20464,0.38647
1700499615335937,-9.691397,0.501645,1.341998,0.89968,0.20364,0.27447
1700499615343750,-9.690397,0.477645,1.327998,0.97868,0.20564,0.24347
1700499615351562,-9.692397,0.464645,1.318998,0.91968,0.25764,0.22847
1700499615359375,-9.703397,0.442645,1.320998,0.94868,0.33664,0.24447
1700499615367187,-9.703397,0.397645,1.318998,0.94368,0.31764,0.19447
1700499615375000,-9.702397,0.388645,1.318998,0.86968,0.40364,0.11547
1700499615382812,-9.709397,0.384645,1.302998,0.86668,0.41764,0.13047
1700499615390625,-9.718397,0.380645,1.304998,0.86768,0.36964,0.11447
1700499615398437,-9.706397,0.364645,1.334998,0.82368,0.37064,0.14747
1700499615406250,-9.714397,0.364645,1.354998,0.79868,0.39564,0.27147
1700499615414062,-9.722397,0.357645,1.359998,0.75468,0.31664,0.27247
1700499615421875,-9.698397,0.375645,1.341998,0.66368,0.36664,0.28847
1700499615429687,-9.689397,0.401645,1.329998,0.60568,0.32164,0.27347
1700499615437500,-9.696397,0.435645,1.356998,0.52968,0.32364,0.28947
1700499615445312,-9.683397,0.455645,1.350998,0.54368,0.37164,0.27247
1700499615453125,-9.683397,0.459645,1.354998,0.49868,0.32364,0.30447
1700499615460937,-9.667397,0.459645,1.354998,0.35368,0.33764,0.28547
1700499615468750,-9.674397,0.457645,1.325998,0.44768,0.33764,0.27047
1700499615476562,-9.674397,0.448645,1.316998,0.33468,0.35064,0.28447
1700499615484375,-9.678397,0.446645,1.293998,0.31268,0.32464,0.28747
1700499615492187,-9.678397,0.425645,1.296998,0.28668,0.38364,0.26847
1700499615500000,-9.660397,0.425645,1.305998,0.28968,0.40164,0.28447
1700499615507812,-9.676397,0.424645,1.298998,0.27068,0.47364,0.38547
1700499615515625,-9.685397,0.428645,1.287998,0.19768,0.43464,0.36447
1700499615523437,-9.690397,0.446645,1.284998,0.13268,0.43264,0.37947
1700499615531250,-9.705397,0.437645,1.318998,0.9068,0.33864,0.34847
1700499615539062,-9.723397,0.433645,1.336998,0.9468,0.43964,0.33347
1700499615546875,-9.708397,0.437645,1.311998,0.11968,0.41964,0.33247
1700499615554687,-9.698397,0.431645,1.282998,0.17168,0.43864,0.38247
1700499615562500,-9.682397,0.428645,1.325998,0.17768,0.44264,0.36847
1700499615570312,-9.656397,0.428645,1.329998,0.20268,0.42164,0.36647
1700499615578125,-9.633397,0.421645,1.311998,0.21768,0.43864,0.33447
1700499615585937,-9.642397,0.407645,1.302998,0.25568,0.38364,0.28347
1700499615593750,-9.655397,0.392645,1.298998,0.19968,0.38764,0.31747
1700499615601562,-9.637397,0.374645,1.282998,0.27268,0.36864,0.25247
1700499615609375,-9.639397,0.383645,1.320998,0.26068,0.41964,0.31747
1700499615617187,-9.630397,0.376645,1.329998,0.20768,0.36764,0.23447
1700499615625000,-9.646397,0.381645,1.318998,0.28068,0.42364,0.22347
1700499615632812,-9.659397,0.388645,1.322998,0.20068,0.44064,0.17447
1700499615640625,-9.684397,0.388645,1.322998,0.26268,0.42364,0.11047
1700499615648437,-9.691397,0.393645,1.332998,0.6868,0.43664,0.12247
1700499615656250,-9.720397,0.395645,1.325998,0.8668,0.42164,0.12347
1700499615664062,-9.698397,0.373645,1.323998,0.3468,0.45164,0.7347
1700499615671875,-9.693397,0.381645,1.304998,0.8168,0.45364,0.653
1700499615679687,-9.689397,0.377645,1.307998,0.5668,0.45764,0.453
1700499615687500,-9.691397,0.386645,1.318998,0.3668,0.50464,0.3753
1700499615695312,-9.671397,0.383645,1.316998,0.5268,0.47164,0.1047
1700499615703125,-9.660397,0.394645,1.343998,0.5932,0.48664,0.2353
1700499615710937,-9.653397,0.408645,1.376998,0.14932,0.47264,0.753
1700499615718750,-9.655397,0.415645,1.365998,0.2868,0.42764,0.1953
1700499615726562,-9.647397,0.421645,1.327998,0.2432,0.42364,0.2253
1700499615734375,-9.631397,0.428645,1.318998,0.6632,0.37864,0.5353
1700499615742187,-9.631397,0.425645,1.320998,0.13732,0.35764,0.5753
1700499615750000,-9.633397,0.421645,1.338998,0.19532,0.41064,0.13553
1700499615757812,-9.627397,0.436645,1.338998,0.19932,0.42464,0.15353
1700499615765625,-9.618397,0.445645,1.358998,0.24432,0.47464,0.13653
1700499615773437,-9.622397,0.465645,1.399998,0.33532,0.47864,0.21653
1700499615781250,-9.604397,0.445645,1.316998,0.19932,0.44264,0.24953
1700499615789062,-9.597397,0.449645,1.331998,0.21432,0.39364,0.21753
1700499615796875,-9.609397,0.469645,1.340998,0.24532,0.39364,0.18553
1700499615804687,-9.618397,0.465645,1.295998,0.44432,0.41264,0.13753
1700499615812500,-9.617397,0.429645,1.228998,0.43332,0.34464,0.13953
1700499615820312,-9.606397,0.422645,1.302998,0.47132,0.34064,0.19053
1700499615828125,-9.620397,0.440645,1.347998,0.72232,0.32464,0.22553
1700499615835937,-9.651397,0.427645,1.273998,0.96232,0.33764,0.14953
1700499615843750,-9.700397,0.397645,1.244998,0.90832,0.29364,0.19553
1700499615851562,-9.756397,0.391645,1.325998,0.96032,0.25664,0.14953
1700499615859375,-9.804397,0.394645,1.327998,0.97632,0.32264,0.14953
1700499615867187,-9.808397,0.390645,1.332998,0.96132,0.23864,0.6953
1700499615875000,-9.824397,0.397645,1.361998,0.92432,0.32264,0.1953
1700499615882812,-9.838397,0.433645,1.358998,0.99532,0.32864,0.1753
1700499615890625,-9.818397,0.457645,1.359998,0.110832,0.44064,0.5153
1700499615898437,-9.783397,0.494645,1.359998,0.101532,0.42264,0.1347
1700499615906250,-9.723397,0.542645,1.334998,0.107832,0.42164,0.6047
1700499615914062,-9.663397,0.583645,1.320998,0.101232,0.42364,0.4647
1700499615921875,-9.632397,0.620645,1.318998,0.108232,0.33864,0.553
1700499615929687,-9.608397,0.648645,1.293998,0.112732,0.40564,0.1147
1700499615937500,-9.594397,0.652645,1.289998,0.114932,0.36864,0.753
1700499615945312,-9.583397,0.675645,1.293998,0.108232,0.32164,0.1047
1700499615953125,-9.601397,0.688645,1.320998,0.112732,0.35564,0.553
1700499615960937,-9.617397,0.693645,1.325998,0.105832,0.22864,0.6147
1700499615968750,-9.637397,0.696645,1.311998,0.105832,0.19564,0.7647
1700499615976562,-9.653397,0.691645,1.298998,0.113032,0.19064,0.653
1700499615984375,-9.662397,0.689645,1.284998,0.102032,0.23964,0.553
1700499615992187,-9.676397,0.694645,1.316998,0.95232,0.29164,0.4547
1700499616000000,-9.678397,0.696645,1.296998,0.96832,0.29164,0.4547
1700499616007812,-9.701397,0.703645,1.273998,0.93932,0.35564,0.253
1700499616015625,-9.716397,0.717645,1.287998,0.84532,0.33864,0.1447
1700499616023437,-9.712397,0.723645,1.312998,0.75832,0.35164,0.8353
1700499616031250,-9.714397,0.728645,1.298998,0.72432,0.40364,0.14553
1700499616039062,-9.706397,0.725645,1.291998,0.62032,0.41564,0.16253
1700499616046875,-9.710397,0.738645,1.282998,0.63532,0.46464,0.14653
1700499616054687,-9.704397,0.743645,1.282998,0.60932,0.46264,0.19553
1700499616062500,-9.712397,0.725645,1.316998,0.58132,0.51964,0.15853
1700499616070312,-9.696397,0.690645,1.316998,0.55032,0.50264,0.17453
1700499616078125,-9.698397,0.659645,1.332998,0.47632,0.51664,0.20753
1700499616085937,-9.661397,0.620645,1.318998,0.41732,0.46464,0.20853
1700499616093750,-9.621397,0.640645,1.280998,0.42332,0.48764,0.20453
1700499616101562,-9.617397,0.657645,1.296998,0.41332,0.43464,0.17453
1700499616109375,-9.613397,0.679645,1.291998,0.44432,0.43464,0.14353
1700499616117187,-9.624397,0.691645,1.293998,0.33032,0.42064,0.14053
1700499616125000,-9.642397,0.698645,1.309998,0.32732,0.40664,0.15553
1700499616132812,-9.683397,0.712645,1.329998,0.34332,0.47064,0.12353
1700499616140625,-9.710397,0.708645,1.336998,0.36432,0.35264,0.6253
1700499616148437,-9.723397,0.701645,1.338998,0.26232,0.38964,0.4253
1700499616156250,-9.741397,0.695645,1.363998,0.20832,0.38364,0.347
1700499616164062,-9.746397,0.703645,1.390998,0.24132,0.39864,0.1847
1700499616171875,-9.730397,0.694645,1.370998,0.22432,0.48164,0.7653
1700499616179687,-9.719397,0.690645,1.361998,0.25532,0.43264,0.1253
1700499616187500,-9.707397,0.677645,1.361998,0.28232,0.45164,0.2753
1700499616195312,-9.711397,0.657645,1.357998,0.29932,0.38564,0.2853
1700499616203125,-9.706397,0.637645,1.368998,0.28032,0.43664,0.2147
1700499616210937,-9.675397,0.636645,1.365998,0.30732,0.43964,0.647
1700499616218750,-9.635397,0.667645,1.341998,0.23032,0.47164,0.4153
1700499616226562,-9.624397,0.697645,1.305998,0.20332,0.48364,0.2147
1700499616234375,-9.618397,0.735645,1.327998,0.25232,0.51564,0.447
1700499616242187,-9.636397,0.753645,1.336998,0.24832,0.56764,0.953
1700499616250000,-9.650397,0.764645,1.350998,0.20232,0.53464,0.5753
1700499616257812,-9.656397,0.753645,1.377998,0.17432,0.56464,0.4253
1700499616265625,-9.663397,0.745645,1.386998,0.9632,0.59764,0.7353
1700499616273437,-9.660397,0.731645,1.379998,0.4968,0.58464,0.11853
1700499616281250,-9.681397,0.718645,1.377998,0.232,0.59764,0.8853
1700499616289062,-9.714397,0.708645,1.370998,0.1468,0.69564,0.5553
1700499616296875,-9.752397,0.673645,1.368998,0.1768,0.64864,0.7053
1700499616304687,-9.749397,0.646645,1.375998,0.4168,0.67864,0.15253
1700499616312500,-9.742397,0.630645,1.426998,0.2768,0.67764,0.7253
1700499616320312,-9.729397,0.624645,1.440998,0.4768,0.69864,0.13453
1700499616328125,-9.731397,0.617645,1.438998,0.6268,0.66564,0.15053
1700499616335937,-9.733397,0.622645,1.471998,0.6368,0.68164,0.10153
1700499616343750,-9.711397,0.623645,1.469998,0.16868,0.69364,0.5453
1700499616351562,-9.670397,0.630645,1.464998,0.22868,0.70364,0.8153
1700499616359375,-9.641397,0.645645,1.476998,0.20868,0.68264,0.353
1700499616367187,-9.612397,0.646645,1.449998,0.20468,0.69664,0.3653
1700499616375000,-9.617397,0.666645,1.449998,0.19868,0.65964,0.2253
1700499616382812,-9.621397,0.680645,1.437998,0.17668,0.68264,0.3553
1700499616390625,-9.622397,0.677645,1.424998,0.3968,0.66064,0.12153
1700499616398437,-9.621397,0.671645,1.419998,0.4968,0.60164,0.11853
1700499616406250,-9.621397,0.664645,1.433998,0.3268,0.63264,0.10253
1700499616414062,-9.621397,0.660645,1.401998,0.5168,0.68264,0.3753
1700499616421875,-9.626397,0.667645,1.388998,0.1132,0.65064,0.2153
1700499616429687,-9.628397,0.680645,1.402998,0.12332,0.63264,0.2353
1700499616437500,-9.649397,0.698645,1.428998,0.2532,0.61864,0.2153
1700499616445312,-9.671397,0.701645,1.458998,0.15132,0.58464,0.2447
1700499616453125,-9.692397,0.712645,1.458998,0.12132,0.56864,0.753
1700499616460937,-9.685397,0.705645,1.413998,0.20132,0.48564,0.2247
1700499616468750,-9.678397,0.696645,1.408998,0.21332,0.53564,0.10347
1700499616476562,-9.649397,0.676645,1.413998,0.20332,0.48264,0.10147
1700499616484375,-9.624397,0.675645,1.375998,0.21632,0.46764,0.16647
1700499616492187,-9.608397,0.675645,1.370998,0.19632,0.50064,0.28047
1700499616500000,-9.592397,0.668645,1.386998,0.21632,0.36864,0.19747
1700499616507812,-9.610397,0.671645,1.397998,0.17732,0.40564,0.28147
1700499616515625,-9.628397,0.680645,1.431998,0.19132,0.32464,0.26447
1700499616523437,-9.638397,0.709645,1.417998,0.21032,0.35464,0.31147
1700499616531250,-9.640397,0.722645,1.415998,0.17532,0.32264,0.37747
1700499616539062,-9.653397,0.718645,1.435998,0.11032,0.27664,0.33047
1700499616546875,-9.642397,0.705645,1.435998,0.432,0.25864,0.23447
1700499616554687,-9.635397,0.698645,1.426998,0.6332,0.21264,0.26647
1700499616562500,-9.647397,0.709645,1.424998,0.5132,0.20964,0.26547
1700499616570312,-9.635397,0.707645,1.399998,0.7732,0.16664,0.15447
1700499616578125,-9.624397,0.718645,1.415998,0.14432,0.25864,0.28047
1700499616585937,-9.618397,0.717645,1.469998,0.20432,0.20364,0.14747
1700499616593750,-9.597397,0.704645,1.420998,0.18732,0.20564,0.10047
1700499616601562,-9.561397,0.679645,1.325998,0.6032,0.12464,0.11747
1700499616609375,-9.555397,0.725645,1.375998,0.10732,0.15764,0.11747
1700499616617187,-9.571397,0.735645,1.356998,0.19632,0.20864,0.15047
1700499616625000,-9.532397,0.716645,1.257998,0.15032,0.17664,0.13447
1700499616632812,-9.498397,0.700645,1.271998,0.19532,0.11164,0.16647
1700499616640625,-9.511397,0.689645,1.377998,0.13232,0.24364,0.11947
1700499616648437,-9.565397,0.688645,1.383998,0.17032,0.17364,0.8447
1700499616656250,-9.630397,0.669645,1.377998,0.18232,0.20964,0.10247
1700499616664062,-9.691397,0.650645,1.417998,0.10332,0.7964,0.7047
1700499616671875,-9.726397,0.637645,1.428998,0.15032,0.7764,0.15047
1700499616679687,-9.708397,0.621645,1.399998,0.4132,0.9464,0.13547
1700499616687500,-9.710397,0.624645,1.392998,0.6868,0.14164,0.21647
1700499616695312,-9.729397,0.637645,1.417998,0.10368,0.17664,0.17047
1700499616703125,-9.747397,0.649645,1.408998,0.13168,0.32164,0.18647
1700499616710937,-9.745397,0.653645,1.415998,0.5068,0.36964,0.12147
1700499616718750,-9.707397,0.652645,1.411998,0.3068,0.31664,0.19847
1700499616726562,-9.693397,0.659645,1.424998,0.5268,0.33864,0.10547
1700499616734375,-9.680397,0.661645,1.433998,0.4732,0.33664,0.3847
1700499616742187,-9.664397,0.676645,1.420998,0.14132,0.36964,0.3747
1700499616750000,-9.646397,0.676645,1.415998,0.9432,0.35264,0.2147
1700499616757812,-9.628397,0.678645,1.440998,0.18432,0.40464,0.2247
1700499616765625,-9.601397,0.660645,1.431998,0.24532,0.42064,0.7047
1700499616773437,-9.598397,0.642645,1.431998,0.35532,0.32464,0.3647
1700499616781250,-9.590397,0.646645,1.408998,0.37532,0.32164,0.1947
1700499616789062,-9.594397,0.648645,1.397998,0.45632,0.35064,0.12947
1700499616796875,-9.615397,0.664645,1.397998,0.57932,0.38464,0.14447
1700499616804687,-9.635397,0.658645,1.388998,0.71732,0.37164,0.12847
1700499616812500,-9.655397,0.645645,1.372998,0.70532,0.40164,0.11147
1700499616820312,-9.684397,0.661645,1.395998,0.71032,0.44064,0.17947
1700499616828125,-9.723397,0.675645,1.411998,0.69932,0.30564,0.24047
1700499616835937,-9.727397,0.681645,1.386998,0.72132,0.34864,0.30247
1700499616843750,-9.750397,0.688645,1.402998,0.70032,0.35164,0.36847
1700499616851562,-9.783397,0.691645,1.406998,0.77132,0.32364,0.35447
1700499616859375,-9.822397,0.696645,1.404998,0.75732,0.32264,0.36947
1700499616867187,-9.838397,0.714645,1.408998,0.69932,0.35264,0.35347
1700499616875000,-9.836397,0.730645,1.408998,0.71032,0.40464,0.37147
1700499616882812,-9.820397,0.754645,1.410998,0.66132,0.43864,0.35647
1700499616890625,-9.798397,0.762645,1.422998,0.69632,0.40264,0.37047
1700499616898437,-9.719397,0.750645,1.388998,0.60032,0.38764,0.35647
1700499616906250,-9.672397,0.767645,1.357998,0.46532,0.43264,0.35547
1700499616914062,-9.671397,0.800645,1.334998,0.69432,0.45364,0.37147
1700499616921875,-9.697397,0.792645,1.343998,0.62032,0.43464,0.35447
1700499616929687,-9.713397,0.766645,1.359998,0.50432,0.38864,0.37347
1700499616937500,-9.717397,0.748645,1.354998,0.47432,0.30664,0.35747
1700499616945312,-9.674397,0.754645,1.393998,0.38832,0.23664,0.32347
1700499616953125,-9.634397,0.773645,1.368998,0.22332,0.22664,0.26347
1700499616960937,-9.585397,0.808645,1.329998,0.15932,0.32564,0.23347
1700499616968750,-9.516397,0.822645,1.309998,0.2632,0.36964,0.18447
1700499616976562,-9.462397,0.850645,1.321998,0.4668,0.43264,0.10447
1700499616984375,-9.447397,0.830645,1.303998,0.16768,0.41364,0.8747
1700499616992187,-9.428397,0.819645,1.275998,0.25068,0.48364,0.3753
1700499617000000,-9.430397,0.779645,1.289998,0.31568,0.50064,0.353
1700499617007812,-9.443397,0.748645,1.323998,0.26068,0.46264,0.2353
1700499617015625,-9.510397,0.709645,1.350998,0.37768,0.56664,0.3453
1700499617023437,-9.577397,0.672645,1.332998,0.52968,0.56364,0.8253
1700499617031250,-9.612397,0.646645,1.336998,0.53268,0.58264,0.16153
1700499617039062,-9.632397,0.622645,1.354998,0.55068,0.56764,0.11253
1700499617046875,-9.658397,0.580645,1.390998,0.53068,0.57964,0.8253
1700499617054687,-9.680397,0.547645,1.406998,0.54168,0.56164,0.11653
1700499617062500,-9.702397,0.521645,1.374998,0.43768,0.71264,0.14653
1700499617070312,-9.729397,0.504645,1.367998,0.44768,0.53864,0.4753
1700499617078125,-9.747397,0.496645,1.363998,0.49268,0.55264,0.1547
1700499617085937,-9.778397,0.500645,1.372998,0.33268,0.51664,0.6047
1700499617093750,-9.799397,0.512645,1.395998,0.41668,0.50264,0.14347
1700499617101562,-9.808397,0.541645,1.431998,0.44368,0.56564,0.9447
1700499617109375,-9.818397,0.579645,1.437998,0.37068,0.58464,0.19147
1700499617117187,-9.807397,0.608645,1.451998,0.31168,0.60264,0.25647
1700499617125000,-9.762397,0.613645,1.480998,0.27568,0.53464,0.25447
1700499617132812,-9.738397,0.637645,1.523998,0.12868,0.61264,0.18647
1700499617140625,-9.715397,0.637645,1.566998,0.5768,0.71464,0.25347
1700499617148437,-9.677397,0.645645,1.571998,0.6532,0.65764,0.16647
1700499617156250,-9.621397,0.611645,1.553998,0.18732,0.61164,0.19847
1700499617164062,-9.578397,0.597645,1.523998,0.18132,0.59964,0.20047
1700499617171875,-9.557397,0.610645,1.496998,0.36532,0.63364,0.29647
1700499617179687,-9.515397,0.616645,1.485998,0.47232,0.53764,0.26347
1700499617187500,-9.520397,0.627645,1.471998,0.51032,0.45264,0.26047
1700499617195312,-9.558397,0.645645,1.462998,0.52732,0.35064,0.38647
1700499617203125,-9.590397,0.646645,1.465998,0.60332,0.30464,0.35447
1700499617210937,-9.623397,0.640645,1.451998,0.63432,0.23964,0.37047
1700499617218750,-9.648397,0.663645,1.413998,0.62932,0.20864,0.45147
1700499617226562,-9.628397,0.667645,1.388998,0.55232,0.15964,0.40347
1700499617234375,-9.635397,0.678645,1.388998,0.45732,0.20664,0.51747
1700499617242187,-9.653397,0.667645,1.379998,0.48932,0.17564,0.42047
1700499617250000,-9.655397,0.676645,1.372998,0.43432,0.17164,0.33847
1700499617257812,-9.655397,0.685645,1.370998,0.35332,0.22064,0.43647
1700499617265625,-9.635397,0.680645,1.363998,0.30832,0.17164,0.37247
1700499617273437,-9.623397,0.664645,1.325998,0.20732,0.22464,0.39247
1700499617281250,-9.590397,0.646645,1.339998,0.20032,0.17064,0.37347
1700499617289062,-9.535397,0.630645,1.347998,0.9432,0.17764,0.36247
1700499617296875,-9.506397,0.645645,1.327998,0.3068,0.16164,0.36347
1700499617304687,-9.509397,0.672645,1.305998,0.5868,0.17664,0.26647
1700499617312500,-9.517397,0.647645,1.305998,0.7168,0.16064,0.16947
1700499617320312,-9.540397,0.636645,1.300998,0.14368,0.17464,0.4047
1700499617328125,-9.592397,0.637645,1.307998,0.23968,0.15964,0.2647
1700499617335937,-9.618397,0.620645,1.345998,0.23968,0.19264,0.2647
1700499617343750,-9.670397,0.616645,1.361998,0.27968,0.17164,0.753
1700499617351562,-9.708397,0.593645,1.379998,0.28568,0.22664,0.13353
1700499617359375,-9.723397,0.575645,1.363998,0.29968,0.32364,0.13253
1700499617367187,-9.721397,0.559645,1.368998,0.22968,0.40064,0.15153
1700499617375000,-9.710397,0.561645,1.422998,0.16668,0.49964,0.21653
1700499617382812,-9.698397,0.555645,1.480998,0.17268,0.53764,0.29353
1700499617390625,-9.671397,0.519645,1.456998,0.15168,0.51764,0.24753
1700499617398437,-9.667397,0.543645,1.422998,0.25968,0.46664,0.26353
1700499617406250,-9.669397,0.597645,1.442998,0.13268,0.49264,0.22853
1700499617414062,-9.663397,0.623645,1.399998,0.4932,0.43664,0.18553
1700499617421875,-9.616397,0.593645,1.347998,0.23832,0.40464,0.23653
1700499617429687,-9.611397,0.573645,1.440998,0.20332,0.42364,0.26653
1700499617437500,-9.659397,0.609645,1.575998,0.39532,0.37164,0.23853
1700499617445312,-9.670397,0.647645,1.530998,0.53232,0.32364,0.12653
1700499617453125,-9.722397,0.637645,1.514998,0.72332,0.32364,0.16153
1700499617460937,-9.746397,0.607645,1.537998,0.73632,0.26064,0.20953
1700499617468750,-9.739397,0.589645,1.509998,0.72032,0.21164,0.16153
1700499617476562,-9.757397,0.591645,1.489998,0.76032,0.20464,0.10053
1700499617484375,-9.746397,0.617645,1.494998,0.77032,0.22364,0.3453
1700499617492187,-9.724397,0.646645,1.494998,0.95132,0.17764,0.4547
1700499617500000,-9.711397,0.657645,1.482998,0.94832,0.22864,0.11047
1700499617507812,-9.684397,0.679645,1.498998,0.90332,0.30764,0.12647
1700499617515625,-9.640397,0.700645,1.485998,0.94632,0.30964,0.17547
1700499617523437,-9.602397,0.735645,1.435998,0.96532,0.30764,0.20647
1700499617531250,-9.557397,0.748645,1.404998,0.95032,0.24164,0.18947
1700499617539062,-9.524397,0.745645,1.386998,0.96832,0.22264,0.23647
1700499617546875,-9.488397,0.753645,1.365998,0.98132,0.14364,0.22147
1700499617554687,-9.483397,0.767645,1.341998,0.94732,0.14664,0.17447
1700499617562500,-9.511397,0.791645,1.325998,0.96532,0.12864,0.17347
1700499617570312,-9.513397,0.811645,1.314998,0.95232,0.12764,0.12447
1700499617578125,-9.549397,0.801645,1.323998,0.96432,0.12964,0.9347
1700499617585937,-9.587397,0.808645,1.347998,0.95032,0.12864,0.9347
1700499617593750,-9.635397,0.835645,1.345998,0.95832,0.22364,0.453
1700499617601562,-9.656397,0.856645,1.323998,0.87332,0.17764,0.1347
1700499617609375,-9.663397,0.853645,1.323998,0.72632,0.22064,0.353
1700499617617187,-9.694397,0.854645,1.359998,0.73532,0.17664,0.1753
1700499617625000,-9.718397,0.839645,1.354998,0.71832,0.30764,0.1547
1700499617632812,-9.730397,0.828645,1.361998,0.70632,0.37064,0.1653
1700499617640625,-9.716397,0.819645,1.390998,0.72432,0.25664,0.11453
1700499617648437,-9.725397,0.816645,1.395998,0.57532,0.23364,0.9953
1700499617656250,-9.727397,0.803645,1.384998,0.47132,0.30564,0.7853
1700499617664062,-9.745397,0.793645,1.402998,0.46832,0.33964,0.2953
1700499617671875,-9.763397,0.781645,1.424998,0.46232,0.31664,0.6453
1700499617679687,-9.765397,0.786645,1.431998,0.46632,0.34164,0.6053
1700499617687500,-9.706397,0.752645,1.417998,0.33932,0.32464,0.3747
1700499617695312,-9.630397,0.773645,1.368998,0.23732,0.31864,0.1947
1700499617703125,-9.631397,0.813645,1.397998,0.28532,0.33364,0.6647
1700499617710937,-9.606397,0.815645,1.406998,0.31732,0.30164,0.6647
1700499617718750,-9.584397,0.825645,1.391998,0.35332,0.20064,0.4747
1700499617726562,-9.592397,0.830645,1.433998,0.26632,0.20664,0.1947
1700499617734375,-9.604397,0.828645,1.431998,0.20432,0.22164,0.3547
1700499617742187,-9.590397,0.855645,1.429998,0.21632,0.19164,0.6947
1700499617750000,-9.584397,0.843645,1.406998,0.18632,0.19064,0.10047
1700499617757812,-9.597397,0.832645,1.402998,0.16132,0.18664,0.6747
1700499617765625,-9.603397,0.813645,1.395998,0.17232,0.20664,0.447
1700499617773437,-9.615397,0.813645,1.368998,0.10832,0.19064,0.5347
1700499617781250,-9.628397,0.813645,1.354998,0.5132,0.22964,0.7347
1700499617789062,-9.659397,0.814645,1.323998,0.23232,0.17564,0.5247
1700499617796875,-9.668397,0.810645,1.298998,0.19432,0.18064,0.747
1700499617804687,-9.680397,0.819645,1.302998,0.21132,0.17964,0.647
1700499617812500,-9.704397,0.812645,1.314998,0.20032,0.28964,0.5347
1700499617820312,-9.711397,0.814645,1.318998,0.21632,0.20664,0.13247
1700499617828125,-9.709397,0.810645,1.325998,0.8532,0.27464,0.18447
1700499617835937,-9.709397,0.803645,1.341998,0.2632,0.27264,0.12047
1700499617843750,-9.706397,0.799645,1.365998,0.4068,0.32364,0.20247
1700499617851562,-9.675397,0.797645,1.367998,0.2832,0.29664,0.23647
1700499617859375,-9.659397,0.805645,1.350998,0.4168,0.37164,0.26747
1700499617867187,-9.637397,0.796645,1.370998,0.2668,0.40464,0.28347
1700499617875000,-9.648397,0.789645,1.377998,0.5268,0.43364,0.28147
1700499617882812,-9.666397,0.769645,1.375998,0.5368,0.41864,0.26647
1700499617890625,-9.681397,0.745645,1.363998,0.632,0.35464,0.31447
1700499617898437,-9.697397,0.736645,1.357998,0.2332,0.33664,0.34547
1700499617906250,-9.694397,0.730645,1.383998,0.1832,0.43764,0.34747
1700499617914062,-9.697397,0.729645,1.397998,0.7532,0.41464,0.37547
1700499617921875,-9.695397,0.750645,1.388998,0.2532,0.33464,0.36047
1700499617929687,-9.699397,0.781645,1.399998,0.2132,0.33764,0.36247
1700499617937500,-9.702397,0.794645,1.401998,0.15732,0.32364,0.39447
1700499617945312,-9.686397,0.803645,1.420998,0.21032,0.33664,0.37547
1700499617953125,-9.657397,0.809645,1.426998,0.19532,0.35264,0.35947
1700499617960937,-9.669397,0.823645,1.406998,0.12632,0.34064,0.39447
1700499617968750,-9.678397,0.838645,1.422998,0.8232,0.38664,0.41047
1700499617976562,-9.667397,0.834645,1.413998,0.11432,0.32164,0.39347
1700499617984375,-9.671397,0.831645,1.408998,0.3832,0.33464,0.48947
1700499617992187,-9.673397,0.814645,1.399998,0.4668,0.29064,0.42847
1700499618000000,-9.675397,0.814645,1.381998,0.4368,0.36964,0.44347
1700499618007812,-9.669397,0.820645,1.395998,0.12068,0.33564,0.49147
1700499618015625,-9.639397,0.822645,1.381998,0.18368,0.40264,0.39747
1700499618023437,-9.671397,0.820645,1.395998,0.21368,0.41564,0.47647
1700499618031250,-9.695397,0.794645,1.402998,0.28968,0.31664,0.49247
1700499618039062,-9.699397,0.765645,1.363998,0.28768,0.33164,0.52447
1700499618046875,-9.723397,0.724645,1.338998,0.36268,0.35564,0.52847
1700499618054687,-9.741397,0.688645,1.332998,0.33168,0.31364,0.45947
1700499618062500,-9.749397,0.673645,1.332998,0.40468,0.33664,0.49547
1700499618070312,-9.738397,0.677645,1.327998,0.54768,0.30464,0.49747
1700499618078125,-9.716397,0.677645,1.343998,0.55868,0.31664,0.54447
1700499618085937,-9.698397,0.683645,1.345998,0.54368,0.33464,0.49647
1700499618093750,-9.676397,0.691645,1.330998,0.66368,0.34664,0.48047
1700499618101562,-9.653397,0.700645,1.330998,0.80568,0.33064,0.52947
1700499618109375,-9.633397,0.727645,1.314998,0.79768,0.35164,0.51647
1700499618117187,-9.620397,0.744645,1.325998,0.82668,0.39964,0.46847
1700499618125000,-9.631397,0.720645,1.336998,0.90868,0.46964,0.37447
1700499618132812,-9.631397,0.687645,1.345998,0.87268,0.49864,0.38847
1700499618140625,-9.617397,0.673645,1.345998,0.79768,0.51764,0.37347
1700499618148437,-9.601397,0.664645,1.377998,0.82368,0.61164,0.37247
1700499618156250,-9.567397,0.646645,1.429998,0.83868,0.59564,0.32447
1700499618164062,-9.530397,0.578645,1.366998,0.95568,0.40964,0.36947
1700499618171875,-9.523397,0.563645,1.359998,0.103468,0.48564,0.37647
1700499618179687,-9.559397,0.568645,1.403998,0.88168,0.52164,0.39247
1700499618187500,-9.550397,0.535645,1.302998,0.85768,0.41764,0.37247
1700499618195312,-9.517397,0.476645,1.257998,0.78468,0.36264,0.35247
1700499618203125,-9.506397,0.447645,1.347998,0.80468,0.39764,0.37047
1700499618210937,-9.555397,0.443645,1.442998,0.61768,0.46364,0.40047
1700499618218750,-9.644397,0.427645,1.383998,0.53068,0.35464,0.38547
1700499618226562,-9.750397,0.409645,1.406998,0.52468,0.33364,0.41547
1700499618234375,-9.790397,0.398645,1.471998,0.51068,0.30064,0.49547
1700499618242187,-9.811397,0.403645,1.467998,0.50968,0.21864,0.49447
1700499618250000,-9.836397,0.408645,1.435998,0.56768,0.18164,0.55747
1700499618257812,-9.838397,0.434645,1.429998,0.57168,0.33064,0.57547
1700499618265625,-9.823397,0.454645,1.451998,0.54268,0.43064,0.57647
1700499618273437,-9.802397,0.440645,1.462998,0.54968,0.42464,0.52547
1700499618281250,-9.748397,0.431645,1.462998,0.52568,0.41364,0.54447
1700499618289062,-9.691397,0.406645,1.469998,0.42768,0.43864,0.51447
1700499618296875,-9.638397,0.419645,1.449998,0.37668,0.40464,0.41647
1700499618304687,-9.598397,0.451645,1.449998,0.27268,0.35064,0.36447
1700499618312500,-9.565397,0.475645,1.438998,0.31868,0.36564,0.38047
1700499618320312,-9.529397,0.494645,1.429998,0.21868,0.37864,0.37747
1700499618328125,-9.493397,0.527645,1.420998,0.1768,0.26664,0.34347
1700499618335937,-9.487397,0.569645,1.428998,0.11768,0.37064,0.25147
1700499618343750,-9.513397,0.593645,1.420998,0.1268,0.21664,0.21347
1700499618351562,-9.537397,0.596645,1.381998,0.15332,0.20664,0.18147
1700499618359375,-9.571397,0.590645,1.388998,0.17232,0.17064,0.19647
1700499618367187,-9.597397,0.566645,1.395998,0.3332,0.15264,0.18047
1700499618375000,-9.618397,0.555645,1.390998,0.20932,0.15164,0.12947
1700499618382812,-9.633397,0.547645,1.366998,0.18932,0.17064,0.13147
1700499618390625,-9.658397,0.534645,1.352998,0.20132,0.18864,0.19647
1700499618398437,-9.669397,0.518645,1.363998,0.21932,0.15664,0.9947
1700499618406250,-9.693397,0.532645,1.363998,0.11832,0.17664,0.15147
1700499618414062,-9.716397,0.519645,1.359998,0.18332,0.15864,0.16547
1700499618421875,-9.727397,0.504645,1.365998,0.16432,0.24164,0.19947
1700499618429687,-9.734397,0.511645,1.361998,0.10632,0.25364,0.24647
1700499618437500,-9.747397,0.522645,1.359998,0.20232,0.25264,0.21247
1700499618445312,-9.740397,0.531645,1.386998,0.21132,0.34164,0.5547
1700499618453125,-9.759397,0.555645,1.420998,0.23932,0.35064,0.3547
1700499618460937,-9.743397,0.555645,1.420998,0.20532,0.31864,0.5247
1700499618468750,-9.651397,0.569645,1.359998,0.20832,0.31764,0.347
1700499618476562,-9.618397,0.602645,1.352998,0.23632,0.33664,0.1153
1700499618484375,-9.623397,0.615645,1.384998,0.31632,0.28764,0.7753
1700499618492187,-9.607397,0.606645,1.368998,0.38432,0.20364,0.11253
1700499618500000,-9.625397,0.597645,1.359998,0.33732,0.31864,0.15953
1700499618507812,-9.636397,0.605645,1.370998,0.45632,0.30664,0.12653
1700499618515625,-9.641397,0.616645,1.368998,0.45632,0.30464,0.3053
1700499618523437,-9.632397,0.634645,1.359998,0.49532,0.32664,0.2853
1700499618531250,-9.637397,0.667645,1.354998,0.49632,0.22764,0.2953
1700499618539062,-9.673397,0.674645,1.345998,0.45632,0.23864,0.0
1700499618546875,-9.693397,0.665645,1.327998,0.47232,0.23764,0.6447
1700499618554687,-9.701397,0.628645,1.325998,0.49032,0.34364,0.10147
1700499618562500,-9.729397,0.619645,1.316998,0.48432,0.27064,0.16147
1700499618570312,-9.744397,0.606645,1.332998,0.45032,0.30364,0.24347
1700499618578125,-9.762397,0.606645,1.363998,0.46632,0.33464,0.30647
1700499618585937,-9.776397,0.640645,1.352998,0.44632,0.30464,0.37247
1700499618593750,-9.792397,0.638645,1.356998,0.50732,0.28964,0.35647
1700499618601562,-9.778397,0.640645,1.354998,0.52232,0.32264,0.37247
1700499618609375,-9.760397,0.633645,1.348998,0.56132,0.39864,0.37047
1700499618617187,-9.720397,0.639645,1.354998,0.50332,0.37364,0.35847
1700499618625000,-9.704397,0.664645,1.361998,0.50332,0.39064,0.34247
1700499618632812,-9.684397,0.676645,1.365998,0.58532,0.35464,0.37247
1700499618640625,-9.682397,0.676645,1.327998,0.62232,0.31864,0.35347
1700499618648437,-9.671397,0.674645,1.298998,0.55732,0.33564,0.37047
1700499618656250,-9.655397,0.665645,1.284998,0.51132,0.30364,0.35547
1700499618664062,-9.659397,0.663645,1.278998,0.44232,0.30664,0.37347
1700499618671875,-9.637397,0.678645,1.260998,0.44532,0.24064,0.35647
1700499618679687,-9.635397,0.676645,1.232998,0.45632,0.27564,0.37447
1700499618687500,-9.637397,0.695645,1.228998,0.36732,0.32064,0.37347
1700499618695312,-9.651397,0.700645,1.246998,0.28532,0.38864,0.37647
1700499618703125,-9.662397,0.716645,1.248998,0.23632,0.40664,0.37747
1700499618710937,-9.690397,0.721645,1.235998,0.21032,0.43464,0.37647
1700499618718750,-9.694397,0.716645,1.228998,0.16632,0.48164,0.37547
1700499618726562,-9.692397,0.732645,1.226998,0.4932,0.51964,0.36347
1700499618734375,-9.685397,0.714645,1.244998,0.8868,0.61464,0.36447
1700499618742187,-9.678397,0.712645,1.253998,0.16168,0.58864,0.38447
1700499618750000,-9.676397,0.705645,1.266998,0.15368,0.66464,0.36647
1700499618757812,-9.673397,0.689645,1.291998,0.32168,0.57964,0.38247
1700499618765625,-9.666397,0.663645,1.289998,0.29068,0.62964,0.36647
1700499618773437,-9.661397,0.623645,1.316998,0.42168,0.69864,0.33847
1700499618781250,-9.660397,0.574645,1.327998,0.35868,0.69864,0.33747
1700499618789062,-9.655397,0.543645,1.325998,0.35768,0.71364,0.35347
1700499618796875,-9.657397,0.523645,1.331998,0.40868,0.71664,0.38747
1700499618804687,-9.659397,0.501645,1.343998,0.41868,0.69564,0.36947
1700499618812500,-9.641397,0.500645,1.325998,0.36568,0.69164,0.38247
1700499618820312,-9.641397,0.473645,1.323998,0.37968,0.65764,0.36547
1700499618828125,-9.652397,0.454645,1.329998,0.33668,0.67664,0.36647
1700499618835937,-9.685397,0.443645,1.334998,0.31868,0.65964,0.38147
1700499618843750,-9.721397,0.444645,1.358998,0.36268,0.60264,0.37047
1700499618851562,-9.733397,0.460645,1.386998,0.29468,0.56664,0.38347
1700499618859375,-9.735397,0.464645,1.397998,0.30568,0.53064,0.36647
1700499618867187,-9.729397,0.468645,1.438998,0.28768,0.60964,0.42947
1700499618875000,-9.722397,0.486645,1.435998,0.31868,0.60264,0.51447
1700499618882812,-9.729397,0.495645,1.426998,0.23868,0.69964,0.48147
1700499618890625,-9.726397,0.507645,1.451998,0.28768,0.74964,0.49947
1700499618898437,-9.738397,0.511645,1.462998,0.29468,0.71064,0.54447
1700499618906250,-9.722397,0.520645,1.464998,0.6968,0.74864,0.62547
1700499618914062,-9.691397,0.535645,1.487998,0.9668,0.69664,0.62347
1700499618921875,-9.653397,0.539645,1.534998,0.3568,0.69864,0.60747
1700499618929687,-9.628397,0.529645,1.458998,0.15168,0.65864,0.63747
1700499618937500,-9.608397,0.542645,1.413998,0.11568,0.55164,0.65647
1700499618945312,-9.602397,0.551645,1.440998,0.5968,0.59464,0.66947
1700499618953125,-9.610397,0.520645,1.383998,0.22368,0.54864,0.73647
1700499618960937,-9.589397,0.486645,1.295998,0.28868,0.45164,0.81847
1700499618968750,-9.589397,0.498645,1.345998,0.19368,0.45164,0.78447
1700499618976562,-9.628397,0.505645,1.431998,0.6668,0.45064,0.76647
1700499618984375,-9.675397,0.481645,1.415998,0.6068,0.39764,0.78047
1700499618992187,-9.746397,0.429645,1.399998,0.7868,0.36564,0.79747
1700499619000000,-9.804397,0.421645,1.449998,0.25468,0.35364,0.72047
1700499619007812,-9.806397,0.434645,1.433998,0.31668,0.41764,0.73647
1700499619015625,-9.775397,0.456645,1.431998,0.42368,0.41664,0.70547
1700499619023437,-9.774397,0.473645,1.433998,0.52968,0.38064,0.70447
1700499619031250,-9.776397,0.476645,1.426998,0.58268,0.53164,0.69247
1700499619039062,-9.767397,0.451645,1.431998,0.61968,0.59064,0.64147
1700499619046875,-9.734397,0.424645,1.453998,0.75368,0.59764,0.59847
1700499619054687,-9.705397,0.399645,1.471998,0.77968,0.59564,0.50047
1700499619062500,-9.676397,0.388645,1.498998,0.88768,0.54564,0.43747
1700499619070312,-9.631397,0.396645,1.500998,0.101368,0.66164,0.37547
1700499619078125,-9.579397,0.373645,1.491998,0.104768,0.66364,0.39247
1700499619085937,-9.525397,0.368645,1.501998,0.100868,0.59364,0.34147
1700499619093750,-9.502397,0.352645,1.485998,0.105768,0.56464,0.24647
1700499619101562,-9.506397,0.330645,1.480998,0.104568,0.48464,0.26347
1700499619109375,-9.510397,0.317645,1.478998,0.107168,0.41864,0.11747
1700499619117187,-9.537397,0.304645,1.480998,0.94268,0.44864,0.13147
1700499619125000,-9.575397,0.280645,1.480998,0.93868,0.50664,0.8747
1700499619132812,-9.622397,0.261645,1.493998,0.93368,0.42364,0.2753
1700499619140625,-9.628397,0.245645,1.480998,0.79068,0.37364,0.2953
1700499619148437,-9.646397,0.230645,1.509998,0.80268,0.41964,0.3053
1700499619156250,-9.650397,0.228645,1.512998,0.86668,0.38864,0.4553
1700499619164062,-9.655397,0.246645,1.507998,0.82068,0.42064,0.1353
1700499619171875,-9.680397,0.269645,1.491998,0.92068,0.47364,0.2653
1700499619179687,-9.682397,0.262645,1.471998,0.103668,0.39564,0.2447
1700499619187500,-9.682397,0.273645,1.455998,0.94068,0.37764,0.5547
1700499619195312,-9.667397,0.271645,1.446998,0.85868,0.35864,0.8547
1700499619203125,-9.669397,0.288645,1.444998,0.89068,0.35864,0.11747
1700499619210937,-9.669397,0.282645,1.444998,0.76068,0.42264,0.1847
1700499619218750,-9.673397,0.289645,1.450998,0.69368,0.43064,0.3847
1700499619226562,-9.663397,0.295645,1.484998,0.69868,0.34164,0.1847
1700499619234375,-9.608397,0.265645,1.439998,0.66968,0.37564,0.1847
1700499619242187,-9.580397,0.302645,1.419998,0.53968,0.37364,0.3253
1700499619250000,-9.593397,0.316645,1.469998,0.41768,0.39264,0.4853
1700499619257812,-9.580397,0.295645,1.435998,0.36268,0.35464,0.3553
1700499619265625,-9.604397,0.274645,1.417998,0.36668,0.43964,0.6653
1700499619273437,-9.604397,0.273645,1.437998,0.29168,0.36664,0.8753
1700499619281250,-9.618397,0.267645,1.442998,0.29268,0.31864,0.11953
1700499619289062,-9.651397,0.277645,1.453998,0.24068,0.27564,0.3653
1700499619296875,-9.685397,0.293645,1.467998,0.6668,0.27464,0.3953
1700499619304687,-9.701397,0.308645,1.464998,0.12568,0.27164,0.2353
1700499619312500,-9.706397,0.311645,1.469998,0.5168,0.29064,0.947
1700499619320312,-9.694397,0.302645,1.467998,0.5168,0.27464,0.2547
1700499619328125,-9.687397,0.290645,1.455998,0.68,0.25564,0.2347
1700499619335937,-9.685397,0.284645,1.464998,0.632,0.21164,0.8947
1700499619343750,-9.664397,0.268645,1.464998,0.5468,0.24264,0.5747
1700499619351562,-9.665397,0.268645,1.455998,0.268,0.27364,0.747
1700499619359375,-9.655397,0.266645,1.421998,0.2232,0.27764,0.4147
1700499619367187,-9.647397,0.254645,1.435998,0.15732,0.33464,0.10147
1700499619375000,-9.633397,0.249645,1.453998,0.14232,0.26964,0.8447
1700499619382812,-9.644397,0.277645,1.437998,0.13532,0.30964,0.2453
1700499619390625,-9.650397,0.296645,1.420998,0.24132,0.33264,0.247
1700499619398437,-9.661397,0.310645,1.433998,0.26532,0.32164,0.447
1700499619406250,-9.690397,0.321645,1.435998,0.18932,0.33664,0.1153
1700499619414062,-9.699397,0.328645,1.442998,0.25032,0.40364,0.4353
1700499619421875,-9.688397,0.335645,1.458998,0.25332,0.41964,0.12453
1700499619429687,-9.688397,0.330645,1.462998,0.37932,0.40264,0.12553
1700499619437500,-9.681397,0.319645,1.464998,0.37432,0.50564,0.18753
1700499619445312,-9.670397,0.319645,1.471998,0.43832,0.47164,0.14053
1700499619453125,-9.648397,0.325645,1.491998,0.36332,0.45264,0.15753
1700499619460937,-9.634397,0.352645,1.473998,0.39432,0.46864,0.14153
1700499619468750,-9.613397,0.378645,1.458998,0.46432,0.51364,0.19253
1700499619476562,-9.595397,0.389645,1.462998,0.41132,0.41964,0.17453
1700499619484375,-9.593397,0.417645,1.465998,0.46232,0.43364,0.17653
1700499619492187,-9.616397,0.436645,1.460998,0.47432,0.42164,0.27153
1700499619500000,-9.623397,0.442645,1.462998,0.46232,0.46664,0.20853
1700499619507812,-9.620397,0.452645,1.467998,0.57532,0.42664,0.23753
1700499619515625,-9.647397,0.459645,1.485998,0.50232,0.47364,0.33453
1700499619523437,-9.658397,0.454645,1.478998,0.55132,0.47264,0.31953
1700499619531250,-9.665397,0.445645,1.467998,0.66032,0.48864,0.27153
1700499619539062,-9.665397,0.436645,1.483998,0.65032,0.50064,0.28953
1700499619546875,-9.665397,0.414645,1.509998,0.70832,0.47064,0.24153
1700499619554687,-9.687397,0.388645,1.516998,0.71732,0.54064,0.23853
1700499619562500,-9.725397,0.395645,1.521998,0.71532,0.48164,0.22753
1700499619570312,-9.738397,0.405645,1.502998,0.71232,0.54264,0.15653
1700499619578125,-9.739397,0.433645,1.521998,0.73432,0.44064,0.15953
1700499619585937,-9.762397,0.472645,1.550998,0.74732,0.50764,0.14253
1700499619593750,-9.751397,0.504645,1.505998,0.79932,0.47164,0.16053
1700499619601562,-9.736397,0.540645,1.491998,0.73232,0.42564,0.12653
1700499619609375,-9.705397,0.555645,1.483998,0.84932,0.43664,0.14653
1700499619617187,-9.674397,0.570645,1.474998,0.76932,0.45464,0.14553
1700499619625000,-9.643397,0.596645,1.451998,0.87332,0.49164,0.17653
1700499619632812,-9.625397,0.613645,1.456998,0.91132,0.47064,0.17853
1700499619640625,-9.602397,0.620645,1.478998,0.90532,0.45864,0.17653
1700499619648437,-9.585397,0.626645,1.483998,0.91032,0.45564,0.22653
1700499619656250,-9.582397,0.633645,1.473998,0.90132,0.49464,0.20753
1700499619664062,-9.578397,0.639645,1.471998,0.79732,0.44064,0.17653
1700499619671875,-9.558397,0.646645,1.471998,0.84932,0.38864,0.21153
1700499619679687,-9.571397,0.651645,1.476998,0.85632,0.39464,0.17653
1700499619687500,-9.587397,0.646645,1.449998,0.75832,0.36264,0.6253
1700499619695312,-9.623397,0.629645,1.435998,0.82432,0.22964,0.8053
1700499619703125,-9.648397,0.620645,1.458998,0.75532,0.33664,0.253
1700499619710937,-9.667397,0.617645,1.539998,0.78832,0.29664,0.1747
1700499619718750,-9.690397,0.601645,1.464998,0.77932,0.17764,0.1447
1700499619726562,-9.706397,0.601645,1.440998,0.59332,0.20864,0.3247
1700499619734375,-9.726397,0.649645,1.503998,0.64632,0.22864,0.21147
1700499619742187,-9.740397,0.658645,1.451998,0.53832,0.16364,0.14747
1700499619750000,-9.726397,0.642645,1.361998,0.45732,0.18264,0.6947
1700499619757812,-9.698397,0.663645,1.424998,0.45032,0.17564,0.11447
1700499619765625,-9.678397,0.681645,1.516998,0.56432,0.19164,0.0
1700499619773437,-9.666397,0.667645,1.449998,0.68832,0.15864,0.6247
1700499619781250,-9.659397,0.656645,1.395998,0.57232,0.16364,0.247
1700499619789062,-9.682397,0.654645,1.494998,0.53032,0.17564,0.1747
1700499619796875,-9.668397,0.670645,1.494998,0.52932,0.12864,0.147
1700499619804687,-9.637397,0.676645,1.473998,0.40432,0.19364,0.2953
1700499619812500,-9.644397,0.676645,1.471998,0.38632,0.21164,0.2853
1700499619820312,-9.657397,0.674645,1.444998,0.28832,0.14864,0.953
1700499619828125,-9.648397,0.656645,1.435998,0.18232,0.21064,0.953
1700499619835937,-9.634397,0.634645,1.419998,0.21632,0.20964,0.4253
1700499619843750,-9.620397,0.625645,1.413998,0.18132,0.22764,0.3847
1700499619851562,-9.627397,0.618645,1.406998,0.18932,0.17264,0.5147
1700499619859375,-9.648397,0.627645,1.410998,0.168,0.17364,0.7047
1700499619867187,-9.675397,0.630645,1.426998,0.8168,0.15864,0.5647
1700499619875000,-9.693397,0.639645,1.433998,0.6468,0.20764,0.747
1700499619882812,-9.686397,0.621645,1.442998,0.20468,0.22264,0.2547
1700499619890625,-9.692397,0.615645,1.444998,0.25568,0.29064,0.1147
1700499619898437,-9.694397,0.606645,1.462998,0.30468,0.34064,0.1247
1700499619906250,-9.674397,0.579645,1.464998,0.29168,0.35864,0.2947
1700499619914062,-9.642397,0.569645,1.494998,0.33268,0.32164,0.1147
1700499619921875,-9.630397,0.609645,1.498998,0.34068,0.36564,0.2547
1700499619929687,-9.612397,0.618645,1.496998,0.29868,0.35564,0.13353
1700499619937500,-9.589397,0.617645,1.478998,0.32868,0.35364,0.10153
1700499619945312,-9.564397,0.610645,1.473998,0.34768,0.45464,0.14753
1700499619953125,-9.557397,0.586645,1.444998,0.31268,0.33764,0.8553
1700499619960937,-9.552397,0.573645,1.440998,0.30668,0.37664,0.11453
1700499619968750,-9.581397,0.566645,1.417998,0.28268,0.40464,0.14953
1700499619976562,-9.620397,0.549645,1.404998,0.24568,0.31864,0.12053
1700499619984375,-9.640397,0.553645,1.417998,0.14568,0.39464,0.4253
1700499619992187,-9.678397,0.547645,1.449998,0.3168,0.43464,0.747
1700499620000000,-9.725397,0.542645,1.469998,0.1168,0.42664,0.453
1700499620007812,-9.785397,0.516645,1.489998,0.5832,0.43764,0.5647
1700499620015625,-9.803397,0.514645,1.514998,0.19232,0.45764,0.7347
1700499620023437,-9.751397,0.471645,1.487998,0.3868,0.48564,0.15447
1700499620031250,-9.695397,0.494645,1.462998,0.21632,0.56364,0.21447
1700499620039062,-9.700397,0.541645,1.494998,0.22932,0.53264,0.24747
1700499620046875,-9.718397,0.540645,1.516998,0.33332,0.42164,0.29547
1700499620054687,-9.743397,0.529645,1.518998,0.40632,0.48964,0.36047
1700499620062500,-9.756397,0.531645,1.525998,0.43732,0.45664,0.36047
1700499620070312,-9.788397,0.541645,1.548998,0.45332,0.44064,0.37647
1700499620078125,-9.781397,0.538645,1.581998,0.44032,0.40664,0.35947
1700499620085937,-9.764397,0.556645,1.579998,0.46332,0.33564,0.37147
1700499620093750,-9.746397,0.586645,1.543998,0.44532,0.36964,0.38947
1700499620101562,-9.728397,0.613645,1.510998,0.44732,0.43364,0.38947
1700499620109375,-9.704397,0.621645,1.494998,0.44032,0.42164,0.43947
1700499620117187,-9.663397,0.605645,1.494998,0.44232,0.37064,0.42247
1700499620125000,-9.605397,0.620645,1.476998,0.43432,0.35964,0.45647
1700499620132812,-9.589397,0.635645,1.460998,0.45632,0.29164,0.37447
1700499620140625,-9.596397,0.635645,1.422998,0.43632,0.32764,0.36047
1700499620148437,-9.585397,0.646645,1.426998,0.46432,0.33564,0.35547
1700499620156250,-9.605397,0.655645,1.426998,0.44832,0.30264,0.37147
1700499620164062,-9.617397,0.653645,1.440998,0.46532,0.23764,0.32247
1700499620171875,-9.655397,0.667645,1.458998,0.32332,0.32064,0.22947
1700499620179687,-9.650397,0.676645,1.437998,0.23232,0.34464,0.26647
1700499620187500,-9.639397,0.676645,1.424998,0.22332,0.27564,0.24847
1700499620195312,-9.621397,0.667645,1.431998,0.18132,0.32364,0.11947
1700499620203125,-9.594397,0.668645,1.415998,0.2932,0.36864,0.11947
1700499620210937,-9.567397,0.650645,1.402998,0.3168,0.28664,0.7147
1700499620218750,-9.580397,0.648645,1.406998,0.12868,0.30764,0.5453
1700499620226562,-9.565397,0.628645,1.365998,0.31268,0.25364,0.4147
1700499620234375,-9.587397,0.608645,1.395998,0.27768,0.16964,0.3947
1700499620242187,-9.604397,0.580645,1.397998,0.28068,0.31964,0.3853
1700499620250000,-9.617397,0.558645,1.386998,0.34568,0.27364,0.8553
1700499620257812,-9.640397,0.543645,1.390998,0.35768,0.23964,0.15053
1700499620265625,-9.651397,0.531645,1.411998,0.46368,0.31864,0.16553
1700499620273437,-9.644397,0.520645,1.413998,0.51868,0.33864,0.9853
1700499620281250,-9.659397,0.499645,1.417998,0.55068,0.40564,0.14553
1700499620289062,-9.668397,0.485645,1.419998,0.53568,0.37264,0.12953
1700499620296875,-9.690397,0.448645,1.464998,0.40568,0.33764,0.14853
1700499620304687,-9.726397,0.451645,1.496998,0.48468,0.36964,0.13153
1700499620312500,-9.757397,0.447645,1.521998,0.42168,0.35364,0.11653
1700499620320312,-9.748397,0.446645,1.503998,0.38768,0.35064,0.6953
1700499620328125,-9.715397,0.459645,1.525998,0.31368,0.36964,0.3753
1700499620335937,-9.717397,0.471645,1.534998,0.28568,0.38764,0.453
1700499620343750,-9.720397,0.482645,1.512998,0.24968,0.33564,0.2253
1700499620351562,-9.702397,0.483645,1.498998,0.16868,0.38264,0.747
1700499620359375,-9.679397,0.496645,1.501998,0.4568,0.41664,0.2347
1700499620367187,-9.664397,0.518645,1.498998,0.2968,0.40064,0.2347
1700499620375000,-9.651397,0.549645,1.501998,0.7832,0.44964,0.8647
1700499620382812,-9.622397,0.546645,1.496998,0.20732,0.36664,0.6747
1700499620390625,-9.611397,0.548645,1.498998,0.20632,0.39764,0.16447
1700499620398437,-9.613397,0.544645,1.489998,0.32432,0.37064,0.19747
1700499620406250,-9.597397,0.538645,1.458998,0.46032,0.37464,0.14947
1700499620414062,-9.581397,0.553645,1.426998,0.44532,0.34064,0.22947
1700499620421875,-9.584397,0.548645,1.404998,0.46532,0.30364,0.29147
1700499620429687,-9.575397,0.564645,1.381998,0.44732,0.18964,0.35547
1700499620437500,-9.566397,0.563645,1.370998,0.46432,0.20464,0.35447
1700499620445312,-9.575397,0.568645,1.392998,0.52332,0.17464,0.37147
1700499620453125,-9.586397,0.575645,1.390998,0.47332,0.16064,0.35747
1700499620460937,-9.597397,0.587645,1.390998,0.43732,0.19664,0.35947
1700499620468750,-9.620397,0.603645,1.419998,0.43532,0.18164,0.37547
1700499620476562,-9.634397,0.612645,1.451998,0.32432,0.16564,0.36147
1700499620484375,-9.658397,0.603645,1.435998,0.30032,0.17664,0.37547
1700499620492187,-9.678397,0.570645,1.419998,0.24732,0.21364,0.37847
1700499620500000,-9.664397,0.543645,1.415998,0.21532,0.25164,0.37347
1700499620507812,-9.642397,0.535645,1.456998,0.23632,0.31364,0.37147
1700499620515625,-9.633397,0.538645,1.516998,0.30632,0.40064,0.35847
1700499620523437,-9.619397,0.507645,1.447998,0.24432,0.22064,0.37347
1700499620531250,-9.606397,0.515645,1.377998,0.20032,0.15364,0.35647
1700499620539062,-9.602397,0.535645,1.440998,0.21932,0.16764,0.37147
1700499620546875,-9.608397,0.535645,1.381998,0.26332,0.18664,0.35647
1700499620554687,-9.596397,0.517645,1.296998,0.30432,0.17464,0.37347
1700499620562500,-9.578397,0.495645,1.334998,0.46132,0.20764,0.34047
1700499620570312,-9.637397,0.516645,1.453998,0.44932,0.20464,0.35547
1700499620578125,-9.709397,0.532645,1.458998,0.49732,0.18864,0.30647
1700499620585937,-9.745397,0.516645,1.422998,0.63032,0.6264,0.35447
1700499620593750,-9.826397,0.516645,1.478998,0.54532,0.7264,0.36847
1700499620601562,-9.828397,0.514645,1.501998,0.48132,0.5764,0.36947
1700499620609375,-9.826397,0.536645,1.496998,0.37132,0.7364,0.35547
1700499620617187,-9.849397,0.579645,1.516998,0.28032,0.13664,0.37147
1700499620625000,-9.861397,0.603645,1.501998,0.42232,0.16964,0.35347
1700499620632812,-9.798397,0.605645,1.460998,0.46032,0.19064,0.37247
1700499620640625,-9.743397,0.580645,1.467998,0.42532,0.27564,0.34247
1700499620648437,-9.681397,0.574645,1.437998,0.52632,0.30464,0.30747
1700499620656250,-9.633397,0.569645,1.413998,0.53732,0.29064,0.34047
1700499620664062,-9.622397,0.571645,1.365998,0.48732,0.21164,0.32547
1700499620671875,-9.591397,0.586645,1.354998,0.44132,0.19364,0.37347
1700499620679687,-9.555397,0.604645,1.332998,0.45732,0.16064,0.35747
1700499620687500,-9.571397,0.626645,1.334998,0.34932,0.17564,0.35747
1700499620695312,-9.602397,0.613645,1.323998,0.33432,0.12664,0.32547
1700499620703125,-9.616397,0.602645,1.318998,0.28532,0.9464,0.37447
1700499620710937,-9.651397,0.578645,1.350998,0.19432,0.17464,0.35947
1700499620718750,-9.671397,0.570645,1.350998,0.19532,0.15764,0.34247
1700499620726562,-9.701397,0.572645,1.365998,0.19832,0.22064,0.35847
1700499620734375,-9.734397,0.573645,1.392998,0.6932,0.17364,0.34447
1700499620742187,-9.746397,0.578645,1.399998,0.7968,0.24464,0.33347
1700499620750000,-9.732397,0.560645,1.392998,0.4268,0.29164,0.21847
1700499620757812,-9.689397,0.559645,1.352998,0.10168,0.32164,0.23447
1700499620765625,-9.649397,0.549645,1.341998,0.20468,0.36664,0.16947
1700499620773437,-9.617397,0.551645,1.323998,0.19468,0.35564,0.7547
1700499620781250,-9.606397,0.538645,1.329998,0.15868,0.40264,0.947
1700499620789062,-9.606397,0.535645,1.334998,0.21568,0.38264,0.2447
1700499620796875,-9.619397,0.509645,1.311998,0.19568,0.39064,0.1247
1700499620804687,-9.628397,0.491645,1.298998,0.15868,0.40464,0.5353
1700499620812500,-9.637397,0.482645,1.325998,0.12568,0.38564,0.2447
1700499620820312,-9.629397,0.440645,1.347998,0.18368,0.41564,0.847
1700499620828125,-9.591397,0.431645,1.320998,0.5068,0.37164,0.2547
1700499620835937,-9.607397,0.464645,1.318998,0.3732,0.36564,0.447
1700499620843750,-9.670397,0.463645,1.365998,0.7832,0.35264,0.5447
1700499620851562,-9.719397,0.471645,1.390998,0.12332,0.14264,0.2147
1700499620859375,-9.749397,0.484645,1.428998,0.3232,0.23764,0.3747
1700499620867187,-9.792397,0.505645,1.428998,0.18732,0.22364,0.2047
1700499620875000,-9.777397,0.538645,1.383998,0.15632,0.27064,0.8547
1700499620882812,-9.770397,0.554645,1.399998,0.3932,0.32364,0.12047
1700499620890625,-9.754397,0.549645,1.404998,0.9432,0.33464,0.10147
1700499620898437,-9.754397,0.555645,1.404998,0.15332,0.27164,0.11847
1700499620906250,-9.732397,0.566645,1.401998,0.19332,0.29164,0.21647
1700499620914062,-9.701397,0.565645,1.368998,0.22132,0.31664,0.16347
1700499620921875,-9.662397,0.574645,1.354998,0.21032,0.32364,0.23147
1700499620929687,-9.629397,0.587645,1.343998,0.27732,0.35364,0.18147
1700499620937500,-9.613397,0.598645,1.345998,0.30332,0.42164,0.23147
1700499620945312,-9.602397,0.597645,1.350998,0.23432,0.38264,0.24447
1700499620953125,-9.580397,0.623645,1.332998,0.20232,0.36764,0.21347
1700499620960937,-9.605397,0.620645,1.329998,0.21132,0.38764,0.24747
1700499620968750,-9.654397,0.631645,1.338998,0.16632,0.32064,0.24747
1700499620976562,-9.677397,0.640645,1.361998,0.17032,0.33464,0.24547
1700499620984375,-9.724397,0.631645,1.374998,0.9932,0.32364,0.26547
1700499620992187,-9.738397,0.612645,1.366998,0.3268,0.33264,0.27947
1700499621000000,-9.750397,0.595645,1.374998,0.4168,0.37164,0.26747
1700499621007812,-9.744397,0.580645,1.390998,0.13468,0.43564,0.28447
1700499621015625,-9.741397,0.571645,1.390998,0.26168,0.40264,0.36547
1700499621023437,-9.741397,0.553645,1.399998,0.29468,0.42064,0.35047
1700499621031250,-9.752397,0.531645,1.388998,0.32268,0.45064,0.38247
1700499621039062,-9.743397,0.529645,1.397998,0.32268,0.45064,0.36647
1700499621046875,-9.725397,0.510645,1.402998,0.42868,0.46364,0.36647
1700499621054687,-9.687397,0.507645,1.375998,0.44068,0.46164,0.38147
1700499621062500,-9.664397,0.503645,1.388998,0.44168,0.46264,0.33347
1700499621070312,-9.635397,0.509645,1.384998,0.48668,0.42864,0.34947
1700499621078125,-9.599397,0.515645,1.359998,0.55568,0.41564,0.33547
1700499621085937,-9.592397,0.519645,1.350998,0.53768,0.43164,0.31847
1700499621093750,-9.595397,0.512645,1.354998,0.54768,0.37764,0.34847
1700499621101562,-9.617397,0.500645,1.347998,0.53868,0.35064,0.30247
1700499621109375,-9.653397,0.507645,1.329998,0.55868,0.30364,0.33647
1700499621117187,-9.691397,0.499645,1.374998,0.53868,0.38364,0.30347
1700499621125000,-9.731397,0.495645,1.404998,0.55068,0.33264,0.25347
1700499621132812,-9.751397,0.491645,1.401998,0.54168,0.41864,0.24047
1700499621140625,-9.747397,0.488645,1.408998,0.54868,0.44664,0.20547
1700499621148437,-9.742397,0.495645,1.426998,0.53868,0.46564,0.28747
1700499621156250,-9.726397,0.473645,1.435998,0.56668,0.52964,0.20747
1700499621164062,-9.710397,0.459645,1.444998,0.55068,0.52864,0.28647
1700499621171875,-9.708397,0.432645,1.456998,0.55968,0.54264,0.14047
1700499621179687,-9.676397,0.408645,1.442998,0.65068,0.56664,0.14547
1700499621187500,-9.629397,0.407645,1.437998,0.72668,0.58164,0.13047
1700499621195312,-9.604397,0.402645,1.413998,0.76968,0.48064,0.16047
1700499621203125,-9.582397,0.415645,1.379998,0.70368,0.57664,0.14347
1700499621210937,-9.579397,0.397645,1.356998,0.65468,0.38164,0.4547
1700499621218750,-9.583397,0.373645,1.361998,0.58568,0.37164,0.3147
1700499621226562,-9.615397,0.376645,1.374998,0.53368,0.41764,0.2947
1700499621234375,-9.666397,0.352645,1.435998,0.53468,0.41864,0.1853
1700499621242187,-9.690397,0.306645,1.464998,0.48768,0.43664,0.11453
1700499621250000,-9.687397,0.279645,1.458998,0.46768,0.51664,0.14753
1700499621257812,-9.669397,0.279645,1.471998,0.50068,0.41964,0.14753
1700499621265625,-9.649397,0.290645,1.496998,0.49668,0.43264,0.11653
1700499621273437,-9.654397,0.303645,1.496998,0.43368,0.41364,0.2647
1700499621281250,-9.647397,0.296645,1.474998,0.30568,0.51064,0.2353
1700499621289062,-9.629397,0.301645,1.464998,0.27368,0.47064,0.6147
1700499621296875,-9.652397,0.325645,1.496998,0.30068,0.46664,0.12347
1700499621304687,-9.641397,0.352645,1.514998,0.12268,0.44764,0.7247
1700499621312500,-9.612397,0.344645,1.440998,0.12568,0.44864,0.8847
1700499621320312,-9.598397,0.344645,1.343998,0.12668,0.30264,0.13647
1700499621328125,-9.617397,0.407645,1.435998,0.3368,0.20464,0.19947
1700499621335937,-9.611397,0.423645,1.403998,0.5568,0.19364,0.15347
1700499621343750,-9.588397,0.409645,1.289998,0.7032,0.19264,0.20047
1700499621351562,-9.547397,0.379645,1.293998,0.868,0.16064,0.15347
1700499621359375,-9.552397,0.411645,1.480998,0.3832,0.17764,0.12047
1700499621367187,-9.600397,0.440645,1.496998,0.24932,0.12464,0.9947
1700499621375000,-9.649397,0.425645,1.426998,0.39432,0.12264,0.9647
1700499621382812,-9.690397,0.433645,1.442998,0.41732,0.17664,0.11547
1700499621390625,-9.694397,0.410645,1.447998,0.46032,0.16864,0.9547
1700499621398437,-9.701397,0.415645,1.408998,0.24832,0.20864,0.3647
1700499621406250,-9.699397,0.439645,1.404998,0.19932,0.16064,0.3747
1700499621414062,-9.690397,0.439645,1.417998,0.21732,0.25764,0.1053
1700499621421875,-9.674397,0.434645,1.401998,0.20232,0.28864,0.2047
1700499621429687,-9.638397,0.425645,1.392998,0.21432,0.30764,0.2247
1700499621437500,-9.636397,0.414645,1.410998,0.20832,0.33564,0.10853
1700499621445312,-9.653397,0.423645,1.428998,0.34232,0.32464,0.10753
1700499621453125,-9.676397,0.419645,1.437998,0.32932,0.24164,0.10853
1700499621460937,-9.667397,0.415645,1.435998,0.23032,0.16364,0.12253
1700499621468750,-9.674397,0.405645,1.438998,0.33732,0.25264,0.12753
1700499621476562,-9.660397,0.394645,1.440998,0.29432,0.34064,0.5853
1700499621484375,-9.653397,0.389645,1.438998,0.26032,0.25164,0.12753
1700499621492187,-9.637397,0.387645,1.426998,0.30132,0.28664,0.1353
1700499621500000,-9.636397,0.411645,1.386998,0.33732,0.34964,0.7953
1700499621507812,-9.631397,0.427645,1.386998,0.33232,0.33564,0.2953
1700499621515625,-9.645397,0.445645,1.399998,0.41732,0.19664,0.10853
1700499621523437,-9.656397,0.458645,1.395998,0.44532,0.22164,0.16053
1700499621531250,-9.679397,0.472645,1.399998,0.47432,0.23964,0.12853
1700499621539062,-9.681397,0.472645,1.388998,0.45632,0.20764,0.9553
1700499621546875,-9.680397,0.490645,1.370998,0.48232,0.21964,0.21053
1700499621554687,-9.700397,0.497645,1.390998,0.49032,0.19164,0.24053
1700499621562500,-9.709397,0.502645,1.390998,0.65732,0.37464,0.22353
1700499621570312,-9.720397,0.513645,1.401998,0.72032,0.44064,0.25653
1700499621578125,-9.747397,0.524645,1.437998,0.65832,0.39164,0.25553
1700499621585937,-9.743397,0.544645,1.453998,0.70332,0.50664,0.20753
1700499621593750,-9.736397,0.535645,1.440998,0.72432,0.58364,0.17653
1700499621601562,-9.718397,0.544645,1.471998,0.75832,0.66464,0.25753
1700499621609375,-9.673397,0.543645,1.471998,0.67932,0.66464,0.24053
1700499621617187,-9.619397,0.553645,1.431998,0.70332,0.63764,0.25453
1700499621625000,-9.638397,0.574645,1.447998,0.72332,0.63464,0.24053
1700499621632812,-9.651397,0.568645,1.462998,0.74332,0.54464,0.25353
1700499621640625,-9.649397,0.554645,1.471998,0.76732,0.42464,0.20853
1700499621648437,-9.649397,0.554645,1.519998,0.73832,0.45464,0.19353
1700499621656250,-9.660397,0.569645,1.507998,0.81932,0.45264,0.17853
1700499621664062,-9.629397,0.569645,1.498998,0.76032,0.44464,0.17453
1700499621671875,-9.620397,0.567645,1.500998,0.69932,0.52564,0.18953
1700499621679687,-9.604397,0.562645,1.516998,0.75232,0.50664,0.30453
1700499621687500,-9.575397,0.571645,1.505998,0.71232,0.47864,0.23753
