time,Acceleration X (m/s^2),Acceleration Y (m/s^2),Acceleration Z (m/s^2),Angular Velocity X (rad/s),Angular Velocity Y (rad/s),Angular Velocity Z (rad/s)
1694110306187500,-8.879003,4.5013,,,,
1694110306195312,-8.883003,0.631196,4.5013,0.73079,0.9119,0.5756
1694110306203125,-8.890003,0.613196,4.4983,0.76779,0.3019,0.2756
1694110306210937,-8.887003,0.608196,4.4783,0.83279,0.4519,0.3644
1694110306218750,-8.885003,0.609196,4.4623,0.92779,0.181,0.2144
1694110306226562,-8.905003,0.604196,4.4643,0.91379,0.3281,0.6844
1694110306242187,-8.886003,0.623196,4.4493,0.103079,0.1519,0.8244
1694110306250000,-8.899003,0.628196,4.4423,0.105979,0.7619,0.11644
1694110306257812,-8.893003,0.653196,4.4403,0.105979,0.4519,0.14844
1694110306265625,-8.897003,0.653196,4.4513,0.118579,0.4419,0.11844
1694110306289062,-8.920003,0.693196,4.4693,0.125679,0.3281,0.19544
1694110306296875,-8.903003,0.723196,4.4673,0.128879,0.7881,0.17944
1694110306304687,-8.885003,0.725196,4.4713,0.128979,0.15581,0.8144
1694110306312500,-8.874003,0.731196,4.4763,0.128279,0.11981,0.11044
1694110306320312,-8.874003,0.735196,4.4893,0.129279,0.9181,0.9644
1694110306328125,-8.856003,0.750196,4.5033,0.123879,0.18781,0.8344
1694110306335937,-8.852003,0.744196,4.5003,0.121079,0.12381,0.8144
1694110306343750,-8.845003,0.751196,4.5093,0.124279,0.9281,0.9744
1694110306351562,-8.852003,0.753196,4.5143,0.114479,0.17181,0.8144
1694110306359375,-8.845003,0.765196,4.5093,0.112579,0.7881,0.6744
1694110306367187,-8.845003,0.771196,4.5323,0.105979,0.12581,0.5144
1694110306375000,-8.828003,0.782196,4.5393,0.103179,0.14081,0.8244
1694110306382812,-8.841003,0.797196,4.5523,0.101479,0.9181,0.9456
1694110306390625,-8.845003,0.789196,4.5573,0.102379,0.4781,0.7556
1694110306398437,-8.845003,0.789196,4.5593,0.105779,0.13981,0.12456
1694110306406250,-8.843003,0.800196,4.5613,0.91079,0.15681,0.17156
1694110306414062,-8.846003,0.803196,4.5623,0.79179,0.7281,0.25756
1694110306421875,-8.848003,0.809196,4.5703,0.73379,0.7781,0.22056
1694110306429687,-8.842003,0.797196,4.5843,0.75979,0.2681,0.22556
1694110306437500,-8.829003,0.823196,4.5893,0.73879,0.1281,0.30356
1694110306445312,-8.826003,0.813196,4.5933,0.71879,0.6419,0.28556
1694110306453125,-8.824003,0.822196,4.5953,0.60479,0.9519,0.31756
1694110306460937,-8.833003,0.813196,4.6113,0.58979,0.14119,0.26956
1694110306468750,-8.837003,0.809196,4.6183,0.50679,0.14019,0.25256
1694110306476562,-8.844003,0.802196,4.6253,0.47479,0.12519,0.30056
1694110306484375,-8.830003,0.793196,4.6043,0.38079,0.18819,0.30256
1694110306492187,-8.836003,0.787196,4.5933,0.35879,0.17019,0.20256
1694110306500000,-8.848003,0.768196,4.6073,0.25379,0.11219,0.36856
1694110306507812,-8.837003,0.769196,4.6433,0.34779,0.6319,0.25356
1694110306515625,-8.841003,0.773196,4.6723,0.31879,0.3219,0.15856
1694110306523437,-8.803003,0.761196,4.6203,0.23679,0.119,0.25456
1694110306531250,-8.814003,0.751196,4.6203,0.23379,0.15719,0.31756
1694110306539062,-8.819003,0.757196,4.6183,0.20579,0.9719,0.33656
1694110306546875,-8.789003,0.768196,4.5953,0.11979,0.21919,0.34956
1694110306554687,-8.783003,0.772196,4.5793,0.12179,0.20419,0.30256
1694110306562500,-8.776003,0.769196,4.5463,0.14079,0.15919,0.38456
1694110306570312,-8.758003,0.764196,4.5303,0.8279,0.29619,0.41156
1694110306578125,-8.776003,0.770196,4.5703,0.679,0.36019,0.38256
1694110306585937,-8.792003,0.772196,4.6003,0.15179,0.29619,0.30156
1694110306593750,-8.805003,0.771196,4.5863,0.22879,0.43719,0.44456
1694110306601562,-8.848003,0.766196,4.5593,0.23379,0.42319,0.44756
1694110306609375,-8.895003,0.766196,4.5593,0.25279,0.42619,0.48056
1694110306617187,-8.901003,0.775196,4.5733,0.14279,0.46619,0.40956
1694110306625000,-8.884003,0.794196,4.5663,0.14779,0.48419,0.44456
1694110306632812,-8.871003,0.795196,4.5483,0.3779,0.46919,0.39856
1694110306640625,-8.859003,0.789196,4.5073,0.4979,0.48219,0.34756
1694110306648437,-8.861003,0.774196,4.4943,0.4521,0.46719,0.33256
1694110306656250,-8.856003,0.767196,4.4713,0.1121,0.49719,0.22056
1694110306664062,-8.854003,0.749196,4.4553,0.2379,0.48319,0.20656
1694110306671875,-8.850003,0.746196,4.4553,0.1179,0.46919,0.17556
1694110306679687,-8.861003,0.740196,4.4443,0.2421,0.46819,0.23856
1694110306687500,-8.854003,0.744196,4.4373,0.5779,0.48419,0.23856
1694110306695312,-8.863003,0.758196,4.4353,0.7279,0.43719,0.22256
1694110306703125,-8.863003,0.761196,4.4393,0.1979,0.46519,0.17156
1694110306710937,-8.872003,0.758196,4.4283,0.921,0.45119,0.18956
1694110306718750,-8.885003,0.747196,4.4513,0.679,0.46719,0.17356
1694110306726562,-8.885003,0.747196,4.4713,0.4079,0.43619,0.22256
1694110306734375,-8.896003,0.732196,4.4733,0.5579,0.42019,0.20556
1694110306742187,-8.897003,0.729196,4.4643,0.2679,0.31319,0.23956
1694110306750000,-8.908003,0.727196,4.4513,0.5979,0.35919,0.17556
1694110306757812,-8.923003,0.714196,4.4493,0.4179,0.25019,0.20656
1694110306765625,-8.916003,0.722196,4.4513,0.19379,0.18419,0.24856
1694110306773437,-8.918003,0.715196,4.4533,0.13579,0.14019,0.23656
1694110306781250,-8.916003,0.719196,4.4513,0.6979,0.13919,0.25156
1694110306789062,-8.940003,0.718196,4.4443,0.16479,0.21619,0.20256
1694110306796875,-8.929003,0.720196,4.4333,0.16379,0.16919,0.18556
1694110306804687,-8.912003,0.725196,4.4403,0.12179,0.15619,0.22156
1694110306812500,-8.896003,0.723196,4.4513,0.9179,0.12519,0.14256
1694110306820312,-8.880003,0.698196,4.4213,0.979,0.17019,0.9356
1694110306828125,-8.880003,0.683196,4.4013,0.879,0.23319,0.14156
1694110306835937,-8.880003,0.688196,4.4153,0.18379,0.16919,0.12356
1694110306843750,-8.880003,0.687196,4.4063,0.23879,0.23419,0.11156
1694110306851562,-8.893003,0.683196,4.4193,0.18879,0.21819,0.12656
1694110306859375,-8.895003,0.690196,4.4423,0.24779,0.23219,0.15556
1694110306867187,-8.889003,0.693196,4.4673,0.23079,0.20019,0.9056
1694110306875000,-8.889003,0.692196,4.4713,0.25379,0.21819,0.6256
1694110306882812,-8.883003,0.716196,4.4803,0.20479,0.21819,0.11056
1694110306890625,-8.894003,0.717196,4.5013,0.23379,0.10719,0.5956
1694110306898437,-8.898003,0.705196,4.5103,0.17479,0.21819,0.4756
1694110306906250,-8.898003,0.688196,4.5013,0.22079,0.15519,0.4556
1694110306914062,-8.901003,0.689196,4.5013,0.20979,0.17219,0.1544
1694110306921875,-8.906003,0.689196,4.4983,0.19979,0.7519,0.9056
1694110306929687,-8.907003,0.689196,4.5013,0.17479,0.9419,0.7956
1694110306937500,-8.898003,0.683196,4.4983,0.22179,0.7819,0.7856
1694110306945312,-8.905003,0.683196,4.5013,0.25279,0.3019,0.9356
1694110306953125,-8.918003,0.684196,4.5103,0.23379,0.1419,0.10756
1694110306960937,-8.918003,0.676196,4.5193,0.22279,0.6319,0.14356
1694110306968750,-8.907003,0.677196,4.5163,0.25179,0.6119,0.7656
1694110306976562,-8.904003,0.665196,4.5213,0.23779,0.0,0.17456
1694110306984375,-8.884003,0.672196,4.5143,0.25279,0.9281,0.18956
1694110306992187,-8.866003,0.664196,4.5253,0.23979,0.119,0.17556
1694110307000000,-8.871003,0.663196,4.5163,0.25479,0.4719,0.11056
1694110307007812,-8.873003,0.668196,4.5433,0.26479,0.3019,0.15556
1694110307015625,-8.871003,0.670196,4.5523,0.31579,0.6119,0.14056
1694110307023437,-8.862003,0.658196,4.5463,0.33279,0.3119,0.15756
1694110307031250,-8.857003,0.665196,4.5573,0.42879,0.1581,0.17256
1694110307039062,-8.855003,0.669196,4.5483,0.46279,0.1619,0.15756
1694110307046875,-8.846003,0.685196,4.5283,0.44179,0.1681,0.17056
1694110307054687,-8.844003,0.683196,4.5163,0.45879,0.4619,0.15556
1694110307062500,-8.844003,0.682196,4.5123,0.46279,0.7919,0.20656
1694110307070312,-8.844003,0.680196,4.5143,0.49779,0.3219,0.12756
1694110307078125,-8.847003,0.700196,4.5163,0.48079,0.3119,0.6256
1694110307085937,-8.863003,0.700196,4.5233,0.49679,0.14219,0.17556
1694110307093750,-8.860003,0.690196,4.5143,0.49079,0.7719,0.15556
1694110307101562,-8.856003,0.698196,4.5123,0.59179,0.18819,0.15856
1694110307109375,-8.856003,0.705196,4.5123,0.60679,0.9419,0.17356
1694110307117187,-8.849003,0.715196,4.5123,0.57679,0.17219,0.12656
1694110307125000,-8.860003,0.714196,4.5213,0.53879,0.15319,0.5856
1694110307132812,-8.862003,0.703196,4.5033,0.53979,0.18719,0.18856
1694110307140625,-8.869003,0.705196,4.4963,0.61979,0.20119,0.9156
1694110307148437,-8.875003,0.685196,4.5003,0.51179,0.17019,0.244
1694110307156250,-8.880003,0.681196,4.5393,0.65379,0.12319,0.444
1694110307164062,-8.877003,0.686196,4.5553,0.62079,0.17019,0.2756
1694110307171875,-8.848003,0.679196,4.5003,0.63479,0.10619,0.4156
1694110307179687,-8.875003,0.675196,4.4673,0.60079,0.16719,0.744
1694110307187500,-8.879003,0.673196,4.4983,0.68079,0.13819,0.15356
1694110307195312,-8.857003,0.686196,4.4893,0.53479,0.18419,0.8856
1694110307203125,-8.866003,0.701196,4.4583,0.57179,0.20119,0.12356
1694110307210937,-8.864003,0.692196,4.4423,0.66579,0.23219,0.17056
1694110307218750,-8.855003,0.691196,4.3993,0.59879,0.23019,0.7256
1694110307226562,-8.851003,0.705196,4.4173,0.60179,0.31019,0.10656
1694110307234375,-8.851003,0.710196,4.4713,0.52379,0.26319,0.2756
1694110307242187,-8.846003,0.703196,4.4963,0.58779,0.31019,0.2756
1694110307250000,-8.855003,0.703196,4.4763,0.58679,0.48119,0.5956
1694110307257812,-8.900003,0.701196,4.4643,0.56879,0.49719,0.13956
1694110307265625,-8.949003,0.725196,4.5073,0.53279,0.51219,0.23356
1694110307273437,-8.968003,0.720196,4.5433,0.51979,0.48219,0.21956
1694110307281250,-8.981003,0.723196,4.5553,0.51979,0.57519,0.18756
1694110307289062,-8.972003,0.734196,4.5413,0.59979,0.52919,0.23556
1694110307296875,-8.977003,0.756196,4.5283,0.52179,0.46619,0.9156
1694110307304687,-8.970003,0.747196,4.4983,0.44279,0.46619,0.6056
1694110307312500,-8.965003,0.729196,4.5073,0.37779,0.51119,0.8444
1694110307320312,-8.950003,0.722196,4.4823,0.34579,0.48019,0.10044
1694110307328125,-8.965003,0.715196,4.4763,0.42879,0.44919,0.11544
1694110307335937,-8.952003,0.700196,4.4533,0.35079,0.41819,0.16244
1694110307343750,-8.956003,0.693196,4.4283,0.36379,0.44819,0.19644
1694110307351562,-8.938003,0.703196,4.3993,0.26379,0.44719,0.18244
1694110307359375,-8.932003,0.710196,4.4193,0.27179,0.40319,0.19444
1694110307367187,-8.931003,0.709196,4.4123,0.23379,0.47919,0.18044
1694110307375000,-8.936003,0.715196,4.4193,0.24979,0.46319,0.18044
1694110307382812,-8.934003,0.724196,4.4463,0.24979,0.35519,0.11644
1694110307390625,-8.936003,0.713196,4.4443,0.23779,0.35619,0.14644
1694110307398437,-8.931003,0.702196,4.4243,0.31379,0.26119,0.10144
1694110307406250,-8.929003,0.690196,4.4033,0.33479,0.20119,0.8244
1694110307414062,-8.929003,0.679196,4.3833,0.28879,0.3019,0.8144
1694110307421875,-8.931003,0.668196,4.4013,0.33779,0.3181,0.4944
1694110307429687,-8.946003,0.667196,4.3973,0.28379,0.1781,0.3644
1694110307437500,-8.952003,0.668196,4.3923,0.34179,0.9281,0.9544
1694110307445312,-8.943003,0.665196,4.4083,0.34279,0.13781,0.4956
1694110307453125,-8.943003,0.668196,4.4013,0.24279,0.13981,0.1644
1694110307460937,-8.934003,0.665196,4.4313,0.29279,0.10881,0.6344
1694110307468750,-8.900003,0.661196,4.4103,0.23979,0.15781,0.8244
1694110307476562,-8.902003,0.668196,4.4353,0.25879,0.24981,0.9744
1694110307484375,-8.896003,0.685196,4.4353,0.25979,0.27981,0.1644
1694110307492187,-8.906003,0.689196,4.4103,0.23679,0.23781,0.11644
1694110307500000,-8.907003,0.703196,4.4303,0.29079,0.15581,0.0
1694110307507812,-8.914003,0.688196,4.4643,0.31879,0.17181,0.9356
1694110307515625,-8.934003,0.683196,4.4923,0.29179,0.18481,0.6456
1694110307523437,-8.929003,0.697196,4.4853,0.25279,0.28081,0.15756
1694110307531250,-8.911003,0.695196,4.4713,0.23679,0.18781,0.12456
1694110307539062,-8.907003,0.695196,4.4873,0.25079,0.25081,0.14056
1694110307546875,-8.895003,0.691196,4.4823,0.23379,0.22081,0.5956
1694110307554687,-8.888003,0.682196,4.4553,0.15179,0.28281,0.12256
1694110307562500,-8.893003,0.689196,4.4643,0.22979,0.25181,0.16956
1694110307570312,-8.879003,0.668196,4.4673,0.5879,0.21881,0.12456
1694110307578125,-8.868003,0.670196,4.4583,0.11979,0.25081,0.15556
1694110307585937,-8.882003,0.668196,4.4553,0.17079,0.23481,0.14056
1694110307593750,-8.870003,0.659196,4.4423,0.11879,0.22081,0.9056
1694110307601562,-8.878003,0.656196,4.4603,0.12779,0.16081,0.16656
1694110307609375,-8.860003,0.656196,4.4353,0.6379,0.22381,0.15056
1694110307617187,-8.857003,0.663196,4.4353,0.11979,0.21981,0.17156
1694110307625000,-8.859003,0.661196,4.4553,0.5479,0.17381,0.15556
1694110307632812,-8.860003,0.669196,4.4333,0.19279,0.21681,0.17556
1694110307640625,-8.864003,0.661196,4.4373,0.9079,0.18781,0.15656
1694110307648437,-8.879003,0.657196,4.4763,0.12079,0.21881,0.18856
1694110307656250,-8.880003,0.670196,4.5003,0.23579,0.21881,0.20556
1694110307664062,-8.882003,0.665196,4.4783,0.12379,0.17081,0.20556
1694110307671875,-8.896003,0.673196,4.4893,0.16379,0.27681,0.20956
1694110307679687,-8.889003,0.665196,4.5053,0.14379,0.24781,0.19156
1694110307687500,-8.882003,0.667196,4.5033,0.19179,0.18481,0.23956
1694110307695312,-8.887003,0.665196,4.4853,0.24179,0.19981,0.19256
1694110307703125,-8.904003,0.660196,4.4913,0.24779,0.18781,0.21956
1694110307710937,-8.883003,0.651196,4.5073,0.18379,0.15681,0.21956
1694110307718750,-8.879003,0.644196,4.5193,0.21779,0.11081,0.13956
1694110307726562,-8.881003,0.655196,4.5343,0.26579,0.9481,0.15556
1694110307734375,-8.895003,0.660196,4.5803,0.18179,0.11281,0.7356
1694110307742187,-8.898003,0.652196,4.5393,0.22379,0.12481,0.7856
1694110307750000,-8.893003,0.655196,4.5463,0.25179,0.9381,0.15656
1694110307757812,-8.888003,0.652196,4.5753,0.23779,0.17181,0.15756
1694110307765625,-8.884003,0.658196,4.5983,0.22279,0.18581,0.15856
1694110307773437,-8.888003,0.668196,4.6073,0.8779,0.14281,0.9056
1694110307781250,-8.877003,0.666196,4.6113,0.16779,0.6481,0.9056
1694110307789062,-8.887003,0.669196,4.5893,0.6079,0.3081,0.14256
1694110307796875,-8.886003,0.658196,4.5413,0.22379,0.3181,0.1456
1694110307804687,-8.895003,0.660196,4.5643,0.10479,0.1881,0.5344
1694110307812500,-8.899003,0.649196,4.5933,0.10279,0.17581,0.2244
1694110307820312,-8.910003,0.651196,4.6183,0.16979,0.14381,0.3744
1694110307828125,-8.895003,0.642196,4.6223,0.7579,0.18981,0.8444
1694110307835937,-8.852003,0.628196,4.5393,0.13579,0.19181,0.8644
1694110307843750,-8.854003,0.659196,4.6253,0.10279,0.17581,0.3844
1694110307851562,-8.839003,0.655196,4.6183,0.579,0.22281,0.3844
1694110307859375,-8.820003,0.628196,4.5823,0.10379,0.12881,0.3844
1694110307867187,-8.827003,0.614196,4.5143,0.4079,0.5081,0.6944
1694110307875000,-8.803003,0.640196,4.5033,0.7479,0.1881,0.6844
1694110307882812,-8.794003,0.627196,4.6293,0.3921,0.11281,0.8544
1694110307890625,-8.793003,0.605196,4.6923,0.5721,0.14481,0.3844
1694110307898437,-8.815003,0.608196,4.6523,0.1021,0.9881,0.7144
1694110307906250,-8.843003,0.614196,4.6043,0.621,0.4981,0.6844
1694110307914062,-8.845003,0.610196,4.5733,0.4179,0.4981,0.2044
1694110307921875,-8.849003,0.606196,4.5983,0.7379,0.1781,0.1156
1694110307929687,-8.858003,0.601196,4.6003,0.4279,0.2919,0.344
1694110307937500,-8.874003,0.610196,4.5983,0.9179,0.4419,0.3544
1694110307945312,-8.877003,0.612196,4.5593,0.3621,0.6019,0.8244
1694110307953125,-8.881003,0.605196,4.5663,0.221,0.1781,0.11444
1694110307960937,-8.865003,0.593196,4.5503,0.2321,0.2619,0.16544
1694110307968750,-8.856003,0.572196,4.5523,0.1721,0.4419,0.17744
1694110307976562,-8.851003,0.555196,4.5613,0.6921,0.4219,0.21244
1694110307984375,-8.835003,0.548196,4.5683,0.3721,0.381,0.19644
1694110307992187,-8.844003,0.541196,4.5823,0.8621,0.5819,0.18044
1694110308000000,-8.840003,0.530196,4.5893,0.1721,0.3381,0.19444
1694110308007812,-8.871003,0.541196,4.6183,0.0,0.4419,0.17744
1694110308015625,-8.876003,0.545196,4.6223,0.1521,0.7619,0.19244
1694110308023437,-8.868003,0.549196,4.6343,0.2379,0.5719,0.18244
1694110308031250,-8.878003,0.548196,4.5953,0.8621,0.8919,0.19644
1694110308039062,-8.876003,0.559196,4.6363,0.2121,0.7419,0.18044
1694110308046875,-8.876003,0.547196,4.6043,0.6221,0.6119,0.15944
1694110308054687,-8.867003,0.549196,4.5553,0.2321,0.2781,0.18944
1694110308062500,-8.883003,0.520196,4.5953,0.579,0.6181,0.17544
1694110308070312,-8.886003,0.503196,4.5773,0.1621,0.4881,0.19344
1694110308078125,-8.883003,0.498196,4.5953,0.621,0.6681,0.18144
1694110308085937,-8.895003,0.488196,4.6253,0.1421,0.7981,0.19244
1694110308093750,-8.894003,0.471196,4.6043,0.2679,0.20681,0.18144
1694110308101562,-8.874003,0.473196,4.6023,0.4479,0.23781,0.19644
1694110308109375,-8.847003,0.468196,4.5933,0.3079,0.23681,0.17944
1694110308117187,-8.778003,0.464196,4.5893,0.3179,0.20481,0.16244
1694110308125000,-8.778003,0.449196,4.6363,0.3121,0.17381,0.19344
1694110308132812,-8.812003,0.458196,4.6273,0.4779,0.17381,0.17844
1694110308140625,-8.842003,0.448196,4.5823,0.20479,0.19081,0.18144
1694110308148437,-8.829003,0.468196,4.6043,0.23579,0.17481,0.8544
1694110308156250,-8.796003,0.496196,4.6253,0.25479,0.18881,0.3544
1694110308164062,-8.760003,0.480196,4.6093,0.23679,0.15881,0.5244
1694110308171875,-8.783003,0.475196,4.6543,0.25879,0.17181,0.4844
1694110308179687,-8.787003,0.458196,4.6433,0.23979,0.12581,0.5044
1694110308187500,-8.811003,0.436196,4.6503,0.25579,0.12581,0.3444
1694110308195312,-8.809003,0.445196,4.6183,0.23779,0.12681,0.6744
1694110308203125,-8.803003,0.465196,4.6073,0.28879,0.12481,0.1456
1694110308210937,-8.816003,0.443196,4.6343,0.36479,0.17281,0.4356
1694110308218750,-8.818003,0.452196,4.6473,0.36479,0.6481,0.1156
1694110308226562,-8.818003,0.455196,4.6223,0.35979,0.14381,0.5756
1694110308234375,-8.822003,0.464196,4.6223,0.37679,0.18981,0.10656
1694110308242187,-8.820003,0.457196,4.6453,0.40879,0.15781,0.17056
1694110308250000,-8.820003,0.442196,4.6413,0.42479,0.17281,0.18656
1694110308257812,-8.834003,0.454196,4.6473,0.49679,0.15481,0.20656
1694110308265625,-8.827003,0.461196,4.6473,0.54079,0.18781,0.18856
1694110308273437,-8.832003,0.471196,4.6363,0.54679,0.15381,0.22356
1694110308281250,-8.840003,0.471196,4.6863,0.43979,0.17281,0.26656
1694110308289062,-8.838003,0.467196,4.6773,0.47079,0.15781,0.26556
1694110308296875,-8.825003,0.452196,4.6613,0.50979,0.18681,0.22156
1694110308304687,-8.830003,0.465196,4.6883,0.49479,0.20181,0.25456
1694110308312500,-8.823003,0.474196,4.6903,0.50879,0.17081,0.25356
1694110308320312,-8.832003,0.472196,4.6773,0.49479,0.16981,0.25456
1694110308328125,-8.821003,0.481196,4.6563,0.50779,0.24881,0.31656
1694110308335937,-8.835003,0.489196,4.6703,0.48179,0.23281,0.17556
1694110308343750,-8.807003,0.488196,4.6953,0.49079,0.23481,0.18756
1694110308351562,-8.809003,0.474196,4.6793,0.44379,0.24981,0.23656
1694110308359375,-8.825003,0.477196,4.6863,0.42579,0.24981,0.25156
1694110308367187,-8.796003,0.477196,4.6813,0.44179,0.21881,0.23556
1694110308375000,-8.798003,0.490196,4.6593,0.44079,0.26581,0.26656
1694110308382812,-8.787003,0.505196,4.6403,0.48879,0.26581,0.26656
1694110308390625,-8.768003,0.511196,4.6503,0.39879,0.27981,0.20656
1694110308398437,-8.758003,0.501196,4.6903,0.40779,0.20381,0.21856
1694110308406250,-8.758003,0.498196,4.6923,0.32879,0.20381,0.23556
1694110308414062,-8.758003,0.512196,4.6953,0.37379,0.22181,0.16856
1694110308421875,-8.767003,0.494196,4.6743,0.21779,0.20381,0.17256
1694110308429687,-8.774003,0.489196,4.6743,0.26679,0.17281,0.15656
1694110308437500,-8.761003,0.506196,4.6743,0.36579,0.20181,0.23856
1694110308445312,-8.758003,0.509196,4.6973,0.34579,0.31281,0.20356
1694110308453125,-8.767003,0.505196,4.6863,0.35979,0.31381,0.18556
1694110308460937,-8.778003,0.505196,4.7113,0.29579,0.29781,0.20256
1694110308468750,-8.760003,0.508196,4.7203,0.37479,0.31381,0.24956
1694110308476562,-8.772003,0.510196,4.6883,0.37679,0.31381,0.17056
1694110308484375,-8.752003,0.515196,4.6293,0.41479,0.29481,0.22256
1694110308492187,-8.722003,0.525196,4.6613,0.29479,0.26781,0.16956
1694110308500000,-8.741003,0.522196,4.7013,0.34879,0.26581,0.12456
1694110308507812,-8.756003,0.525196,4.6293,0.29679,0.22081,0.12256
1694110308515625,-8.747003,0.513196,4.5933,0.42979,0.17181,0.17356
1694110308523437,-8.741003,0.507196,4.6723,0.30779,0.19981,0.14456
1694110308531250,-8.730003,0.503196,4.7153,0.23979,0.23281,0.15856
1694110308539062,-8.716003,0.502196,4.6923,0.23279,0.11081,0.13856
1694110308546875,-8.704003,0.495196,4.7063,0.24879,0.17281,0.13956
1694110308554687,-8.718003,0.488196,4.6973,0.23379,0.9481,0.12356
1694110308562500,-8.727003,0.507196,4.6653,0.31179,0.1681,0.17056
1694110308570312,-8.721003,0.512196,4.6383,0.30079,0.9281,0.20556
1694110308578125,-8.700003,0.513196,4.6343,0.34179,0.1419,0.24956
1694110308585937,-8.682003,0.519196,4.6133,0.32679,0.1319,0.13756
1694110308593750,-8.685003,0.517196,4.6163,0.23279,0.3181,0.18756
1694110308601562,-8.705003,0.542196,4.6223,0.24779,0.2919,0.17056
1694110308609375,-8.732003,0.533196,4.6523,0.28379,0.3181,0.14056
1694110308617187,-8.734003,0.515196,4.6543,0.26779,0.1681,0.9256
1694110308625000,-8.714003,0.522196,4.6833,0.23279,0.3381,0.7456
1694110308632812,-8.702003,0.506196,4.7153,0.25079,0.4981,0.3744
1694110308640625,-8.683003,0.498196,4.7063,0.23979,0.6281,0.3056
1694110308648437,-8.676003,0.496196,4.6903,0.25679,0.6181,0.11156
1694110308656250,-8.686003,0.504196,4.7133,0.23179,0.1881,0.956
1694110308664062,-8.689003,0.508196,4.7193,0.24979,0.2919,0.10756
1694110308671875,-8.702003,0.518196,4.7173,0.22979,0.1881,0.8856
1694110308679687,-8.716003,0.508196,4.7013,0.24979,0.7619,0.7556
1694110308687500,-8.720003,0.511196,4.7223,0.17979,0.5919,0.12056
1694110308695312,-8.736003,0.507196,4.7423,0.23079,0.2819,0.7356
1694110308703125,-8.751003,0.484196,4.7583,0.21679,0.10719,0.10756
1694110308710937,-8.774003,0.480196,4.7673,0.23679,0.7719,0.4556
1694110308718750,-8.785003,0.478196,4.7783,0.16879,0.7619,0.5956
1694110308726562,-8.787003,0.474196,4.7653,0.18279,0.2819,0.7356
1694110308734375,-8.789003,0.483196,4.7473,0.15279,0.181,0.10756
1694110308742187,-8.780003,0.472196,4.7673,0.7079,0.1781,0.13856
1694110308750000,-8.767003,0.476196,4.7783,0.10479,0.3281,0.7556
1694110308757812,-8.731003,0.460196,4.7353,0.6879,0.1881,0.12156
1694110308765625,-8.689003,0.450196,4.7533,0.2121,0.2281,0.11656
1694110308773437,-8.722003,0.454196,4.8193,0.1021,0.3581,0.2244
1694110308781250,-8.766003,0.448196,4.7693,0.2079,0.1219,0.7356
1694110308789062,-8.780003,0.463196,4.7743,0.21679,0.1419,0.20356
1694110308796875,-8.727003,0.466196,4.7423,0.10479,0.3081,0.26856
1694110308804687,-8.690003,0.471196,4.7493,0.11179,0.4319,0.27956
1694110308812500,-8.704003,0.475196,4.7853,0.5279,0.7619,0.21856
1694110308820312,-8.738003,0.473196,4.7923,0.16679,0.3019,0.28356
1694110308828125,-8.742003,0.460196,4.7903,0.15279,0.4681,0.25256
1694110308835937,-8.751003,0.458196,4.7963,0.16479,0.4881,0.24956
1694110308843750,-8.746003,0.431196,4.8103,0.15179,0.6281,0.23556
1694110308851562,-8.715003,0.428196,4.8033,0.13779,0.4581,0.31756
1694110308859375,-8.710003,0.426196,4.8083,0.16779,0.7819,0.28456
1694110308867187,-8.706003,0.426196,4.7943,0.11679,0.181,0.26656
1694110308875000,-8.705003,0.422196,4.8013,0.13179,0.4419,0.24956
1694110308882812,-8.699003,0.419196,4.7623,0.16779,0.7819,0.31656
1694110308890625,-8.694003,0.427196,4.7533,0.11479,0.6119,0.32956
1694110308898437,-8.684003,0.431196,4.7583,0.25279,0.8019,0.31956
1694110308906250,-8.686003,0.433196,4.7833,0.19779,0.6219,0.36356
1694110308914062,-8.678003,0.427196,4.7873,0.20679,0.4319,0.32756
1694110308921875,-8.674003,0.424196,4.7873,0.17879,0.6119,0.34556
1694110308929687,-8.672003,0.410196,4.7923,0.21579,0.10919,0.34856
1694110308937500,-8.650003,0.400196,4.7893,0.24879,0.11119,0.44556
1694110308945312,-8.641003,0.394196,4.7693,0.23379,0.4819,0.38156
1694110308953125,-8.620003,0.378196,4.7653,0.24679,0.4819,0.44456
1694110308960937,-8.606003,0.381196,4.7563,0.24479,0.3119,0.42656
1694110308968750,-8.611003,0.374196,4.7533,0.22879,0.20319,0.42756
1694110308976562,-8.615003,0.370196,4.7653,0.24279,0.20219,0.44256
1694110308984375,-8.644003,0.368196,4.7963,0.27579,0.17119,0.44256
1694110308992187,-8.634003,0.376196,4.7833,0.26179,0.28319,0.58956
1694110309000000,-8.665003,0.401196,4.7673,0.25879,0.32819,0.53956
1694110309007812,-8.676003,0.403196,4.7623,0.30879,0.40719,0.54056
1694110309015625,-8.697003,0.401196,4.7853,0.37479,0.44019,0.59056
1694110309023437,-8.712003,0.395196,4.7903,0.35679,0.45419,0.54056
1694110309031250,-8.728003,0.400196,4.8083,0.30779,0.40719,0.58856
1694110309039062,-8.735003,0.407196,4.8263,0.27379,0.43819,0.60356
1694110309046875,-8.753003,0.426196,4.8393,0.27879,0.42419,0.57456
1694110309054687,-8.755003,0.441196,4.8143,0.27079,0.46719,0.56956
1694110309062500,-8.753003,0.438196,4.8123,0.36879,0.40619,0.61856
1694110309070312,-8.747003,0.461196,4.8463,0.38979,0.51819,0.65456
1694110309078125,-8.760003,0.449196,4.8483,0.45079,0.51619,0.55556
1694110309085937,-8.769003,0.458196,4.8213,0.49879,0.46819,0.55456
1694110309093750,-8.760003,0.467196,4.8033,0.49579,0.46819,0.60156
1694110309101562,-8.758003,0.474196,4.7853,0.43179,0.45319,0.63356
1694110309109375,-8.742003,0.478196,4.7783,0.41579,0.48319,0.56956
1694110309117187,-8.734003,0.497196,4.7603,0.45079,0.46919,0.58756
1694110309125000,-8.749003,0.487196,4.6973,0.49779,0.48419,0.57056
1694110309132812,-8.781003,0.485196,4.7223,0.51679,0.47019,0.58856
1694110309140625,-8.780003,0.461196,4.8033,0.48079,0.46819,0.56956
1694110309148437,-8.753003,0.442196,4.8233,0.50179,0.37619,0.54056
1694110309156250,-8.745003,0.466196,4.8033,0.48879,0.45519,0.55856
1694110309164062,-8.725003,0.481196,4.7533,0.50279,0.45519,0.60556
1694110309171875,-8.736003,0.493196,4.7623,0.51379,0.45319,0.60256
1694110309179687,-8.754003,0.500196,4.7853,0.48479,0.40819,0.62056
1694110309187500,-8.749003,0.505196,4.7713,0.56179,0.45419,0.68256
1694110309195312,-8.743003,0.529196,4.7673,0.57879,0.45519,0.73156
1694110309203125,-8.767003,0.530196,4.7943,0.52379,0.43619,0.71156
1694110309210937,-8.786003,0.540196,4.8143,0.57879,0.45419,0.69956
1694110309218750,-8.793003,0.551196,4.7853,0.61279,0.54819,0.63656
1694110309226562,-8.793003,0.565196,4.7443,0.57879,0.53019,0.52256
1694110309234375,-8.795003,0.563196,4.7313,0.46779,0.60919,0.49156
1694110309242187,-8.787003,0.562196,4.7153,0.48879,0.57919,0.43056
1694110309250000,-8.761003,0.567196,4.6953,0.36979,0.56019,0.41056
1694110309257812,-8.751003,0.543196,4.6993,0.41179,0.45519,0.39956
1694110309265625,-8.735003,0.546196,4.7083,0.40579,0.46819,0.42856
1694110309273437,-8.753003,0.551196,4.7513,0.45479,0.42219,0.41256
1694110309281250,-8.750003,0.549196,4.7443,0.50179,0.46819,0.41156
1694110309289062,-8.753003,0.561196,4.7243,0.50479,0.46919,0.42956
1694110309296875,-8.770003,0.558196,4.7353,0.48279,0.48319,0.50656
1694110309304687,-8.786003,0.564196,4.7293,0.47179,0.46919,0.44556
1694110309312500,-8.784003,0.580196,4.7133,0.43779,0.46919,0.46056
1694110309320312,-8.784003,0.582196,4.6773,0.46779,0.48419,0.50756
1694110309328125,-8.793003,0.567196,4.6833,0.49979,0.46719,0.41056
1694110309335937,-8.804003,0.551196,4.6923,0.48979,0.48519,0.43056
1694110309343750,-8.827003,0.535196,4.6703,0.50779,0.44019,0.47956
1694110309351562,-8.825003,0.547196,4.6883,0.50779,0.40819,0.44756
1694110309359375,-8.844003,0.557196,4.6883,0.48479,0.46819,0.44356
1694110309367187,-8.862003,0.561196,4.6973,0.50279,0.42219,0.44456
1694110309375000,-8.820003,0.567196,4.6503,0.47079,0.42219,0.41256
1694110309382812,-8.798003,0.569196,4.6723,0.45579,0.26619,0.41256
1694110309390625,-8.816003,0.571196,4.7063,0.41179,0.18919,0.39856
1694110309398437,-8.849003,0.579196,4.7083,0.48879,0.26619,0.36456
1694110309406250,-8.858003,0.577196,4.7043,0.50279,0.28119,0.42756
1694110309414062,-8.834003,0.592196,4.6523,0.51979,0.26619,0.46056
1694110309421875,-8.809003,0.609196,4.6903,0.48779,0.23519,0.47656
1694110309429687,-8.807003,0.611196,4.7243,0.50279,0.31219,0.42756
1694110309437500,-8.818003,0.616196,4.7403,0.48579,0.23419,0.41056
1694110309445312,-8.823003,0.615196,4.7243,0.50879,0.28419,0.41556
1694110309453125,-8.834003,0.613196,4.7063,0.54179,0.22119,0.43156
1694110309460937,-8.837003,0.615196,4.7063,0.52779,0.25319,0.40056
1694110309468750,-8.831003,0.611196,4.7203,0.49679,0.18419,0.34256
1694110309476562,-8.842003,0.613196,4.6923,0.56379,0.24819,0.32856
1694110309484375,-8.841003,0.609196,4.6993,0.54079,0.17319,0.30156
1694110309492187,-8.838003,0.610196,4.7063,0.56979,0.20219,0.28356
1694110309500000,-8.827003,0.619196,4.7113,0.48779,0.20119,0.21856
1694110309507812,-8.814003,0.614196,4.6993,0.48879,0.20219,0.25156
1694110309515625,-8.805003,0.616196,4.7113,0.58179,0.17019,0.31356
1694110309523437,-8.800003,0.620196,4.7083,0.58579,0.17119,0.26756
1694110309531250,-8.785003,0.629196,4.6593,0.53679,0.15419,0.20256
1694110309539062,-8.796003,0.624196,4.6923,0.63579,0.18819,0.31656
1694110309546875,-8.805003,0.621196,4.7403,0.53479,0.21819,0.31456
1694110309554687,-8.793003,0.634196,4.7333,0.49879,0.20019,0.29556
1694110309562500,-8.796003,0.629196,4.6833,0.55679,0.17219,0.28556
1694110309570312,-8.821003,0.633196,4.7013,0.57579,0.15819,0.27156
1694110309578125,-8.814003,0.634196,4.6953,0.56879,0.15519,0.26656
1694110309585937,-8.820003,0.634196,4.6793,0.61579,0.13919,0.26556
1694110309593750,-8.834003,0.639196,4.6923,0.53479,0.9219,0.28156
1694110309601562,-8.825003,0.634196,4.6883,0.48679,0.6119,0.23356
1694110309609375,-8.829003,0.635196,4.7113,0.50079,0.2819,0.21656
1694110309617187,-8.818003,0.635196,4.6773,0.49979,0.4319,0.16756
1694110309625000,-8.801003,0.651196,4.6543,0.49279,0.1519,0.17256
1694110309632812,-8.814003,0.651196,4.6343,0.50679,0.3019,0.18756
1694110309640625,-8.796003,0.654196,4.6313,0.52079,0.4419,0.15356
1694110309648437,-8.781003,0.651196,4.6503,0.45679,0.4519,0.17056
1694110309656250,-8.781003,0.644196,4.6293,0.50979,0.3181,0.14056
1694110309664062,-8.767003,0.629196,4.6273,0.50779,0.81,0.12356
1694110309671875,-8.776003,0.636196,4.6433,0.45579,0.1781,0.15356
1694110309679687,-8.767003,0.636196,4.6523,0.45579,0.1419,0.20156
1694110309687500,-8.772003,0.628196,4.6523,0.46279,0.7919,0.20656
1694110309695312,-8.768003,0.632196,4.6453,0.44979,0.4819,0.12756
1694110309703125,-8.772003,0.641196,4.6453,0.47979,0.12519,0.15856
1694110309710937,-8.769003,0.630196,4.6563,0.50979,0.17219,0.15756
1694110309718750,-8.767003,0.629196,4.6563,0.45879,0.13919,0.15556
1694110309726562,-8.778003,0.620196,4.6633,0.49279,0.17119,0.10856
1694110309734375,-8.796003,0.618196,4.6813,0.42279,0.18519,0.16956
1694110309742187,-8.807003,0.615196,4.6773,0.49379,0.18719,0.12556
1694110309750000,-8.803003,0.622196,4.6863,0.50679,0.13919,0.17156
1694110309757812,-8.805003,0.617196,4.7043,0.49679,0.6419,0.20756
1694110309765625,-8.827003,0.609196,4.7423,0.50979,0.7919,0.22156
1694110309773437,-8.789003,0.611196,4.6833,0.52279,0.10819,0.20356
1694110309781250,-8.800003,0.604196,4.6773,0.50779,0.12419,0.18856
1694110309789062,-8.832003,0.623196,4.7083,0.44079,0.10919,0.26756
1694110309796875,-8.819003,0.644196,4.6683,0.47579,0.15719,0.26956
1694110309804687,-8.821003,0.642196,4.6703,0.50879,0.7919,0.28556
1694110309812500,-8.783003,0.642196,4.6563,0.50379,0.15519,0.26656
1694110309820312,-8.749003,0.631196,4.6273,0.45379,0.23219,0.23356
1694110309828125,-8.740003,0.631196,4.5933,0.35779,0.21619,0.16956
1694110309835937,-8.796003,0.630196,4.6343,0.43679,0.24619,0.16856
1694110309843750,-8.856003,0.622196,4.6523,0.49979,0.29219,0.15156
1694110309851562,-8.870003,0.628196,4.6523,0.66579,0.21719,0.17056
1694110309859375,-8.886003,0.630196,4.6563,0.66679,0.23319,0.25156
1694110309867187,-8.861003,0.638196,4.6453,0.60379,0.22019,0.33356
1694110309875000,-8.846003,0.658196,4.6413,0.52679,0.19019,0.36756
1694110309882812,-8.822003,0.668196,4.6313,0.55779,0.17419,0.36656
1694110309890625,-8.815003,0.676196,4.6293,0.42279,0.7719,0.34656
1694110309898437,-8.819003,0.658196,4.6163,0.45979,0.15719,0.33356
1694110309906250,-8.821003,0.630196,4.6223,0.46779,0.9819,0.27356
1694110309914062,-8.816003,0.607196,4.6163,0.49179,0.10919,0.18856
1694110309921875,-8.800003,0.579196,4.6293,0.49879,0.14319,0.17656
1694110309929687,-8.803003,0.597196,4.6293,0.39979,0.14119,0.15956
1694110309937500,-8.794003,0.610196,4.6163,0.46379,0.9519,0.23956
1694110309945312,-8.789003,0.613196,4.6253,0.49079,0.18719,0.22056
1694110309953125,-8.800003,0.618196,4.6273,0.50779,0.14019,0.23656
1694110309960937,-8.810003,0.624196,4.6313,0.50879,0.20319,0.22156
1694110309968750,-8.825003,0.628196,4.6363,0.46979,0.15419,0.26556
1694110309976562,-8.828003,0.615196,4.6273,0.46179,0.15719,0.27056
1694110309984375,-8.827003,0.614196,4.6343,0.48779,0.15519,0.28256
1694110309992187,-8.821003,0.629196,4.6183,0.44479,0.17219,0.20556
1694110310000000,-8.823003,0.624196,4.6093,0.49179,0.21919,0.28556
1694110310007812,-8.827003,0.632196,4.6043,0.50479,0.23319,0.28356
1694110310015625,-8.839003,0.625196,4.6023,0.52379,0.18719,0.20456
1694110310023437,-8.846003,0.637196,4.6133,0.49979,0.19119,0.24056
1694110310031250,-8.852003,0.634196,4.6043,0.50879,0.11019,0.25356
1694110310039062,-8.855003,0.646196,4.5933,0.49779,0.15919,0.22456
1694110310046875,-8.844003,0.666196,4.5863,0.51179,0.8019,0.28756
1694110310054687,-8.846003,0.665196,4.6093,0.50879,0.6319,0.28556
1694110310062500,-8.822003,0.664196,4.6253,0.49479,0.6419,0.23856
1694110310070312,-8.779003,0.662196,4.6383,0.37679,0.3119,0.28356
1694110310078125,-8.752003,0.663196,4.5823,0.31579,0.10919,0.20556
1694110310085937,-8.785003,0.651196,4.5933,0.28279,0.7719,0.18856
1694110310093750,-8.808003,0.644196,4.5893,0.47579,0.9319,0.20456
1694110310101562,-8.826003,0.649196,4.6093,0.34579,0.18719,0.23656
1694110310109375,-8.844003,0.651196,4.6203,0.50779,0.18819,0.33356
1694110310117187,-8.815003,0.657196,4.6203,0.51279,0.15919,0.32056
1694110310125000,-8.813003,0.670196,4.6473,0.49479,0.11219,0.33556
1694110310132812,-8.806003,0.688196,4.6453,0.41179,0.17319,0.35056
1694110310140625,-8.801003,0.691196,4.6503,0.40779,0.6319,0.36356
1694110310148437,-8.799003,0.692196,4.6563,0.38679,0.12319,0.37656
1694110310156250,-8.797003,0.693196,4.6773,0.32779,0.9319,0.31556
1694110310164062,-8.779003,0.694196,4.6703,0.30679,0.10719,0.32856
1694110310171875,-8.776003,0.685196,4.6773,0.21079,0.10719,0.31356
1694110310179687,-8.790003,0.685196,4.6653,0.25979,0.7619,0.29756
1694110310187500,-8.790003,0.680196,4.6543,0.26279,0.14019,0.33156
1694110310195312,-8.788003,0.686196,4.6503,0.24779,0.18719,0.34856
1694110310203125,-8.790003,0.698196,4.6523,0.25879,0.21719,0.32956
1694110310210937,-8.786003,0.693196,4.6453,0.21679,0.21919,0.31756
1694110310218750,-8.789003,0.690196,4.6383,0.41379,0.25219,0.33556
1694110310226562,-8.792003,0.689196,4.6563,0.32579,0.23419,0.34756
1694110310234375,-8.788003,0.687196,4.6503,0.27379,0.21619,0.29656
1694110310242187,-8.788003,0.684196,4.6523,0.22879,0.26519,0.34756
1694110310250000,-8.772003,0.691196,4.6653,0.30679,0.29419,0.32956
1694110310257812,-8.757003,0.700196,4.6653,0.32479,0.20219,0.36256
1694110310265625,-8.744003,0.691196,4.6613,0.28279,0.29919,0.41556
1694110310273437,-8.748003,0.683196,4.6543,0.36379,0.33019,0.39956
1694110310281250,-8.750003,0.681196,4.6613,0.24479,0.21819,0.41156
1694110310289062,-8.770003,0.695196,4.6683,0.33979,0.29619,0.42656
1694110310296875,-8.775003,0.688196,4.6593,0.31179,0.29619,0.34856
1694110310304687,-8.795003,0.700196,4.6523,0.29379,0.39019,0.42856
1694110310312500,-8.786003,0.693196,4.6433,0.27879,0.46919,0.39756
1694110310320312,-8.797003,0.689196,4.6343,0.32279,0.42019,0.42656
1694110310328125,-8.797003,0.702196,4.6273,0.30879,0.40619,0.46056
1694110310335937,-8.804003,0.702196,4.6223,0.30879,0.46819,0.42856
1694110310343750,-8.817003,0.698196,4.6273,0.29179,0.43719,0.45956
1694110310351562,-8.804003,0.708196,4.6223,0.40979,0.43819,0.38256
1694110310359375,-8.811003,0.711196,4.6453,0.34179,0.43719,0.44456
1694110310367187,-8.810003,0.721196,4.6473,0.23879,0.45019,0.36056
1694110310375000,-8.827003,0.725196,4.6503,0.24379,0.45119,0.34756
1694110310382812,-8.827003,0.724196,4.6593,0.23179,0.46819,0.31756
1694110310390625,-8.833003,0.743196,4.6703,0.23979,0.48119,0.32856
1694110310398437,-8.818003,0.740196,4.6593,0.22879,0.46719,0.29956
1694110310406250,-8.823003,0.735196,4.6833,0.24979,0.48419,0.25456
1694110310414062,-8.838003,0.729196,4.7293,0.22879,0.43619,0.31556
1694110310421875,-8.822003,0.718196,4.7243,0.24579,0.46819,0.33256
1694110310429687,-8.811003,0.711196,4.6773,0.22679,0.46619,0.26656
1694110310437500,-8.821003,0.692196,4.6793,0.23979,0.44919,0.31256
1694110310445312,-8.820003,0.700196,4.6743,0.18379,0.37419,0.31756
1694110310453125,-8.806003,0.716196,4.6343,0.22879,0.32719,0.33156
1694110310460937,-8.798003,0.706196,4.6293,0.25079,0.22019,0.31856
1694110310468750,-8.791003,0.681196,4.6043,0.25779,0.27019,0.33756
1694110310476562,-8.750003,0.686196,4.5883,0.25779,0.41919,0.28156
1694110310484375,-8.739003,0.664196,4.5683,0.23879,0.47119,0.25656
1694110310492187,-8.768003,0.663196,4.5843,0.25279,0.48519,0.23956
1694110310500000,-8.815003,0.666196,4.6183,0.24979,0.40519,0.17356
1694110310507812,-8.817003,0.674196,4.6253,0.38879,0.43519,0.31456
1694110310515625,-8.856003,0.678196,4.6133,0.46079,0.45419,0.35156
1694110310523437,-8.865003,0.705196,4.6383,0.44079,0.48419,0.36556
1694110310531250,-8.852003,0.720196,4.6413,0.42579,0.43819,0.39856
1694110310539062,-8.851003,0.716196,4.6383,0.29579,0.40619,0.38156
1694110310546875,-8.831003,0.716196,4.6253,0.22779,0.43619,0.33156
1694110310554687,-8.820003,0.709196,4.5823,0.27779,0.51319,0.21956
1694110310562500,-8.819003,0.687196,4.5663,0.22979,0.48119,0.17156
1694110310570312,-8.839003,0.684196,4.5683,0.23979,0.49419,0.15156
1694110310578125,-8.833003,0.671196,4.5683,0.23179,0.54419,0.10856
1694110310585937,-8.820003,0.669196,4.5593,0.23679,0.61719,0.3756
1694110310593750,-8.821003,0.666196,4.5753,0.22579,0.52419,0.4044
1694110310601562,-8.834003,0.670196,4.5753,0.24579,0.46319,0.7044
1694110310609375,-8.848003,0.677196,4.5773,0.23079,0.51019,0.8544
1694110310617187,-8.862003,0.681196,4.5593,0.24979,0.52719,0.5244
1694110310625000,-8.871003,0.672196,4.5593,0.23379,0.48019,0.5144
1694110310632812,-8.860003,0.683196,4.5463,0.25179,0.46619,0.1844
1694110310640625,-8.861003,0.668196,4.5433,0.19979,0.49519,0.3644
1694110310648437,-8.857003,0.663196,4.5393,0.21979,0.48119,0.5144
1694110310656250,-8.860003,0.658196,4.5523,0.22079,0.46619,0.1844
1694110310664062,-8.855003,0.667196,4.5593,0.23479,0.48119,0.244
1694110310671875,-8.871003,0.661196,4.5553,0.25179,0.46619,0.3444
1694110310679687,-8.882003,0.654196,4.5393,0.23379,0.49619,0.3544
1694110310687500,-8.880003,0.654196,4.5303,0.25379,0.48119,0.8244
1694110310695312,-8.884003,0.657196,4.5393,0.23179,0.32319,0.5344
1694110310703125,-8.893003,0.655196,4.5393,0.24879,0.30919,0.1156
1694110310710937,-8.888003,0.646196,4.5753,0.23279,0.27819,0.2756
1694110310718750,-8.879003,0.650196,4.5753,0.21879,0.38719,0.6744
1694110310726562,-8.873003,0.641196,4.5163,0.25279,0.31019,0.5044
1694110310734375,-8.872003,0.634196,4.5393,0.23479,0.29419,0.3544
1694110310742187,-8.859003,0.649196,4.5123,0.23679,0.37219,0.9844
1694110310750000,-8.879003,0.654196,4.4983,0.25179,0.24719,0.6744
1694110310757812,-8.888003,0.654196,4.5073,0.26879,0.34119,0.5044
1694110310765625,-8.875003,0.653196,4.5373,0.23179,0.24619,0.2144
1694110310773437,-8.879003,0.668196,4.5393,0.24579,0.23019,0.4156
1694110310781250,-8.882003,0.677196,4.5553,0.23079,0.21419,0.956
1694110310789062,-8.875003,0.678196,4.5523,0.24479,0.21419,0.2456
1694110310796875,-8.879003,0.671196,4.5483,0.24579,0.15219,0.7356
1694110310804687,-8.877003,0.662196,4.5463,0.23279,0.10619,0.2144
1694110310812500,-8.861003,0.655196,4.5553,0.24379,0.18319,0.13656
1694110310820312,-8.858003,0.654196,4.5613,0.20779,0.11919,0.5356
1694110310828125,-8.870003,0.657196,4.5613,0.27979,0.9119,0.10656
1694110310835937,-8.857003,0.654196,4.5523,0.32979,0.9219,0.9156
1694110310843750,-8.873003,0.652196,4.5553,0.25179,0.9319,0.17356
1694110310851562,-8.864003,0.663196,4.5503,0.34779,0.9319,0.12456
1694110310859375,-8.857003,0.668196,4.5503,0.29679,0.7619,0.15556
1694110310867187,-8.855003,0.665196,4.5343,0.24979,0.4619,0.20456
1694110310875000,-8.853003,0.663196,4.5373,0.26779,0.9319,0.15756
1694110310882812,-8.848003,0.652196,4.5413,0.26579,0.0,0.23656
1694110310890625,-8.838003,0.646196,4.5463,0.25979,0.281,0.24856
1694110310898437,-8.835003,0.652196,4.5413,0.28279,0.4619,0.20456
1694110310906250,-8.843003,0.652196,4.5523,0.26379,0.6219,0.25156
1694110310914062,-8.841003,0.664196,4.5433,0.30779,0.7519,0.21656
1694110310921875,-8.839003,0.650196,4.5573,0.40679,0.6019,0.21756
1694110310929687,-8.837003,0.651196,4.5573,0.25179,0.4719,0.17356
1694110310937500,-8.835003,0.653196,4.5613,0.42879,0.9419,0.20556
1694110310945312,-8.833003,0.651196,4.5553,0.42979,0.15719,0.20656
1694110310953125,-8.844003,0.658196,4.5823,0.44479,0.18719,0.20556
1694110310960937,-8.851003,0.667196,4.5753,0.34979,0.11019,0.20656
1694110310968750,-8.853003,0.665196,4.5663,0.36479,0.7819,0.20556
1694110310976562,-8.859003,0.684196,4.5823,0.35779,0.13819,0.21756
1694110310984375,-8.853003,0.673196,4.5593,0.30179,0.9419,0.19056
1694110310992187,-8.853003,0.678196,4.5753,0.34779,0.14019,0.18956
1694110311000000,-8.851003,0.687196,4.5483,0.26579,0.10819,0.17256
1694110311007812,-8.848003,0.680196,4.5503,0.26679,0.3119,0.20456
1694110311015625,-8.844003,0.681196,4.5503,0.32679,0.12319,0.21856
1694110311023437,-8.844003,0.686196,4.5483,0.33479,0.18819,0.17556
1694110311031250,-8.846003,0.689196,4.5413,0.33179,0.15619,0.22156
1694110311039062,-8.851003,0.687196,4.5433,0.34479,0.12419,0.21956
1694110311046875,-8.851003,0.691196,4.5503,0.33379,0.25119,0.22356
1694110311054687,-8.862003,0.675196,4.5463,0.23779,0.18819,0.17556
1694110311062500,-8.872003,0.668196,4.5283,0.30879,0.18519,0.23356
1694110311070312,-8.882003,0.663196,4.5373,0.33179,0.15619,0.20556
1694110311078125,-8.886003,0.651196,4.5593,0.33479,0.4919,0.25556
1694110311085937,-8.889003,0.663196,4.5613,0.44579,0.4581,0.20556
1694110311093750,-8.889003,0.647196,4.5393,0.41679,0.3319,0.20756
1694110311101562,-8.868003,0.647196,4.5033,0.39879,0.4819,0.20656
1694110311109375,-8.884003,0.649196,4.5393,0.43179,0.5981,0.28756
1694110311117187,-8.884003,0.672196,4.5523,0.49179,0.1619,0.25256
1694110311125000,-8.876003,0.682196,4.5103,0.46679,0.1281,0.25656
1694110311132812,-8.868003,0.667196,4.4763,0.50979,0.3219,0.25356
1694110311140625,-8.857003,0.659196,4.4463,0.52179,0.7819,0.25156
1694110311148437,-8.857003,0.667196,4.4493,0.49579,0.9419,0.19056
1694110311156250,-8.853003,0.669196,4.5073,0.47579,0.7819,0.22056
1694110311164062,-8.864003,0.665196,4.5433,0.50879,0.6219,0.17256
1694110311171875,-8.859003,0.667196,4.5123,0.49179,0.9319,0.20456
1694110311179687,-8.878003,0.669196,4.4853,0.57679,0.12719,0.28756
1694110311187500,-8.886003,0.672196,4.4893,0.52179,0.9419,0.31556
1694110311195312,-8.880003,0.698196,4.4943,0.50779,0.12619,0.31756
1694110311203125,-8.864003,0.712196,4.4983,0.43879,0.7719,0.31456
1694110311210937,-8.854003,0.727196,4.5073,0.42679,0.12619,0.33356
1694110311218750,-8.849003,0.732196,4.5073,0.50479,0.10919,0.31556
1694110311226562,-8.856003,0.713196,4.5003,0.34879,0.14119,0.25456
1694110311234375,-8.847003,0.722196,4.4823,0.38379,0.11019,0.19156
1694110311242187,-8.863003,0.700196,4.4783,0.36779,0.14219,0.19156
1694110311250000,-8.862003,0.689196,4.4803,0.27179,0.17419,0.19256
1694110311257812,-8.869003,0.675196,4.4823,0.25679,0.8019,0.20856
1694110311265625,-8.873003,0.658196,4.4873,0.33379,0.6319,0.17456
1694110311273437,-8.876003,0.662196,4.4963,0.32179,0.8019,0.16056
1694110311281250,-8.873003,0.665196,4.5003,0.35279,0.3219,0.14356
1694110311289062,-8.864003,0.664196,4.5213,0.25579,0.3219,0.12756
1694110311296875,-8.846003,0.658196,4.5193,0.25479,0.3119,0.7856
1694110311304687,-8.848003,0.658196,4.5163,0.23479,0.4619,0.12456
1694110311312500,-8.846003,0.656196,4.5283,0.25079,0.4619,0.12456
1694110311320312,-8.859003,0.660196,4.5213,0.28379,0.9319,0.15756
1694110311328125,-8.859003,0.663196,4.5303,0.24979,0.7719,0.17256
1694110311335937,-8.866003,0.665196,4.5253,0.28279,0.6219,0.15656
1694110311343750,-8.882003,0.667196,4.5283,0.33179,0.12519,0.17356
1694110311351562,-8.882003,0.662196,4.5163,0.27579,0.6519,0.12856
1694110311359375,-8.882003,0.666196,4.5213,0.29879,0.9319,0.14056
1694110311367187,-8.873003,0.665196,4.5463,0.29879,0.10819,0.14056
1694110311375000,-8.882003,0.659196,4.5523,0.21979,0.10819,0.9356
1694110311382812,-8.862003,0.649196,4.5393,0.30579,0.9319,0.1644
1694110311390625,-8.858003,0.662196,4.5483,0.32179,0.6219,0.3244
1694110311398437,-8.833003,0.668196,4.5323,0.27579,0.3219,0.3144
1694110311406250,-8.835003,0.669196,4.5143,0.27179,0.4619,0.1744
1694110311414062,-8.842003,0.671196,4.5433,0.28579,0.4619,0.4556
1694110311421875,-8.833003,0.678196,4.5503,0.34679,0.13819,0.2756
1694110311429687,-8.826003,0.689196,4.5523,0.25079,0.12219,0.2044
1694110311437500,-8.824003,0.687196,4.5573,0.28079,0.17019,0.10756
1694110311445312,-8.826003,0.687196,4.5613,0.29779,0.9219,0.9156
1694110311453125,-8.830003,0.683196,4.5663,0.24479,0.16919,0.20156
1694110311460937,-8.836003,0.677196,4.5593,0.22679,0.16719,0.10356
1694110311468750,-8.845003,0.668196,4.5413,0.22679,0.15119,0.7156
1694110311476562,-8.844003,0.665196,4.5463,0.24779,0.20119,0.15556
1694110311484375,-8.847003,0.662196,4.5393,0.22479,0.16619,0.11856
1694110311492187,-8.861003,0.668196,4.5253,0.26079,0.21519,0.13756
1694110311500000,-8.868003,0.661196,4.5143,0.26379,0.21519,0.7456
1694110311507812,-8.874003,0.653196,4.5233,0.26179,0.23119,0.10556
1694110311515625,-8.877003,0.652196,4.5163,0.31579,0.18719,0.12556
1694110311523437,-8.879003,0.649196,4.5213,0.34279,0.16819,0.7356
1694110311531250,-8.880003,0.647196,4.5303,0.31979,0.21719,0.1744
1694110311539062,-8.875003,0.647196,4.5213,0.28779,0.18719,0.3156
1694110311546875,-8.870003,0.650196,4.5213,0.34779,0.18719,0.17356
1694110311554687,-8.862003,0.648196,4.5123,0.38979,0.11419,0.14556
1694110311562500,-8.857003,0.654196,4.5213,0.37779,0.18519,0.12356
1694110311570312,-8.859003,0.655196,4.5253,0.37279,0.10619,0.15256
1694110311578125,-8.861003,0.653196,4.5233,0.46679,0.16719,0.15056
1694110311585937,-8.852003,0.659196,4.5103,0.43679,0.20019,0.16856
1694110311593750,-8.845003,0.660196,4.5213,0.40179,0.19819,0.10256
1694110311601562,-8.854003,0.653196,4.5213,0.35779,0.21519,0.13756
1694110311609375,-8.852003,0.659196,4.5233,0.31179,0.23219,0.17156
1694110311617187,-8.852003,0.665196,4.5213,0.36779,0.21319,0.14956
1694110311625000,-8.859003,0.661196,4.5283,0.44179,0.21719,0.17156
1694110311632812,-8.861003,0.658196,4.5233,0.28979,0.18319,0.19956
1694110311640625,-8.861003,0.653196,4.5213,0.41879,0.19919,0.18356
1694110311648437,-8.865003,0.655196,4.5213,0.45179,0.18519,0.26456
1694110311656250,-8.864003,0.657196,4.5193,0.34379,0.20219,0.26756
1694110311664062,-8.861003,0.662196,4.5103,0.35579,0.12219,0.21656
1694110311671875,-8.858003,0.653196,4.5123,0.27179,0.21419,0.19856
1694110311679687,-8.854003,0.657196,4.5143,0.34179,0.24719,0.15356
1694110311687500,-8.854003,0.657196,4.5143,0.32279,0.26219,0.18456
1694110311695312,-8.847003,0.653196,4.5143,0.33779,0.29219,0.19956
1694110311703125,-8.847003,0.656196,4.5143,0.34779,0.22819,0.19556
1694110311710937,-8.843003,0.653196,4.5163,0.33579,0.23019,0.24656
1694110311718750,-8.845003,0.654196,4.5323,0.32679,0.23219,0.17056
1694110311726562,-8.852003,0.652196,4.5343,0.31079,0.27819,0.15456
1694110311734375,-8.859003,0.654196,4.5213,0.33179,0.31319,0.23856
1694110311742187,-8.859003,0.652196,4.5163,0.26179,0.29419,0.13856
1694110311750000,-8.875003,0.650196,4.5503,0.26179,0.27819,0.15456
1694110311757812,-8.870003,0.651196,4.5753,0.33779,0.30819,0.13556
1694110311765625,-8.867003,0.647196,4.5823,0.25779,0.23019,0.15156
1694110311773437,-8.860003,0.641196,4.5343,0.28379,0.25819,0.14756
1694110311781250,-8.865003,0.632196,4.5163,0.27879,0.29519,0.20356
1694110311789062,-8.888003,0.653196,4.5463,0.29479,0.20119,0.20256
1694110311796875,-8.888003,0.655196,4.5303,0.40579,0.21619,0.15356
1694110311804687,-8.881003,0.669196,4.4763,0.43679,0.23119,0.16856
1694110311812500,-8.865003,0.657196,4.4423,0.48679,0.21619,0.16956
1694110311820312,-8.868003,0.648196,4.4733,0.40579,0.18519,0.20156
1694110311828125,-8.868003,0.664196,4.5283,0.38979,0.16919,0.18556
1694110311835937,-8.861003,0.644196,4.5413,0.35879,0.21619,0.20256
1694110311843750,-8.860003,0.661196,4.5253,0.42979,0.24419,0.18056
1694110311851562,-8.865003,0.650196,4.4873,0.41379,0.27519,0.19656
1694110311859375,-8.870003,0.649196,4.4733,0.45079,0.21519,0.18356
1694110311867187,-8.877003,0.659196,4.4783,0.39579,0.29619,0.15756
1694110311875000,-8.881003,0.660196,4.5013,0.46879,0.30919,0.16856
1694110311882812,-8.884003,0.696196,4.4983,0.45079,0.32419,0.18356
1694110311890625,-8.883003,0.703196,4.4803,0.37979,0.35219,0.14756
1694110311898437,-8.880003,0.713196,4.4803,0.29079,0.33919,0.16856
1694110311906250,-8.882003,0.706196,4.4783,0.33979,0.29319,0.15256
1694110311914062,-8.895003,0.685196,4.4733,0.28779,0.32319,0.16656
1694110311921875,-8.888003,0.684196,4.4713,0.23079,0.29319,0.4256
1694110311929687,-8.883003,0.655196,4.4553,0.27879,0.23019,0.644
1694110311937500,-8.888003,0.656196,4.4513,0.22879,0.27619,0.744
1694110311945312,-8.885003,0.649196,4.4643,0.27579,0.24419,0.844
1694110311953125,-8.892003,0.653196,4.4493,0.27979,0.21519,0.7456
1694110311960937,-8.890003,0.656196,4.4493,0.40279,0.19719,0.656
1694110311968750,-8.886003,0.653196,4.4673,0.32779,0.21419,0.5444
1694110311976562,-8.888003,0.653196,4.4643,0.27679,0.22919,0.744
1694110311984375,-8.902003,0.653196,4.4713,0.25179,0.18519,0.344
1694110311992187,-8.898003,0.645196,4.4873,0.27179,0.18119,0.3756
1694110312000000,-8.892003,0.645196,4.4803,0.22779,0.19919,0.8856
1694110312007812,-8.910003,0.642196,4.4783,0.27779,0.18419,0.13756
1694110312015625,-8.910003,0.650196,4.4783,0.33679,0.13619,0.23056
1694110312023437,-8.917003,0.650196,4.4733,0.25779,0.12119,0.19956
1694110312031250,-8.917003,0.651196,4.4673,0.29479,0.9219,0.21856
1694110312039062,-8.903003,0.647196,4.4673,0.27579,0.16819,0.16856
1694110312046875,-8.892003,0.647196,4.4803,0.25879,0.15019,0.944
1694110312054687,-8.876003,0.652196,4.4693,0.24179,0.16619,0.944
1694110312062500,-8.880003,0.645196,4.4673,0.22579,0.5519,0.9044
1694110312070312,-8.871003,0.652196,4.4513,0.26979,0.10219,0.2056
1694110312078125,-8.887003,0.647196,4.4513,0.30879,0.8819,0.844
1694110312085937,-8.896003,0.654196,4.4623,0.28879,0.19619,0.2156
1694110312093750,-8.881003,0.653196,4.4673,0.34279,0.16719,0.3944
1694110312101562,-8.879003,0.656196,4.4643,0.33979,0.16719,0.2356
1694110312109375,-8.879003,0.667196,4.4713,0.29279,0.13519,0.844
1694110312117187,-8.883003,0.669196,4.4803,0.22879,0.21419,0.744
1694110312125000,-8.901003,0.651196,4.4713,0.33079,0.13819,0.444
1694110312132812,-8.899003,0.651196,4.4693,0.26279,0.21419,0.3844
1694110312140625,-8.906003,0.653196,4.4553,0.26479,0.19919,0.3744
1694110312148437,-8.917003,0.638196,4.4603,0.23079,0.12119,0.956
1694110312156250,-8.921003,0.631196,4.4603,0.26779,0.12319,0.344
1694110312164062,-8.918003,0.630196,4.4463,0.29079,0.11919,0.944
1694110312171875,-8.912003,0.631196,4.4643,0.27979,0.9019,0.644
1694110312179687,-8.926003,0.629196,4.4713,0.29579,0.4319,0.956
1694110312187500,-8.921003,0.631196,4.4603,0.23179,0.2719,0.956
1694110312195312,-8.921003,0.628196,4.4643,0.25879,0.2619,0.2256
1694110312203125,-8.915003,0.615196,4.4643,0.31879,0.4619,0.1356
1694110312210937,-8.903003,0.616196,4.4763,0.24779,0.4319,0.956
1694110312218750,-8.901003,0.616196,4.4853,0.29379,0.1219,0.5656
1694110312226562,-8.894003,0.623196,4.4893,0.29179,0.4981,0.18456
1694110312234375,-8.885003,0.620196,4.4893,0.26279,0.1219,0.8956
1694110312242187,-8.878003,0.625196,4.4763,0.27579,0.1119,0.8756
1694110312250000,-8.878003,0.621196,4.4783,0.22479,0.1981,0.16756
1694110312257812,-8.878003,0.624196,4.4733,0.34279,0.1319,0.15356
1694110312265625,-8.878003,0.623196,4.4713,0.33979,0.3481,0.15256
1694110312273437,-8.876003,0.618196,4.4763,0.32379,0.481,0.5556
1694110312281250,-8.869003,0.608196,4.4733,0.28079,0.4419,0.9056
1694110312289062,-8.876003,0.615196,4.4763,0.36279,0.4519,0.12356
1694110312296875,-8.879003,0.626196,4.4763,0.31279,0.2919,0.5856
1694110312304687,-8.883003,0.624196,4.4713,0.30979,0.6019,0.20156
1694110312312500,-8.885003,0.630196,4.4693,0.30579,0.15119,0.7056
1694110312320312,-8.887003,0.620196,4.4733,0.26179,0.381,0.7256
1694110312328125,-8.889003,0.623196,4.4623,0.22179,0.13419,0.8456
1694110312335937,-8.887003,0.632196,4.4463,0.25879,0.18319,0.11956
1694110312343750,-8.878003,0.617196,4.4583,0.29579,0.18519,0.12256
1694110312351562,-8.878003,0.623196,4.4623,0.25579,0.19819,0.15056
1694110312359375,-8.881003,0.621196,4.4623,0.33079,0.15519,0.10856
1694110312367187,-8.883003,0.618196,4.4493,0.42279,0.23119,0.13756
1694110312375000,-8.878003,0.622196,4.4533,0.37379,0.21519,0.13756
1694110312382812,-8.887003,0.611196,4.4603,0.47079,0.18519,0.16956
1694110312390625,-8.896003,0.612196,4.4693,0.36679,0.19819,0.19756
1694110312398437,-8.900003,0.606196,4.4823,0.37879,0.18019,0.16356
1694110312406250,-8.899003,0.598196,4.4713,0.32979,0.21119,0.19456
1694110312414062,-8.927003,0.600196,4.4693,0.43079,0.24419,0.14856
1694110312421875,-8.921003,0.598196,4.4873,0.43879,0.7619,0.20156
1694110312429687,-8.928003,0.611196,4.4963,0.34379,0.12319,0.13856
1694110312437500,-8.928003,0.622196,4.4963,0.34579,0.10719,0.12356
1694110312445312,-8.907003,0.603196,4.4673,0.30879,0.7519,0.13656
1694110312453125,-8.920003,0.590196,4.4403,0.37079,0.10519,0.16756
1694110312460937,-8.927003,0.591196,4.4733,0.21479,0.6019,0.20256
1694110312468750,-8.908003,0.611196,4.4623,0.44179,0.12419,0.20356
1694110312476562,-8.901003,0.626196,4.4083,0.48879,0.7619,0.18656
1694110312484375,-8.891003,0.603196,4.3653,0.41979,0.10619,0.18356
1694110312492187,-8.896003,0.584196,4.4083,0.52379,0.12419,0.18856
1694110312500000,-8.875003,0.587196,4.4783,0.37079,0.15219,0.18356
1694110312507812,-8.877003,0.587196,4.4913,0.38579,0.22919,0.13456
1694110312515625,-8.867003,0.618196,4.4963,0.48179,0.24519,0.16656
1694110312523437,-8.876003,0.609196,4.4603,0.48179,0.30919,0.24756
1694110312531250,-8.887003,0.612196,4.4533,0.52979,0.30819,0.19856
1694110312539062,-8.896003,0.621196,4.4673,0.56079,0.32419,0.27856
1694110312546875,-8.894003,0.633196,4.4673,0.50179,0.42019,0.31456
1694110312554687,-8.894003,0.645196,4.4763,0.51179,0.37119,0.29456
1694110312562500,-8.892003,0.655196,4.4693,0.50079,0.41919,0.23356
1694110312570312,-8.903003,0.655196,4.4583,0.57379,0.35419,0.26056
1694110312578125,-8.905003,0.658196,4.4493,0.48179,0.35519,0.21556
1694110312585937,-8.903003,0.652196,4.4423,0.46379,0.32219,0.16556
1694110312593750,-8.907003,0.641196,4.4193,0.36879,0.34019,0.26356
1694110312601562,-8.910003,0.616196,4.4213,0.38979,0.29519,0.23456
1694110312609375,-8.922003,0.604196,4.4213,0.44879,0.24519,0.19856
1694110312617187,-8.918003,0.593196,4.4103,0.33479,0.29119,0.18156
1694110312625000,-8.920003,0.574196,4.4153,0.38979,0.24719,0.20156
1694110312632812,-8.924003,0.583196,4.4353,0.33779,0.26119,0.18356
1694110312640625,-8.924003,0.591196,4.4263,0.33379,0.22819,0.14856
1694110312648437,-8.931003,0.588196,4.4353,0.32079,0.24519,0.16656
1694110312656250,-8.936003,0.586196,4.4533,0.41779,0.21419,0.16656
1694110312664062,-8.922003,0.610196,4.4423,0.43079,0.18319,0.27756
1694110312671875,-8.923003,0.614196,4.4463,0.46679,0.15319,0.27956
1694110312679687,-8.911003,0.603196,4.4443,0.41779,0.12219,0.31156
1694110312687500,-8.920003,0.606196,4.4333,0.36679,0.5819,0.29456
1694110312695312,-8.936003,0.603196,4.4283,0.35479,0.10719,0.29656
1694110312703125,-8.949003,0.611196,4.4333,0.26979,0.7419,0.27856
1694110312710937,-8.954003,0.621196,4.4403,0.43379,0.10619,0.31156
1694110312718750,-8.930003,0.609196,4.4513,0.37279,0.6119,0.29756
1694110312726562,-8.909003,0.598196,4.4423,0.27879,0.7619,0.21856
1694110312734375,-8.902003,0.592196,4.4333,0.29279,0.5919,0.16856
1694110312742187,-8.896003,0.606196,4.4403,0.37879,0.3181,0.17156
1694110312750000,-8.908003,0.618196,4.4263,0.40879,0.181,0.15456
1694110312757812,-8.925003,0.614196,4.4333,0.48579,0.7519,0.18456
1694110312765625,-8.916003,0.614196,4.4513,0.48479,0.7619,0.26456
1694110312773437,-8.901003,0.627196,4.4513,0.47079,0.3281,0.28256
1694110312781250,-8.890003,0.651196,4.4513,0.47079,0.7981,0.21756
1694110312789062,-8.885003,0.649196,4.4533,0.48479,0.3381,0.18456
1694110312796875,-8.887003,0.649196,4.4673,0.46879,0.6581,0.18456
1694110312804687,-8.879003,0.644196,4.4583,0.48779,0.2919,0.15356
1694110312812500,-8.880003,0.638196,4.4643,0.40279,0.4319,0.16756
1694110312820312,-8.887003,0.631196,4.4623,0.48679,0.1781,0.15356
1694110312828125,-8.888003,0.638196,4.4403,0.50479,0.1781,0.16956
1694110312835937,-8.895003,0.649196,4.4513,0.50579,0.7619,0.17056
1694110312843750,-8.892003,0.648196,4.4583,0.48179,0.381,0.21456
1694110312851562,-8.914003,0.654196,4.4673,0.53179,0.381,0.16756
1694110312859375,-8.912003,0.656196,4.4533,0.50479,0.1781,0.15356
1694110312867187,-8.913003,0.653196,4.4623,0.47479,0.3281,0.12256
1694110312875000,-8.904003,0.655196,4.4603,0.50679,0.1781,0.10656
1694110312882812,-8.891003,0.654196,4.4763,0.49679,0.2981,0.15856
1694110312890625,-8.886003,0.670196,4.4733,0.50779,0.1581,0.17156
1694110312898437,-8.892003,0.665196,4.4693,0.48779,0.3381,0.10556
1694110312906250,-8.890003,0.660196,4.4733,0.53679,0.1319,0.13756
1694110312914062,-8.881003,0.664196,4.4603,0.53779,0.4519,0.20256
1694110312921875,-8.881003,0.651196,4.4643,0.48879,0.3281,0.16956
1694110312929687,-8.886003,0.655196,4.4553,0.50479,0.1781,0.16956
1694110312937500,-8.883003,0.649196,4.4533,0.48279,0.1881,0.26356
1694110312945312,-8.894003,0.649196,4.4643,0.50379,0.6381,0.26656
1694110312953125,-8.897003,0.651196,4.4623,0.48579,0.6481,0.23356
1694110312960937,-8.898003,0.646196,4.4803,0.49479,0.6781,0.16456
1694110312968750,-8.903003,0.649196,4.4733,0.48479,0.3381,0.23256
1694110312976562,-8.914003,0.647196,4.4643,0.43779,0.6481,0.21756
1694110312984375,-8.910003,0.647196,4.4463,0.52179,0.6281,0.21956
1694110312992187,-8.896003,0.659196,4.4283,0.48179,0.6681,0.19856
1694110313000000,-8.903003,0.661196,4.4313,0.49979,0.3481,0.15156
1694110313007812,-8.893003,0.662196,4.4303,0.48879,0.1581,0.28256
1694110313015625,-8.892003,0.652196,4.4353,0.48379,0.3481,0.18356
1694110313023437,-8.883003,0.661196,4.4423,0.49679,0.381,0.24656
1694110313031250,-8.879003,0.662196,4.4583,0.47079,0.1781,0.18556
1694110313039062,-8.881003,0.676196,4.4643,0.46379,0.3581,0.18156
1694110313046875,-8.879003,0.671196,4.4783,0.43779,0.6481,0.21756
1694110313054687,-8.883003,0.660196,4.4823,0.40379,0.1219,0.21656
1694110313062500,-8.890003,0.658196,4.4913,0.46679,0.4981,0.24756
1694110313070312,-8.897003,0.656196,4.4943,0.40379,0.3381,0.23256
1694110313078125,-8.894003,0.653196,4.5013,0.34179,0.3381,0.16956
1694110313085937,-8.897003,0.653196,4.5303,0.40779,0.1781,0.18556
1694110313093750,-8.901003,0.647196,4.5593,0.45179,0.6681,0.15156
1694110313101562,-8.897003,0.654196,4.5433,0.41979,0.8081,0.23256
1694110313109375,-8.883003,0.649196,4.5143,0.45179,0.11281,0.21556
1694110313117187,-8.865003,0.652196,4.4713,0.35079,0.3481,0.31056
1694110313125000,-8.868003,0.655196,4.5143,0.40679,0.10981,0.29856
1694110313132812,-8.863003,0.669196,4.5073,0.37379,0.4881,0.21756
1694110313140625,-8.849003,0.672196,4.4303,0.38179,0.5081,0.29356
1694110313148437,-8.862003,0.661196,4.4263,0.49379,0.2081,0.24456
1694110313156250,-8.854003,0.678196,4.5033,0.39879,0.2719,0.31056
1694110313164062,-8.831003,0.656196,4.5703,0.28679,0.6681,0.27856
1694110313171875,-8.855003,0.648196,4.5753,0.28379,0.3781,0.17956
1694110313179687,-8.874003,0.652196,4.5213,0.30279,0.7319,0.21456
1694110313187500,-8.883003,0.647196,4.4873,0.35679,0.5919,0.20056
1694110313195312,-8.896003,0.659196,4.4713,0.33279,0.2519,0.22856
1694110313203125,-8.898003,0.670196,4.4853,0.25179,0.7219,0.21256
1694110313210937,-8.899003,0.686196,4.5013,0.25079,0.5719,0.26056
1694110313218750,-8.910003,0.683196,4.5033,0.22579,0.1219,0.26456
1694110313226562,-8.917003,0.687196,4.4853,0.24179,0.4319,0.23156
1694110313234375,-8.904003,0.680196,4.4733,0.24579,0.4881,0.18556
1694110313242187,-8.894003,0.659196,4.4603,0.22479,0.2081,0.5456
1694110313250000,-8.888003,0.653196,4.4673,0.24579,0.3481,0.4056
1694110313257812,-8.878003,0.647196,4.4513,0.21279,0.5181,0.2444
1694110313265625,-8.867003,0.651196,4.4533,0.18079,0.3681,0.4044
1694110313273437,-8.855003,0.648196,4.4643,0.22079,0.681,0.11656
1694110313281250,-8.863003,0.649196,4.4763,0.12779,0.4119,0.6956
1694110313289062,-8.855003,0.643196,4.5003,0.22079,0.3781,0.14856
1694110313296875,-8.872003,0.640196,4.5033,0.21279,0.3481,0.15256
1694110313304687,-8.880003,0.641196,4.5013,0.19279,0.1981,0.15156
1694110313312500,-8.876003,0.641196,4.5123,0.14279,0.3581,0.16656
1694110313320312,-8.884003,0.639196,4.5213,0.18679,0.5381,0.19556
1694110313328125,-8.894003,0.637196,4.5323,0.22179,0.6781,0.18156
1694110313335937,-8.901003,0.633196,4.4963,0.24779,0.6381,0.20256
1694110313343750,-8.899003,0.631196,4.5163,0.23179,0.7981,0.18656
1694110313351562,-8.911003,0.635196,4.4983,0.25179,0.7781,0.22156
1694110313359375,-8.912003,0.634196,4.4943,0.24679,0.4881,0.16956
1694110313367187,-8.921003,0.633196,4.4853,0.23279,0.9581,0.9056
1694110313375000,-8.924003,0.630196,4.4943,0.25379,0.4781,0.6156
1694110313382812,-8.899003,0.641196,4.5233,0.22779,0.5081,0.7256
1694110313390625,-8.840003,0.633196,4.5143,0.24379,0.3681,0.5744
1694110313398437,-8.811003,0.619196,4.5193,0.14979,0.5281,0.10444
1694110313406250,-8.860003,0.627196,4.5463,0.23079,0.9881,0.8744
1694110313414062,-8.896003,0.621196,4.5213,0.24379,0.2081,0.944
1694110313421875,-8.898003,0.628196,4.5163,0.22579,0.5281,0.2256
1694110313429687,-8.865003,0.648196,4.5193,0.24779,0.3481,0.644
1694110313437500,-8.840003,0.645196,4.5573,0.22279,0.14581,0.13356
1694110313445312,-8.849003,0.654196,4.5713,0.25279,0.3781,0.13256
1694110313453125,-8.856003,0.654196,4.5713,0.28979,0.2081,0.5456
1694110313460937,-8.869003,0.643196,4.5733,0.22579,0.5081,0.13556
1694110313468750,-8.867003,0.616196,4.5573,0.24279,0.5081,0.16856
1694110313476562,-8.879003,0.613196,4.5483,0.24979,0.9481,0.15556
1694110313484375,-8.862003,0.609196,4.5463,0.22779,0.9781,0.12056
1694110313492187,-8.863003,0.620196,4.5393,0.27979,0.11181,0.10656
1694110313500000,-8.858003,0.608196,4.5413,0.31479,0.4781,0.13956
1694110313507812,-8.856003,0.616196,4.5463,0.22579,0.6681,0.11956
1694110313515625,-8.856003,0.617196,4.5483,0.29679,0.11081,0.17056
1694110313523437,-8.852003,0.615196,4.5413,0.31279,0.14181,0.20356
1694110313531250,-8.854003,0.619196,4.5433,0.31079,0.18881,0.25056
1694110313539062,-8.843003,0.621196,4.5523,0.28479,0.29581,0.20556
1694110313546875,-8.841003,0.614196,4.5613,0.39679,0.13981,0.18856
1694110313554687,-8.843003,0.620196,4.5483,0.38279,0.9281,0.15756
1694110313562500,-8.847003,0.619196,4.5553,0.37579,0.14281,0.15456
1694110313570312,-8.843003,0.617196,4.5663,0.36179,0.21981,0.18756
1694110313578125,-8.842003,0.620196,4.5523,0.33979,0.12781,0.20056
1694110313585937,-8.847003,0.629196,4.5683,0.29079,0.15981,0.16756
1694110313593750,-8.845003,0.631196,4.5643,0.26179,0.18981,0.16956
1694110313601562,-8.847003,0.617196,4.5503,0.35779,0.21981,0.26556
1694110313609375,-8.835003,0.622196,4.5593,0.43579,0.19081,0.18356
1694110313617187,-8.843003,0.623196,4.5803,0.36479,0.21781,0.18956
1694110313625000,-8.850003,0.637196,4.5893,0.36179,0.23481,0.20356
1694110313632812,-8.845003,0.633196,4.5893,0.45679,0.21981,0.21856
1694110313640625,-8.825003,0.633196,4.5843,0.48679,0.25281,0.16856
1694110313648437,-8.823003,0.626196,4.5773,0.39179,0.26581,0.25056
1694110313656250,-8.809003,0.617196,4.5703,0.35479,0.25281,0.23156
1694110313664062,-8.800003,0.628196,4.5683,0.35679,0.26781,0.26456
1694110313671875,-8.797003,0.622196,4.5773,0.33879,0.20681,0.19956
1694110313679687,-8.782003,0.634196,4.5913,0.40879,0.17281,0.18656
1694110313687500,-8.792003,0.640196,4.6043,0.33179,0.17181,0.22156
1694110313695312,-8.787003,0.636196,4.6253,0.43879,0.12681,0.20156
1694110313703125,-8.789003,0.631196,4.6363,0.44179,0.7881,0.18756
1694110313710937,-8.805003,0.637196,4.6273,0.37179,0.11181,0.24856
1694110313718750,-8.813003,0.632196,4.6293,0.41279,0.6881,0.19556
1694110313726562,-8.836003,0.627196,4.6273,0.31379,0.4781,0.18756
1694110313734375,-8.838003,0.613196,4.6273,0.43679,0.8081,0.18456
1694110313742187,-8.843003,0.621196,4.6313,0.38079,0.3181,0.14056
1694110313750000,-8.859003,0.632196,4.6613,0.46079,0.3081,0.17256
1694110313757812,-8.852003,0.644196,4.6723,0.47079,0.6481,0.16956
1694110313765625,-8.847003,0.653196,4.6563,0.48579,0.11181,0.18456
1694110313773437,-8.825003,0.634196,4.6023,0.47279,0.18881,0.18656
1694110313781250,-8.817003,0.638196,4.6223,0.41479,0.17081,0.20556
1694110313789062,-8.819003,0.654196,4.6723,0.42779,0.15681,0.20456
1694110313796875,-8.780003,0.651196,4.5793,0.39179,0.3281,0.18556
1694110313804687,-8.780003,0.653196,4.5283,0.48279,0.3581,0.13456
1694110313812500,-8.783003,0.653196,4.6093,0.50479,0.3181,0.25056
1694110313820312,-8.742003,0.636196,4.7043,0.32479,0.6481,0.20156
1694110313828125,-8.728003,0.627196,4.6923,0.24079,0.2719,0.16756
1694110313835937,-8.750003,0.630196,4.6563,0.34979,0.2519,0.16456
1694110313843750,-8.771003,0.636196,4.6313,0.37179,0.381,0.18456
1694110313851562,-8.808003,0.642196,4.6433,0.39579,0.4619,0.18856
1694110313859375,-8.807003,0.656196,4.6433,0.43779,0.10819,0.31356
1694110313867187,-8.809003,0.662196,4.6453,0.43179,0.20019,0.35856
1694110313875000,-8.808003,0.672196,4.6473,0.29179,0.13819,0.28156
1694110313882812,-8.837003,0.663196,4.6433,0.26179,0.18519,0.20256
1694110313890625,-8.837003,0.661196,4.6273,0.35879,0.9219,0.23456
1694110313898437,-8.830003,0.661196,4.6183,0.30879,0.12119,0.12056
1694110313906250,-8.827003,0.641196,4.6113,0.22879,0.9019,0.8856
1694110313914062,-8.811003,0.622196,4.6293,0.24179,0.16619,0.656
1694110313921875,-8.800003,0.622196,4.6293,0.22579,0.15019,0.2256
1694110313929687,-8.786003,0.635196,4.6433,0.23579,0.19619,0.8356
1694110313937500,-8.789003,0.624196,4.6453,0.22579,0.10419,0.7056
1694110313945312,-8.786003,0.622196,4.6313,0.23979,0.4219,0.16656
1694110313953125,-8.800003,0.619196,4.6433,0.24279,0.7419,0.13556
1694110313960937,-8.822003,0.617196,4.6703,0.24179,0.7319,0.11856
1694110313968750,-8.820003,0.620196,4.6743,0.23779,0.11919,0.14856
1694110313976562,-8.832003,0.616196,4.6743,0.24779,0.24819,0.17156
1694110313984375,-8.841003,0.616196,4.6723,0.23379,0.18619,0.15656
1694110313992187,-8.849003,0.617196,4.6633,0.24679,0.18519,0.17056
1694110314000000,-8.858003,0.617196,4.6543,0.23079,0.16919,0.15456
1694110314007812,-8.872003,0.617196,4.6453,0.24979,0.15519,0.17256
1694110314015625,-8.858003,0.617196,4.6453,0.24679,0.10619,0.7356
1694110314023437,-8.856003,0.617196,4.6253,0.29379,0.5819,0.4056
1694110314031250,-8.872003,0.619196,4.6183,0.27979,0.9119,0.10656
1694110314039062,-8.872003,0.633196,4.5913,0.29479,0.2919,0.15356
1694110314046875,-8.858003,0.629196,4.6163,0.25979,0.7319,0.7156
1694110314054687,-8.815003,0.624196,4.6383,0.24079,0.5819,0.15056
1694110314062500,-8.780003,0.627196,4.6363,0.22879,0.4319,0.7256
1694110314070312,-8.837003,0.640196,4.6793,0.25279,0.2919,0.1944
1694110314078125,-8.879003,0.642196,4.6703,0.28079,0.6481,0.9056
1694110314085937,-8.877003,0.641196,4.6203,0.32879,0.9219,0.18756
1694110314093750,-8.845003,0.651196,4.6113,0.25979,0.1219,0.18456
1694110314101562,-8.814003,0.668196,4.6313,0.22679,0.4981,0.21656
1694110314109375,-8.818003,0.666196,4.6363,0.24279,0.1881,0.20056
1694110314117187,-8.823003,0.663196,4.6253,0.22879,0.281,0.15256
1694110314125000,-8.836003,0.644196,4.6203,0.24279,0.1881,0.18456
1694110314132812,-8.838003,0.644196,4.5933,0.22679,0.381,0.16756
1694110314140625,-8.832003,0.623196,4.6003,0.24779,0.1781,0.15456
1694110314148437,-8.838003,0.626196,4.6203,0.24479,0.6481,0.18556
1694110314156250,-8.845003,0.619196,4.6133,0.24779,0.11081,0.20256
1694110314164062,-8.845003,0.628196,4.6313,0.24779,0.7981,0.17056
1694110314171875,-8.825003,0.630196,4.6293,0.24879,0.20381,0.17156
1694110314179687,-8.812003,0.636196,4.6273,0.24679,0.23581,0.20256
1694110314187500,-8.812003,0.629196,4.6313,0.23679,0.21781,0.22156
1694110314195312,-8.807003,0.638196,4.6363,0.24879,0.17281,0.17156
1694110314203125,-8.805003,0.636196,4.6453,0.23179,0.28281,0.17056
1694110314210937,-8.785003,0.627196,4.6363,0.24579,0.23481,0.29856
1694110314218750,-8.807003,0.632196,4.6523,0.26479,0.26581,0.26756
1694110314226562,-8.798003,0.631196,4.6613,0.23379,0.26481,0.26856
1694110314234375,-8.778003,0.638196,4.6613,0.23279,0.25081,0.18756
1694110314242187,-8.760003,0.626196,4.6543,0.21679,0.18781,0.26856
1694110314250000,-8.760003,0.629196,4.6473,0.24579,0.18881,0.26656
1694110314257812,-8.758003,0.631196,4.6723,0.23179,0.15681,0.26756
1694110314265625,-8.776003,0.622196,4.6833,0.24879,0.18681,0.28456
1694110314273437,-8.794003,0.621196,4.6793,0.32079,0.16981,0.22356
1694110314281250,-8.801003,0.624196,4.6793,0.27179,0.18481,0.30356
1694110314289062,-8.798003,0.611196,4.6833,0.23779,0.13881,0.23856
1694110314296875,-8.807003,0.614196,4.6883,0.23379,0.23381,0.26856
1694110314304687,-8.798003,0.621196,4.6883,0.24379,0.29881,0.24856
1694110314312500,-8.798003,0.628196,4.6973,0.19579,0.26781,0.21656
1694110314320312,-8.787003,0.620196,4.7083,0.20379,0.29581,0.25356
1694110314328125,-8.785003,0.622196,4.6773,0.24879,0.20281,0.30056
1694110314335937,-8.771003,0.616196,4.6973,0.22879,0.15881,0.21756
1694110314343750,-8.782003,0.614196,4.7103,0.24679,0.25181,0.20256
1694110314351562,-8.769003,0.625196,4.7203,0.21179,0.25281,0.20056
1694110314359375,-8.751003,0.618196,4.7263,0.18179,0.23681,0.15356
1694110314367187,-8.758003,0.622196,4.7333,0.18579,0.17281,0.17256
1694110314375000,-8.769003,0.623196,4.7263,0.11679,0.18981,0.16956
1694110314382812,-8.780003,0.608196,4.7263,0.16279,0.17481,0.21656
1694110314390625,-8.777003,0.610196,4.7263,0.8079,0.20681,0.18356
1694110314398437,-8.769003,0.621196,4.7513,0.6679,0.25281,0.16856
1694110314406250,-8.778003,0.614196,4.7783,0.20079,0.20481,0.15556
1694110314414062,-8.780003,0.622196,4.7763,0.21879,0.21881,0.17256
1694110314421875,-8.758003,0.631196,4.7513,0.20179,0.26481,0.26856
1694110314429687,-8.744003,0.633196,4.7083,0.19779,0.20481,0.25056
1694110314437500,-8.745003,0.644196,4.7153,0.23079,0.23581,0.20256
1694110314445312,-8.756003,0.646196,4.7623,0.25079,0.29681,0.18856
1694110314453125,-8.726003,0.635196,4.7153,0.23179,0.26681,0.18656
1694110314460937,-8.720003,0.630196,4.6613,0.25079,0.14081,0.22056
1694110314468750,-8.727003,0.630196,4.6723,0.21479,0.6381,0.25056
1694110314476562,-8.689003,0.632196,4.7403,0.23079,0.6381,0.23456
1694110314484375,-8.697003,0.621196,4.8373,0.18279,0.9481,0.21856
1694110314492187,-8.722003,0.617196,4.7993,0.10579,0.1519,0.17256
1694110314500000,-8.760003,0.615196,4.7713,0.26379,0.7719,0.21956
1694110314507812,-8.785003,0.642196,4.7313,0.21679,0.9319,0.23656
1694110314515625,-8.776003,0.645196,4.7293,0.21179,0.7619,0.29756
1694110314523437,-8.761003,0.655196,4.7263,0.24879,0.12519,0.26856
1694110314531250,-8.749003,0.644196,4.7103,0.23079,0.6119,0.20256
1694110314539062,-8.756003,0.651196,4.7043,0.17879,0.18419,0.18456
1694110314546875,-8.779003,0.644196,4.7103,0.15479,0.9319,0.17356
1694110314554687,-8.791003,0.625196,4.7623,0.8479,0.4219,0.744
1694110314562500,-8.778003,0.615196,4.7673,0.7479,0.18419,0.8344
1694110314570312,-8.747003,0.617196,4.7263,0.10579,0.7519,0.6844
1694110314578125,-8.717003,0.606196,4.7263,0.8879,0.10619,0.444
1694110314585937,-8.716003,0.598196,4.7653,0.12779,0.10319,0.556
1694110314593750,-8.728003,0.587196,4.7833,0.14679,0.19719,0.5644
1694110314601562,-8.714003,0.584196,4.7443,0.22879,0.22919,0.3944
1694110314609375,-8.735003,0.595196,4.7473,0.24779,0.21519,0.4256
1694110314617187,-8.735003,0.579196,4.7443,0.23279,0.23219,0.7556
1694110314625000,-8.741003,0.583196,4.7333,0.23979,0.21219,0.5356
1694110314632812,-8.761003,0.579196,4.7333,0.22679,0.16719,0.10356
1694110314640625,-8.770003,0.579196,4.7403,0.24379,0.13519,0.3956
1694110314648437,-8.779003,0.565196,4.7333,0.22879,0.16719,0.744
1694110314656250,-8.794003,0.562196,4.7383,0.22579,0.13519,0.5456
1694110314664062,-8.789003,0.578196,4.7473,0.16979,0.6019,0.4356
1694110314671875,-8.787003,0.573196,4.7493,0.22279,0.2381,0.7544
1694110314679687,-8.783003,0.566196,4.7563,0.21079,0.4119,0.944
1694110314687500,-8.766003,0.570196,4.7493,0.22879,0.8819,0.7244
1694110314695312,-8.761003,0.581196,4.7423,0.24679,0.7319,0.7144
1694110314703125,-8.754003,0.579196,4.7223,0.20779,0.5619,0.5356
1694110314710937,-8.762003,0.573196,4.7403,0.23479,0.7719,0.9256
1694110314718750,-8.732003,0.567196,4.7313,0.23179,0.5819,0.644
1694110314726562,-8.649003,0.557196,4.6883,0.24179,0.4119,0.5456
1694110314734375,-8.680003,0.574196,4.7223,0.20779,0.5519,0.2744
1694110314742187,-8.737003,0.569196,4.6993,0.22979,0.12019,0.5544
1694110314750000,-8.750003,0.583196,4.7153,0.24079,0.21319,0.10256
1694110314757812,-8.719003,0.605196,4.7313,0.22379,0.13619,0.16656
1694110314765625,-8.696003,0.605196,4.7333,0.23679,0.18119,0.14856
1694110314773437,-8.723003,0.589196,4.7333,0.23979,0.19819,0.15056
1694110314781250,-8.754003,0.582196,4.7533,0.23779,0.21219,0.10056
1694110314789062,-8.752003,0.574196,4.7383,0.23979,0.22919,0.15056
1694110314796875,-8.770003,0.572196,4.7443,0.24579,0.19919,0.8956
1694110314804687,-8.768003,0.583196,4.7293,0.24279,0.15119,0.10356
1694110314812500,-8.772003,0.577196,4.7313,0.24279,0.15219,0.11956
1694110314820312,-8.782003,0.576196,4.7383,0.24679,0.13819,0.13856
1694110314828125,-8.779003,0.576196,4.7513,0.29479,0.7619,0.23456
1694110314835937,-8.786003,0.581196,4.7583,0.30979,0.6019,0.23356
1694110314843750,-8.750003,0.591196,4.7333,0.30979,0.7619,0.23356
1694110314851562,-8.750003,0.574196,4.7603,0.33979,0.15319,0.18456
1694110314859375,-8.755003,0.572196,4.7533,0.24379,0.9019,0.18456
1694110314867187,-8.740003,0.561196,4.7353,0.27179,0.8819,0.14956
1694110314875000,-8.732003,0.579196,4.7333,0.30379,0.13519,0.16556
1694110314882812,-8.734003,0.572196,4.7313,0.20579,0.5719,0.16556
1694110314890625,-8.718003,0.569196,4.7333,0.25779,0.15219,0.21556
1694110314898437,-8.727003,0.574196,4.7263,0.25579,0.12119,0.26256
1694110314906250,-8.734003,0.572196,4.7223,0.23979,0.13619,0.19856
1694110314914062,-8.736003,0.563196,4.7353,0.25979,0.7519,0.15256
1694110314921875,-8.734003,0.564196,4.7353,0.23779,0.10319,0.16456
1694110314929687,-8.738003,0.575196,4.7493,0.26879,0.19719,0.14856
1694110314937500,-8.734003,0.571196,4.7293,0.22879,0.15319,0.18556
1694110314945312,-8.739003,0.571196,4.7153,0.26279,0.18519,0.17056
1694110314953125,-8.746003,0.565196,4.7203,0.29279,0.18419,0.16956
1694110314960937,-8.737003,0.560196,4.6953,0.23179,0.10819,0.20356
1694110314968750,-8.727003,0.558196,4.7293,0.24079,0.15219,0.21556
1694110314976562,-8.725003,0.556196,4.7293,0.22779,0.21419,0.12056
1694110314984375,-8.725003,0.556196,4.7223,0.27379,0.19919,0.15156
1694110314992187,-8.741003,0.569196,4.7333,0.30579,0.23019,0.15156
1694110315000000,-8.741003,0.578196,4.7263,0.26179,0.21619,0.17056
1694110315007812,-8.752003,0.576196,4.7263,0.27679,0.20019,0.20156
1694110315015625,-8.759003,0.569196,4.7263,0.32479,0.23119,0.18556
1694110315023437,-8.798003,0.560196,4.7423,0.31679,0.21919,0.22256
1694110315031250,-8.811003,0.554196,4.7403,0.26379,0.18619,0.20356
1694110315039062,-8.824003,0.554196,4.7353,0.29579,0.20119,0.20356
1694110315046875,-8.824003,0.545196,4.7243,0.34479,0.17019,0.15556
1694110315054687,-8.808003,0.554196,4.7443,0.29479,0.7519,0.5756
1694110315062500,-8.808003,0.546196,4.7673,0.29279,0.10519,0.8856
1694110315070312,-8.831003,0.543196,4.7673,0.28179,0.4519,0.13956
1694110315078125,-8.815003,0.552196,4.7223,0.29879,0.4619,0.17256
1694110315085937,-8.782003,0.551196,4.6923,0.28279,0.4619,0.17256
1694110315093750,-8.761003,0.565196,4.7153,0.31079,0.4881,0.13756
1694110315101562,-8.743003,0.583196,4.7673,0.32379,0.1119,0.10356
1694110315109375,-8.734003,0.580196,4.7403,0.29179,0.4219,0.8756
1694110315117187,-8.717003,0.581196,4.6613,0.25179,0.9319,0.12556
1694110315125000,-8.694003,0.568196,4.6383,0.31279,0.10819,0.18756
1694110315132812,-8.681003,0.578196,4.6953,0.23379,0.23219,0.12456
1694110315140625,-8.686003,0.574196,4.7763,0.24879,0.20219,0.18856
1694110315148437,-8.706003,0.577196,4.7783,0.24479,0.21519,0.13756
1694110315156250,-8.717003,0.559196,4.7193,0.40679,0.23219,0.25056
1694110315164062,-8.748003,0.569196,4.7473,0.29479,0.21719,0.26756
1694110315171875,-8.751003,0.572196,4.7203,0.26579,0.25019,0.30156
1694110315179687,-8.735003,0.568196,4.6993,0.42479,0.45319,0.36556
1694110315187500,-8.773003,0.569196,4.6813,0.35779,0.43619,0.28356
1694110315195312,-8.797003,0.567196,4.6773,0.32479,0.43519,0.23456
1694110315203125,-8.821003,0.564196,4.6793,0.30479,0.33919,0.23156
1694110315210937,-8.835003,0.557196,4.6973,0.29079,0.30819,0.20056
1694110315218750,-8.819003,0.548196,4.7153,0.22779,0.21519,0.18556
1694110315226562,-8.799003,0.536196,4.6993,0.25079,0.17119,0.18956
1694110315234375,-8.776003,0.541196,4.6833,0.22579,0.26219,0.20056
1694110315242187,-8.745003,0.547196,4.6923,0.24579,0.23219,0.20256
1694110315250000,-8.741003,0.545196,4.6723,0.22679,0.24619,0.16856
1694110315257812,-8.750003,0.548196,4.6683,0.23279,0.26419,0.15656
1694110315265625,-8.739003,0.558196,4.6613,0.24279,0.26219,0.18456
1694110315273437,-8.736003,0.556196,4.6593,0.22779,0.30919,0.20156
1694110315281250,-8.741003,0.557196,4.6683,0.24779,0.29519,0.22056
1694110315289062,-8.764003,0.551196,4.6563,0.23079,0.32619,0.20356
1694110315296875,-8.757003,0.544196,4.6433,0.27879,0.31019,0.18756
1694110315304687,-8.777003,0.547196,4.6613,0.27879,0.34119,0.18756
1694110315312500,-8.786003,0.533196,4.6653,0.23579,0.26519,0.20656
1694110315320312,-8.788003,0.536196,4.6723,0.24579,0.27819,0.15456
1694110315328125,-8.801003,0.539196,4.6973,0.22779,0.24719,0.23356
1694110315335937,-8.799003,0.541196,4.6953,0.30779,0.23219,0.23356
1694110315343750,-8.808003,0.550196,4.7013,0.30679,0.21519,0.20056
1694110315351562,-8.828003,0.564196,4.6813,0.27279,0.21519,0.23156
1694110315359375,-8.829003,0.563196,4.6903,0.29579,0.23419,0.30056
1694110315367187,-8.833003,0.560196,4.6863,0.29179,0.16819,0.20056
1694110315375000,-8.833003,0.562196,4.6973,0.33879,0.20019,0.24856
1694110315382812,-8.763003,0.545196,4.6653,0.27379,0.13819,0.29656
1694110315390625,-8.729003,0.539196,4.7013,0.20679,0.8819,0.19756
1694110315398437,-8.783003,0.549196,4.7153,0.20579,0.8919,0.24556
1694110315406250,-8.812003,0.547196,4.6883,0.29879,0.13519,0.30856
1694110315414062,-8.795003,0.568196,4.7403,0.25579,0.16919,0.32756
1694110315421875,-8.755003,0.571196,4.7313,0.22879,0.17219,0.41156
1694110315429687,-8.762003,0.582196,4.7383,0.22979,0.24919,0.31556
1694110315437500,-8.795003,0.581196,4.7243,0.24379,0.24819,0.33056
1694110315445312,-8.789003,0.578196,4.7203,0.27879,0.17119,0.31556
1694110315453125,-8.780003,0.580196,4.6993,0.27879,0.20219,0.28356
1694110315460937,-8.774003,0.577196,4.7083,0.25179,0.27719,0.35756
1694110315468750,-8.779003,0.574196,4.7153,0.24279,0.23219,0.32956
1694110315476562,-8.760003,0.580196,4.6973,0.26279,0.20219,0.29956
1694110315484375,-8.770003,0.577196,4.7043,0.23779,0.26119,0.27856
1694110315492187,-8.771003,0.577196,4.6923,0.26479,0.28119,0.31756
1694110315500000,-8.770003,0.574196,4.6903,0.38579,0.20119,0.36056
1694110315507812,-8.766003,0.575196,4.6953,0.32779,0.23419,0.34856
1694110315515625,-8.775003,0.582196,4.7153,0.21479,0.21819,0.34856
1694110315523437,-8.789003,0.580196,4.6863,0.28179,0.15719,0.33356
1694110315531250,-8.768003,0.578196,4.6793,0.34079,0.24819,0.33056
1694110315539062,-8.787003,0.580196,4.6883,0.28079,0.21919,0.36556
1694110315546875,-8.791003,0.583196,4.6993,0.32479,0.26419,0.33056
1694110315554687,-8.798003,0.585196,4.6723,0.26179,0.28019,0.34756
1694110315562500,-8.800003,0.582196,4.6813,0.39379,0.23519,0.36556
1694110315570312,-8.820003,0.571196,4.6863,0.29979,0.23519,0.28656
1694110315578125,-8.820003,0.577196,4.6903,0.24279,0.17019,0.32956
1694110315585937,-8.842003,0.579196,4.6923,0.29479,0.20219,0.29956
1694110315593750,-8.829003,0.574196,4.6973,0.23079,0.13919,0.25156
1694110315601562,-8.833003,0.578196,4.7203,0.24079,0.9019,0.26356
1694110315609375,-8.829003,0.568196,4.7043,0.23079,0.6119,0.21856
1694110315617187,-8.822003,0.564196,4.6683,0.24479,0.7519,0.20156
1694110315625000,-8.815003,0.565196,4.6863,0.26379,0.6219,0.25156
1694110315632812,-8.815003,0.579196,4.6903,0.22979,0.3019,0.25056
1694110315640625,-8.813003,0.561196,4.6723,0.24479,0.7619,0.26556
1694110315648437,-8.820003,0.572196,4.6653,0.24979,0.1681,0.15556
1694110315656250,-8.815003,0.566196,4.6703,0.27779,0.181,0.23356
1694110315664062,-8.798003,0.580196,4.6883,0.29679,0.6119,0.21956
1694110315671875,-8.786003,0.580196,4.6973,0.23079,0.4519,0.18656
1694110315679687,-8.775003,0.583196,4.6973,0.24379,0.5919,0.18456
1694110315687500,-8.784003,0.569196,4.6903,0.23479,0.1619,0.25356
1694110315695312,-8.784003,0.580196,4.6973,0.24879,0.7719,0.18756
1694110315703125,-8.784003,0.572196,4.6883,0.22779,0.5919,0.16856
1694110315710937,-8.786003,0.579196,4.6703,0.24479,0.4519,0.24956
1694110315718750,-8.770003,0.578196,4.6903,0.22979,0.1781,0.16956
1694110315726562,-8.762003,0.571196,4.7153,0.24879,0.1419,0.20356
1694110315734375,-8.770003,0.574196,4.7223,0.22779,0.4419,0.20056
1694110315742187,-8.771003,0.579196,4.6973,0.25479,0.1381,0.20756
1694110315750000,-8.757003,0.596196,4.6543,0.25679,0.5919,0.27956
1694110315757812,-8.751003,0.598196,4.6403,0.24679,0.1681,0.23456
1694110315765625,-8.737003,0.613196,4.6793,0.27679,0.4519,0.24956
1694110315773437,-8.728003,0.613196,4.6383,0.22679,0.6019,0.28056
1694110315781250,-8.717003,0.610196,4.6113,0.27779,0.9219,0.28256
1694110315789062,-8.723003,0.609196,4.5753,0.36879,0.16919,0.32756
1694110315796875,-8.692003,0.602196,4.5303,0.29079,0.18419,0.28056
1694110315804687,-8.685003,0.619196,4.6223,0.21579,0.21219,0.32356
1694110315812500,-8.710003,0.616196,4.6633,0.33379,0.24519,0.24556
1694110315820312,-8.730003,0.618196,4.6043,0.46579,0.30919,0.27956
1694110315828125,-8.738003,0.615196,4.5433,0.51979,0.23419,0.36356
1694110315835937,-8.739003,0.618196,4.5163,0.43479,0.26319,0.34456
1694110315843750,-8.713003,0.611196,4.5053,0.48379,0.28019,0.42556
1694110315851562,-8.717003,0.606196,4.5033,0.49979,0.21819,0.40956
1694110315859375,-8.737003,0.620196,4.4963,0.48179,0.26319,0.39256
1694110315867187,-8.773003,0.590196,4.5033,0.51479,0.20119,0.37656
1694110315875000,-8.786003,0.581196,4.5143,0.54779,0.18519,0.34456
1694110315882812,-8.792003,0.552196,4.5163,0.53279,0.9219,0.32856
1694110315890625,-8.792003,0.526196,4.5143,0.59579,0.2919,0.36056
1694110315898437,-8.796003,0.514196,4.5433,0.64679,0.4681,0.42656
1694110315906250,-8.805003,0.515196,4.5463,0.70879,0.1419,0.39256
1694110315914062,-8.788003,0.532196,4.5433,0.73079,0.1719,0.41256
1694110315921875,-8.801003,0.565196,4.5823,0.69579,0.3081,0.42656
1694110315929687,-8.806003,0.596196,4.5553,0.67179,0.3381,0.40556
1694110315937500,-8.806003,0.615196,4.5753,0.73879,0.181,0.42356
1694110315945312,-8.832003,0.617196,4.6253,0.66579,0.481,0.45056
1694110315953125,-8.850003,0.603196,4.6473,0.60279,0.5819,0.43556
1694110315960937,-8.882003,0.601196,4.6773,0.65279,0.7419,0.42056
1694110315968750,-8.927003,0.610196,4.7203,0.59379,0.9219,0.44056
1694110315976562,-8.939003,0.619196,4.7293,0.59279,0.6019,0.42356
1694110315984375,-8.937003,0.639196,4.7173,0.57879,0.10719,0.37656
1694110315992187,-8.923003,0.657196,4.6973,0.49779,0.4419,0.31156
1694110316000000,-8.906003,0.667196,4.7113,0.48379,0.1319,0.26456
1694110316007812,-8.896003,0.681196,4.7313,0.49479,0.2081,0.21256
1694110316015625,-8.888003,0.672196,4.7313,0.46679,0.1881,0.24756
1694110316023437,-8.879003,0.663196,4.7513,0.44979,0.6681,0.18256
1694110316031250,-8.884003,0.655196,4.7563,0.35879,0.7981,0.26656
1694110316039062,-8.852003,0.661196,4.7403,0.39279,0.6381,0.21856
1694110316046875,-8.794003,0.667196,4.7103,0.32979,0.3181,0.20356
1694110316054687,-8.736003,0.664196,4.6493,0.31179,0.1419,0.20256
1694110316062500,-8.794003,0.668196,4.6613,0.27579,0.9681,0.20056
1694110316070312,-8.800003,0.666196,4.6293,0.28679,0.4119,0.13356
1694110316078125,-8.809003,0.657196,4.6453,0.33479,0.8919,0.23056
1694110316085937,-8.807003,0.653196,4.6473,0.27279,0.16719,0.15056
1694110316093750,-8.796003,0.646196,4.6793,0.30379,0.21419,0.19856
1694110316101562,-8.824003,0.651196,4.6613,0.36579,0.7319,0.22956
1694110316109375,-8.821003,0.645196,4.6473,0.45479,0.6119,0.26556
1694110316117187,-8.825003,0.641196,4.6413,0.30779,0.2919,0.24856
1694110316125000,-8.822003,0.627196,4.6703,0.41579,0.1981,0.27856
1694110316132812,-8.816003,0.612196,4.6593,0.52179,0.181,0.17056
1694110316140625,-8.820003,0.608196,4.6653,0.42379,0.4781,0.28256
1694110316148437,-8.802003,0.602196,4.6503,0.49879,0.11181,0.27956
1694110316156250,-8.797003,0.597196,4.6433,0.58179,0.9481,0.32956
1694110316164062,-8.773003,0.605196,4.6383,0.51879,0.15581,0.37856
1694110316171875,-8.775003,0.608196,4.6363,0.51579,0.12681,0.34456
1694110316179687,-8.775003,0.618196,4.6433,0.56579,0.10981,0.37756
1694110316187500,-8.775003,0.630196,4.6523,0.51279,0.15781,0.47156
1694110316195312,-8.789003,0.619196,4.6613,0.54879,0.7881,0.42556
1694110316203125,-8.788003,0.617196,4.6593,0.56179,0.3281,0.40756
1694110316210937,-8.788003,0.625196,4.6773,0.53779,0.9881,0.41856
1694110316218750,-8.789003,0.642196,4.6883,0.55979,0.6481,0.47056
1694110316226562,-8.791003,0.647196,4.7153,0.53179,0.1681,0.42556
1694110316234375,-8.798003,0.641196,4.7223,0.58079,0.12481,0.44156
1694110316242187,-8.795003,0.654196,4.6953,0.60279,0.8181,0.46756
1694110316250000,-8.782003,0.655196,4.7043,0.60879,0.11181,0.43856
1694110316257812,-8.805003,0.648196,4.7383,0.57779,0.11081,0.43956
1694110316265625,-8.818003,0.646196,4.7723,0.54379,0.9581,0.42256
1694110316273437,-8.812003,0.639196,4.7673,0.54979,0.18781,0.40956
1694110316281250,-8.821003,0.643196,4.7903,0.56479,0.9381,0.40956
1694110316289062,-8.809003,0.650196,4.7923,0.50079,0.17181,0.45756
1694110316296875,-8.787003,0.655196,4.7653,0.55779,0.9681,0.45356
1694110316304687,-8.758003,0.652196,4.7423,0.57979,0.9481,0.40856
1694110316312500,-8.762003,0.650196,4.7743,0.49379,0.4981,0.40556
1694110316320312,-8.757003,0.655196,4.7963,0.49379,0.9681,0.45356
1694110316328125,-8.755003,0.652196,4.7963,0.48079,0.3281,0.43956
1694110316335937,-8.753003,0.650196,4.7763,0.49579,0.6481,0.37456
1694110316343750,-8.754003,0.672196,4.7853,0.54579,0.4881,0.35956
1694110316351562,-8.755003,0.681196,4.7923,0.55679,0.5081,0.42056
1694110316359375,-8.752003,0.680196,4.7803,0.53179,0.7719,0.44156
1694110316367187,-8.741003,0.686196,4.7313,0.48879,0.6319,0.36356
1694110316375000,-8.758003,0.685196,4.7583,0.49479,0.7519,0.40656
1694110316382812,-8.788003,0.692196,4.7603,0.49879,0.6019,0.34456
1694110316390625,-8.783003,0.721196,4.7533,0.53179,0.1781,0.36056
1694110316398437,-8.792003,0.706196,4.7743,0.51379,0.3381,0.39156
1694110316406250,-8.799003,0.709196,4.7963,0.56779,0.14081,0.37856
1694110316414062,-8.777003,0.714196,4.7943,0.58179,0.14081,0.42556
1694110316421875,-8.750003,0.713196,4.8013,0.53379,0.18781,0.40956
1694110316429687,-8.772003,0.716196,4.7653,0.52979,0.11081,0.40756
1694110316437500,-8.812003,0.725196,4.7903,0.55579,0.15981,0.43556
1694110316445312,-8.833003,0.739196,4.8033,0.52979,0.17281,0.45556
1694110316453125,-8.844003,0.746196,4.7853,0.61379,0.24981,0.45756
1694110316460937,-8.871003,0.736196,4.7603,0.67479,0.21881,0.50356
1694110316468750,-8.860003,0.742196,4.7043,0.73779,0.26681,0.50256
1694110316476562,-8.849003,0.734196,4.7223,0.71279,0.34181,0.52256
1694110316484375,-8.858003,0.739196,4.7763,0.53279,0.48381,0.48856
1694110316492187,-8.882003,0.745196,4.7993,0.51079,0.50181,0.50056
1694110316500000,-8.901003,0.760196,4.7673,0.64979,0.65281,0.52256
1694110316507812,-8.915003,0.777196,4.7313,0.71779,0.79181,0.58956
1694110316515625,-8.885003,0.784196,4.7493,0.57979,0.88781,0.69656
1694110316523437,-8.809003,0.783196,4.7563,0.48679,0.93281,0.68256
1694110316531250,-8.760003,0.767196,4.7443,0.48679,0.104381,0.61756
1694110316539062,-8.694003,0.751196,4.7083,0.36979,0.107681,0.58256
1694110316546875,-8.670003,0.757196,4.7603,0.35479,0.96781,0.50356
1694110316554687,-8.627003,0.735196,4.7623,0.33679,0.98381,0.51856
1694110316562500,-8.586003,0.721196,4.7583,0.46279,0.92381,0.41956
1694110316570312,-8.588003,0.701196,4.7923,0.41879,0.90681,0.42256
1694110316578125,-8.570003,0.698196,4.7893,0.43579,0.76581,0.37556
1694110316585937,-8.560003,0.704196,4.8303,0.42479,0.71781,0.37756
1694110316593750,-8.559003,0.685196,4.8593,0.48179,0.68881,0.40656
1694110316601562,-8.533003,0.728196,4.8533,0.45379,0.62581,0.31156
1694110316609375,-8.522003,0.749196,4.8753,0.29579,0.53081,0.34656
1694110316617187,-8.560003,0.767196,4.8753,0.31579,0.30081,0.33956
1694110316625000,-8.571003,0.789196,4.8983,0.25379,0.29981,0.35756
1694110316632812,-8.598003,0.792196,4.9113,0.26979,0.26881,0.37356
1694110316640625,-8.616003,0.772196,4.9143,0.25279,0.25381,0.32456
1694110316648437,-8.643003,0.769196,4.9113,0.22779,0.14281,0.28156
1694110316656250,-8.657003,0.767196,4.9113,0.24679,0.21981,0.23456
1694110316664062,-8.657003,0.769196,4.9143,0.22879,0.15881,0.18556
1694110316671875,-8.652003,0.756196,4.9233,0.19779,0.12681,0.20256
1694110316679687,-8.659003,0.763196,4.9053,0.17679,0.8181,0.16756
1694110316687500,-8.666003,0.765196,4.9003,0.23079,0.4881,0.15356
1694110316695312,-8.679003,0.752196,4.8823,0.24479,0.6581,0.16956
1694110316703125,-8.684003,0.754196,4.8803,0.24779,0.9481,0.21856
1694110316710937,-8.683003,0.753196,4.8733,0.19379,0.15981,0.19956
1694110316718750,-8.672003,0.754196,4.8893,0.17979,0.14281,0.21756
1694110316726562,-8.607003,0.745196,4.8843,0.11279,0.9781,0.16756
1694110316734375,-8.544003,0.739196,4.8323,0.9879,0.6681,0.8856
1694110316742187,-8.588003,0.741196,4.8463,0.12379,0.1781,0.3544
1694110316750000,-8.614003,0.742196,4.8393,0.21579,0.3481,0.956
1694110316757812,-8.645003,0.745196,4.8593,0.27479,0.4119,0.3856
1694110316765625,-8.668003,0.735196,4.8733,0.23579,0.4619,0.15756
1694110316773437,-8.643003,0.733196,4.9023,0.24679,0.2819,0.7356
1694110316781250,-8.649003,0.739196,4.9183,0.22479,0.10419,0.10256
1694110316789062,-8.659003,0.763196,4.9363,0.24379,0.7519,0.18456
1694110316796875,-8.657003,0.785196,4.9293,0.22979,0.7519,0.15356
1694110316804687,-8.661003,0.788196,4.9413,0.23779,0.5719,0.16556
1694110316812500,-8.652003,0.772196,4.9453,0.22479,0.4219,0.15056
1694110316820312,-8.652003,0.775196,4.9363,0.18879,0.7219,0.18156
1694110316828125,-8.656003,0.771196,4.9363,0.12079,0.7119,0.19556
1694110316835937,-8.661003,0.770196,4.9523,0.22079,0.10419,0.21356
1694110316843750,-8.672003,0.765196,4.9503,0.24279,0.16819,0.16856
1694110316851562,-8.668003,0.757196,4.9613,0.14579,0.7419,0.15156
1694110316859375,-8.655003,0.762196,4.9503,0.23179,0.13919,0.21956
1694110316867187,-8.654003,0.767196,4.9483,0.20979,0.13619,0.18356
1694110316875000,-8.647003,0.755196,4.9503,0.22079,0.15019,0.21256
1694110316882812,-8.643003,0.758196,4.9573,0.24179,0.10619,0.23156
1694110316890625,-8.639003,0.746196,4.9483,0.22979,0.12319,0.26656
1694110316898437,-8.623003,0.750196,4.9343,0.24779,0.17019,0.20356
1694110316906250,-8.625003,0.751196,4.9203,0.23979,0.19919,0.29556
1694110316914062,-8.629003,0.741196,4.9163,0.22079,0.18319,0.29356
1694110316921875,-8.636003,0.727196,4.9163,0.23979,0.20019,0.31156
1694110316929687,-8.638003,0.721196,4.9273,0.22179,0.23019,0.29456
1694110316937500,-8.660003,0.724196,4.9363,0.23679,0.22819,0.14856
1694110316945312,-8.667003,0.722196,4.9323,0.22179,0.21319,0.21356
1694110316953125,-8.678003,0.724196,4.9233,0.26979,0.24519,0.22956
1694110316960937,-8.701003,0.722196,4.9093,0.27179,0.22919,0.21456
1694110316968750,-8.701003,0.722196,4.9113,0.22279,0.21419,0.23056
1694110316976562,-8.696003,0.725196,4.9023,0.23479,0.21219,0.21156
1694110316984375,-8.699003,0.724196,4.8873,0.24079,0.16819,0.21556
1694110316992187,-8.698003,0.724196,4.8893,0.22379,0.19819,0.16656
1694110317000000,-8.687003,0.722196,4.8823,0.27279,0.18219,0.15056
1694110317007812,-8.685003,0.728196,4.8823,0.27379,0.15219,0.16756
1694110317015625,-8.672003,0.725196,4.8663,0.40479,0.21519,0.13656
1694110317023437,-8.644003,0.728196,4.8663,0.43079,0.21219,0.10056
1694110317031250,-8.645003,0.734196,4.8663,0.37279,0.23019,0.13656
1694110317039062,-8.649003,0.725196,4.8823,0.40379,0.21419,0.7156
1694110317046875,-8.650003,0.722196,4.8933,0.42479,0.24719,0.9056
1694110317054687,-8.660003,0.719196,4.9003,0.41879,0.22719,0.5844
1694110317062500,-8.672003,0.712196,4.9073,0.50079,0.18319,0.8756
1694110317070312,-8.662003,0.699196,4.9003,0.50079,0.19919,0.10356
1694110317078125,-8.678003,0.692196,4.9303,0.48679,0.7519,0.13656
1694110317085937,-8.672003,0.676196,4.9503,0.50779,0.0,0.13956
1694110317093750,-8.658003,0.684196,4.9843,0.51679,0.381,0.10356
1694110317101562,-8.658003,0.674196,4.9433,0.52179,0.6119,0.20256
1694110317109375,-8.685003,0.670196,4.9303,0.58479,0.2919,0.18556
1694110317117187,-8.694003,0.695196,4.9323,0.53179,0.1119,0.15156
1694110317125000,-8.685003,0.713196,4.9113,0.69279,0.1881,0.19956
1694110317132812,-8.680003,0.719196,4.9113,0.70979,0.3481,0.16756
1694110317140625,-8.656003,0.712196,4.9003,0.63379,0.181,0.13756
1694110317148437,-8.640003,0.696196,4.8983,0.64779,0.10519,0.844
1694110317156250,-8.613003,0.680196,4.8463,0.64879,0.10519,0.856
1694110317164062,-8.622003,0.689196,4.8783,0.53579,0.4219,0.5644
1694110317171875,-8.649003,0.696196,4.9053,0.74479,0.10519,0.756
1694110317179687,-8.671003,0.699196,4.8733,0.81079,0.16819,0.744
1694110317187500,-8.685003,0.720196,4.8663,0.80379,0.18319,0.14956
1694110317195312,-8.685003,0.728196,4.8733,0.79079,0.20019,0.18356
1694110317203125,-8.666003,0.749196,4.8783,0.74479,0.26319,0.15356
1694110317210937,-8.661003,0.759196,4.8713,0.75479,0.29119,0.13356
1694110317218750,-8.645003,0.765196,4.8503,0.72579,0.29119,0.656
1694110317226562,-8.652003,0.752196,4.8373,0.63179,0.30819,0.744
1694110317234375,-8.665003,0.748196,4.8303,0.62979,0.25919,0.10544
1694110317242187,-8.667003,0.725196,4.8053,0.55379,0.29219,0.11844
1694110317250000,-8.665003,0.721196,4.8123,0.55079,0.30619,0.13644
1694110317257812,-8.665003,0.717196,4.8123,0.54979,0.39819,0.20144
1694110317265625,-8.654003,0.718196,4.8303,0.60179,0.36919,0.18344
1694110317273437,-8.663003,0.734196,4.8393,0.55279,0.41519,0.16744
1694110317281250,-8.672003,0.733196,4.8263,0.53379,0.39819,0.20144
1694110317289062,-8.679003,0.743196,4.8413,0.48679,0.39919,0.20044
1694110317296875,-8.681003,0.746196,4.8463,0.48279,0.42919,0.17044
1694110317304687,-8.681003,0.750196,4.8443,0.45579,0.44619,0.18344
1694110317312500,-8.683003,0.753196,4.8413,0.46379,0.44319,0.20444
1694110317320312,-8.683003,0.750196,4.8443,0.50079,0.47619,0.18544
1694110317328125,-8.701003,0.739196,4.8413,0.38979,0.47719,0.20044
1694110317335937,-8.708003,0.752196,4.8353,0.44079,0.46219,0.18244
1694110317343750,-8.716003,0.747196,4.8443,0.43479,0.44419,0.18644
1694110317351562,-8.719003,0.724196,4.8413,0.34279,0.47719,0.19944
1694110317359375,-8.736003,0.729196,4.8213,0.38879,0.38219,0.20144
1694110317367187,-8.745003,0.723196,4.8013,0.35279,0.35019,0.20344
1694110317375000,-8.752003,0.723196,4.7923,0.35679,0.27319,0.20144
1694110317382812,-8.757003,0.726196,4.7963,0.32979,0.21319,0.19844
1694110317390625,-8.743003,0.715196,4.8193,0.27979,0.22819,0.18344
1694110317398437,-8.732003,0.713196,4.8663,0.22979,0.21219,0.18444
1694110317406250,-8.680003,0.692196,4.8503,0.21479,0.22819,0.19944
1694110317414062,-8.664003,0.685196,4.7963,0.21479,0.21219,0.18344
1694110317421875,-8.673003,0.693196,4.7853,0.29279,0.22719,0.20144
1694110317429687,-8.692003,0.676196,4.7783,0.36479,0.21419,0.18044
1694110317437500,-8.703003,0.672196,4.7893,0.26979,0.26219,0.17944
1694110317445312,-8.703003,0.663196,4.8053,0.33479,0.34019,0.13044
1694110317453125,-8.709003,0.682196,4.8233,0.32479,0.22919,0.2444
1694110317460937,-8.720003,0.682196,4.8393,0.32579,0.21219,0.10444
1694110317468750,-8.718003,0.686196,4.8443,0.42379,0.18219,0.8744
1694110317476562,-8.727003,0.682196,4.8263,0.37279,0.18119,0.10544
1694110317484375,-8.734003,0.669196,4.8283,0.37479,0.15119,0.5544
1694110317492187,-8.725003,0.659196,4.8123,0.38079,0.19919,0.11644
1694110317500000,-8.713003,0.655196,4.8083,0.26379,0.19819,0.5444
1694110317507812,-8.713003,0.650196,4.8053,0.23179,0.16719,0.8644
1694110317515625,-8.700003,0.653196,4.7993,0.24279,0.19619,0.10544
1694110317523437,-8.709003,0.650196,4.7963,0.27979,0.19819,0.8644
1694110317531250,-8.700003,0.644196,4.8083,0.21179,0.10419,0.4044
1694110317539062,-8.702003,0.648196,4.8083,0.27779,0.21319,0.2344
1694110317546875,-8.707003,0.637196,4.8143,0.26379,0.23119,0.2656
1694110317554687,-8.702003,0.631196,4.8213,0.27579,0.15119,0.756
1694110317562500,-8.683003,0.620196,4.8263,0.37279,0.16619,0.2444
1694110317570312,-8.675003,0.612196,4.8263,0.24579,0.16819,0.7356
1694110317578125,-8.661003,0.600196,4.8283,0.23979,0.16719,0.16656
1694110317585937,-8.665003,0.589196,4.8393,0.22479,0.18219,0.11856
1694110317593750,-8.676003,0.586196,4.8443,0.24079,0.23019,0.16756
1694110317601562,-8.704003,0.595196,4.8463,0.27779,0.21619,0.18656
1694110317609375,-8.712003,0.614196,4.8303,0.35179,0.21419,0.27856
1694110317617187,-8.722003,0.621196,4.8173,0.40779,0.23319,0.29956
1694110317625000,-8.724003,0.651196,4.8053,0.40379,0.21619,0.26456
1694110317632812,-8.731003,0.658196,4.7943,0.41879,0.20119,0.34456
1694110317640625,-8.720003,0.673196,4.7923,0.38579,0.15319,0.24756
1694110317648437,-8.727003,0.689196,4.7903,0.26879,0.16719,0.30956
1694110317656250,-8.707003,0.706196,4.7873,0.38479,0.15319,0.32756
1694110317664062,-8.707003,0.716196,4.7873,0.34879,0.12019,0.32556
1694110317671875,-8.709003,0.720196,4.7893,0.28579,0.7419,0.31056
1694110317679687,-8.700003,0.733196,4.7963,0.33179,0.22919,0.29256
1694110317687500,-8.705003,0.744196,4.7853,0.43279,0.16819,0.29456
1694110317695312,-8.701003,0.749196,4.8013,0.30179,0.21419,0.24556
1694110317703125,-8.697003,0.750196,4.7993,0.40579,0.18519,0.23356
1694110317710937,-8.697003,0.757196,4.7893,0.30579,0.18319,0.21556
1694110317718750,-8.699003,0.758196,4.8053,0.33479,0.22919,0.21356
1694110317726562,-8.698003,0.754196,4.7943,0.26779,0.21219,0.16356
1694110317734375,-8.701003,0.764196,4.8083,0.33379,0.21219,0.16456
1694110317742187,-8.703003,0.769196,4.8083,0.30279,0.22819,0.14956
1694110317750000,-8.715003,0.758196,4.7963,0.35279,0.18319,0.16656
1694110317757812,-8.707003,0.756196,4.7963,0.33179,0.24319,0.14756
1694110317765625,-8.714003,0.736196,4.8123,0.29779,0.22719,0.17856
1694110317773437,-8.736003,0.725196,4.8463,0.31879,0.21319,0.19756
1694110317781250,-8.752003,0.725196,4.8823,0.27379,0.10619,0.21556
1694110317789062,-8.728003,0.697196,4.8483,0.40679,0.21719,0.25056
1694110317796875,-8.723003,0.686196,4.8013,0.38879,0.9219,0.31356
1694110317804687,-8.732003,0.688196,4.8323,0.30779,0.15419,0.32956
1694110317812500,-8.716003,0.697196,4.8443,0.40279,0.7619,0.34456
1694110317820312,-8.717003,0.706196,4.8233,0.50279,0.7819,0.42656
1694110317828125,-8.720003,0.673196,4.8083,0.47979,0.10719,0.45556
1694110317835937,-8.707003,0.683196,4.7963,0.43679,0.15619,0.47456
1694110317843750,-8.696003,0.677196,4.7693,0.49779,0.18619,0.45656
1694110317851562,-8.702003,0.678196,4.8083,0.46079,0.20019,0.46956
1694110317859375,-8.700003,0.679196,4.8503,0.41779,0.17019,0.45656
1694110317867187,-8.700003,0.688196,4.8083,0.49679,0.20119,0.40756
1694110317875000,-8.714003,0.699196,4.7783,0.46679,0.20119,0.40856
1694110317882812,-8.738003,0.696196,4.7853,0.44779,0.20119,0.43956
1694110317890625,-8.741003,0.701196,4.7833,0.43779,0.23519,0.49156
1694110317898437,-8.733003,0.723196,4.7873,0.47279,0.21919,0.42856
1694110317906250,-8.715003,0.732196,4.7923,0.35679,0.23319,0.39456
1694110317914062,-8.712003,0.730196,4.7743,0.37079,0.23319,0.37756
1694110317921875,-8.721003,0.723196,4.7673,0.40779,0.21819,0.28356
1694110317929687,-8.725003,0.713196,4.7623,0.33979,0.13919,0.31356
1694110317937500,-8.727003,0.694196,4.7513,0.30179,0.21319,0.22956
1694110317945312,-8.729003,0.684196,4.7533,0.40179,0.23019,0.21556
1694110317953125,-8.725003,0.680196,4.7403,0.35579,0.15319,0.21656
1694110317960937,-8.718003,0.686196,4.7443,0.30779,0.19919,0.16856
1694110317968750,-8.716003,0.688196,4.7423,0.25879,0.16819,0.21656
1694110317976562,-8.714003,0.685196,4.7533,0.34579,0.20219,0.18856
1694110317984375,-8.716003,0.699196,4.7563,0.35779,0.16919,0.21756
1694110317992187,-8.714003,0.694196,4.7693,0.27979,0.21719,0.20356
1694110318000000,-8.721003,0.690196,4.7623,0.32879,0.23219,0.15556
1694110318007812,-8.731003,0.685196,4.7783,0.35079,0.18219,0.19756
1694110318015625,-8.732003,0.691196,4.7943,0.40379,0.15319,0.24856
1694110318023437,-8.748003,0.692196,4.7833,0.40879,0.17119,0.21956
1694110318031250,-8.752003,0.707196,4.7853,0.50079,0.18519,0.23256
1694110318039062,-8.770003,0.717196,4.7783,0.44579,0.21319,0.21256
1694110318046875,-8.771003,0.715196,4.7743,0.57079,0.10219,0.21056
1694110318054687,-8.767003,0.726196,4.7403,0.60879,0.5719,0.16556
1694110318062500,-8.785003,0.742196,4.7403,0.50879,0.7219,0.21156
1694110318070312,-8.761003,0.749196,4.7493,0.48279,0.381,0.19956
1694110318078125,-8.743003,0.761196,4.8013,0.47879,0.3681,0.16456
1694110318085937,-8.719003,0.753196,4.7673,0.33979,0.4319,0.16756
1694110318093750,-8.699003,0.751196,4.7493,0.40179,0.2619,0.11856
1694110318101562,-8.684003,0.765196,4.7673,0.42379,0.281,0.12156
1694110318109375,-8.681003,0.770196,4.7223,0.46979,0.12119,0.12056
1694110318117187,-8.702003,0.772196,4.7313,0.50179,0.10619,0.20056
1694110318125000,-8.703003,0.753196,4.7423,0.44979,0.13619,0.19856
1694110318132812,-8.699003,0.759196,4.7673,0.45179,0.12119,0.18356
1694110318140625,-8.704003,0.777196,4.7763,0.49779,0.16819,0.24656
1694110318148437,-8.726003,0.773196,4.7923,0.43679,0.13819,0.23256
1694110318156250,-8.742003,0.766196,4.7833,0.45279,0.15319,0.20056
1694110318164062,-8.750003,0.749196,4.7763,0.50079,0.20019,0.20056
1694110318171875,-8.758003,0.725196,4.7783,0.38079,0.10919,0.18956
1694110318179687,-8.750003,0.718196,4.7763,0.41879,0.5919,0.23156
1694110318187500,-8.759003,0.716196,4.7653,0.43379,0.10519,0.19856
1694110318195312,-8.761003,0.718196,4.7623,0.38979,0.7619,0.24956
1694110318203125,-8.761003,0.716196,4.7513,0.46479,0.1119,0.19856
1694110318210937,-8.766003,0.709196,4.7713,0.38979,0.4881,0.20156
1694110318218750,-8.763003,0.718196,4.7783,0.46979,0.4419,0.18456
1694110318226562,-8.761003,0.707196,4.7743,0.46979,0.6019,0.20056
1694110318234375,-8.763003,0.709196,4.7923,0.48479,0.9681,0.20056
1694110318242187,-8.743003,0.700196,4.7833,0.50279,0.1319,0.20056
1694110318250000,-8.739003,0.691196,4.7763,0.48779,0.1419,0.20156
1694110318257812,-8.729003,0.686196,4.7903,0.50279,0.3381,0.21756
1694110318265625,-8.725003,0.689196,4.7873,0.48379,0.3481,0.15156
1694110318273437,-8.718003,0.678196,4.7693,0.51679,0.281,0.20056
1694110318281250,-8.712003,0.681196,4.7763,0.55279,0.1781,0.18556
1694110318289062,-8.723003,0.687196,4.7653,0.57579,0.3081,0.18956
1694110318296875,-8.725003,0.702196,4.7583,0.55279,0.1681,0.20256
1694110318304687,-8.734003,0.702196,4.7693,0.53479,0.2919,0.21656
1694110318312500,-8.739003,0.715196,4.7623,0.63079,0.1319,0.21756
1694110318320312,-8.729003,0.720196,4.7743,0.65779,0.4481,0.17456
1694110318328125,-8.728003,0.722196,4.7763,0.54979,0.1881,0.18456
1694110318335937,-8.723003,0.728196,4.7893,0.52079,0.181,0.16956
1694110318343750,-8.723003,0.730196,4.7873,0.55279,0.1681,0.20256
1694110318351562,-8.739003,0.735196,4.7903,0.50579,0.181,0.15456
1694110318359375,-8.737003,0.748196,4.7943,0.53979,0.1581,0.17156
1694110318367187,-8.738003,0.750196,4.7903,0.53879,0.3119,0.21956
1694110318375000,-8.738003,0.752196,4.7903,0.49079,0.3181,0.25156
1694110318382812,-8.740003,0.752196,4.7923,0.50879,0.4681,0.23656
1694110318390625,-8.737003,0.756196,4.7853,0.48279,0.3481,0.24756
1694110318398437,-8.740003,0.752196,4.7873,0.50579,0.6381,0.20356
1694110318406250,-8.720003,0.752196,4.7873,0.58879,0.6281,0.20356
1694110318414062,-8.719003,0.755196,4.7853,0.48679,0.6481,0.18556
1694110318421875,-8.726003,0.750196,4.7923,0.60279,0.4781,0.21956
1694110318429687,-8.715003,0.756196,4.7923,0.53879,0.3281,0.17056
1694110318437500,-8.717003,0.758196,4.8013,0.49179,0.1519,0.15556
1694110318445312,-8.715003,0.761196,4.7993,0.50579,0.3019,0.15456
1694110318453125,-8.717003,0.761196,4.7943,0.45779,0.1681,0.17056
1694110318460937,-8.719003,0.764196,4.7873,0.48479,0.381,0.15256
1694110318468750,-8.719003,0.761196,4.8103,0.48879,0.3281,0.16956
1694110318476562,-8.720003,0.770196,4.8413,0.47379,0.1681,0.15456
1694110318484375,-8.722003,0.774196,4.8553,0.42579,0.7881,0.18656
1694110318492187,-8.711003,0.765196,4.8373,0.42779,0.3081,0.22056
1694110318500000,-8.701003,0.754196,4.8013,0.45479,0.3181,0.29856
1694110318507812,-8.711003,0.772196,4.8103,0.37579,0.1681,0.23456
1694110318515625,-8.707003,0.792196,4.8353,0.35879,0.0,0.29856
1694110318523437,-8.704003,0.804196,4.7963,0.41879,0.1781,0.29656
1694110318531250,-8.693003,0.779196,4.7803,0.40679,0.3281,0.26656
1694110318539062,-8.690003,0.779196,4.7493,0.46979,0.1781,0.23356
1694110318546875,-8.693003,0.796196,4.7743,0.45579,0.6119,0.28256
1694110318554687,-8.685003,0.793196,4.8263,0.36279,0.6219,0.25256
1694110318562500,-8.682003,0.794196,4.8443,0.39079,0.6019,0.20156
1694110318570312,-8.695003,0.792196,4.8083,0.45379,0.15419,0.23356
1694110318578125,-8.716003,0.787196,4.7853,0.43979,0.9219,0.23456
1694110318585937,-8.724003,0.781196,4.7853,0.40579,0.7619,0.26556
1694110318593750,-8.725003,0.789196,4.7963,0.42679,0.18719,0.23656
1694110318601562,-8.709003,0.809196,4.7943,0.30979,0.17019,0.28256
1694110318609375,-8.705003,0.825196,4.7873,0.35479,0.15419,0.29656
1694110318617187,-8.702003,0.835196,4.7623,0.28979,0.18319,0.18356
1694110318625000,-8.711003,0.823196,4.7533,0.27579,0.12119,0.16856
1694110318632812,-8.722003,0.804196,4.7333,0.22679,0.21519,0.15256
1694110318640625,-8.733003,0.784196,4.7333,0.24079,0.23019,0.16756
1694110318648437,-8.733003,0.773196,4.7383,0.22579,0.15019,0.2256
1694110318656250,-8.740003,0.766196,4.7383,0.22979,0.24419,0.8744
1694110318664062,-8.737003,0.755196,4.7243,0.24279,0.21319,0.7156
1694110318671875,-8.730003,0.767196,4.7223,0.25579,0.14919,0.2744
1694110318679687,-8.719003,0.767196,4.7313,0.22079,0.19519,0.3556
1694110318687500,-8.723003,0.758196,4.7263,0.23679,0.22619,0.356
1694110318695312,-8.717003,0.759196,4.7313,0.22979,0.10519,0.856
1694110318703125,-8.724003,0.759196,4.7313,0.25079,0.9119,0.444
1694110318710937,-8.717003,0.755196,4.7333,0.22479,0.12019,0.13456
1694110318718750,-8.715003,0.748196,4.7403,0.24579,0.12019,0.2344
1694110318726562,-8.737003,0.753196,4.7333,0.24079,0.19719,0.8656
1694110318734375,-8.744003,0.756196,4.7423,0.24079,0.19719,0.5456
1694110318742187,-8.741003,0.758196,4.7443,0.24179,0.22919,0.8756
1694110318750000,-8.753003,0.760196,4.7333,0.22579,0.11919,0.2256
1694110318757812,-8.770003,0.751196,4.7493,0.23579,0.11719,0.3556
1694110318765625,-8.771003,0.758196,4.7563,0.22679,0.8919,0.7156
1694110318773437,-8.766003,0.763196,4.7873,0.23879,0.8719,0.6856
1694110318781250,-8.737003,0.765196,4.7713,0.17479,0.5619,0.3656
1694110318789062,-8.736003,0.757196,4.7743,0.21979,0.2481,0.2944
1694110318796875,-8.734003,0.777196,4.7713,0.23679,0.3919,0.1244
1694110318804687,-8.733003,0.764196,4.7563,0.24479,0.7319,0.2444
1694110318812500,-8.739003,0.762196,4.7653,0.26079,0.5919,0.8856
1694110318820312,-8.723003,0.760196,4.7833,0.22179,0.4119,0.13356
1694110318828125,-8.714003,0.760196,4.7853,0.23879,0.8819,0.14956
1694110318835937,-8.708003,0.773196,4.7783,0.22479,0.8919,0.16656
1694110318843750,-8.707003,0.772196,4.7893,0.23379,0.18019,0.14656
1694110318851562,-8.715003,0.773196,4.7713,0.22279,0.10419,0.16556
1694110318859375,-8.709003,0.768196,4.7853,0.23079,0.10119,0.14556
1694110318867187,-8.719003,0.756196,4.7693,0.23779,0.10319,0.16456
1694110318875000,-8.721003,0.756196,4.7603,0.23579,0.14919,0.13156
1694110318882812,-8.732003,0.751196,4.7583,0.24279,0.10519,0.13556
1694110318890625,-8.734003,0.751196,4.7673,0.23879,0.16619,0.11756
1694110318898437,-8.746003,0.751196,4.7673,0.24079,0.12019,0.11856
1694110318906250,-8.752003,0.740196,4.7693,0.24179,0.15219,0.16756
1694110318914062,-8.755003,0.751196,4.7603,0.24379,0.12119,0.15256
1694110318921875,-8.768003,0.734196,4.7563,0.22379,0.8819,0.10156
1694110318929687,-8.761003,0.725196,4.7623,0.24279,0.2719,0.15156
1694110318937500,-8.759003,0.725196,4.7583,0.22679,0.1881,0.16856
1694110318945312,-8.750003,0.722196,4.7623,0.24379,0.5919,0.16856
1694110318953125,-8.764003,0.729196,4.7653,0.22879,0.3281,0.23356
1694110318960937,-8.761003,0.731196,4.7583,0.33979,0.6581,0.20056
1694110318968750,-8.754003,0.729196,4.7623,0.28979,0.8181,0.19956
1694110318976562,-8.758003,0.720196,4.7533,0.24679,0.5481,0.17656
1694110318984375,-8.761003,0.727196,4.7533,0.40079,0.5081,0.18256
1694110318992187,-8.745003,0.727196,4.7603,0.22479,0.6781,0.13456
1694110319000000,-8.752003,0.727196,4.7653,0.27579,0.3481,0.15256
1694110319007812,-8.765003,0.723196,4.7533,0.25679,0.11381,0.16656
1694110319015625,-8.768003,0.729196,4.7403,0.35679,0.11281,0.15256
1694110319023437,-8.773003,0.738196,4.7383,0.35679,0.12781,0.15256
1694110319031250,-8.788003,0.745196,4.7383,0.35579,0.23781,0.16756
1694110319039062,-8.786003,0.745196,4.7313,0.29479,0.25181,0.13756
1694110319046875,-8.804003,0.759196,4.7243,0.35279,0.28581,0.14956
1694110319054687,-8.792003,0.758196,4.7013,0.26879,0.30281,0.16356
1694110319062500,-8.800003,0.754196,4.7103,0.29579,0.32881,0.21856
1694110319070312,-8.791003,0.754196,4.7103,0.24479,0.31481,0.18456
1694110319078125,-8.779003,0.759196,4.7043,0.22779,0.37781,0.18356
1694110319085937,-8.775003,0.756196,4.7043,0.24279,0.50281,0.15056
1694110319093750,-8.764003,0.743196,4.7243,0.22779,0.45581,0.15156
1694110319101562,-8.748003,0.748196,4.7333,0.24979,0.53181,0.17056
1694110319109375,-8.723003,0.751196,4.7563,0.22879,0.53381,0.16756
1694110319117187,-8.699003,0.748196,4.7893,0.28079,0.57981,0.12156
1694110319125000,-8.689003,0.756196,4.8053,0.27279,0.59781,0.18056
1694110319132812,-8.678003,0.739196,4.8393,0.22879,0.58081,0.18356
1694110319140625,-8.665003,0.737196,4.8803,0.24479,0.53381,0.19956
1694110319148437,-8.665003,0.721196,4.8983,0.21579,0.59481,0.20156
1694110319156250,-8.656003,0.710196,4.8933,0.22979,0.61081,0.24856
1694110319164062,-8.667003,0.710196,4.9203,0.24579,0.61081,0.24856
1694110319171875,-8.683003,0.699196,4.9573,0.23279,0.65581,0.28256
1694110319179687,-8.665003,0.712196,4.9683,0.24779,0.67181,0.29756
1694110319187500,-8.671003,0.713196,4.9543,0.24379,0.68881,0.29556
1694110319195312,-8.663003,0.721196,4.9073,0.23079,0.59381,0.29756
1694110319203125,-8.667003,0.727196,4.9233,0.23679,0.64381,0.32456
1694110319210937,-8.631003,0.755196,4.9433,0.27179,0.72081,0.32556
1694110319218750,-8.601003,0.746196,4.9293,0.26279,0.65581,0.37756
1694110319226562,-8.589003,0.748196,4.9073,0.27779,0.54681,0.39356
1694110319234375,-8.571003,0.728196,4.8873,0.26179,0.51581,0.36156
1694110319242187,-8.567003,0.741196,4.9383,0.23079,0.46781,0.37856
1694110319250000,-8.549003,0.740196,5.63,0.24079,0.39281,0.32656
1694110319257812,-8.542003,0.735196,5.133,0.22579,0.28381,0.29556
1694110319265625,-8.557003,0.722196,4.9933,0.22479,0.25281,0.29556
1694110319273437,-8.587003,0.727196,4.9483,0.25779,0.20481,0.36056
1694110319281250,-8.602003,0.736196,4.9413,0.40179,0.17381,0.35956
1694110319289062,-8.600003,0.747196,4.9483,0.28679,0.18981,0.40656
1694110319296875,-8.590003,0.761196,4.9683,0.25979,0.12481,0.41056
1694110319304687,-8.591003,0.759196,4.9633,0.21779,0.2081,0.35656
1694110319312500,-8.598003,0.767196,4.9503,0.25579,0.3381,0.34356
1694110319320312,-8.615003,0.741196,4.9663,0.30079,0.11381,0.27656
1694110319328125,-8.617003,0.708196,4.9543,0.25479,0.14381,0.29456
1694110319335937,-8.624003,0.688196,4.9503,0.27079,0.14581,0.19756
1694110319343750,-8.631003,0.688196,4.9663,0.33879,0.9781,0.19956
1694110319351562,-8.618003,0.707196,4.9683,0.32179,0.5081,0.18356
1694110319359375,-8.623003,0.712196,4.9683,0.30179,0.7781,0.15756
1694110319367187,-8.611003,0.702196,4.9753,0.31079,0.3381,0.16956
1694110319375000,-8.620003,0.719196,4.9883,0.28679,0.2081,0.14956
1694110319382812,-8.616003,0.718196,4.9903,0.27479,0.3581,0.7156
1694110319390625,-8.622003,0.724196,4.9863,0.24979,0.819,0.16256
1694110319398437,-8.642003,0.731196,4.9843,0.28479,0.919,0.13256
1694110319406250,-8.640003,0.728196,4.9973,0.20379,0.3681,0.21256
1694110319414062,-8.644003,0.722196,4.9863,0.28179,0.2281,0.19456
1694110319421875,-8.642003,0.721196,4.9753,0.30679,0.3581,0.13556
1694110319429687,-8.646003,0.717196,4.9703,0.25279,0.3781,0.13256
1694110319437500,-8.636003,0.727196,4.9593,0.33979,0.1881,0.13656
1694110319445312,-8.633003,0.726196,4.9433,0.33479,0.3781,0.8456
1694110319453125,-8.638003,0.724196,4.9503,0.43179,0.581,0.14956
1694110319460937,-8.638003,0.735196,4.9453,0.46479,0.581,0.11756
1694110319468750,-8.609003,0.729196,4.9613,0.40479,0.1019,0.2356
1694110319476562,-8.576003,0.731196,4.9413,0.29479,0.381,0.744
1694110319484375,-8.603003,0.741196,4.9413,0.33079,0.381,0.6944
1694110319492187,-8.633003,0.759196,4.9503,0.36379,0.4519,0.2756
1694110319500000,-8.638003,0.739196,4.9453,0.41879,0.7419,0.15056
1694110319507812,-8.643003,0.745196,4.9413,0.45179,0.4319,0.19956
1694110319515625,-8.629003,0.757196,4.9433,0.42879,0.7219,0.21256
1694110319523437,-8.623003,0.772196,4.9523,0.39879,0.2081,0.19756
1694110319531250,-8.630003,0.767196,4.9573,0.45079,0.381,0.19956
1694110319539062,-8.638003,0.748196,4.9483,0.43179,0.2719,0.24656
1694110319546875,-8.641003,0.749196,4.9323,0.35779,0.6019,0.20156
1694110319554687,-8.643003,0.734196,4.9363,0.30679,0.13619,0.11956
1694110319562500,-8.638003,0.735196,4.9293,0.23779,0.15019,0.10056
1694110319570312,-8.652003,0.739196,4.9113,0.25779,0.7319,0.10256
1694110319578125,-8.655003,0.738196,4.9143,0.29779,0.5519,0.13056
1694110319585937,-8.643003,0.748196,4.9093,0.41679,0.1119,0.16656
1694110319593750,-8.651003,0.729196,4.9233,0.41379,0.919,0.14856
1694110319601562,-8.652003,0.732196,4.9183,0.35479,0.10519,0.16756
1694110319609375,-8.656003,0.727196,4.9203,0.35879,0.9119,0.15356
1694110319617187,-8.656003,0.725196,4.9163,0.34279,0.5919,0.10556
1694110319625000,-8.663003,0.722196,4.9363,0.39279,0.6119,0.17056
1694110319632812,-8.656003,0.725196,4.9503,0.39179,0.2819,0.12156
1694110319640625,-8.659003,0.725196,4.9393,0.39279,0.4519,0.12256
1694110319648437,-8.659003,0.744196,4.9343,0.34579,0.3019,0.17156
1694110319656250,-8.666003,0.742196,4.9413,0.44479,0.3119,0.17256
1694110319664062,-8.666003,0.751196,4.9523,0.31579,0.1519,0.14056
1694110319671875,-8.646003,0.757196,4.9613,0.43079,0.0,0.14156
1694110319679687,-8.639003,0.755196,4.9483,0.40879,0.1681,0.18656
1694110319687500,-8.635003,0.754196,4.9383,0.35179,0.3081,0.11056
1694110319695312,-8.628003,0.748196,4.9593,0.37979,0.6381,0.10756
1694110319703125,-8.623003,0.735196,4.9453,0.37979,0.6381,0.10756
1694110319710937,-8.625003,0.720196,4.9633,0.39479,0.4981,0.1056
1694110319718750,-8.616003,0.721196,4.9483,0.37979,0.6381,0.10756
1694110319726562,-8.621003,0.742196,4.9413,0.40879,0.4881,0.10556
1694110319734375,-8.625003,0.738196,4.9773,0.42579,0.8081,0.4156
1694110319742187,-8.630003,0.740196,4.9723,0.42379,0.3481,0.5656
1694110319750000,-8.636003,0.733196,4.9703,0.40779,0.281,0.10556
1694110319757812,-8.643003,0.725196,4.9453,0.45479,0.1981,0.4056
1694110319765625,-8.634003,0.731196,4.9273,0.44079,0.3381,0.8956
1694110319773437,-8.630003,0.720196,4.9143,0.42679,0.1781,0.1056
1694110319781250,-8.634003,0.721196,4.9183,0.36679,0.3281,0.3544
1694110319789062,-8.629003,0.721196,4.9183,0.32079,0.2181,0.2156
1694110319796875,-8.629003,0.722196,4.9393,0.44879,0.3781,0.1144
1694110319804687,-8.618003,0.725196,4.9433,0.39079,0.1881,0.7256
1694110319812500,-8.623003,0.729196,4.9663,0.44079,0.3581,0.5544
1694110319820312,-8.621003,0.724196,4.9773,0.31279,0.3481,0.956
1694110319828125,-8.627003,0.724196,4.9793,0.28079,0.1981,0.7044
1694110319835937,-8.621003,0.722196,4.9633,0.29879,0.2719,0.8544
1694110319843750,-8.631003,0.721196,4.9523,0.29379,0.2081,0.844
1694110319851562,-8.643003,0.722196,4.9683,0.33179,0.8181,0.10144
1694110319859375,-8.643003,0.709196,4.9973,0.37879,0.5081,0.7044
1694110319867187,-8.636003,0.720196,4.9993,0.42479,0.15881,0.5756
1694110319875000,-8.641003,0.734196,5.43,0.34379,0.22081,0.10556
1694110319882812,-8.610003,0.727196,4.9613,0.39979,0.26481,0.11056
1694110319890625,-8.598003,0.726196,4.9483,0.31179,0.29781,0.20256
1694110319898437,-8.597003,0.750196,5.113,0.33179,0.20381,0.15656
1694110319906250,-8.574003,0.728196,4.9883,0.45879,0.18781,0.20356
1694110319914062,-8.558003,0.707196,4.9323,0.44579,0.14081,0.15656
1694110319921875,-8.564003,0.724196,4.9293,0.45179,0.8181,0.13556
1694110319929687,-8.569003,0.730196,5.293,0.34379,0.4981,0.8956
1694110319937500,-8.525003,0.711196,5.693,0.26979,0.3781,0.10056
1694110319945312,-8.515003,0.716196,5.813,0.27779,0.1881,0.7256
1694110319953125,-8.547003,0.717196,5.383,0.21379,0.4419,0.13756
1694110319960937,-8.564003,0.724196,4.9793,0.27579,0.5819,0.10356
1694110319968750,-8.587003,0.723196,4.9843,0.34579,0.6119,0.12356
1694110319976562,-8.601003,0.733196,4.9933,0.47279,0.13819,0.15456
1694110319984375,-8.599003,0.741196,5.293,0.40979,0.12319,0.15556
1694110319992187,-8.619003,0.757196,5.363,0.29379,0.19919,0.10556
1694110320000000,-8.644003,0.755196,5.203,0.26679,0.23219,0.9256
1694110320007812,-8.654003,0.734196,5.183,0.22779,0.19719,0.4044
1694110320015625,-8.649003,0.708196,5.153,0.24179,0.14919,0.10644
1694110320023437,-8.633003,0.689196,5.63,0.26279,0.10419,0.8744
1694110320031250,-8.602003,0.684196,5.133,0.23079,0.10419,0.8744
1694110320039062,-8.575003,0.688196,5.63,0.24879,0.7319,0.10244
1694110320046875,-8.573003,0.695196,5.183,0.23279,0.24519,0.8544
1694110320054687,-8.569003,0.687196,5.203,0.25479,0.13819,0.9844
1694110320062500,-8.569003,0.685196,5.183,0.23579,0.12219,0.3544
1694110320070312,-8.579003,0.689196,5.223,0.24279,0.13419,0.944
1694110320078125,-8.584003,0.680196,5.383,0.24179,0.13519,0.3856
1694110320085937,-8.584003,0.677196,5.403,0.24679,0.16919,0.12256
1694110320093750,-8.590003,0.678196,5.273,0.24079,0.16619,0.7056
1694110320101562,-8.604003,0.683196,5.243,0.23979,0.15019,0.6956
1694110320109375,-8.613003,0.676196,5.293,0.24079,0.16619,0.7056
1694110320117187,-8.617003,0.687196,5.153,0.24379,0.22819,0.2444
1694110320125000,-8.626003,0.677196,5.43,0.24079,0.19619,0.1044
1694110320132812,-8.624003,0.681196,5.133,0.24079,0.21119,0.4244
1694110320140625,-8.644003,0.688196,5.133,0.24079,0.13519,0.8656
1694110320148437,-8.642003,0.685196,5.93,0.24479,0.21419,0.856
1694110320156250,-8.615003,0.678196,5.243,0.22979,0.16619,0.7144
1694110320164062,-8.529003,0.684196,5.43,0.25179,0.21619,0.6744
1694110320171875,-8.515003,0.683196,5.203,0.23179,0.22919,0.11844
1694110320179687,-8.605003,0.681196,5.583,0.24979,0.23119,0.5244
1694110320187500,-8.644003,0.672196,5.273,0.26379,0.22919,0.7044
1694110320195312,-8.626003,0.672196,5.43,0.24279,0.24419,0.844
1694110320203125,-8.573003,0.685196,5.183,0.19179,0.24419,0.10256
1694110320210937,-8.554003,0.703196,5.333,0.18479,0.21119,0.14656
1694110320218750,-8.559003,0.720196,5.473,0.23879,0.27519,0.10156
1694110320226562,-8.595003,0.693196,5.383,0.22879,0.30819,0.12156
1694110320234375,-8.600003,0.676196,5.243,0.24179,0.30819,0.18456
1694110320242187,-8.593003,0.655196,5.203,0.22679,0.26119,0.12056
1694110320250000,-8.586003,0.642196,5.223,0.24279,0.24619,0.13656
1694110320257812,-8.574003,0.636196,5.243,0.22279,0.26019,0.19856
1694110320265625,-8.578003,0.645196,5.223,0.23579,0.36819,0.14856
1694110320273437,-8.574003,0.646196,5.273,0.22579,0.37019,0.16856
1694110320281250,-8.570003,0.644196,5.313,0.25679,0.37019,0.16756
1694110320289062,-8.570003,0.647196,5.403,0.30179,0.41519,0.10156
1694110320296875,-8.579003,0.643196,5.383,0.22279,0.41519,0.8656
1694110320304687,-8.568003,0.651196,5.243,0.30679,0.46419,0.12056
1694110320312500,-8.570003,0.648196,5.223,0.29079,0.51119,0.15356
1694110320320312,-8.575003,0.654196,5.203,0.24579,0.49719,0.17156
1694110320328125,-8.581003,0.660196,5.223,0.31979,0.52619,0.15156
