time,Acceleration X (m/s^2),Acceleration Y (m/s^2),Acceleration Z (m/s^2),Angular Velocity X (rad/s),Angular Velocity Y (rad/s),Angular Velocity Z (rad/s)
1702329532929687,-9.69778,1.285102,-0.031309,,,
1702329532937500,-9.70878,1.259102,0.966649,0.21569,0.26509,0.21847
1702329532945312,-9.73278,1.213102,0.919649,0.24669,0.29809,0.23447
1702329532953125,-9.74078,1.148102,0.862649,0.24469,0.28109,0.31547
1702329532960937,-9.72778,1.111102,0.819649,0.36569,0.18909,0.21947
1702329532968750,-9.71178,1.97102,0.788649,0.47169,0.17409,0.26647
1702329532984375,-9.70378,1.134102,0.826649,0.67669,0.24609,0.21147
1702329532992187,-9.72978,1.194102,0.833649,0.72969,0.19309,0.20847
1702329533000000,-9.73078,1.266102,0.822649,0.75169,0.28009,0.25947
1702329533007812,-9.74578,1.325102,0.851649,0.75669,0.27409,0.37047
1702329533031250,-9.69678,1.376102,0.957649,0.62369,0.32809,0.35847
1702329533039062,-9.66478,1.351102,0.930649,0.54569,0.27909,0.35847
1702329533046875,-9.61978,1.323102,0.919649,0.53569,0.27509,0.37347
1702329533054687,-9.59478,1.310102,0.887649,0.48269,0.34509,0.34447
1702329533062500,-9.58578,1.315102,0.905649,0.49569,0.38009,0.28147
1702329533070312,-9.56278,1.315102,0.943649,0.47369,0.41909,0.21947
1702329533078125,-9.58778,1.279102,0.937649,0.49969,0.24809,0.21447
1702329533085937,-9.59778,1.244102,0.910649,0.44769,0.30009,0.24947
1702329533093750,-9.61278,1.208102,0.910649,0.31069,0.34609,0.21747
1702329533101562,-9.62578,1.180102,0.901649,0.27669,0.30009,0.18647
1702329533109375,-9.61478,1.140102,0.876649,0.30969,0.31509,0.21847
1702329533117187,-9.59778,1.115102,0.860649,0.32469,0.28209,0.25047
1702329533125000,-9.60678,1.120102,0.831649,0.40369,0.24909,0.23247
1702329533132812,-9.63178,1.131102,0.802649,0.48369,0.18209,0.24647
1702329533140625,-9.67478,1.145102,0.799649,0.46269,0.25209,0.21747
1702329533148437,-9.69578,1.143102,0.811649,0.48569,0.24709,0.26247
1702329533156250,-9.69778,1.156102,0.799649,0.51269,0.29909,0.23147
1702329533164062,-9.68478,1.165102,0.795649,0.49469,0.34909,0.23347
1702329533171875,-9.64878,1.169102,0.765649,0.50969,0.34909,0.26547
1702329533179687,-9.64378,1.167102,0.741649,0.50669,0.38409,0.25047
1702329533187500,-9.65578,1.187102,0.754649,0.49269,0.44909,0.20247
1702329533195312,-9.67378,1.192102,0.783649,0.47769,0.43209,0.20247
1702329533203125,-9.69978,1.175102,0.788649,0.53669,0.45309,0.10747
1702329533210937,-9.71778,1.165102,0.777649,0.54969,0.41109,0.11847
1702329533218750,-9.71378,1.155102,0.777649,0.60669,0.38209,0.10347
1702329533226562,-9.69678,1.137102,0.786649,0.61769,0.48509,0.5747
1702329533234375,-9.67978,1.159102,0.813649,0.63869,0.48209,0.853
1702329533242187,-9.65078,1.160102,0.847649,0.73669,0.51309,0.2653
1702329533250000,-9.62078,1.142102,0.885649,0.73469,0.43209,0.1053
1702329533257812,-9.59178,1.122102,0.925649,0.80969,0.41909,0.2653
1702329533265625,-9.58178,1.106102,0.939649,0.82069,0.40509,0.647
1702329533273437,-9.58978,1.124102,0.907649,0.78669,0.28209,0.4553
1702329533281250,-9.63278,1.162102,0.858649,0.84769,0.25109,0.2953
1702329533289062,-9.66078,1.251102,0.845649,0.97869,0.28009,0.3353
1702329533296875,-9.72278,1.330102,0.799649,0.98969,0.16809,0.6347
1702329533304687,-9.78878,1.395102,0.739649,0.100669,0.15009,0.11147
1702329533312500,-9.81878,1.446102,0.698649,0.97269,0.11709,0.20747
1702329533320312,-9.85378,1.498102,0.707649,0.82669,0.13509,0.25947
1702329533328125,-9.88278,1.521102,0.734649,0.76669,0.18109,0.33947
1702329533335937,-9.86778,1.525102,0.793649,0.67569,0.17809,0.33947
1702329533343750,-9.81378,1.522102,0.833649,0.49669,0.19809,0.37547
1702329533351562,-9.78678,1.537102,0.876649,0.40869,0.21109,0.35847
1702329533359375,-9.74478,1.556102,0.957649,0.21369,0.39509,0.34847
1702329533367187,-9.70378,1.578102,0.998649,0.5469,0.44509,0.36747
1702329533375000,-9.67678,1.578102,0.991649,0.18431,0.43009,0.37047
1702329533382812,-9.64778,1.559102,0.984649,0.28231,0.45509,0.35247
1702329533390625,-9.63878,1.544102,0.987649,0.45731,0.58909,0.22747
1702329533398437,-9.62378,1.484102,0.982649,0.55331,0.60609,0.24547
1702329533406250,-9.61578,1.402102,0.977649,0.60431,0.59309,0.24747
1702329533414062,-9.61478,1.333102,0.944649,0.64531,0.55709,0.16547
1702329533421875,-9.59378,1.259102,0.916649,0.67831,0.60809,0.15047
1702329533429687,-9.57678,1.208102,0.905649,0.62231,0.53009,0.20047
1702329533437500,-9.57178,1.188102,0.887649,0.76031,0.49609,0.15247
1702329533445312,-9.56778,1.195102,0.885649,0.74231,0.44709,0.5547
1702329533453125,-9.55978,1.216102,0.887649,0.73631,0.44109,0.13247
1702329533460937,-9.57078,1.228102,0.898649,0.64631,0.41109,0.18147
1702329533468750,-9.58678,1.241102,0.840649,0.69931,0.25909,0.12947
1702329533476562,-9.60978,1.280102,0.802649,0.64931,0.26709,0.18147
1702329533484375,-9.63478,1.309102,0.804649,0.70831,0.18209,0.19647
1702329533492187,-9.62178,1.311102,0.844649,0.67931,0.16709,0.24547
1702329533500000,-9.60578,1.299102,0.876649,0.61831,0.16809,0.22847
1702329533507812,-9.58678,1.272102,0.885649,0.64431,0.18009,0.24347
1702329533515625,-9.55778,1.259102,0.876649,0.64931,0.10109,0.29247
1702329533523437,-9.57078,1.239102,0.847649,0.54031,0.8609,0.27547
1702329533531250,-9.60878,1.193102,0.802649,0.52431,0.16709,0.29147
1702329533539062,-9.65478,1.171102,0.790649,0.49031,0.29709,0.21047
1702329533546875,-9.70478,1.177102,0.795649,0.45831,0.20009,0.16247
1702329533554687,-9.74578,1.193102,0.761649,0.45231,0.18009,0.14347
1702329533562500,-9.78178,1.209102,0.743649,0.52231,0.21809,0.11547
1702329533570312,-9.77978,1.233102,0.718649,0.49731,0.24409,0.11247
1702329533578125,-9.75778,1.262102,0.718649,0.52231,0.21809,0.9947
1702329533585937,-9.70378,1.272102,0.743649,0.50531,0.24909,0.14747
1702329533593750,-9.65178,1.263102,0.801649,0.53031,0.33609,0.19847
1702329533601562,-9.62278,1.251102,0.849649,0.52431,0.30009,0.18047
1702329533609375,-9.63178,1.253102,0.853649,0.51831,0.39409,0.11447
1702329533617187,-9.64078,1.251102,0.858649,0.52631,0.46509,0.11747
1702329533625000,-9.67178,1.225102,0.865649,0.51931,0.44509,0.6747
1702329533632812,-9.68978,1.238102,0.896649,0.50031,0.52609,0.1353
1702329533640625,-9.68978,1.239102,0.925649,0.52031,0.41309,0.5147
1702329533648437,-9.67678,1.252102,0.880649,0.50631,0.26709,0.8347
1702329533656250,-9.67678,1.256102,0.813649,0.51531,0.29509,0.9747
1702329533664062,-9.64778,1.262102,0.808649,0.44531,0.31809,0.6747
1702329533671875,-9.60978,1.253102,0.820649,0.36031,0.18109,0.15947
1702329533679687,-9.57578,1.239102,0.811649,0.26231,0.16109,0.23747
1702329533687500,-9.53478,1.236102,0.817649,0.26531,0.6509,0.20547
1702329533695312,-9.53278,1.240102,0.849649,0.25231,0.5209,0.19047
1702329533703125,-9.56278,1.269102,0.827649,0.22131,0.2491,0.21647
1702329533710937,-9.60778,1.306102,0.835649,0.25731,0.2109,0.22347
1702329533718750,-9.65578,1.349102,0.865649,0.23631,0.6709,0.23747
1702329533726562,-9.70078,1.370102,0.898649,0.27231,0.10209,0.27247
1702329533734375,-9.71278,1.394102,0.910649,0.27831,0.291,0.31647
1702329533742187,-9.72478,1.423102,0.910649,0.34831,0.7991,0.33547
1702329533750000,-9.69978,1.427102,0.908649,0.41231,0.7991,0.36847
1702329533757812,-9.64978,1.436102,0.905649,0.47931,0.9191,0.29047
1702329533765625,-9.62178,1.452102,0.919649,0.51031,0.2609,0.31847
1702329533773437,-9.60978,1.450102,0.944649,0.50131,0.1691,0.32047
1702329533781250,-9.61478,1.450102,0.953649,0.50631,0.309,0.27447
1702329533789062,-9.63178,1.413102,0.930649,0.58431,0.4591,0.25847
1702329533796875,-9.63278,1.340102,0.881649,0.67531,0.6609,0.27547
1702329533804687,-9.66178,1.289102,0.854649,0.70231,0.3009,0.25747
1702329533812500,-9.68378,1.260102,0.903649,0.64331,0.4909,0.24247
1702329533820312,-9.66778,1.236102,0.914649,0.62631,0.1509,0.28947
1702329533828125,-9.64978,1.247102,0.869649,0.60031,0.7891,0.27447
1702329533835937,-9.62678,1.258102,0.853649,0.57131,0.7791,0.30747
1702329533843750,-9.60978,1.271102,0.835649,0.52331,0.9491,0.33847
1702329533851562,-9.59178,1.273102,0.856649,0.52331,0.17691,0.36947
1702329533859375,-9.57878,1.276102,0.856649,0.50131,0.19791,0.35147
1702329533867187,-9.59178,1.257102,0.829649,0.39731,0.22591,0.36747
1702329533875000,-9.62878,1.196102,0.808649,0.26531,0.4091,0.35447
1702329533882812,-9.62078,1.142102,0.815649,0.23231,0.26809,0.37047
1702329533890625,-9.61178,1.136102,0.869649,0.7831,0.43309,0.35447
1702329533898437,-9.62478,1.127102,0.876649,0.16631,0.41309,0.33747
1702329533906250,-9.65578,1.96102,0.862649,0.8831,0.42909,0.36947
1702329533914062,-9.70178,1.83102,0.842649,0.1569,0.43909,0.34847
1702329533921875,-9.70578,1.75102,0.842649,0.2531,0.39709,0.36847
1702329533929687,-9.70578,1.54102,0.770649,0.4431,0.32309,0.34747
1702329533937500,-9.71978,1.13102,0.745649,0.4431,0.35009,0.36947
1702329533945312,-9.71078,0.993102,0.743649,0.1131,0.39809,0.35247
1702329533953125,-9.69778,1.43102,0.750649,0.2169,0.47909,0.31947
1702329533960937,-9.70178,1.148102,0.775649,0.15369,0.41109,0.20347
1702329533968750,-9.67778,1.203102,0.813649,0.10669,0.44409,0.22047
1702329533976562,-9.64178,1.189102,0.847649,0.2131,0.37909,0.25447
1702329533984375,-9.61078,1.173102,0.842649,0.869,0.28109,0.35047
1702329533992187,-9.57778,1.144102,0.853649,0.6669,0.22009,0.31847
1702329534000000,-9.55978,1.123102,0.892649,0.17069,0.16509,0.26647
1702329534007812,-9.56678,1.108102,0.903649,0.13469,0.8809,0.21947
1702329534015625,-9.56178,1.95102,0.921649,0.16769,0.10309,0.23547
1702329534023437,-9.53478,1.88102,0.928649,0.19969,0.7009,0.20247
1702329534031250,-9.52178,1.92102,0.943649,0.16769,0.13609,0.21947
1702329534039062,-9.50078,1.98102,0.997649,0.18069,0.12009,0.26747
1702329534046875,-9.43778,1.88102,0.984649,0.24869,0.9491,0.26447
1702329534054687,-9.42878,1.95102,0.910649,0.23069,0.17391,0.18447
1702329534062500,-9.42178,1.93102,0.813649,0.44669,0.15491,0.19947
1702329534070312,-9.46778,1.149102,0.779649,0.48469,0.25491,0.8447
1702329534078125,-9.57678,1.221102,0.768649,0.59469,0.32191,0.16247
1702329534085937,-9.72678,1.281102,0.741649,0.70869,0.35891,0.27147
1702329534093750,-9.83978,1.312102,0.752649,0.73669,0.29391,0.38447
1702329534101562,-9.88378,1.295102,0.779649,0.60769,0.24391,0.46747
1702329534109375,-9.86778,1.232102,0.782649,0.50169,0.28091,0.57947
1702329534117187,-9.81478,1.158102,0.820649,0.49369,0.11191,0.55147
1702329534125000,-9.68978,1.105102,0.930649,0.42869,0.3091,0.61747
1702329534132812,-9.60378,1.60102,1.9649,0.33269,0.9291,0.53847
1702329534140625,-9.60878,1.91102,1.76649,0.23369,0.8391,0.50447
1702329534148437,-9.63878,1.102102,1.133649,0.13869,0.9991,0.56947
1702329534156250,-9.67078,1.167102,1.189649,0.5969,0.1409,0.55547
1702329534164062,-9.72178,1.226102,1.209649,0.4931,0.6791,0.55547
1702329534171875,-9.76878,1.271102,1.189649,0.5531,0.30991,0.63647
1702329534179687,-9.73478,1.266102,1.162649,0.2831,0.38791,0.60547
1702329534187500,-9.65578,1.229102,1.70649,0.631,0.70291,0.64947
1702329534195312,-9.57878,1.175102,0.977649,0.431,0.86691,0.61547
1702329534203125,-9.50778,1.105102,0.939649,0.1731,0.91891,0.69447
1702329534210937,-9.43678,1.15102,0.925649,0.2469,0.104391,0.61547
1702329534218750,-9.40878,0.970102,0.898649,0.11869,0.110991,0.63047
1702329534226562,-9.41778,0.962102,0.858649,0.10369,0.117691,0.72547
1702329534234375,-9.45178,0.982102,0.826649,0.19769,0.142091,0.70747
1702329534242187,-9.49778,1.43102,0.794649,0.22169,0.161191,0.74047
1702329534250000,-9.55578,1.117102,0.754649,0.24969,0.170191,0.75147
1702329534257812,-9.55878,1.163102,0.748649,0.20369,0.176791,0.71947
1702329534265625,-9.55878,1.205102,0.766649,0.24969,0.178391,0.73547
1702329534273437,-9.55078,1.234102,0.788649,0.18469,0.174991,0.75247
1702329534281250,-9.59178,1.274102,0.824649,0.14369,0.173791,0.76747
1702329534289062,-9.61878,1.287102,0.865649,0.469,0.181191,0.86947
1702329534296875,-9.64578,1.273102,0.894649,0.331,0.173391,0.73847
1702329534304687,-9.65378,1.242102,0.932649,0.5131,0.168491,0.77247
1702329534312500,-9.64678,1.218102,0.917649,0.18931,0.173691,0.85247
1702329534320312,-9.65078,1.189102,0.869649,0.22331,0.166991,0.85447
1702329534328125,-9.64478,1.109102,0.858649,0.16031,0.158791,0.82147
1702329534335937,-9.65978,1.32102,0.858649,0.7331,0.120891,0.84047
1702329534343750,-9.65178,0.974102,0.925649,0.11731,0.114591,0.87247
1702329534351562,-9.61278,0.898102,0.894649,0.28431,0.110891,0.95847
1702329534359375,-9.59378,0.849102,0.815649,0.26331,0.122591,0.95547
1702329534367187,-9.60478,0.822102,0.729649,0.27031,0.141291,0.104747
1702329534375000,-9.65678,0.847102,0.635649,0.25331,0.170991,0.115747
1702329534382812,-9.70878,0.879102,0.470649,0.24531,0.198191,0.115847
1702329534390625,-9.78978,0.885102,0.286649,0.10831,0.210991,0.120547
1702329534398437,-9.83078,0.890102,0.218649,0.2331,0.198391,0.123547
1702329534406250,-9.86378,0.891102,0.254649,0.7169,0.189291,0.125547
1702329534414062,-9.90278,0.893102,0.288649,0.13169,0.196391,0.115447
1702329534421875,-9.91378,0.913102,0.250649,0.731,0.191691,0.112347
1702329534429687,-9.89378,0.931102,0.234649,0.10269,0.189991,0.110647
1702329534437500,-9.86778,0.973102,0.241649,0.16669,0.193291,0.104147
1702329534445312,-9.80378,1.20102,0.241649,0.16669,0.201291,0.97647
1702329534453125,-9.75278,1.66102,0.301649,0.16469,0.204391,0.99347
1702329534460937,-9.68978,1.108102,0.317649,0.18069,0.207691,0.97647
1702329534468750,-9.65878,1.152102,0.367649,0.15869,0.200791,0.99547
1702329534476562,-9.65278,1.176102,0.441649,0.9269,0.184291,0.101447
1702329534484375,-9.63078,1.202102,0.479649,0.369,0.183091,0.102947
1702329534492187,-9.61478,1.193102,0.500649,0.10631,0.186491,0.114247
1702329534500000,-9.58478,1.132102,0.459649,0.4031,0.198091,0.110847
1702329534507812,-9.60078,1.40102,0.409649,0.11169,0.209091,0.112347
1702329534515625,-9.67478,0.974102,0.383649,0.16869,0.203191,0.107147
1702329534523437,-9.78578,0.907102,0.396649,0.15969,0.189391,0.99547
1702329534531250,-9.87178,0.806102,0.385649,0.24169,0.184791,0.99347
1702329534539062,-9.95178,0.762102,0.409649,0.21269,0.190191,0.90247
1702329534546875,-9.95878,0.737102,0.382649,0.23669,0.189091,0.88347
1702329534554687,-9.91778,0.741102,0.423649,0.45069,0.191391,0.82947
1702329534562500,-9.80778,0.745102,0.434649,0.49869,0.194791,0.90847
1702329534570312,-9.68578,0.754102,0.456649,0.50769,0.214491,0.94647
1702329534578125,-9.54578,0.702102,0.490649,0.72869,0.213091,0.102347
1702329534585937,-9.41878,0.625102,0.510649,0.99569,0.221291,0.105247
1702329534593750,-9.37578,0.559102,0.533649,0.130969,0.238691,0.107447
1702329534601562,-9.37378,0.458102,0.506649,0.161269,0.241191,0.110647
1702329534609375,-9.43578,0.345102,0.427649,0.205969,0.249891,0.109747
1702329534617187,-9.56878,0.263102,0.274649,0.241969,0.254591,0.107847
1702329534625000,-9.68778,0.233102,0.134649,0.280069,0.235291,0.105747
1702329534632812,-9.81278,0.216102,0.13649,0.305869,0.205291,0.109047
1702329534640625,-9.89778,0.201102,0.106351,0.339869,0.191891,0.110547
1702329534648437,-9.95878,0.209102,0.232351,0.371069,0.159291,0.115147
1702329534656250,-9.97978,0.229102,0.365351,0.399769,0.126791,0.110047
1702329534664062,-10.78,0.267102,0.488351,0.423669,0.123791,0.108047
1702329534671875,-10.6078,0.366102,0.673351,0.452369,0.119591,0.103347
1702329534679687,-10.9578,0.459102,0.871351,0.473269,0.100091,0.88647
1702329534687500,-10.12178,0.528102,-1.24351,0.490269,0.88391,0.78947
1702329534695312,-10.21178,0.574102,-1.157351,0.485169,0.85491,0.59447
1702329534703125,-10.36478,0.552102,-1.193351,0.464069,0.68491,0.44047
1702329534710937,-10.49378,0.463102,-1.236351,0.434469,0.27491,0.20547
1702329534718750,-10.53978,0.426102,-1.322351,0.412769,0.11091,0.1547
1702329534726562,-10.45678,0.423102,-1.322351,0.387569,0.12009,0.7553
1702329534734375,-10.36978,0.441102,-1.369351,0.354969,0.44309,0.8753
1702329534742187,-10.22778,0.445102,-1.367351,0.330069,0.115709,0.3453
1702329534750000,-10.378,0.457102,-1.157351,0.324269,0.178209,0.14947
1702329534757812,-9.77178,0.436102,0.921351,0.345169,0.217709,0.34447
1702329534765625,-9.56478,0.413102,0.813351,0.334869,0.234309,0.54147
1702329534773437,-9.41778,0.411102,0.775351,0.318569,0.237409,0.83347
1702329534781250,-9.20978,0.314102,0.779351,0.321069,0.213609,0.100547
1702329534789062,-8.99978,0.238102,0.883351,0.325369,0.159609,0.127547
1702329534796875,-8.93178,0.215102,-1.36351,0.328469,0.120409,0.133647
1702329534804687,-9.5178,0.250102,-1.173351,0.320969,0.90909,0.127147
1702329534812500,-9.20878,0.345102,-1.225351,0.314769,0.84509,0.117547
1702329534820312,-9.35178,0.469102,-1.232351,0.304269,0.66409,0.109447
1702329534828125,-9.48678,0.587102,-1.173351,0.283869,0.63109,0.111247
1702329534835937,-9.56178,0.657102,-1.90351,0.257369,0.59609,0.111447
1702329534843750,-9.60978,0.700102,0.986351,0.244869,0.41609,0.117847
1702329534851562,-9.66278,0.783102,0.833351,0.230469,0.41709,0.121347
1702329534859375,-9.69578,0.890102,0.688351,0.213769,0.16609,0.130847
1702329534867187,-9.69278,0.979102,0.612351,0.198269,0.18809,0.152247
1702329534875000,-9.67778,1.43102,0.630351,0.176369,0.21709,0.166947
1702329534882812,-9.64178,1.36102,0.648351,0.147469,0.38109,0.185147
1702329534890625,-9.59378,1.12102,0.632351,0.103969,0.45809,0.191947
1702329534898437,-9.59978,0.932102,0.643351,0.66269,0.57109,0.202047
1702329534906250,-9.59278,0.795102,0.722351,0.41369,0.40609,0.200547
1702329534914062,-9.59878,0.620102,0.887351,0.23969,0.16309,0.197547
1702329534921875,-9.66178,0.450102,-1.108351,0.21169,0.21109,0.189447
1702329534929687,-9.73378,0.296102,-1.137351,0.5369,0.47709,0.164147
1702329534937500,-9.79178,0.150102,0.995351,0.19331,0.73809,0.146847
1702329534945312,-9.82178,0.51102,0.887351,0.39631,0.69009,0.135847
1702329534953125,-9.88678,0.8102,0.831351,0.54331,0.49109,0.116447
1702329534960937,-9.95178,0.9102,0.831351,0.53031,0.29709,0.114747
1702329534968750,-9.93678,0.88102,0.865351,0.52331,0.9809,0.106447
1702329534976562,-9.85778,0.189102,0.876351,0.64431,0.3009,0.103147
1702329534984375,-9.78378,0.341102,0.765351,0.85031,0.8191,0.101847
1702329534992187,-9.71778,0.471102,0.671351,0.99031,0.12191,0.105647
1702329535000000,-9.70178,0.544102,0.691351,0.121231,0.21091,0.95847
1702329535007812,-9.71578,0.584102,0.738351,0.125631,0.14691,0.87847
1702329535015625,-9.76278,0.607102,0.743351,0.128431,0.5091,0.84547
1702329535023437,-9.80178,0.630102,0.675351,0.123431,0.4891,0.60447
1702329535031250,-9.77478,0.645102,0.569351,0.102631,0.22591,0.39147
1702329535039062,-9.68278,0.617102,0.520351,0.97031,0.60291,0.12947
1702329535046875,-9.64578,0.572102,0.536351,0.78631,0.113591,0.6247
1702329535054687,-9.63378,0.643102,0.603351,0.91631,0.127191,0.6853
1702329535062500,-9.66078,0.825102,0.673351,0.113231,0.122491,0.14653
1702329535070312,-9.68278,1.87102,0.675351,0.126331,0.98191,0.11347
1702329535078125,-9.70878,1.341102,0.691351,0.149731,0.86191,0.34547
1702329535085937,-9.74878,1.540102,0.708351,0.198131,0.95091,0.63847
1702329535093750,-9.79778,1.654102,0.762351,0.260231,0.90291,0.98447
1702329535101562,-9.87578,1.660102,0.785351,0.331831,0.72191,0.125247
1702329535109375,-9.92178,1.534102,0.693351,0.383231,0.44991,0.140347
1702329535117187,-9.96478,1.280102,0.677351,0.424731,0.43091,0.149047
1702329535125000,-10.1878,0.985102,0.700351,0.442931,0.33691,0.142647
1702329535132812,-10.1178,0.679102,0.718351,0.444131,0.18891,0.120247
1702329535140625,-10.1178,0.415102,0.655351,0.419031,0.2709,0.100847
1702329535148437,-10.7678,0.250102,0.486351,0.387231,0.19409,0.65247
1702329535156250,-10.6678,0.71102,0.394351,0.360331,0.34409,0.40947
1702329535164062,-9.93178,0.121898,0.356351,0.319231,0.60609,0.24547
1702329535171875,-9.74678,0.288898,0.340351,0.273731,0.67409,0.9647
1702329535179687,-9.63378,0.370898,0.318351,0.243531,0.87009,0.6753
1702329535187500,-9.59778,0.331898,0.322351,0.203731,0.93509,0.21753
1702329535195312,-9.60878,0.242898,0.374351,0.164231,0.67509,0.35253
1702329535203125,-9.64678,0.215898,0.459351,0.99831,0.20109,0.28253
1702329535210937,-9.70278,0.218898,0.642351,0.43131,0.22391,0.27653
1702329535218750,-9.83878,0.165898,0.831351,0.669,0.41791,0.26553
1702329535226562,-9.95078,0.46898,0.858351,0.18069,0.22391,0.23553
1702329535234375,-9.94078,0.41102,0.774351,0.25969,0.409,0.23553
1702329535242187,-9.88678,0.138102,0.772351,0.22769,0.9091,0.36353
1702329535250000,-9.84378,0.304102,0.878351,0.28569,0.16891,0.39453
1702329535257812,-9.77678,0.487102,0.925351,0.27569,0.391,0.69953
1702329535265625,-9.71478,0.650102,0.842351,0.26369,0.32109,0.79453
1702329535273437,-9.74778,0.751102,0.722351,0.14069,0.59809,0.93753
1702329535281250,-9.83278,0.756102,0.670351,0.5069,0.77809,0.108053
1702329535289062,-9.90378,0.658102,0.621351,0.9369,0.82809,0.101553
1702329535296875,-9.94378,0.499102,0.592351,0.19969,0.83109,0.99953
1702329535304687,-9.98978,0.275102,0.585351,0.26769,0.94009,0.90553
1702329535312500,-10.2178,0.63102,0.621351,0.40169,0.109309,0.98353
1702329535320312,-10.2378,0.134898,0.693351,0.55069,0.128509,0.106653
1702329535328125,-9.96078,0.289898,0.680351,0.80069,0.167109,0.104653
1702329535335937,-9.83278,0.407898,0.584351,0.111269,0.193409,0.107953
1702329535343750,-9.77578,0.450898,0.574351,0.142169,0.196109,0.115053
1702329535351562,-9.74278,0.424898,0.610351,0.175969,0.198209,0.112053
1702329535359375,-9.69678,0.358898,0.482351,0.208069,0.210609,0.102953
1702329535367187,-9.67478,0.332898,0.367351,0.226869,0.202309,0.92053
1702329535375000,-9.68078,0.238898,0.349351,0.251469,0.197809,0.96953
1702329535382812,-9.63578,0.59898,0.329351,0.268269,0.180109,0.85853
1702329535390625,-9.59078,0.187102,0.320351,0.273169,0.168509,0.82853
1702329535398437,-9.58178,0.487102,0.335351,0.265169,0.147309,0.78053
1702329535406250,-9.63178,0.796102,0.326351,0.229369,0.132209,0.66653
1702329535414062,-9.72278,1.30102,0.359351,0.178169,0.131509,0.53453
1702329535421875,-9.82278,1.215102,0.389351,0.134269,0.123109,0.40153
1702329535429687,-9.90478,1.336102,0.384351,0.110069,0.133209,0.37953
1702329535437500,-9.95978,1.380102,0.328351,0.89369,0.151409,0.39153
1702329535445312,-9.93378,1.344102,0.263351,0.60769,0.169609,0.45053
1702329535453125,-9.88578,1.276102,0.272351,0.28569,0.169309,0.60953
1702329535460937,-9.80578,1.193102,0.249351,0.1569,0.186009,0.68453
1702329535468750,-9.68778,1.116102,0.170351,0.18031,0.183809,0.70053
1702329535476562,-9.61978,1.57102,0.143351,0.27531,0.172609,0.79553
1702329535484375,-9.60978,1.2102,0.143351,0.41231,0.154409,0.82853
1702329535492187,-9.62478,0.971102,0.191351,0.51031,0.144809,0.81053
1702329535500000,-9.62178,0.926102,0.164351,0.57031,0.138009,0.71553
1702329535507812,-9.64578,0.851102,0.121351,0.71531,0.128209,0.60053
1702329535515625,-9.75678,0.780102,0.76351,0.76131,0.126409,0.52053
1702329535523437,-9.79878,0.747102,0.44351,0.74931,0.115009,0.42453
1702329535531250,-9.85778,0.752102,0.69351,0.75731,0.112909,0.41053
1702329535539062,-9.94778,0.792102,0.80351,0.87731,0.115109,0.38953
1702329535546875,-10.2078,0.830102,0.44351,0.83631,0.99909,0.41053
1702329535554687,-10.4178,0.839102,0.35351,0.98031,0.98209,0.27953
1702329535562500,-10.278,0.837102,0.67351,0.100231,0.95509,0.35753
1702329535570312,-9.95578,0.847102,0.51351,0.103331,0.96909,0.27753
1702329535578125,-9.85278,0.868102,0.11351,0.111631,0.117009,0.36953
1702329535585937,-9.76378,0.891102,0.29649,0.121631,0.134409,0.43553
1702329535593750,-9.71578,0.875102,0.79649,0.126531,0.147609,0.49753
1702329535601562,-9.72478,0.866102,0.139649,0.131231,0.164009,0.52753
1702329535609375,-9.76178,0.796102,0.128649,0.136331,0.177209,0.47753
1702329535617187,-9.82378,0.719102,0.132649,0.144431,0.182109,0.37953
1702329535625000,-9.87178,0.658102,0.168649,0.149631,0.189009,0.42453
1702329535632812,-9.90778,0.634102,0.169649,0.147231,0.178509,0.34853
1702329535640625,-9.83478,0.566102,0.155649,0.151931,0.173609,0.33253
1702329535648437,-9.69678,0.515102,0.92649,0.149531,0.155209,0.38353
1702329535656250,-9.63578,0.490102,0.27649,0.150231,0.150809,0.42953
1702329535664062,-9.59778,0.473102,0.69649,0.151231,0.173509,0.57453
1702329535671875,-9.56778,0.467102,0.157649,0.140731,0.188709,0.68553
1702329535679687,-9.57078,0.491102,0.245649,0.127931,0.206709,0.78253
1702329535687500,-9.56578,0.500102,0.279649,0.127931,0.190609,0.87953
1702329535695312,-9.53878,0.502102,0.288649,0.121331,0.175709,0.91353
1702329535703125,-9.53178,0.473102,0.292649,0.113331,0.156109,0.91653
1702329535710937,-9.51578,0.455102,0.308649,0.108331,0.144509,0.96653
1702329535718750,-9.46378,0.452102,0.313649,0.100731,0.131609,0.90353
1702329535726562,-9.41878,0.458102,0.301649,0.96131,0.133509,0.103153
1702329535734375,-9.38178,0.488102,0.317649,0.73331,0.128109,0.106953
1702329535742187,-9.35978,0.521102,0.331649,0.50131,0.128409,0.107053
1702329535750000,-9.37078,0.535102,0.344649,0.25631,0.124109,0.116753
1702329535757812,-9.44278,0.554102,0.326649,0.11331,0.124009,0.115353
1702329535765625,-9.56278,0.567102,0.288649,0.431,0.122409,0.112253
1702329535773437,-9.65678,0.582102,0.254649,0.1969,0.126009,0.105653
1702329535781250,-9.72478,0.573102,0.216649,0.23469,0.131809,0.104653
1702329535789062,-9.76878,0.559102,0.150649,0.31869,0.125809,0.94853
1702329535796875,-9.79878,0.559102,0.58649,0.36569,0.117609,0.90153
1702329535804687,-9.81878,0.590102,0.15351,0.54269,0.102609,0.88953
1702329535812500,-9.80878,0.659102,0.36351,0.73569,0.100009,0.80753
1702329535820312,-9.81278,0.746102,0.20351,0.95769,0.96509,0.73153
1702329535828125,-9.81878,0.883102,0.22351,0.97569,0.88009,0.65353
1702329535835937,-9.80478,0.994102,0.62351,0.100369,0.70109,0.50953
1702329535843750,-9.82578,1.52102,0.76351,0.84469,0.71509,0.31453
1702329535851562,-9.87578,1.88102,0.96351,0.71869,0.74709,0.31253
1702329535859375,-9.90078,1.84102,0.47351,0.76469,0.94209,0.23253
1702329535867187,-9.85578,1.52102,0.60649,0.63569,0.97709,0.21253
1702329535875000,-9.81378,1.3102,0.78649,0.47669,0.96209,0.19453
1702329535882812,-9.78678,0.947102,0.94649,0.37769,0.97009,0.19753
1702329535890625,-9.78378,0.898102,0.130649,0.30969,0.97609,0.27453
1702329535898437,-9.75178,0.884102,0.164649,0.33169,0.95509,0.32553
1702329535906250,-9.72778,0.897102,0.171649,0.34769,0.77709,0.37453
1702329535914062,-9.71178,0.917102,0.182649,0.31869,0.69509,0.45553
1702329535921875,-9.70578,0.961102,0.297649,0.26869,0.77809,0.45353
1702329535929687,-9.70278,1.57102,0.387649,0.20669,0.69509,0.35753
1702329535937500,-9.73878,1.212102,0.437649,0.369,0.56109,0.22753
1702329535945312,-9.80278,1.391102,0.441649,0.23431,0.42809,0.1547
1702329535953125,-9.92678,1.577102,0.428649,0.48031,0.13709,0.25947
1702329535960937,-10.1478,1.720102,0.412649,0.83231,0.5291,0.50047
1702329535968750,-10.13178,1.802102,0.372649,0.118031,0.19091,0.70147
1702329535976562,-10.24578,1.823102,0.336649,0.154431,0.39791,0.82847
1702329535984375,-10.27078,1.782102,0.275649,0.195131,0.38991,0.91847
1702329535992187,-10.25178,1.680102,0.218649,0.218131,0.36091,0.93547
1702329536000000,-10.15778,1.574102,0.182649,0.250931,0.18291,0.89147
1702329536007812,-10.1878,1.449102,0.124649,0.282931,0.4109,0.78147
1702329536015625,-9.79178,1.311102,0.56649,0.313031,0.25709,0.64247
1702329536023437,-9.52978,1.205102,0.24351,0.323731,0.27509,0.41947
1702329536031250,-9.29878,1.117102,0.114351,0.337731,0.35809,0.26047
1702329536039062,-9.11378,1.38102,0.143351,0.351431,0.44109,0.2147
1702329536046875,-9.2778,0.982102,0.103351,0.339831,0.44109,0.20653
1702329536054687,-8.99978,0.937102,0.67351,0.329931,0.39109,0.33753
1702329536062500,-9.3278,0.929102,0.20351,0.302031,0.28109,0.40353
1702329536070312,-9.12278,0.935102,0.33649,0.278731,0.23409,0.40653
1702329536078125,-9.25278,0.908102,0.45649,0.263031,0.7009,0.32853
1702329536085937,-9.46778,0.847102,0.38649,0.251431,0.2291,0.24753
1702329536093750,-9.66078,0.799102,0.38649,0.219331,0.7009,0.25253
1702329536101562,-9.83978,0.757102,0.27649,0.184631,0.29809,0.24053
1702329536109375,-9.92378,0.698102,0.126649,0.144331,0.61109,0.22553
1702329536117187,-9.89878,0.647102,0.187649,0.109531,0.72209,0.13453
1702329536125000,-9.82578,0.588102,0.202649,0.78831,0.83909,0.2253
1702329536132812,-9.72178,0.531102,0.247649,0.50231,0.82009,0.1153
1702329536140625,-9.61678,0.438102,0.337649,0.41831,0.83309,0.3053
1702329536148437,-9.52278,0.331102,0.369649,0.25731,0.77609,0.1253
1702329536156250,-9.48778,0.234102,0.380649,0.26231,0.85109,0.7953
1702329536164062,-9.44878,0.172102,0.456649,0.11531,0.99109,0.22153
1702329536171875,-9.41478,0.172102,0.553649,0.8169,0.103709,0.40253
1702329536179687,-9.41178,0.264102,0.605649,0.26669,0.101809,0.71253
1702329536187500,-9.45478,0.416102,0.601649,0.29469,0.91009,0.88853
1702329536195312,-9.50378,0.532102,0.536649,0.30569,0.64309,0.95753
1702329536203125,-9.54578,0.608102,0.439649,0.47369,0.64909,0.113353
1702329536210937,-9.51878,0.650102,0.405649,0.50969,0.71209,0.118353
1702329536218750,-9.48078,0.647102,0.412649,0.53969,0.73209,0.132753
1702329536226562,-9.51478,0.663102,0.436649,0.74769,0.73109,0.144353
1702329536234375,-9.56978,0.706102,0.452649,0.87369,0.81309,0.150853
1702329536242187,-9.66678,0.766102,0.425649,0.99569,0.81609,0.149253
1702329536250000,-9.79378,0.823102,0.308649,0.113269,0.70309,0.134853
1702329536257812,-9.94878,0.830102,0.211649,0.131969,0.48609,0.104753
1702329536265625,-10.11478,0.817102,0.184649,0.156169,0.42309,0.77553
1702329536273437,-10.26178,0.832102,0.151649,0.176669,0.32009,0.53953
1702329536281250,-10.34478,0.864102,0.106649,0.174569,0.36509,0.8853
1702329536289062,-10.27978,0.879102,0.99649,0.176369,0.44909,0.26747
1702329536296875,-10.14878,0.815102,0.85649,0.179369,0.36709,0.36347
1702329536304687,-9.98178,0.770102,0.67649,0.180469,0.28609,0.50847
1702329536312500,-9.84678,0.793102,0.101649,0.170869,0.48209,0.54347
1702329536320312,-9.77478,0.887102,0.232649,0.175669,0.67809,0.51147
1702329536328125,-9.75378,1.24102,0.373649,0.153169,0.77809,0.56447
1702329536335937,-9.74678,1.159102,0.414649,0.123769,0.88809,0.61447
1702329536343750,-9.76878,1.237102,0.365649,0.109969,0.82109,0.61547
1702329536351562,-9.76878,1.273102,0.342649,0.86269,0.83809,0.60247
1702329536359375,-9.73978,1.237102,0.326649,0.64469,0.85509,0.52447
1702329536367187,-9.67278,1.165102,0.313649,0.53869,0.95209,0.39647
1702329536375000,-9.60878,1.95102,0.293649,0.48769,0.98709,0.36647
1702329536382812,-9.54278,1.27102,0.288649,0.52269,0.88809,0.31647
1702329536390625,-9.47878,0.989102,0.310649,0.67769,0.64709,0.21847
1702329536398437,-9.48478,0.938102,0.306649,0.77769,0.44809,0.19847
1702329536406250,-9.57178,0.880102,0.292649,0.94569,0.43409,0.21347
1702329536414062,-9.66178,0.854102,0.313649,0.99369,0.58009,0.22947
1702329536421875,-9.71978,0.826102,0.340649,0.97669,0.62909,0.27847
1702329536429687,-9.74778,0.803102,0.315649,0.98669,0.71409,0.32847
1702329536437500,-9.70978,0.809102,0.301649,0.92269,0.74609,0.36247
1702329536445312,-9.64978,0.812102,0.331649,0.95969,0.84109,0.36047
1702329536453125,-9.58478,0.811102,0.353649,0.99169,0.79209,0.34347
1702329536460937,-9.55078,0.821102,0.353649,0.93069,0.74109,0.35947
1702329536468750,-9.60278,0.831102,0.274649,0.97769,0.64409,0.29447
1702329536476562,-9.67478,0.845102,0.200649,0.99869,0.60909,0.21147
1702329536484375,-9.76978,0.853102,0.146649,0.123369,0.66109,0.11347
1702329536492187,-9.87478,0.862102,0.159649,0.128869,0.79709,0.6847
1702329536500000,-9.92178,0.834102,0.171649,0.146569,0.89309,0.147
1702329536507812,-9.92778,0.805102,0.81649,0.146869,0.79509,0.8053
1702329536515625,-9.90278,0.769102,0.67351,0.148469,0.73009,0.6453
1702329536523437,-9.83678,0.728102,0.153351,0.169969,0.71809,0.12953
1702329536531250,-9.75878,0.747102,0.177351,0.192369,0.73209,0.18153
1702329536539062,-9.76678,0.840102,0.130351,0.201869,0.71509,0.15153
1702329536546875,-9.83178,0.970102,0.65351,0.212469,0.69909,0.2353
1702329536554687,-9.91878,1.104102,0.13351,0.202669,0.71309,0.26747
1702329536562500,-9.93678,1.227102,0.25649,0.199369,0.56509,0.36347
1702329536570312,-9.93178,1.341102,0.79649,0.188969,0.51009,0.50647
1702329536578125,-9.89778,1.448102,0.182649,0.161369,0.62809,0.60947
1702329536585937,-9.86778,1.556102,0.338649,0.134769,0.70809,0.69247
1702329536593750,-9.84678,1.647102,0.421649,0.99969,0.69209,0.76147
1702329536601562,-9.86078,1.696102,0.468649,0.54469,0.83909,0.73547
1702329536609375,-9.86578,1.714102,0.488649,0.29369,0.99609,0.68047
1702329536617187,-9.86878,1.668102,0.455649,0.1331,0.96109,0.55347
1702329536625000,-9.89078,1.579102,0.459649,0.33231,0.116709,0.45847
1702329536632812,-9.86578,1.427102,0.484649,0.53431,0.139509,0.38147
1702329536640625,-9.73478,1.213102,0.547649,0.74331,0.170809,0.35547
1702329536648437,-9.55678,0.949102,0.598649,0.98431,0.178109,0.16847
1702329536656250,-9.36778,0.723102,0.585649,0.88731,0.167309,0.3247
1702329536664062,-9.22578,0.588102,0.562649,0.79631,0.144909,0.12853
1702329536671875,-9.20878,0.508102,0.571649,0.69331,0.123309,0.21453
1702329536679687,-9.26278,0.487102,0.583649,0.50631,0.107109,0.16853
1702329536687500,-9.40178,0.495102,0.518649,0.26531,0.92009,0.15853
1702329536695312,-9.58478,0.529102,0.409649,0.4469,0.71009,0.8153
1702329536703125,-9.70678,0.562102,0.306649,0.22769,0.77609,0.3047
1702329536710937,-9.73678,0.625102,0.252649,0.50669,0.81109,0.10847
1702329536718750,-9.72178,0.680102,0.202649,0.66469,0.72809,0.17047
1702329536726562,-9.68278,0.748102,0.148649,0.83869,0.48009,0.26247
1702329536734375,-9.66878,0.874102,0.108649,0.100569,0.43409,0.35847
1702329536742187,-9.72678,1.33102,0.87649,0.100569,0.40109,0.34147
1702329536750000,-9.77678,1.167102,0.88649,0.98969,0.48309,0.34247
1702329536757812,-9.80878,1.243102,0.85649,0.100069,0.46909,0.37547
1702329536765625,-9.85178,1.274102,0.133649,0.98469,0.64809,0.42547
1702329536773437,-9.85878,1.279102,0.202649,0.92769,0.71109,0.34447
1702329536781250,-9.86178,1.305102,0.230649,0.69569,0.69109,0.36147
1702329536789062,-9.81478,1.311102,0.203649,0.55269,0.71109,0.28447
1702329536796875,-9.72178,1.294102,0.241649,0.38369,0.70909,0.20447
1702329536804687,-9.63378,1.244102,0.297649,0.15169,0.79009,0.11047
1702329536812500,-9.59978,1.206102,0.394649,0.2969,0.83909,0.6453
1702329536820312,-9.59678,1.155102,0.446649,0.9931,0.71109,0.3053
1702329536828125,-9.62978,1.120102,0.432649,0.14731,0.51509,0.4753
1702329536835937,-9.66478,1.92102,0.385649,0.16131,0.45009,0.7953
1702329536843750,-9.70478,1.41102,0.347649,0.4631,0.38209,0.13153
1702329536851562,-9.73778,0.977102,0.335649,0.131,0.39809,0.3453
1702329536859375,-9.75278,0.906102,0.340649,0.1431,0.44509,0.1953
1702329536867187,-9.76678,0.843102,0.324649,0.569,0.45309,0.1553
1702329536875000,-9.77078,0.796102,0.290649,0.16369,0.43509,0.4647
1702329536882812,-9.77478,0.787102,0.297649,0.21069,0.44809,0.22147
1702329536890625,-9.76378,0.827102,0.321649,0.23369,0.51709,0.30447
1702329536898437,-9.74278,0.882102,0.349649,0.22569,0.39709,0.36547
1702329536906250,-9.71878,0.930102,0.394649,0.30669,0.28109,0.34647
1702329536914062,-9.67878,0.961102,0.389649,0.25069,0.36809,0.39947
1702329536921875,-9.70578,1.4102,0.324649,0.28069,0.43509,0.36747
1702329536929687,-9.72678,1.27102,0.355649,0.25969,0.58509,0.37047
1702329536937500,-9.72278,1.35102,0.400649,0.21969,0.66309,0.30447
1702329536945312,-9.71578,1.26102,0.416649,0.23069,0.61909,0.22547
1702329536953125,-9.67778,1.52102,0.423649,0.20769,0.63109,0.11147
1702329536960937,-9.65778,1.69102,0.446649,0.11969,0.66209,0.1447
1702329536968750,-9.64478,1.82102,0.450649,0.4169,0.54709,0.153
1702329536976562,-9.62878,1.51102,0.443649,0.9269,0.53009,0.6753
1702329536984375,-9.64178,1.18102,0.403649,0.21269,0.48509,0.6653
1702329536992187,-9.66278,0.985102,0.432649,0.24069,0.48609,0.1853
1702329537000000,-9.66278,0.941102,0.464649,0.22969,0.48209,0.4447
1702329537007812,-9.69078,0.900102,0.481649,0.23369,0.53709,0.12847
1702329537015625,-9.67678,0.839102,0.509649,0.25669,0.45009,0.15747
1702329537023437,-9.66078,0.815102,0.526649,0.30269,0.43509,0.14147
1702329537031250,-9.63878,0.807102,0.511649,0.37269,0.46109,0.21747
1702329537039062,-9.62178,0.801102,0.522649,0.45569,0.45309,0.22047
1702329537046875,-9.63178,0.810102,0.524649,0.48869,0.43509,0.23547
1702329537054687,-9.63878,0.850102,0.502649,0.48469,0.34109,0.18847
1702329537062500,-9.65478,0.875102,0.470649,0.51769,0.38909,0.15547
1702329537070312,-9.67278,0.877102,0.439649,0.46969,0.45609,0.12547
1702329537078125,-9.65278,0.885102,0.463649,0.52369,0.43609,0.7447
1702329537085937,-9.66878,0.883102,0.466649,0.67269,0.43109,0.3747
1702329537093750,-9.71378,0.889102,0.432649,0.68069,0.42009,0.4047
1702329537101562,-9.76478,0.872102,0.434649,0.58869,0.45109,0.4047
1702329537109375,-9.79178,0.881102,0.416649,0.71169,0.43609,0.3947
1702329537117187,-9.81478,0.865102,0.410649,0.78469,0.44609,0.1947
1702329537125000,-9.82278,0.848102,0.405649,0.87769,0.43109,0.2953
1702329537132812,-9.83878,0.828102,0.355649,0.90669,0.44909,0.1253
1702329537140625,-9.83878,0.823102,0.293649,0.88769,0.42609,0.11253
1702329537148437,-9.83178,0.839102,0.306649,0.90369,0.64809,0.10653
1702329537156250,-9.82378,0.859102,0.360649,0.98869,0.79109,0.10853
1702329537164062,-9.83278,0.902102,0.398649,0.96069,0.79809,0.7253
1702329537171875,-9.86078,0.935102,0.425649,0.98569,0.82509,0.5953
1702329537179687,-9.86578,0.969102,0.457649,0.97569,0.81309,0.5547
1702329537187500,-9.86878,1.15102,0.434649,0.99169,0.73109,0.7147
1702329537195312,-9.85778,1.48102,0.432649,0.80269,0.84509,0.9047
1702329537203125,-9.82178,1.50102,0.432649,0.72869,0.85709,0.13747
1702329537210937,-9.78578,1.36102,0.443649,0.63369,0.88809,0.25047
1702329537218750,-9.75178,1.9102,0.432649,0.56369,0.94409,0.14247
1702329537226562,-9.73578,1.11102,0.448649,0.53469,0.97609,0.9447
1702329537234375,-9.73578,1.8102,0.435649,0.48369,0.91909,0.10647
1702329537242187,-9.72678,1.6102,0.391649,0.55269,0.95809,0.9347
1702329537250000,-9.75378,1.11102,0.351649,0.57069,0.94109,0.7647
1702329537257812,-9.73978,1.8102,0.335649,0.54069,0.95609,0.9247
1702329537265625,-9.68578,0.972102,0.342649,0.53069,0.97009,0.2647
1702329537273437,-9.63378,0.938102,0.349649,0.58969,0.97109,0.7447
1702329537281250,-9.60178,0.929102,0.351649,0.57669,0.93809,0.553
1702329537289062,-9.58178,0.937102,0.358649,0.55769,0.72809,0.1047
1702329537296875,-9.57978,0.935102,0.362649,0.47669,0.72909,0.6047
1702329537304687,-9.60378,0.940102,0.351649,0.52269,0.71209,0.12447
1702329537312500,-9.64278,0.956102,0.401649,0.47869,0.69509,0.7547
1702329537320312,-9.69478,0.981102,0.450649,0.48969,0.71409,0.10847
1702329537328125,-9.73878,1.26102,0.491649,0.58969,0.66109,0.8947
1702329537335937,-9.75178,1.49102,0.504649,0.49669,0.64309,0.13747
1702329537343750,-9.73678,1.84102,0.484649,0.52369,0.53209,0.10647
1702329537351562,-9.73078,1.97102,0.437649,0.54169,0.56409,0.10547
1702329537359375,-9.71878,1.88102,0.439649,0.47669,0.72709,0.12347
1702329537367187,-9.71378,1.68102,0.452649,0.44169,0.77909,0.12647
1702329537375000,-9.68678,1.68102,0.493649,0.36669,0.76009,0.15747
1702329537382812,-9.65578,1.85102,0.482649,0.24669,0.64209,0.12447
1702329537390625,-9.64778,1.98102,0.482649,0.23169,0.52809,0.10747
1702329537398437,-9.64378,1.120102,0.489649,0.25369,0.47509,0.12147
1702329537406250,-9.65878,1.134102,0.475649,0.15969,0.42009,0.11147
1702329537414062,-9.67278,1.136102,0.477649,0.5269,0.35309,0.12747
1702329537421875,-9.67678,1.132102,0.493649,0.2131,0.28309,0.20647
1702329537429687,-9.68178,1.143102,0.502649,0.531,0.18609,0.12547
1702329537437500,-9.69278,1.139102,0.509649,0.16531,0.17109,0.17647
1702329537445312,-9.70378,1.126102,0.508649,0.20231,0.16009,0.11447
1702329537453125,-9.70178,1.117102,0.524649,0.24431,0.12309,0.12847
1702329537460937,-9.70378,1.115102,0.533649,0.19531,0.17109,0.11247
1702329537468750,-9.69678,1.99102,0.569649,0.24331,0.20509,0.9747
1702329537476562,-9.70578,1.84102,0.587649,0.27531,0.23709,0.9747
1702329537484375,-9.70478,1.44102,0.601649,0.27031,0.36609,0.1747
1702329537492187,-9.67978,1.10102,0.610649,0.32931,0.41309,0.0
1702329537500000,-9.66778,0.972102,0.617649,0.42131,0.44409,0.1453
1702329537507812,-9.69678,0.937102,0.626649,0.46031,0.43309,0.4453
1702329537515625,-9.72978,0.891102,0.621649,0.46431,0.44309,0.11153
1702329537523437,-9.78678,0.832102,0.590649,0.30131,0.43409,0.14253
1702329537531250,-9.81978,0.760102,0.502649,0.21331,0.47109,0.15753
1702329537539062,-9.82278,0.684102,0.443649,0.131,0.51509,0.16253
1702329537546875,-9.79278,0.641102,0.436649,0.23069,0.56509,0.13153
1702329537554687,-9.78778,0.610102,0.396649,0.42169,0.51409,0.7053
1702329537562500,-9.78978,0.608102,0.387649,0.50669,0.57009,0.10053
1702329537570312,-9.75678,0.641102,0.405649,0.74869,0.64709,0.8953
1702329537578125,-9.72178,0.685102,0.396649,0.94469,0.45609,0.4153
1702329537585937,-9.72078,0.771102,0.360649,0.101569,0.43309,0.1847
1702329537593750,-9.69078,0.866102,0.351649,0.107369,0.59909,0.3647
1702329537601562,-9.66978,0.959102,0.410649,0.104269,0.72909,0.6947
1702329537609375,-9.64478,1.67102,0.452649,0.113469,0.69709,0.10047
1702329537617187,-9.64378,1.149102,0.457649,0.109969,0.74709,0.16647
1702329537625000,-9.64878,1.231102,0.493649,0.99269,0.71209,0.23047
1702329537632812,-9.67078,1.280102,0.518649,0.101069,0.69409,0.21347
1702329537640625,-9.70678,1.310102,0.527649,0.90969,0.71409,0.26547
1702329537648437,-9.71378,1.319102,0.569649,0.73269,0.70009,0.31647
1702329537656250,-9.72178,1.313102,0.599649,0.65569,0.61609,0.33247
1702329537664062,-9.71678,1.266102,0.633649,0.51669,0.59809,0.36547
1702329537671875,-9.68478,1.221102,0.655649,0.42469,0.58009,0.34947
1702329537679687,-9.67578,1.188102,0.655649,0.28269,0.56509,0.28747
1702329537687500,-9.65878,1.152102,0.646649,0.21969,0.60009,0.22447
1702329537695312,-9.64278,1.109102,0.637649,0.20469,0.66409,0.24047
1702329537703125,-9.63278,1.49102,0.621649,0.13169,0.71009,0.17647
1702329537710937,-9.66378,0.988102,0.585649,0.6369,0.66509,0.13047
1702329537718750,-9.69778,0.911102,0.572649,0.11169,0.69809,0.8147
1702329537726562,-9.71978,0.862102,0.549649,0.20469,0.68309,0.4847
1702329537734375,-9.73578,0.849102,0.502649,0.22369,0.51809,0.3047
1702329537742187,-9.76878,0.847102,0.448649,0.44969,0.46609,0.653
1702329537750000,-9.77378,0.858102,0.403649,0.51069,0.43409,0.653
1702329537757812,-9.75178,0.880102,0.425649,0.63369,0.56709,0.2253
1702329537765625,-9.74278,0.902102,0.439649,0.69869,0.54809,0.7147
1702329537773437,-9.72778,0.940102,0.441649,0.74169,0.61609,0.8947
1702329537781250,-9.71278,0.975102,0.441649,0.73169,0.70709,0.23147
1702329537789062,-9.67778,1.28102,0.457649,0.73969,0.69609,0.21847
1702329537796875,-9.64278,1.78102,0.486649,0.77169,0.68009,0.18547
1702329537804687,-9.61978,1.102102,0.491649,0.69069,0.71409,0.23547
1702329537812500,-9.61178,1.131102,0.488649,0.73869,0.69809,0.18647
1702329537820312,-9.62778,1.136102,0.493649,0.64669,0.71209,0.18747
1702329537828125,-9.65278,1.156102,0.511649,0.52269,0.68009,0.13947
1702329537835937,-9.69278,1.152102,0.513649,0.49069,0.61609,0.9247
1702329537843750,-9.74078,1.161102,0.536649,0.46869,0.54309,0.8847
1702329537851562,-9.74678,1.166102,0.560649,0.31969,0.61409,0.10947
1702329537859375,-9.74678,1.142102,0.574649,0.23069,0.44709,0.9147
1702329537867187,-9.76278,1.140102,0.545649,0.21669,0.46209,0.12347
1702329537875000,-9.75078,1.122102,0.565649,0.11669,0.49909,0.7847
1702329537882812,-9.73078,1.106102,0.581649,0.4269,0.54509,0.6247
1702329537890625,-9.70778,1.92102,0.597649,0.2131,0.46509,0.4747
1702329537898437,-9.67178,1.85102,0.588649,0.3231,0.46209,0.1347
1702329537906250,-9.64678,1.87102,0.569649,0.11831,0.32109,0.3153
1702329537914062,-9.64878,1.92102,0.556649,0.23231,0.32409,0.1253
1702329537921875,-9.66678,1.77102,0.540649,0.16931,0.29109,0.1353
1702329537929687,-9.67778,1.48102,0.536649,0.16531,0.37109,0.4653
1702329537937500,-9.70178,1.6102,0.536649,0.17831,0.25509,0.3153
1702329537945312,-9.71678,0.955102,0.504649,0.2431,0.27209,0.1653
1702329537953125,-9.73378,0.902102,0.479649,0.169,0.25009,0.3653
1702329537960937,-9.75378,0.869102,0.470649,0.1931,0.33409,0.1853
1702329537968750,-9.74478,0.862102,0.493649,0.2969,0.43309,0.11453
1702329537976562,-9.74078,0.884102,0.538649,0.4669,0.46209,0.353
1702329537984375,-9.73878,0.911102,0.558649,0.21669,0.49709,0.2053
1702329537992187,-9.73478,0.933102,0.590649,0.23069,0.48209,0.353
1702329538000000,-9.73478,0.975102,0.576649,0.26269,0.43109,0.7547
1702329538007812,-9.73578,1.2102,0.592649,0.37069,0.44909,0.5847
1702329538015625,-9.72278,1.15102,0.610649,0.40469,0.43009,0.13747
1702329538023437,-9.71778,1.4102,0.635649,0.45069,0.44809,0.7347
1702329538031250,-9.73378,0.997102,0.632649,0.36969,0.49809,0.10747
1702329538039062,-9.74378,0.969102,0.637649,0.48269,0.56109,0.8947
1702329538046875,-9.74778,0.933102,0.628649,0.48169,0.57909,0.2547
1702329538054687,-9.75278,0.918102,0.619649,0.51069,0.58009,0.4147
1702329538062500,-9.75378,0.898102,0.594649,0.61769,0.55009,0.4147
1702329538070312,-9.76078,0.896102,0.567649,0.69369,0.73209,0.553
1702329538078125,-9.74778,0.900102,0.556649,0.73769,0.72309,0.2147
1702329538085937,-9.72078,0.906102,0.556649,0.74769,0.74309,0.747
1702329538093750,-9.68978,0.937102,0.592649,0.79369,0.77609,0.5547
1702329538101562,-9.65678,0.974102,0.599649,0.72169,0.76509,0.13947
1702329538109375,-9.64378,1.23102,0.576649,0.79169,0.55809,0.15647
1702329538117187,-9.65578,1.76102,0.554649,0.79169,0.53109,0.15147
1702329538125000,-9.64978,1.149102,0.547649,0.70669,0.58409,0.13847
1702329538132812,-9.67878,1.209102,0.579649,0.76469,0.56009,0.18247
1702329538140625,-9.70578,1.246102,0.626649,0.59969,0.64709,0.18747
1702329538148437,-9.70378,1.265102,0.637649,0.46069,0.67809,0.15647
1702329538156250,-9.70378,1.279102,0.615649,0.36269,0.68109,0.17447
1702329538164062,-9.70378,1.294102,0.597649,0.18969,0.56509,0.24047
1702329538171875,-9.70378,1.303102,0.599649,0.23769,0.55109,0.12747
1702329538179687,-9.71278,1.308102,0.617649,0.11269,0.48509,0.9647
1702329538187500,-9.68878,1.307102,0.617649,0.1031,0.46709,0.11247
1702329538195312,-9.67278,1.291102,0.597649,0.15931,0.41209,0.12747
1702329538203125,-9.65178,1.258102,0.574649,0.28831,0.36609,0.9747
1702329538210937,-9.61778,1.208102,0.581649,0.26931,0.41209,0.11247
1702329538218750,-9.58078,1.184102,0.581649,0.35231,0.36709,0.8347
1702329538226562,-9.59378,1.147102,0.596649,0.53131,0.27609,0.2553
1702329538234375,-9.60678,1.109102,0.603649,0.50931,0.19009,0.2753
1702329538242187,-9.65578,1.76102,0.578649,0.49231,0.17209,0.1253
1702329538250000,-9.69878,1.68102,0.547649,0.43831,0.15209,0.4753
1702329538257812,-9.73678,1.69102,0.522649,0.38331,0.9209,0.3053
1702329538265625,-9.78178,1.87102,0.502649,0.38731,0.16009,0.2853
1702329538273437,-9.79078,1.94102,0.488649,0.41431,0.13809,0.11447
1702329538281250,-9.76378,1.111102,0.473649,0.49331,0.20309,0.14747
1702329538289062,-9.71978,1.117102,0.495649,0.44731,0.17009,0.21147
1702329538296875,-9.68778,1.112102,0.511649,0.51031,0.23409,0.26047
1702329538304687,-9.68578,1.103102,0.527649,0.33631,0.25109,0.19447
1702329538312500,-9.68278,1.77102,0.549649,0.28131,0.25609,0.19647
1702329538320312,-9.69778,1.57102,0.551649,0.15331,0.36809,0.24247
1702329538328125,-9.70678,1.37102,0.563649,0.15231,0.44909,0.22647
1702329538335937,-9.72578,0.996102,0.580649,0.12831,0.45409,0.24447
1702329538343750,-9.72378,0.964102,0.592649,0.1431,0.43509,0.22647
1702329538351562,-9.72578,0.956102,0.607649,0.3431,0.50309,0.22847
1702329538359375,-9.73478,0.958102,0.657649,0.2931,0.50109,0.14647
1702329538367187,-9.71878,0.944102,0.716649,0.6969,0.49909,0.9547
1702329538375000,-9.70778,0.951102,0.743649,0.5969,0.55509,0.9947
1702329538382812,-9.69878,0.958102,0.772649,0.13669,0.50509,0.16247
1702329538390625,-9.67178,0.972102,0.790649,0.20969,0.56509,0.11047
1702329538398437,-9.64978,1.8102,0.819649,0.22369,0.51709,0.12647
1702329538406250,-9.65278,1.27102,0.801649,0.24269,0.56309,0.14147
1702329538414062,-9.65578,1.34102,0.759649,0.22969,0.52709,0.22047
1702329538421875,-9.66278,1.56102,0.714649,0.24069,0.61209,0.23847
1702329538429687,-9.67178,1.63102,0.660649,0.30569,0.62709,0.22147
1702329538437500,-9.68478,1.48102,0.615649,0.36969,0.59309,0.23547
1702329538445312,-9.68178,1.32102,0.572649,0.39769,0.54709,0.22047
1702329538453125,-9.68378,1.28102,0.522649,0.44169,0.55009,0.17247
1702329538460937,-9.69278,1.32102,0.509649,0.48869,0.53309,0.18847
1702329538468750,-9.73878,1.49102,0.508649,0.48669,0.47109,0.15647
1702329538476562,-9.75678,1.56102,0.511649,0.58469,0.46709,0.21847
1702329538484375,-9.72278,1.64102,0.506649,0.56469,0.50209,0.21947
1702329538492187,-9.72378,1.88102,0.482649,0.54969,0.46909,0.20347
1702329538500000,-9.71178,1.99102,0.522649,0.54569,0.47009,0.31747
1702329538507812,-9.69478,1.121102,0.583649,0.46969,0.50109,0.28547
1702329538515625,-9.67878,1.139102,0.601649,0.40569,0.50109,0.33447
1702329538523437,-9.64578,1.149102,0.619649,0.27469,0.49409,0.30047
1702329538531250,-9.63678,1.140102,0.632649,0.22169,0.45109,0.25547
1702329538539062,-9.64778,1.118102,0.644649,0.24169,0.44809,0.23747
1702329538546875,-9.66478,1.76102,0.612649,0.22369,0.45109,0.17447
1702329538554687,-9.68678,1.37102,0.594649,0.25869,0.43409,0.9247
1702329538562500,-9.67478,0.995102,0.574649,0.34769,0.45309,0.10947
1702329538570312,-9.66878,0.939102,0.540649,0.32869,0.43909,0.11047
1702329538578125,-9.67578,0.921102,0.511649,0.36769,0.45009,0.9147
1702329538585937,-9.69578,0.904102,0.481649,0.44269,0.40409,0.7547
1702329538593750,-9.70678,0.884102,0.479649,0.46769,0.40809,0.10947
1702329538601562,-9.67078,0.883102,0.463649,0.52369,0.25509,0.8947
1702329538609375,-9.66878,0.890102,0.427649,0.68069,0.19009,0.10247
1702329538617187,-9.68678,0.915102,0.403649,0.72969,0.15809,0.3747
1702329538625000,-9.69678,0.939102,0.432649,0.73469,0.20409,0.4353
1702329538632812,-9.69878,0.962102,0.454649,0.80669,0.20809,0.547
1702329538640625,-9.70178,1.17102,0.461649,0.88969,0.25509,0.4453
1702329538648437,-9.71878,1.77102,0.477649,0.94769,0.30709,0.1153
1702329538656250,-9.73778,1.126102,0.470649,0.88869,0.27009,0.9947
1702329538664062,-9.74278,1.171102,0.488649,0.80669,0.37109,0.5447
1702329538671875,-9.74078,1.208102,0.529649,0.70469,0.38109,0.3747
1702329538679687,-9.74978,1.233102,0.549649,0.64569,0.24009,0.16847
1702329538687500,-9.77478,1.229102,0.527649,0.54069,0.23709,0.15247
1702329538695312,-9.76778,1.220102,0.581649,0.47969,0.35109,0.12147
1702329538703125,-9.74978,1.189102,0.655649,0.49169,0.35409,0.9047
1702329538710937,-9.73578,1.153102,0.678649,0.32269,0.31909,0.2647
1702329538718750,-9.70378,1.104102,0.691649,0.27369,0.35509,0.3553
1702329538726562,-9.67078,1.63102,0.691649,0.22269,0.35609,0.3047
1702329538734375,-9.65278,1.37102,0.707649,0.23969,0.35609,0.1853
1702329538742187,-9.64378,1.12102,0.714649,0.23169,0.43309,0.3653
1702329538750000,-9.66278,0.970102,0.716649,0.23969,0.38909,0.5053
1702329538757812,-9.65978,0.916102,0.689649,0.23369,0.33309,0.2153
1702329538765625,-9.66378,0.895102,0.630649,0.27569,0.30409,0.3653
1702329538773437,-9.70978,0.909102,0.578649,0.43269,0.30509,0.5453
1702329538781250,-9.77078,0.918102,0.578649,0.49869,0.31909,0.2453
1702329538789062,-9.80878,0.928102,0.563649,0.67069,0.41709,0.2553
1702329538796875,-9.81578,0.939102,0.567649,0.72269,0.53709,0.7447
1702329538804687,-9.80678,0.939102,0.540649,0.72569,0.50009,0.21647
1702329538812500,-9.78778,0.921102,0.531649,0.73569,0.66609,0.23547
1702329538820312,-9.72778,0.918102,0.567649,0.78469,0.76309,0.21847
1702329538828125,-9.67578,0.919102,0.565649,0.75869,0.72609,0.23247
1702329538835937,-9.62178,0.916102,0.578649,0.82469,0.69209,0.21547
1702329538843750,-9.62678,0.952102,0.585649,0.73569,0.71509,0.21947
1702329538851562,-9.63678,0.985102,0.601649,0.77169,0.68109,0.12147
1702329538859375,-9.67978,1.39102,0.596649,0.85469,0.58109,0.11847
1702329538867187,-9.73278,1.93102,0.574649,0.83569,0.64909,0.7247
1702329538875000,-9.76178,1.118102,0.581649,0.96369,0.58209,0.6947
1702329538882812,-9.77778,1.125102,0.574649,0.82269,0.58209,0.5547
1702329538890625,-9.78678,1.114102,0.540649,0.71069,0.51909,0.753
1702329538898437,-9.76178,1.84102,0.545649,0.74869,0.66209,0.953
1702329538906250,-9.71778,1.42102,0.578649,0.69769,0.73009,0.2253
1702329538914062,-9.69278,1.13102,0.578649,0.61369,0.63509,0.1147
1702329538921875,-9.67678,0.981102,0.540649,0.54169,0.63109,0.3753
1702329538929687,-9.67178,0.981102,0.517649,0.67569,0.58809,0.2053
1702329538937500,-9.68378,0.994102,0.529649,0.63969,0.53009,0.2453
1702329538945312,-9.67278,1.28102,0.540649,0.65169,0.56409,0.7247
1702329538953125,-9.67178,1.56102,0.558649,0.69869,0.58109,0.7247
1702329538960937,-9.66678,1.68102,0.551649,0.65569,0.55609,0.10847
1702329538968750,-9.68278,1.101102,0.563649,0.57169,0.46709,0.8947
1702329538976562,-9.69278,1.123102,0.547649,0.63069,0.38809,0.8947
1702329538984375,-9.70478,1.170102,0.558649,0.56769,0.37309,0.2647
1702329538992187,-9.68878,1.185102,0.574649,0.50669,0.35209,0.23447
1702329539000000,-9.67878,1.223102,0.603649,0.39869,0.38509,0.13947
1702329539007812,-9.66778,1.276102,0.615649,0.24269,0.43409,0.9247
1702329539015625,-9.65478,1.322102,0.624649,0.24069,0.38609,0.9347
1702329539023437,-9.66478,1.358102,0.635649,0.4969,0.32309,0.8047
1702329539031250,-9.67778,1.354102,0.612649,0.6031,0.37209,0.6547
1702329539039062,-9.71378,1.350102,0.619649,0.17031,0.37109,0.8247
1702329539046875,-9.74578,1.350102,0.619649,0.43231,0.41709,0.6847
1702329539054687,-9.74478,1.331102,0.653649,0.46731,0.27309,0.6947
1702329539062500,-9.72878,1.290102,0.689649,0.56831,0.26709,0.1947
1702329539070312,-9.70278,1.244102,0.657649,0.65231,0.20709,0.5753
1702329539078125,-9.67078,1.181102,0.637649,0.77831,0.20909,0.10453
1702329539085937,-9.64078,1.122102,0.646649,0.75231,0.28409,0.15553
1702329539093750,-9.62678,1.89102,0.682649,0.77531,0.19109,0.15353
1702329539101562,-9.64478,1.85102,0.711649,0.75731,0.19209,0.28253
1702329539109375,-9.66478,1.97102,0.684649,0.78631,0.17409,0.26653
1702329539117187,-9.70578,1.123102,0.662649,0.66931,0.20109,0.28653
1702329539125000,-9.71378,1.168102,0.648649,0.65931,0.18709,0.18853
1702329539132812,-9.69578,1.177102,0.617649,0.73931,0.12109,0.7553
1702329539140625,-9.69778,1.185102,0.590649,0.67531,0.13509,0.1947
1702329539148437,-9.75278,1.226102,0.590649,0.77831,0.14009,0.11947
1702329539156250,-9.78178,1.247102,0.630649,0.75731,0.19909,0.21347
1702329539164062,-9.79278,1.249102,0.632649,0.76631,0.15509,0.29647
1702329539171875,-9.78378,1.220102,0.610649,0.79131,0.11909,0.24647
1702329539179687,-9.74278,1.195102,0.594649,0.66131,0.8409,0.24347
1702329539187500,-9.70878,1.179102,0.554649,0.48831,0.9491,0.16047
1702329539195312,-9.71378,1.228102,0.540649,0.52431,0.13791,0.5047
1702329539203125,-9.72878,1.288102,0.509649,0.43831,0.15991,0.3047
1702329539210937,-9.71378,1.343102,0.504649,0.48931,0.709,0.1747
1702329539218750,-9.68778,1.378102,0.554649,0.51831,0.16809,0.1747
1702329539226562,-9.69578,1.370102,0.621649,0.59231,0.32009,0.13547
1702329539234375,-9.71378,1.305102,0.658649,0.64131,0.34309,0.14747
1702329539242187,-9.72178,1.237102,0.693649,0.74531,0.41409,0.19947
1702329539250000,-9.68678,1.163102,0.741649,0.77131,0.50809,0.21547
1702329539257812,-9.63878,1.113102,0.781649,0.75731,0.47709,0.19947
1702329539265625,-9.60378,1.91102,0.785649,0.78331,0.50109,0.15547
1702329539273437,-9.59478,1.62102,0.750649,0.77631,0.44809,0.10447
1702329539281250,-9.60778,1.22102,0.720649,0.75731,0.42909,0.10247
1702329539289062,-9.60978,1.102,0.702649,0.58731,0.46309,0.11747
1702329539296875,-9.58678,0.971102,0.686649,0.51431,0.51709,0.11947
1702329539304687,-9.57978,0.949102,0.653649,0.52431,0.54609,0.10147
1702329539312500,-9.56378,0.957102,0.648649,0.51331,0.55009,0.5547
1702329539320312,-9.55478,0.961102,0.635649,0.48931,0.49609,0.347
1702329539328125,-9.58178,0.967102,0.560649,0.41931,0.38809,0.1053
1702329539335937,-9.61378,0.971102,0.488649,0.21031,0.32209,0.14353
1702329539343750,-9.64478,0.969102,0.419649,0.10831,0.21809,0.9953
1702329539351562,-9.68578,0.988102,0.380649,0.1231,0.21709,0.13353
1702329539359375,-9.72678,1.21102,0.392649,0.6569,0.28309,0.13353
1702329539367187,-9.74978,1.64102,0.423649,0.23269,0.18709,0.2253
1702329539375000,-9.76178,1.102102,0.450649,0.26169,0.20509,0.2647
1702329539382812,-9.77378,1.147102,0.470649,0.22469,0.17409,0.10847
1702329539390625,-9.78578,1.202102,0.502649,0.24569,0.18609,0.13847
1702329539398437,-9.76178,1.227102,0.545649,0.20569,0.23909,0.25447
1702329539406250,-9.73078,1.275102,0.588649,0.17969,0.30109,0.23647
1702329539414062,-9.71378,1.305102,0.612649,0.17769,0.30009,0.33347
1702329539421875,-9.68378,1.308102,0.637649,0.12069,0.34009,0.33747
1702329539429687,-9.65178,1.276102,0.628649,0.869,0.31709,0.17447
1702329539437500,-9.63578,1.240102,0.619649,0.4331,0.33609,0.24147
1702329539445312,-9.60878,1.213102,0.628649,0.16731,0.33609,0.16147
1702329539453125,-9.54978,1.165102,0.615649,0.13131,0.28409,0.14347
1702329539460937,-9.53978,1.119102,0.590649,0.10131,0.15609,0.6347
1702329539468750,-9.56378,1.82102,0.583649,0.18031,0.23909,0.3153
1702329539476562,-9.61678,1.49102,0.585649,0.5131,0.13909,0.1853
1702329539484375,-9.66878,1.45102,0.594649,0.3631,0.7509,0.3453
1702329539492187,-9.69778,1.44102,0.599649,0.8231,0.20609,0.11353
1702329539500000,-9.71578,1.57102,0.635649,0.2131,0.12409,0.3453
1702329539507812,-9.71578,1.50102,0.619649,0.6531,0.2209,0.4447
1702329539515625,-9.72078,1.57102,0.608649,0.7031,0.7409,0.11047
1702329539523437,-9.71678,1.66102,0.596649,0.2031,0.20409,0.253
1702329539531250,-9.70078,1.86102,0.605649,0.2431,0.32009,0.7947
1702329539539062,-9.69878,1.99102,0.581649,0.1769,0.30809,0.1647
1702329539546875,-9.72178,1.113102,0.565649,0.12169,0.31809,0.1247
1702329539554687,-9.72778,1.115102,0.596649,0.15569,0.35709,0.14447
1702329539562500,-9.73478,1.100102,0.610649,0.22769,0.36809,0.9247
1702329539570312,-9.72378,1.84102,0.576649,0.22669,0.33509,0.15647
1702329539578125,-9.70978,1.57102,0.554649,0.23969,0.28709,0.20547
1702329539585937,-9.68878,1.51102,0.560649,0.21569,0.34109,0.22447
1702329539593750,-9.67478,1.30102,0.572649,0.23669,0.37209,0.14247
1702329539601562,-9.67778,1.25102,0.578649,0.22769,0.35009,0.15647
1702329539609375,-9.69978,1.44102,0.576649,0.22369,0.35409,0.10947
1702329539617187,-9.73478,1.91102,0.596649,0.23769,0.40309,0.17447
1702329539625000,-9.77378,1.138102,0.628649,0.35469,0.31809,0.12247
1702329539632812,-9.80978,1.174102,0.617649,0.41669,0.38309,0.13847
1702329539640625,-9.82878,1.199102,0.610649,0.31369,0.42109,0.17447
1702329539648437,-9.79678,1.189102,0.594649,0.33269,0.36909,0.20447
1702329539656250,-9.76878,1.147102,0.592649,0.27169,0.41709,0.18947
1702329539664062,-9.71678,1.108102,0.590649,0.22069,0.43609,0.22347
1702329539671875,-9.67378,1.77102,0.574649,0.23469,0.30609,0.23947
1702329539679687,-9.61478,1.56102,0.558649,0.21869,0.45309,0.22447
1702329539687500,-9.57678,1.62102,0.580649,0.21369,0.44109,0.17747
1702329539695312,-9.59078,1.80102,0.576649,0.23869,0.41809,0.19047
1702329539703125,-9.63978,1.96102,0.563649,0.22069,0.45209,0.19147
1702329539710937,-9.70178,1.124102,0.547649,0.29669,0.40409,0.23947
1702329539718750,-9.73778,1.153102,0.556649,0.36469,0.43309,0.26847
1702329539726562,-9.73078,1.155102,0.569649,0.45069,0.42209,0.28647
1702329539734375,-9.72878,1.151102,0.583649,0.49769,0.37309,0.28547
1702329539742187,-9.72378,1.128102,0.578649,0.40769,0.27209,0.33247
1702329539750000,-9.71978,1.128102,0.529649,0.34469,0.27209,0.34947
1702329539757812,-9.72178,1.135102,0.506649,0.37669,0.35209,0.36547
1702329539765625,-9.71478,1.149102,0.551649,0.37869,0.37809,0.35347
1702329539773437,-9.68778,1.155102,0.612649,0.45369,0.46309,0.32247
1702329539781250,-9.65878,1.168102,0.614649,0.35669,0.38909,0.30347
1702329539789062,-9.64378,1.165102,0.585649,0.30569,0.42609,0.19347
1702329539796875,-9.62578,1.172102,0.571649,0.29269,0.39109,0.24047
1702329539804687,-9.62978,1.160102,0.576649,0.25369,0.43409,0.23847
1702329539812500,-9.63878,1.136102,0.594649,0.21569,0.52009,0.22547
1702329539820312,-9.67478,1.117102,0.574649,0.23569,0.46809,0.23947
1702329539828125,-9.68478,1.90102,0.547649,0.21869,0.43709,0.22447
1702329539835937,-9.70278,1.73102,0.520649,0.23469,0.42109,0.22347
1702329539843750,-9.70678,1.71102,0.533649,0.23269,0.38909,0.24047
1702329539851562,-9.72078,1.64102,0.542649,0.21969,0.35509,0.19147
1702329539859375,-9.72478,1.51102,0.529649,0.23969,0.32009,0.17347
1702329539867187,-9.70678,1.62102,0.560649,0.21469,0.45809,0.11347
1702329539875000,-9.68878,1.62102,0.578649,0.35869,0.44109,0.6247
1702329539882812,-9.67978,1.53102,0.585649,0.30469,0.46209,0.5047
1702329539890625,-9.67778,1.50102,0.565649,0.28169,0.45709,0.0
1702329539898437,-9.70878,1.49102,0.560649,0.42369,0.50509,0.6147
1702329539906250,-9.70378,1.22102,0.605649,0.38969,0.53909,0.7947
1702329539914062,-9.67278,0.979102,0.619649,0.44869,0.51509,0.4247
1702329539921875,-9.63978,0.928102,0.590649,0.47469,0.50209,0.5947
1702329539929687,-9.61478,0.867102,0.576649,0.49269,0.58309,0.453
1702329539937500,-9.58878,0.836102,0.598649,0.72369,0.66809,0.3753
1702329539945312,-9.59178,0.833102,0.583649,0.74569,0.63209,0.5653
1702329539953125,-9.62778,0.849102,0.540649,0.98269,0.51709,0.7553
1702329539960937,-9.69378,0.928102,0.524649,0.105369,0.57209,0.10553
1702329539968750,-9.75178,1.47102,0.536649,0.116369,0.63509,0.447
1702329539976562,-9.80278,1.116102,0.536649,0.108069,0.65209,0.16747
1702329539984375,-9.79678,1.165102,0.511649,0.111469,0.45209,0.26147
1702329539992187,-9.74778,1.209102,0.459649,0.115269,0.34309,0.35947
1702329540000000,-9.68978,1.241102,0.441649,0.114169,0.32409,0.32547
1702329540007812,-9.65578,1.238102,0.461649,0.107769,0.30809,0.34247
1702329540015625,-9.65378,1.239102,0.506649,0.99569,0.32709,0.31347
1702329540023437,-9.68978,1.237102,0.551649,0.97369,0.29009,0.21347
1702329540031250,-9.73178,1.244102,0.558649,0.98169,0.29509,0.24847
1702329540039062,-9.76178,1.231102,0.549649,0.89569,0.34009,0.11947
1702329540046875,-9.75178,1.211102,0.540649,0.80669,0.40509,0.5753
1702329540054687,-9.75678,1.184102,0.529649,0.79269,0.37109,0.2553
1702329540062500,-9.72478,1.161102,0.500649,0.67469,0.41609,0.12253
1702329540070312,-9.68378,1.134102,0.484649,0.73269,0.46809,0.13753
1702329540078125,-9.64078,1.114102,0.473649,0.65269,0.43609,0.12053
1702329540085937,-9.64678,1.74102,0.452649,0.72969,0.38909,0.15353
1702329540093750,-9.68978,1.65102,0.455649,0.75369,0.33409,0.14053
1702329540101562,-9.73878,1.98102,0.450649,0.79069,0.29009,0.4153
1702329540109375,-9.77678,1.149102,0.437649,0.78669,0.18409,0.147
1702329540117187,-9.80378,1.223102,0.468649,0.71169,0.28809,0.8747
1702329540125000,-9.80678,1.283102,0.531649,0.75869,0.32109,0.10347
1702329540132812,-9.81278,1.327102,0.561649,0.57269,0.33409,0.18447
1702329540140625,-9.79478,1.349102,0.581649,0.49169,0.30209,0.23447
1702329540148437,-9.74978,1.357102,0.606649,0.39969,0.28509,0.21847
1702329540156250,-9.72578,1.377102,0.626649,0.22969,0.25009,0.20347
1702329540164062,-9.73278,1.406102,0.678649,0.19369,0.18909,0.17247
1702329540171875,-9.73178,1.457102,0.721649,0.4069,0.17109,0.9347
1702329540179687,-9.75678,1.508102,0.709649,0.8731,0.19009,0.3147
1702329540187500,-9.73678,1.521102,0.664649,0.28931,0.15409,0.12947
1702329540195312,-9.70078,1.507102,0.624649,0.40031,0.10609,0.13047
1702329540203125,-9.71578,1.443102,0.601649,0.67031,0.30409,0.11947
1702329540210937,-9.73878,1.364102,0.680649,0.78331,0.43609,0.13847
1702329540218750,-9.71978,1.252102,0.781649,0.77531,0.48009,0.12047
1702329540226562,-9.68778,1.130102,0.790649,0.91331,0.41409,0.847
1702329540234375,-9.67378,1.65102,0.729649,0.96131,0.43209,0.3853
1702329540242187,-9.64178,1.34102,0.716649,0.97831,0.49709,0.2153
1702329540250000,-9.60978,1.22102,0.700649,0.99731,0.59809,0.5153
1702329540257812,-9.57178,1.20102,0.713649,0.103031,0.67809,0.7747
1702329540265625,-9.53078,0.992102,0.720649,0.100831,0.64209,0.7547
1702329540273437,-9.51978,0.988102,0.686649,0.83731,0.51409,0.753
1702329540281250,-9.55178,1.23102,0.630649,0.77231,0.31409,0.11847
1702329540289062,-9.60378,1.78102,0.581649,0.77631,0.21909,0.18347
1702329540296875,-9.66778,1.131102,0.543649,0.75431,0.18009,0.24447
1702329540304687,-9.69578,1.174102,0.511649,0.63731,0.15309,0.27747
1702329540312500,-9.73478,1.215102,0.482649,0.58731,0.10309,0.26047
1702329540320312,-9.77278,1.231102,0.471649,0.66431,0.23209,0.22947
1702329540328125,-9.82678,1.241102,0.509649,0.76031,0.31509,0.23147
1702329540335937,-9.88278,1.215102,0.581649,0.76431,0.38409,0.18547
1702329540343750,-9.91578,1.195102,0.619649,0.82431,0.44609,0.23347
1702329540351562,-9.91378,1.194102,0.648649,0.79831,0.41809,0.23447
1702329540359375,-9.88478,1.173102,0.606649,0.77831,0.33309,0.24847
1702329540367187,-9.82378,1.170102,0.551649,0.91231,0.40409,0.23747
1702329540375000,-9.73978,1.153102,0.549649,0.98231,0.52809,0.25147
1702329540382812,-9.64778,1.136102,0.594649,0.95531,0.69409,0.23747
1702329540390625,-9.59778,1.117102,0.635649,0.91631,0.70509,0.25147
1702329540398437,-9.55778,1.112102,0.660649,0.87431,0.62809,0.23547
1702329540406250,-9.55778,1.117102,0.651649,0.77831,0.54509,0.24947
1702329540414062,-9.56478,1.139102,0.599649,0.78031,0.44809,0.28147
1702329540421875,-9.60978,1.164102,0.542649,0.73831,0.40209,0.28247
1702329540429687,-9.65578,1.189102,0.504649,0.63631,0.25209,0.19847
1702329540437500,-9.68278,1.214102,0.488649,0.54531,0.25309,0.26247
1702329540445312,-9.70378,1.265102,0.495649,0.50931,0.18509,0.26047
1702329540453125,-9.71778,1.281102,0.495649,0.63731,0.26609,0.32647
1702329540460937,-9.73078,1.262102,0.522649,0.56731,0.24009,0.29647
1702329540468750,-9.71478,1.235102,0.540649,0.57531,0.21909,0.29347
1702329540476562,-9.70978,1.215102,0.538649,0.68531,0.15309,0.32647
1702329540484375,-9.74078,1.171102,0.509649,0.62531,0.2409,0.32647
1702329540492187,-9.75778,1.106102,0.497649,0.50831,0.16809,0.21147
1702329540500000,-9.75478,1.71102,0.511649,0.46031,0.16709,0.24247
1702329540507812,-9.76778,1.62102,0.507649,0.42631,0.28109,0.19447
1702329540515625,-9.76578,1.62102,0.493649,0.49531,0.21909,0.22847
1702329540523437,-9.75478,1.80102,0.500649,0.49631,0.28409,0.24547
1702329540531250,-9.73578,1.137102,0.506649,0.49531,0.20309,0.22847
1702329540539062,-9.68378,1.176102,0.488649,0.38731,0.20409,0.24347
1702329540546875,-9.63078,1.198102,0.489649,0.27131,0.15109,0.22447
1702329540554687,-9.58578,1.217102,0.461649,0.25931,0.8809,0.22447
1702329540562500,-9.55478,1.237102,0.450649,0.27831,0.10709,0.17847
1702329540570312,-9.53978,1.247102,0.497649,0.27431,0.609,0.22447
1702329540578125,-9.54878,1.270102,0.513649,0.35931,0.9209,0.22847
1702329540585937,-9.58178,1.261102,0.527649,0.46531,0.4009,0.24347
1702329540593750,-9.59778,1.253102,0.565649,0.52531,0.8809,0.21147
1702329540601562,-9.64478,1.240102,0.567649,0.53031,0.3891,0.22847
1702329540609375,-9.70278,1.226102,0.554649,0.49831,0.8991,0.27547
1702329540617187,-9.73878,1.199102,0.563649,0.46231,0.4291,0.24247
1702329540625000,-9.74278,1.184102,0.542649,0.43331,0.10691,0.25847
1702329540632812,-9.76478,1.169102,0.524649,0.49431,0.4291,0.27447
1702329540640625,-9.76478,1.162102,0.543649,0.50631,0.10009,0.30647
1702329540648437,-9.74678,1.153102,0.567649,0.46431,0.18509,0.32347
1702329540656250,-9.73778,1.153102,0.574649,0.43431,0.17109,0.22847
1702329540664062,-9.72578,1.124102,0.560649,0.45731,0.20809,0.31147
1702329540671875,-9.72578,1.108102,0.569649,0.43831,0.33609,0.27847
1702329540679687,-9.71478,1.81102,0.603649,0.48931,0.42609,0.25947
1702329540687500,-9.67878,1.79102,0.617649,0.44831,0.41409,0.26147
1702329540695312,-9.64278,1.74102,0.626649,0.46731,0.43209,0.31047
1702329540703125,-9.62678,1.74102,0.626649,0.43431,0.33409,0.26047
1702329540710937,-9.61478,1.60102,0.617649,0.38631,0.33409,0.22847
1702329540718750,-9.57478,1.48102,0.635649,0.31131,0.48309,0.24547
1702329540726562,-9.54478,1.25102,0.657649,0.27031,0.41209,0.17747
1702329540734375,-9.52678,1.1102,0.684649,0.27731,0.46709,0.9947
1702329540742187,-9.52378,0.986102,0.684649,0.21431,0.43409,0.11447
1702329540750000,-9.51678,0.957102,0.666649,0.669,0.46809,0.1547
1702329540757812,-9.53278,0.946102,0.641649,0.3869,0.46809,0.0
1702329540765625,-9.55978,0.957102,0.664649,0.19969,0.52909,0.2847
1702329540773437,-9.57378,0.982102,0.655649,0.24469,0.51409,0.6047
1702329540781250,-9.58278,0.990102,0.619649,0.26369,0.44609,0.12347
1702329540789062,-9.59778,0.973102,0.583649,0.30469,0.41709,0.15647
1702329540796875,-9.59378,0.984102,0.594649,0.32069,0.43209,0.22047
1702329540804687,-9.59878,1.102,0.578649,0.25969,0.44709,0.22047
1702329540812500,-9.60778,1.24102,0.563649,0.28569,0.41809,0.22147
1702329540820312,-9.62578,1.47102,0.585649,0.35169,0.61209,0.17247
1702329540828125,-9.62778,1.47102,0.617649,0.47169,0.68209,0.14147
1702329540835937,-9.62978,1.102,0.585649,0.39969,0.56409,0.10747
1702329540843750,-9.64478,0.974102,0.583649,0.43969,0.71709,0.3047
1702329540851562,-9.65478,1.9102,0.574649,0.49869,0.69409,0.7053
1702329540859375,-9.73278,1.126102,0.597649,0.63969,0.69409,0.3953
1702329540867187,-9.83778,1.243102,0.628649,0.70869,0.71609,0.1047
1702329540875000,-9.91078,1.276102,0.628649,0.62669,0.60009,0.21947
1702329540882812,-9.93578,1.276102,0.579649,0.61269,0.41809,0.29847
1702329540890625,-9.89378,1.211102,0.531649,0.52769,0.40609,0.36547
1702329540898437,-9.80278,1.123102,0.560649,0.45069,0.47009,0.36647
1702329540906250,-9.68878,1.46102,0.560649,0.42669,0.41709,0.31647
1702329540914062,-9.59578,0.995102,0.540649,0.36569,0.38409,0.22047
1702329540921875,-9.53478,0.950102,0.529649,0.36569,0.51709,0.9247
1702329540929687,-9.49178,0.936102,0.574649,0.44669,0.69609,0.2053
1702329540937500,-9.47378,0.927102,0.572649,0.46469,0.63109,0.10153
1702329540945312,-9.51178,0.912102,0.506649,0.48569,0.43409,0.21653
1702329540953125,-9.51778,0.901102,0.409649,0.57769,0.38809,0.29753
1702329540960937,-9.58378,0.930102,0.315649,0.77569,0.18609,0.31953
1702329540968750,-9.72978,1.74102,0.290649,0.98369,0.18409,0.32353
1702329540976562,-9.92978,1.206102,0.317649,0.107069,0.13709,0.16253
1702329540984375,-10.8178,1.282102,0.340649,0.123769,0.10409,0.9347
1702329540992187,-10.10478,1.318102,0.344649,0.123769,0.391,0.33847
1702329541000000,-10.5078,1.313102,0.385649,0.124069,0.7191,0.43247
1702329541007812,-9.91078,1.291102,0.448649,0.122669,0.10791,0.56047
1702329541015625,-9.78678,1.271102,0.520649,0.104069,0.2009,0.59447
1702329541023437,-9.70878,1.281102,0.655649,0.91269,0.19909,0.62947
1702329541031250,-9.67478,1.300102,0.748649,0.76969,0.33209,0.61647
1702329541039062,-9.71378,1.314102,0.777649,0.57869,0.46509,0.54047
1702329541046875,-9.74978,1.315102,0.786649,0.43569,0.43409,0.51047
1702329541054687,-9.75578,1.268102,0.736649,0.24269,0.42709,0.46047
1702329541062500,-9.74978,1.209102,0.619649,0.20569,0.40009,0.36647
1702329541070312,-9.70478,1.154102,0.558649,0.24269,0.44509,0.36447
1702329541078125,-9.59978,1.97102,0.540649,0.22669,0.43009,0.31747
1702329541085937,-9.53378,1.38102,0.522649,0.23669,0.45809,0.18547
1702329541093750,-9.50178,1.11102,0.578649,0.24469,0.48009,0.17247
1702329541101562,-9.51978,1.14102,0.599649,0.19969,0.42909,0.15547
1702329541109375,-9.59378,1.4102,0.601649,0.16969,0.34709,0.15547
1702329541117187,-9.63178,0.980102,0.630649,0.15169,0.41309,0.23647
1702329541125000,-9.66578,0.990102,0.644649,0.22869,0.31609,0.23547
1702329541132812,-9.69078,0.979102,0.624649,0.24469,0.33109,0.29947
1702329541140625,-9.70178,0.990102,0.651649,0.22869,0.52609,0.33247
1702329541148437,-9.70178,0.986102,0.732649,0.25569,0.51209,0.36547
1702329541156250,-9.68878,0.994102,0.750649,0.24369,0.54209,0.36447
1702329541164062,-9.70178,0.992102,0.732649,0.24269,0.51109,0.34947
1702329541171875,-9.67478,0.994102,0.720649,0.22069,0.49809,0.36747
1702329541179687,-9.62378,1.16102,0.727649,0.26869,0.53109,0.31847
1702329541187500,-9.59178,1.22102,0.653649,0.44969,0.43009,0.20147
1702329541195312,-9.54978,1.12102,0.624649,0.48169,0.44809,0.8947
1702329541203125,-9.49478,0.951102,0.626649,0.56469,0.44709,0.4153
1702329541210937,-9.45478,0.898102,0.623649,0.70169,0.43509,0.13753
1702329541218750,-9.45078,0.857102,0.590649,0.82069,0.54509,0.22153
1702329541226562,-9.47478,0.849102,0.558649,0.77369,0.67809,0.39653
1702329541234375,-9.52878,0.870102,0.527649,0.89969,0.56509,0.47853
1702329541242187,-9.58578,0.884102,0.459649,0.98369,0.46509,0.49753
1702329541250000,-9.66478,0.934102,0.385649,0.98269,0.38209,0.45053
1702329541257812,-9.75778,1.4102,0.324649,0.107269,0.27009,0.40253
1702329541265625,-9.86478,1.70102,0.315649,0.125469,0.28909,0.30653
1702329541273437,-9.91878,1.102102,0.360649,0.124069,0.35409,0.29053
1702329541281250,-9.93278,1.100102,0.387649,0.138369,0.33409,0.19653
1702329541289062,-9.93678,1.98102,0.392649,0.131869,0.35209,0.16253
1702329541296875,-9.93978,1.100102,0.405649,0.144169,0.38609,0.16353
1702329541304687,-9.91278,1.109102,0.443649,0.150369,0.42109,0.24353
1702329541312500,-9.86578,1.110102,0.459649,0.146969,0.60209,0.28953
1702329541320312,-9.83178,1.130102,0.488649,0.151869,0.65009,0.27453
1702329541328125,-9.84578,1.143102,0.509649,0.145269,0.68409,0.22453
1702329541335937,-9.84578,1.121102,0.536649,0.142869,0.74209,0.14653
1702329541343750,-9.84778,1.117102,0.538649,0.139069,0.77909,0.9553
1702329541351562,-9.84878,1.75102,0.509649,0.141569,0.74909,0.247
1702329541359375,-9.82778,1.16102,0.497649,0.140369,0.69509,0.14447
1702329541367187,-9.83178,0.979102,0.468649,0.138669,0.71109,0.20947
1702329541375000,-9.80478,0.943102,0.428649,0.130669,0.69609,0.21147
1702329541382812,-9.78878,0.961102,0.427649,0.138169,0.79709,0.16347
1702329541390625,-9.76978,1.47102,0.443649,0.137769,0.84709,0.22947
1702329541398437,-9.74478,1.144102,0.452649,0.130169,0.84609,0.19747
1702329541406250,-9.69878,1.230102,0.482649,0.122269,0.73209,0.18247
1702329541414062,-9.67878,1.269102,0.470649,0.125769,0.69709,0.21247
1702329541421875,-9.69878,1.279102,0.457649,0.106469,0.71709,0.16847
1702329541429687,-9.68978,1.261102,0.498649,0.96369,0.72809,0.10247
1702329541437500,-9.68978,1.243102,0.506649,0.74269,0.69709,0.8947
1702329541445312,-9.69178,1.243102,0.506649,0.64869,0.71309,0.7447
1702329541453125,-9.64278,1.258102,0.538649,0.55569,0.71109,0.10647
1702329541460937,-9.63178,1.264102,0.558649,0.50769,0.69609,0.5947
1702329541468750,-9.64778,1.269102,0.561649,0.47769,0.74609,0.1247
1702329541476562,-9.66778,1.265102,0.570649,0.48269,0.69409,0.2153
1702329541484375,-9.69678,1.258102,0.599649,0.48469,0.56109,0.2353
1702329541492187,-9.70378,1.232102,0.597649,0.32869,0.47909,0.653
1702329541500000,-9.68478,1.203102,0.558649,0.21369,0.53109,0.2847
1702329541507812,-9.67978,1.172102,0.551649,0.23769,0.65109,0.1653
1702329541515625,-9.67078,1.150102,0.615649,0.22669,0.74509,0.153
1702329541523437,-9.65878,1.130102,0.682649,0.20969,0.77909,0.3253
1702329541531250,-9.64078,1.111102,0.703649,0.12569,0.67409,0.1953
1702329541539062,-9.64278,1.82102,0.711649,0.21869,0.64309,0.6853
1702329541546875,-9.66778,1.96102,0.736649,0.23569,0.56009,0.2153
1702329541554687,-9.69878,1.96102,0.745649,0.8269,0.57509,0.10053
1702329541562500,-9.71678,1.104102,0.734649,0.1531,0.49709,0.16253
1702329541570312,-9.71978,1.132102,0.705649,0.16069,0.49509,0.14953
1702329541578125,-9.74678,1.139102,0.671649,0.11169,0.51209,0.16453
1702329541585937,-9.75378,1.157102,0.736649,0.23869,0.62609,0.14953
1702329541593750,-9.72478,1.164102,0.763649,0.23569,0.66009,0.13253
1702329541601562,-9.71378,1.188102,0.757649,0.18669,0.48109,0.8453
1702329541609375,-9.70278,1.212102,0.718649,0.15869,0.47809,0.3753
1702329541617187,-9.73278,1.250102,0.685649,0.1569,0.44409,0.4447
1702329541625000,-9.72478,1.310102,0.648649,0.2931,0.30409,0.19247
1702329541632812,-9.70278,1.372102,0.648649,0.2431,0.25309,0.15947
1702329541640625,-9.66078,1.422102,0.655649,0.931,0.15409,0.25447
1702329541648437,-9.65278,1.451102,0.671649,0.9931,0.19909,0.31847
1702329541656250,-9.65378,1.504102,0.734649,0.35731,0.20209,0.37147
1702329541664062,-9.64978,1.526102,0.802649,0.48831,0.21209,0.35447
1702329541671875,-9.65378,1.526102,0.820649,0.69331,0.29309,0.37347
1702329541679687,-9.65578,1.504102,0.811649,0.91931,0.23309,0.36147
1702329541687500,-9.66878,1.451102,0.804649,0.98131,0.28009,0.37847
1702329541695312,-9.68778,1.376102,0.806649,0.109631,0.30109,0.36547
1702329541703125,-9.70578,1.273102,0.815649,0.122631,0.40109,0.38547
1702329541710937,-9.71778,1.133102,0.797649,0.120531,0.51209,0.36747
1702329541718750,-9.71278,1.102,0.777649,0.103431,0.70909,0.38347
1702329541726562,-9.67778,0.881102,0.824649,0.103331,0.87109,0.36747
1702329541734375,-9.62878,0.776102,0.858649,0.98931,0.88909,0.38447
1702329541742187,-9.53778,0.693102,0.862649,0.81031,0.85309,0.36347
1702329541750000,-9.48278,0.663102,0.817649,0.68831,0.83909,0.37947
1702329541757812,-9.45878,0.672102,0.794649,0.54631,0.80709,0.31347
1702329541765625,-9.42278,0.691102,0.756649,0.40031,0.67509,0.22947
1702329541773437,-9.47078,0.763102,0.668649,0.18131,0.44909,0.14647
1702329541781250,-9.52878,0.839102,0.610649,0.1531,0.49409,0.2947
1702329541789062,-9.58578,0.909102,0.590649,0.19969,0.41609,0.2053
1702329541796875,-9.65478,0.983102,0.502649,0.28069,0.31709,0.2253
1702329541804687,-9.70778,1.83102,0.407649,0.48369,0.17109,0.953
1702329541812500,-9.75878,1.200102,0.414649,0.60669,0.17309,0.953
1702329541820312,-9.84178,1.343102,0.459649,0.72269,0.7909,0.10347
1702329541828125,-9.92078,1.461102,0.498649,0.74069,0.1709,0.22547
1702329541835937,-9.98478,1.524102,0.518649,0.72069,0.8091,0.35447
1702329541843750,-10.2578,1.563102,0.543649,0.58869,0.3809,0.34247
1702329541851562,-10.78,1.554102,0.606649,0.39269,0.20509,0.39647
1702329541859375,-9.95078,1.518102,0.657649,0.26869,0.33409,0.36547
1702329541867187,-9.85778,1.488102,0.736649,0.7969,0.53109,0.35347
1702329541875000,-9.73778,1.463102,0.775649,0.10831,0.54709,0.37147
1702329541882812,-9.60778,1.450102,0.817649,0.26731,0.64609,0.35847
1702329541890625,-9.49778,1.413102,0.811649,0.44231,0.63609,0.35547
1702329541898437,-9.40578,1.334102,0.797649,0.57431,0.64009,0.37547
1702329541906250,-9.35278,1.258102,0.772649,0.62531,0.70809,0.36147
1702329541914062,-9.34978,1.160102,0.757649,0.75831,0.65509,0.26447
1702329541921875,-9.35678,1.87102,0.777649,0.75731,0.55909,0.16747
1702329541929687,-9.36678,0.999102,0.738649,0.75931,0.38309,0.7147
1702329541937500,-9.39978,0.975102,0.673649,0.58531,0.18809,0.4353
1702329541945312,-9.46978,0.969102,0.673649,0.49931,0.16709,0.6353
1702329541953125,-9.53478,0.959102,0.700649,0.26731,0.18809,0.19353
1702329541960937,-9.58878,0.928102,0.676649,0.23731,0.8109,0.21453
1702329541968750,-9.62378,0.894102,0.642649,0.5831,0.8609,0.14953
1702329541976562,-9.66178,0.874102,0.707649,0.5369,0.18309,0.19953
1702329541984375,-9.66378,0.879102,0.821649,0.18269,0.19109,0.14853
1702329541992187,-9.63978,0.910102,0.894649,0.23269,0.12509,0.16653
1702329542000000,-9.57678,0.924102,0.909649,0.48869,0.12291,0.17253
1702329542007812,-9.50778,0.956102,0.887649,0.51169,0.15991,0.20753
1702329542015625,-9.47078,0.996102,0.867649,0.74369,0.25591,0.16153
1702329542023437,-9.53178,1.59102,0.844649,0.77569,0.23991,0.17753
1702329542031250,-9.59778,1.95102,0.786649,0.82269,0.4491,0.12953
1702329542039062,-9.67678,1.138102,0.657649,0.94669,0.9391,0.8253
1702329542046875,-9.76478,1.153102,0.522649,0.96569,0.3609,0.14653
1702329542054687,-9.85278,1.134102,0.412649,0.99069,0.3809,0.3353
1702329542062500,-9.94878,1.122102,0.282649,0.117269,0.4809,0.5453
1702329542070312,-10.7478,1.126102,0.209649,0.118469,0.16409,0.453
1702329542078125,-10.16978,1.168102,0.220649,0.122569,0.35609,0.14747
1702329542085937,-10.21778,1.209102,0.270649,0.106469,0.43809,0.24647
1702329542093750,-10.19078,1.237102,0.311649,0.96369,0.43109,0.29247
1702329542101562,-10.11278,1.252102,0.347649,0.82069,0.44909,0.27947
1702329542109375,-10.2578,1.281102,0.439649,0.63169,0.43409,0.23347
1702329542117187,-9.94578,1.342102,0.536649,0.52369,0.46509,0.23447
1702329542125000,-9.83478,1.425102,0.630649,0.33669,0.64509,0.14147
1702329542132812,-9.67778,1.480102,0.754649,0.18269,0.67509,0.15747
1702329542140625,-9.52778,1.515102,0.793649,0.7669,0.68909,0.14147
1702329542148437,-9.42578,1.478102,0.752649,0.11631,0.62709,0.12947
1702329542156250,-9.38678,1.411102,0.694649,0.22331,0.54309,0.14547
1702329542164062,-9.38378,1.341102,0.711649,0.26131,0.48309,0.11547
1702329542171875,-9.44978,1.281102,0.718649,0.31831,0.39709,0.11347
1702329542179687,-9.54278,1.203102,0.707649,0.39731,0.26609,0.19447
1702329542187500,-9.61178,1.160102,0.698649,0.46131,0.20009,0.30747
1702329542195312,-9.63178,1.95102,0.662649,0.45731,0.14609,0.36947
1702329542203125,-9.64178,1.34102,0.612649,0.27431,0.9391,0.35147
1702329542210937,-9.66178,1.20102,0.612649,0.26931,0.1591,0.36647
1702329542218750,-9.66878,1.30102,0.666649,0.27731,0.2209,0.33747
1702329542226562,-9.67778,1.68102,0.707649,0.25731,0.3609,0.35247
1702329542234375,-9.68578,1.130102,0.748649,0.26931,0.1709,0.35047
1702329542242187,-9.71778,1.170102,0.756649,0.22631,0.7891,0.36647
1702329542250000,-9.72278,1.210102,0.766649,0.19431,0.11091,0.35047
1702329542257812,-9.73278,1.244102,0.761649,0.25931,0.7891,0.48047
1702329542265625,-9.71478,1.272102,0.779649,0.29031,0.4591,0.43247
1702329542273437,-9.68978,1.261102,0.790649,0.40631,0.12209,0.38847
1702329542281250,-9.68378,1.252102,0.788649,0.52531,0.11709,0.40447
1702329542289062,-9.70278,1.221102,0.754649,0.49631,0.33009,0.42147
1702329542296875,-9.70478,1.185102,0.745649,0.65231,0.46009,0.42347
1702329542304687,-9.74678,1.137102,0.705649,0.66631,0.42709,0.39147
1702329542312500,-9.72978,1.59102,0.633649,0.54131,0.59109,0.35847
1702329542320312,-9.70378,0.995102,0.583649,0.59231,0.82209,0.36147
1702329542328125,-9.66078,0.941102,0.551649,0.54131,0.82109,0.26347
1702329542335937,-9.63278,0.900102,0.545649,0.54031,0.83709,0.21547
1702329542343750,-9.61878,0.869102,0.543649,0.48931,0.80209,0.19747
1702329542351562,-9.60778,0.862102,0.542649,0.49131,0.70709,0.13347
1702329542359375,-9.61078,0.891102,0.507649,0.29831,0.49109,0.14447
1702329542367187,-9.60178,0.924102,0.468649,0.25031,0.44209,0.14347
1702329542375000,-9.58978,0.975102,0.455649,0.18431,0.39209,0.9347
1702329542382812,-9.59478,1.26102,0.491649,0.9831,0.23509,0.4647
1702329542390625,-9.59278,1.73102,0.493649,0.2831,0.19909,0.553
1702329542398437,-9.62278,1.135102,0.475649,0.3069,0.18509,0.2053
1702329542406250,-9.65778,1.182102,0.473649,0.6569,0.11909,0.5453
1702329542414062,-9.69278,1.236102,0.495649,0.19269,0.16509,0.3947
1702329542421875,-9.74178,1.266102,0.540649,0.7469,0.3909,0.9147
1702329542429687,-9.78678,1.276102,0.551649,0.2531,0.791,0.20647
1702329542437500,-9.83678,1.278102,0.547649,0.631,0.509,0.23647
1702329542445312,-9.82978,1.260102,0.565649,0.431,0.1391,0.33247
1702329542453125,-9.79078,1.249102,0.594649,0.3031,0.5691,0.36747
1702329542460937,-9.73478,1.230102,0.583649,0.531,0.3509,0.34847
1702329542468750,-9.68278,1.225102,0.597649,0.13131,0.11709,0.36647
1702329542476562,-9.67378,1.240102,0.606649,0.11531,0.8409,0.35047
1702329542484375,-9.64978,1.264102,0.635649,0.22631,0.3609,0.35147
1702329542492187,-9.65878,1.271102,0.637649,0.27031,0.6809,0.28747
1702329542500000,-9.66778,1.269102,0.619649,0.25531,0.6909,0.20747
1702329542507812,-9.67878,1.245102,0.599649,0.37131,0.12209,0.24347
1702329542515625,-9.64678,1.209102,0.610649,0.41631,0.17209,0.13147
1702329542523437,-9.61178,1.158102,0.621649,0.46131,0.17009,0.9847
1702329542531250,-9.61378,1.131102,0.610649,0.32731,0.15109,0.153
1702329542539062,-9.60878,1.109102,0.610649,0.30031,0.18609,0.0
1702329542546875,-9.62478,1.92102,0.628649,0.26231,0.17609,0.1353
1702329542554687,-9.64478,1.81102,0.619649,0.21031,0.18909,0.0
1702329542562500,-9.64478,1.67102,0.583649,0.13531,0.15709,0.6447
1702329542570312,-9.68878,1.82102,0.542649,0.431,0.11509,0.13047
1702329542578125,-9.72078,1.100102,0.508649,0.1669,0.14209,0.22447
1702329542585937,-9.73278,1.100102,0.527649,0.22469,0.14009,0.22047
1702329542593750,-9.73278,1.93102,0.554649,0.22969,0.20109,0.23547
1702329542601562,-9.71678,1.90102,0.540649,0.32369,0.6809,0.36147
1702329542609375,-9.72878,1.104102,0.538649,0.49669,0.2009,0.34247
1702329542617187,-9.73278,1.122102,0.545649,0.46169,0.18509,0.36147
1702329542625000,-9.76878,1.145102,0.558649,0.55069,0.25409,0.34647
1702329542632812,-9.75878,1.178102,0.581649,0.51569,0.45209,0.36547
1702329542640625,-9.76578,1.189102,0.538649,0.47169,0.44909,0.38047
1702329542648437,-9.75178,1.171102,0.515649,0.40769,0.41809,0.38147
1702329542656250,-9.72278,1.181102,0.509649,0.31469,0.54709,0.36647
1702329542664062,-9.71578,1.190102,0.506649,0.23669,0.56409,0.35147
1702329542671875,-9.72078,1.206102,0.504649,0.25469,0.43109,0.36547
1702329542679687,-9.71678,1.212102,0.495649,0.12669,0.54709,0.35247
1702329542687500,-9.70678,1.203102,0.522649,0.1969,0.52909,0.33747
1702329542695312,-9.70678,1.179102,0.531649,0.14969,0.46109,0.33347
1702329542703125,-9.70478,1.150102,0.518649,0.10269,0.46109,0.30247
1702329542710937,-9.72178,1.124102,0.515649,0.11969,0.41409,0.18947
1702329542718750,-9.72378,1.108102,0.529649,0.16869,0.34709,0.17147
1702329542726562,-9.70278,1.79102,0.518649,0.4069,0.39909,0.9447
1702329542734375,-9.71178,1.61102,0.497649,0.7069,0.40109,0.7847
1702329542742187,-9.68278,1.52102,0.513649,0.20169,0.43009,0.9147
1702329542750000,-9.64878,1.34102,0.565649,0.13269,0.44809,0.19047
1702329542757812,-9.60778,1.25102,0.576649,0.15369,0.40509,0.24147
1702329542765625,-9.55778,1.26102,0.585649,0.23269,0.35709,0.22347
1702329542773437,-9.51578,1.17102,0.583649,0.21969,0.43609,0.27147
1702329542781250,-9.53078,0.997102,0.576649,0.26669,0.38609,0.30347
1702329542789062,-9.56778,1.24102,0.601649,0.26769,0.45109,0.30247
1702329542796875,-9.59378,1.20102,0.623649,0.22169,0.33609,0.30247
1702329542804687,-9.64978,1.7102,0.531649,0.22169,0.20509,0.31747
1702329542812500,-9.70678,1.17102,0.509649,0.27069,0.18709,0.33247
1702329542820312,-9.72278,1.28102,0.536649,0.27069,0.31809,0.31747
1702329542828125,-9.72078,1.33102,0.542649,0.24269,0.25209,0.25247
1702329542835937,-9.69478,1.6102,0.538649,0.30569,0.23509,0.23547
1702329542843750,-9.67178,0.954102,0.565649,0.38469,0.28609,0.10647
1702329542851562,-9.64778,0.977102,0.623649,0.44369,0.34009,0.453
1702329542859375,-9.66178,1.43102,0.644649,0.41969,0.20509,0.3953
1702329542867187,-9.71878,1.88102,0.615649,0.48469,0.15509,0.5753
1702329542875000,-9.72378,1.102102,0.601649,0.43769,0.17109,0.8953
1702329542882812,-9.68778,1.83102,0.626649,0.48969,0.26709,0.13853
1702329542890625,-9.63978,1.43102,0.617649,0.37569,0.31909,0.15153
1702329542898437,-9.60978,1.4102,0.635649,0.43869,0.35209,0.16853
1702329542906250,-9.54378,0.961102,0.642649,0.43069,0.34609,0.15453
1702329542914062,-9.50778,0.923102,0.608649,0.48669,0.36809,0.23353
1702329542921875,-9.52078,0.921102,0.524649,0.64669,0.41709,0.29953
1702329542929687,-9.56478,0.950102,0.495649,0.79369,0.55909,0.28653
1702329542937500,-9.63278,0.986102,0.507649,0.99769,0.60909,0.28853
1702329542945312,-9.75378,0.989102,0.464649,0.120469,0.51709,0.11153
1702329542953125,-9.84578,0.981102,0.407649,0.125469,0.49609,0.153
1702329542960937,-9.89978,0.982102,0.355649,0.122969,0.50109,0.11447
1702329542968750,-9.91678,0.974102,0.299649,0.140069,0.45209,0.17647
1702329542976562,-9.89078,0.997102,0.274649,0.146469,0.43209,0.33547
1702329542984375,-9.83978,1.37102,0.247649,0.144169,0.29009,0.33747
1702329542992187,-9.76378,1.80102,0.290649,0.148269,0.18509,0.36547
1702329543000000,-9.73178,1.174102,0.376649,0.148569,0.13509,0.34747
1702329543007812,-9.77578,1.275102,0.425649,0.151369,0.7209,0.33247
1702329543015625,-9.80478,1.373102,0.509649,0.137269,0.5509,0.34947
1702329543023437,-9.81178,1.449102,0.588649,0.112769,0.9409,0.34047
1702329543031250,-9.82178,1.507102,0.599649,0.93469,0.13509,0.35447
1702329543039062,-9.83478,1.571102,0.612649,0.74069,0.22109,0.34347
1702329543046875,-9.79478,1.604102,0.653649,0.43069,0.36509,0.29847
1702329543054687,-9.75178,1.597102,0.669649,0.17369,0.41909,0.23947
1702329543062500,-9.69178,1.534102,0.653649,0.369,0.51409,0.25747
1702329543070312,-9.65278,1.422102,0.644649,0.20831,0.60909,0.16147
1702329543078125,-9.60678,1.264102,0.619649,0.27631,0.70909,0.19647
1702329543085937,-9.60678,1.117102,0.581649,0.30631,0.66109,0.11647
1702329543093750,-9.62978,0.980102,0.547649,0.38831,0.71209,0.10247
1702329543101562,-9.66678,0.881102,0.545649,0.27231,0.65909,0.11547
1702329543109375,-9.69378,0.795102,0.513649,0.14731,0.43209,0.11247
1702329543117187,-9.74978,0.722102,0.436649,0.5131,0.46309,0.9547
1702329543125000,-9.80978,0.730102,0.394649,0.12169,0.46209,0.12447
1702329543132812,-9.84278,0.775102,0.446649,0.32169,0.57809,0.22047
1702329543140625,-9.82978,0.861102,0.473649,0.31869,0.64509,0.22147
1702329543148437,-9.83178,0.959102,0.473649,0.45169,0.49409,0.20147
1702329543156250,-9.82278,1.92102,0.484649,0.46069,0.44709,0.33047
1702329543164062,-9.79978,1.231102,0.502649,0.42569,0.43309,0.34847
1702329543171875,-9.74278,1.328102,0.572649,0.20269,0.56509,0.36847
1702329543179687,-9.69478,1.389102,0.621649,0.20769,0.51309,0.35147
1702329543187500,-9.65678,1.411102,0.642649,0.7269,0.42709,0.36647
1702329543195312,-9.61878,1.419102,0.651649,0.4531,0.44909,0.35447
1702329543203125,-9.60478,1.401102,0.669649,0.8831,0.43109,0.28947
1702329543210937,-9.58778,1.341102,0.714649,0.21331,0.43109,0.24247
1702329543218750,-9.59078,1.250102,0.718649,0.35331,0.46409,0.17947
1702329543226562,-9.58578,1.161102,0.712649,0.44131,0.57409,0.16347
1702329543234375,-9.57778,1.97102,0.687649,0.55631,0.60909,0.18247
1702329543242187,-9.56978,1.26102,0.657649,0.52731,0.67609,0.21547
1702329543250000,-9.54678,0.968102,0.669649,0.57331,0.69109,0.21547
1702329543257812,-9.54178,0.957102,0.655649,0.55931,0.61209,0.13547
1702329543265625,-9.55478,0.959102,0.653649,0.52531,0.54409,0.26247
1702329543273437,-9.59078,0.957102,0.644649,0.46131,0.42909,0.21247
1702329543281250,-9.62678,0.934102,0.648649,0.38331,0.41309,0.22747
1702329543289062,-9.65778,0.916102,0.639649,0.33731,0.41409,0.21147
1702329543296875,-9.72178,0.955102,0.639649,0.37731,0.41109,0.11347
1702329543304687,-9.74878,0.980102,0.677649,0.21431,0.45009,0.11447
1702329543312500,-9.75278,0.978102,0.677649,0.13531,0.43409,0.6547
1702329543320312,-9.73878,0.947102,0.608649,0.5231,0.45009,0.3253
1702329543328125,-9.71778,0.895102,0.574649,0.15169,0.46509,0.4547
1702329543335937,-9.67678,0.819102,0.558649,0.24469,0.58009,0.6147
1702329543343750,-9.65778,0.764102,0.533649,0.41469,0.71409,0.5153
1702329543351562,-9.63678,0.752102,0.515649,0.50669,0.69909,0.6753
1702329543359375,-9.62778,0.748102,0.513649,0.68669,0.67209,0.3553
1702329543367187,-9.61478,0.792102,0.511649,0.73969,0.68509,0.2153
1702329543375000,-9.63178,0.835102,0.459649,0.98269,0.52709,0.653
1702329543382812,-9.69178,0.937102,0.409649,0.119469,0.35809,0.1947
1702329543390625,-9.76278,1.54102,0.358649,0.125769,0.42209,0.11447
1702329543398437,-9.83678,1.116102,0.326649,0.132469,0.39909,0.25647
1702329543406250,-9.88878,1.191102,0.281649,0.126369,0.62009,0.32747
1702329543414062,-9.87678,1.262102,0.326649,0.121169,0.70409,0.36147
1702329543421875,-9.82578,1.301102,0.369649,0.120269,0.60209,0.35947
1702329543429687,-9.77878,1.320102,0.382649,0.108769,0.52409,0.34547
1702329543437500,-9.73378,1.337102,0.466649,0.95169,0.60209,0.36147
1702329543445312,-9.72078,1.355102,0.529649,0.82569,0.63609,0.28347
1702329543453125,-9.72578,1.381102,0.617649,0.64569,0.71409,0.13947
1702329543460937,-9.74378,1.382102,0.689649,0.48769,0.74609,0.15747
1702329543468750,-9.75878,1.369102,0.725649,0.39069,0.75109,0.4747
1702329543476562,-9.76978,1.309102,0.718649,0.23969,0.71409,0.3147
1702329543484375,-9.74578,1.235102,0.680649,0.13969,0.70109,0.6647
1702329543492187,-9.69278,1.163102,0.651649,0.6869,0.74609,0.3153
1702329543500000,-9.63578,1.89102,0.630649,0.5669,0.71109,0.1653
1702329543507812,-9.59478,1.38102,0.650649,0.6469,0.71609,0.1353
1702329543515625,-9.57678,1.24102,0.651649,0.15069,0.66209,0.153
1702329543523437,-9.60778,1.23102,0.612649,0.23469,0.47309,0.1653
1702329543531250,-9.68478,1.30102,0.596649,0.22769,0.45009,0.7747
1702329543539062,-9.74478,1.56102,0.603649,0.34469,0.43909,0.11047
1702329543546875,-9.79078,1.90102,0.599649,0.37669,0.43809,0.15747
1702329543554687,-9.84678,1.122102,0.589649,0.19469,0.47509,0.22747
1702329543562500,-9.83678,1.161102,0.576649,0.21569,0.66609,0.29047
1702329543570312,-9.79878,1.174102,0.610649,0.6069,0.68109,0.30747
1702329543578125,-9.73578,1.189102,0.671649,0.431,0.71509,0.30947
1702329543585937,-9.67578,1.194102,0.673649,0.8431,0.66709,0.29447
1702329543593750,-9.64878,1.209102,0.671649,0.22031,0.67909,0.32647
1702329543601562,-9.62478,1.229102,0.673649,0.24931,0.59709,0.22947
1702329543609375,-9.60378,1.247102,0.686649,0.23831,0.45409,0.24647
1702329543617187,-9.57978,1.253102,0.657649,0.25231,0.38909,0.18147
1702329543625000,-9.59578,1.259102,0.612649,0.27431,0.33609,0.3447
1702329543632812,-9.63078,1.229102,0.633649,0.28631,0.46409,0.147
1702329543640625,-9.63478,1.158102,0.675649,0.43231,0.49909,0.3747
1702329543648437,-9.62978,1.105102,0.664649,0.50731,0.43309,0.1153
1702329543656250,-9.63078,1.72102,0.655649,0.45131,0.42009,0.2247
1702329543664062,-9.64678,1.63102,0.644649,0.50231,0.40709,0.2347
1702329543671875,-9.66878,1.72102,0.630649,0.48031,0.30209,0.14947
1702329543679687,-9.68978,1.97102,0.635649,0.48931,0.40609,0.15247
1702329543687500,-9.69378,1.97102,0.639649,0.38931,0.36809,0.24547
1702329543695312,-9.70278,1.104102,0.653649,0.36431,0.33909,0.32747
1702329543703125,-9.70978,1.104102,0.635649,0.42831,0.30609,0.37547
1702329543710937,-9.70478,1.82102,0.635649,0.33631,0.47109,0.34447
1702329543718750,-9.70378,1.38102,0.639649,0.31131,0.50809,0.33047
1702329543726562,-9.69478,0.978102,0.637649,0.19831,0.60409,0.32847
1702329543734375,-9.71878,0.944102,0.650649,0.5031,0.66609,0.26047
1702329543742187,-9.71678,0.935102,0.650649,0.2731,0.58009,0.22547
1702329543750000,-9.72978,0.931102,0.617649,0.1431,0.56509,0.24247
1702329543757812,-9.71278,0.953102,0.635649,0.0,0.64709,0.29147
1702329543765625,-9.67378,0.966102,0.632649,0.3431,0.68209,0.24447
1702329543773437,-9.63878,0.992102,0.630649,0.7969,0.61409,0.24147
1702329543781250,-9.60278,0.989102,0.610649,0.22269,0.61309,0.22347
1702329543789062,-9.57378,0.995102,0.610649,0.23869,0.56409,0.22247
1702329543796875,-9.59178,1.20102,0.605649,0.28869,0.48309,0.12447
1702329543804687,-9.62378,1.27102,0.594649,0.42969,0.45009,0.13947
1702329543812500,-9.67278,1.25102,0.599649,0.50969,0.43209,0.18547
1702329543820312,-9.73378,1.62102,0.599649,0.53269,0.45409,0.17247
1702329543828125,-9.77278,1.100102,0.610649,0.50169,0.45409,0.18847
1702329543835937,-9.79178,1.132102,0.585649,0.58069,0.43609,0.23547
1702329543843750,-9.79478,1.165102,0.601649,0.61669,0.41709,0.21747
1702329543851562,-9.78978,1.174102,0.601649,0.59769,0.46809,0.26747
1702329543859375,-9.78578,1.171102,0.608649,0.58069,0.51709,0.33247
1702329543867187,-9.75778,1.149102,0.612649,0.57569,0.48609,0.36547
1702329543875000,-9.72378,1.122102,0.621649,0.67369,0.53309,0.34747
1702329543882812,-9.66078,1.103102,0.660649,0.67769,0.62909,0.33047
1702329543890625,-9.64178,1.78102,0.639649,0.46569,0.56809,0.36747
1702329543898437,-9.61978,1.94102,0.632649,0.48269,0.64909,0.36647
1702329543906250,-9.61878,1.125102,0.623649,0.48469,0.72909,0.31847
1702329543914062,-9.62778,1.145102,0.635649,0.40869,0.74609,0.19047
1702329543921875,-9.64578,1.192102,0.646649,0.26369,0.76509,0.22547
1702329543929687,-9.65778,1.225102,0.653649,0.27569,0.58709,0.24147
1702329543937500,-9.66478,1.223102,0.641649,0.23269,0.42209,0.20847
1702329543945312,-9.66878,1.199102,0.626649,0.22869,0.45809,0.19347
1702329543953125,-9.66578,1.179102,0.635649,0.24669,0.44009,0.19247
1702329543960937,-9.65478,1.145102,0.635649,0.22069,0.34109,0.7847
1702329543968750,-9.66478,1.103102,0.612649,0.23869,0.35409,0.12547
1702329543976562,-9.66478,1.74102,0.635649,0.25269,0.37209,0.11047
1702329543984375,-9.65778,1.48102,0.650649,0.22469,0.32209,0.6147
1702329543992187,-9.67378,1.36102,0.671649,0.24769,0.33309,0.5847
1702329544000000,-9.69978,1.19102,0.662649,0.27669,0.33409,0.10747
1702329544007812,-9.69278,1.33102,0.653649,0.39169,0.34109,0.14147
1702329544015625,-9.67778,1.55102,0.671649,0.31469,0.30509,0.25347
1702329544023437,-9.65278,1.61102,0.671649,0.26869,0.33609,0.26947
1702329544031250,-9.65978,1.67102,0.630649,0.25269,0.30309,0.33447
1702329544039062,-9.67178,1.92102,0.594649,0.28369,0.30309,0.31747
1702329544046875,-9.69878,1.110102,0.605649,0.28269,0.41809,0.33447
1702329544054687,-9.70378,1.119102,0.628649,0.27069,0.44809,0.36547
1702329544062500,-9.71278,1.128102,0.635649,0.22069,0.36809,0.35147
1702329544070312,-9.71278,1.131102,0.630649,0.21669,0.42009,0.30447
1702329544078125,-9.72178,1.128102,0.619649,0.23969,0.36709,0.25347
1702329544085937,-9.71978,1.115102,0.635649,0.19969,0.28209,0.23547
1702329544093750,-9.71678,1.81102,0.646649,0.18569,0.18409,0.17047
1702329544101562,-9.70478,1.59102,0.653649,0.14569,0.28909,0.11047
1702329544109375,-9.70278,1.32102,0.669649,0.69,0.31309,0.5947
1702329544117187,-9.72878,1.15102,0.693649,0.5869,0.33409,0.353
1702329544125000,-9.73778,1.13102,0.691649,0.3569,0.45209,0.4847
1702329544132812,-9.73078,1.9102,0.671649,0.11569,0.45309,0.0
1702329544140625,-9.71678,0.998102,0.661649,0.23369,0.44009,0.8047
1702329544148437,-9.68078,0.948102,0.651649,0.23269,0.52809,0.5947
1702329544156250,-9.64178,0.903102,0.648649,0.22869,0.54709,0.7747
1702329544164062,-9.59178,0.873102,0.646649,0.40069,0.54909,0.453
1702329544171875,-9.58778,0.889102,0.637649,0.47969,0.46709,0.2253
1702329544179687,-9.59478,0.920102,0.623649,0.58869,0.38709,0.3953
1702329544187500,-9.64078,0.956102,0.601649,0.61469,0.42209,0.1047
1702329544195312,-9.70378,1.11102,0.601649,0.64669,0.40409,0.7347
1702329544203125,-9.73478,1.69102,0.574649,0.71169,0.35409,0.10347
1702329544210937,-9.76878,1.107102,0.556649,0.74669,0.41709,0.8647
1702329544218750,-9.77578,1.133102,0.572649,0.72669,0.45009,0.20047
1702329544226562,-9.77078,1.114102,0.603649,0.76869,0.43709,0.23347
1702329544234375,-9.75478,1.71102,0.612649,0.83069,0.45509,0.20147
1702329544242187,-9.72478,1.22102,0.590649,0.72669,0.46509,0.24847
1702329544250000,-9.71978,0.986102,0.574649,0.81869,0.43609,0.21547
1702329544257812,-9.71078,0.988102,0.583649,0.92969,0.45109,0.23047
1702329544265625,-9.74278,0.993102,0.606649,0.93769,0.42909,0.21147
1702329544273437,-9.77178,1.43102,0.644649,0.88269,0.45109,0.23047
1702329544281250,-9.80578,1.83102,0.628649,0.90669,0.44009,0.20047
1702329544289062,-9.80678,1.112102,0.626649,0.88269,0.46709,0.21447
1702329544296875,-9.78878,1.112102,0.633649,0.77269,0.48309,0.23247
1702329544304687,-9.76178,1.98102,0.621649,0.75169,0.45409,0.20247
1702329544312500,-9.69678,1.94102,0.628649,0.66769,0.43109,0.21547
1702329544320312,-9.67178,1.101102,0.639649,0.71169,0.46509,0.23247
1702329544328125,-9.65478,1.116102,0.669649,0.58869,0.44709,0.21647
1702329544335937,-9.66178,1.136102,0.666649,0.51169,0.44609,0.23347
1702329544343750,-9.67278,1.163102,0.666649,0.52869,0.49509,0.16847
1702329544351562,-9.71078,1.166102,0.678649,0.47769,0.56309,0.15547
1702329544359375,-9.74078,1.171102,0.686649,0.47169,0.55109,0.17347
1702329544367187,-9.75378,1.175102,0.687649,0.32269,0.56209,0.17247
1702329544375000,-9.75578,1.155102,0.648649,0.22469,0.49909,0.20647
1702329544382812,-9.74678,1.133102,0.619649,0.23969,0.51509,0.19047
1702329544390625,-9.71478,1.108102,0.608649,0.21669,0.65009,0.22547
1702329544398437,-9.68278,1.56102,0.608649,0.24269,0.52909,0.25347
1702329544406250,-9.64378,1.23102,0.621649,0.22069,0.58309,0.16047
1702329544414062,-9.60978,1.25102,0.605649,0.24769,0.53709,0.19247
1702329544421875,-9.58778,1.22102,0.605649,0.38169,0.43509,0.12447
1702329544429687,-9.59178,1.24102,0.619649,0.36469,0.41809,0.17247
1702329544437500,-9.62378,1.69102,0.621649,0.37769,0.32309,0.14047
1702329544445312,-9.67378,1.103102,0.635649,0.32169,0.30309,0.12347
1702329544453125,-9.74678,1.124102,0.637649,0.31469,0.34509,0.15247
1702329544460937,-9.78678,1.141102,0.644649,0.20469,0.48509,0.20747
1702329544468750,-9.81678,1.172102,0.680649,0.23869,0.54909,0.17547
1702329544476562,-9.82178,1.190102,0.711649,0.9769,0.62909,0.24047
1702329544484375,-9.79778,1.200102,0.696649,0.1731,0.57309,0.20647
1702329544492187,-9.75678,1.184102,0.671649,0.169,0.54909,0.22647
1702329544500000,-9.71278,1.155102,0.657649,0.7731,0.50109,0.21147
1702329544507812,-9.67478,1.119102,0.677649,0.6031,0.48509,0.13047
1702329544515625,-9.63878,1.98102,0.696649,0.16231,0.49609,0.14447
1702329544523437,-9.61078,1.51102,0.711649,0.25931,0.44909,0.11447
1702329544531250,-9.60578,1.25102,0.686649,0.24431,0.43409,0.6647
1702329544539062,-9.62778,1.7102,0.655649,0.25631,0.33509,0.1453
1702329544546875,-9.65378,0.972102,0.650649,0.16231,0.45009,0.1553
1702329544554687,-9.72378,0.955102,0.637649,0.3931,0.55009,0.3153
1702329544562500,-9.75478,0.909102,0.621649,0.8831,0.53309,0.3347
1702329544570312,-9.76978,0.885102,0.542649,0.769,0.45009,0.9547
1702329544578125,-9.75178,0.887102,0.524649,0.10469,0.44909,0.2947
1702329544585937,-9.70878,0.916102,0.565649,0.18269,0.52309,0.13047
1702329544593750,-9.68778,0.955102,0.592649,0.23269,0.45709,0.11247
1702329544601562,-9.67978,1.6102,0.583649,0.28769,0.43309,0.20547
1702329544609375,-9.65578,1.45102,0.601649,0.34069,0.33109,0.23447
1702329544617187,-9.67378,1.90102,0.633649,0.36969,0.38209,0.23447
1702329544625000,-9.67978,1.148102,0.669649,0.34869,0.41709,0.28447
1702329544632812,-9.66478,1.205102,0.702649,0.22169,0.40209,0.25447
1702329544640625,-9.66978,1.274102,0.734649,0.25369,0.35309,0.23747
1702329544648437,-9.66878,1.336102,0.732649,0.13269,0.33309,0.22147
1702329544656250,-9.67178,1.378102,0.705649,0.4031,0.36609,0.23947
1702329544664062,-9.68278,1.369102,0.732649,0.16431,0.49509,0.22547
1702329544671875,-9.70478,1.314102,0.772649,0.30831,0.56209,0.24447
1702329544679687,-9.71178,1.208102,0.817649,0.38331,0.54609,0.10047
1702329544687500,-9.69478,1.88102,0.808649,0.53631,0.47909,0.2047
1702329544695312,-9.67678,0.990102,0.808649,0.46531,0.45209,0.547
1702329544703125,-9.66778,0.939102,0.822649,0.34731,0.46309,0.1453
1702329544710937,-9.67978,0.922102,0.819649,0.28231,0.45609,0.2653
1702329544718750,-9.69178,0.911102,0.772649,0.27831,0.43709,0.1153
1702329544726562,-9.73678,0.922102,0.718649,0.21431,0.48509,0.1353
1702329544734375,-9.75178,0.909102,0.684649,0.3769,0.50009,0.3147
1702329544742187,-9.72078,0.895102,0.684649,0.10069,0.53309,0.1547
1702329544750000,-9.66178,0.865102,0.653649,0.23269,0.41509,0.2747
1702329544757812,-9.61378,0.831102,0.635649,0.33969,0.43309,0.5847
1702329544765625,-9.60478,0.812102,0.628649,0.46769,0.43909,0.18947
1702329544773437,-9.62578,0.849102,0.639649,0.52369,0.45009,0.13847
1702329544781250,-9.65778,0.888102,0.662649,0.63369,0.46509,0.20047
1702329544789062,-9.70978,0.966102,0.664649,0.71969,0.56909,0.20347
1702329544796875,-9.73578,1.35102,0.693649,0.73969,0.58109,0.26547
1702329544804687,-9.74378,1.86102,0.702649,0.73269,0.56009,0.23047
1702329544812500,-9.75278,1.113102,0.666649,0.72469,0.53209,0.26547
1702329544820312,-9.71478,1.133102,0.655649,0.73469,0.51809,0.33047
1702329544828125,-9.68378,1.132102,0.642649,0.75569,0.59809,0.23347
1702329544835937,-9.66078,1.143102,0.666649,0.72269,0.55009,0.26647
1702329544843750,-9.64978,1.143102,0.709649,0.67169,0.53609,0.26747
1702329544851562,-9.65878,1.156102,0.734649,0.61269,0.48609,0.18747
1702329544859375,-9.66578,1.165102,0.743649,0.55069,0.51709,0.23547
1702329544867187,-9.70478,1.201102,0.734649,0.38869,0.52609,0.21847
1702329544875000,-9.71578,1.182102,0.729649,0.22169,0.58209,0.19147
1702329544882812,-9.71378,1.168102,0.725649,0.24069,0.53209,0.15847
1702329544890625,-9.71778,1.132102,0.714649,0.13369,0.57809,0.19047
1702329544898437,-9.72078,1.84102,0.702649,0.14969,0.44809,0.12547
1702329544906250,-9.70678,1.51102,0.695649,0.18969,0.45409,0.9547
1702329544914062,-9.69478,0.999102,0.662649,0.24469,0.41609,0.7547
1702329544921875,-9.69878,0.964102,0.648649,0.22669,0.40209,0.4547
1702329544929687,-9.70278,0.922102,0.655649,0.24069,0.43509,0.7747
1702329544937500,-9.71178,0.904102,0.639649,0.24469,0.41809,0.353
1702329544945312,-9.73578,0.895102,0.612649,0.22969,0.43209,0.6047
1702329544953125,-9.76078,0.905102,0.581649,0.27669,0.46509,0.5947
1702329544960937,-9.76078,0.903102,0.578649,0.47269,0.45509,0.6047
1702329544968750,-9.76578,0.910102,0.594649,0.47269,0.47109,0.4447
1702329544976562,-9.74778,0.909102,0.596649,0.47669,0.54909,0.9147
1702329544984375,-9.73378,0.911102,0.583649,0.52669,0.44909,0.8947
1702329544992187,-9.71378,0.938102,0.581649,0.72369,0.45309,0.12147
1702329545000000,-9.69278,0.966102,0.596649,0.74669,0.49709,0.13447
1702329545007812,-9.68178,0.992102,0.615649,0.77969,0.44809,0.8547
1702329545015625,-9.67578,1.18102,0.637649,0.78569,0.54309,0.1947
1702329545023437,-9.65978,1.54102,0.673649,0.88769,0.58109,0.547
1702329545031250,-9.66578,1.98102,0.702649,0.94069,0.44609,0.5047
1702329545039062,-9.68378,1.117102,0.705649,0.80569,0.53309,0.10347
1702329545046875,-9.70378,1.128102,0.711649,0.71869,0.49009,0.9147
1702329545054687,-9.72178,1.142102,0.716649,0.69469,0.46809,0.10447
1702329545062500,-9.72478,1.162102,0.736649,0.62869,0.53709,0.5947
1702329545070312,-9.70878,1.155102,0.729649,0.50969,0.46709,0.5747
1702329545078125,-9.72178,1.141102,0.723649,0.48169,0.43109,0.7247
1702329545085937,-9.71678,1.119102,0.732649,0.47669,0.45209,0.4247
1702329545093750,-9.70778,1.75102,0.734649,0.49869,0.53009,0.2353
1702329545101562,-9.71878,1.62102,0.743649,0.47669,0.56709,0.1147
1702329545109375,-9.71878,1.55102,0.754649,0.49169,0.59809,0.10747
1702329545117187,-9.71178,1.39102,0.770649,0.55869,0.59709,0.653
1702329545125000,-9.71578,1.57102,0.732649,0.32169,0.56509,0.2847
1702329545132812,-9.69578,1.61102,0.743649,0.32369,0.49809,0.4347
1702329545140625,-9.68478,1.81102,0.723649,0.38869,0.46409,0.4147
1702329545148437,-9.67178,1.83102,0.712649,0.48969,0.42809,0.953
1702329545156250,-9.64878,1.87102,0.716649,0.49269,0.45409,0.5353
1702329545164062,-9.63078,1.78102,0.709649,0.39969,0.45209,0.3653
1702329545171875,-9.64278,1.76102,0.711649,0.41969,0.43309,0.2253
1702329545179687,-9.66278,1.96102,0.736649,0.43069,0.45209,0.2153
1702329545187500,-9.68278,1.99102,0.752649,0.35269,0.48509,0.3653
1702329545195312,-9.69678,1.101102,0.759649,0.39669,0.58409,0.353
1702329545203125,-9.70078,1.97102,0.745649,0.38069,0.61709,0.253
1702329545210937,-9.69678,1.99102,0.738649,0.27469,0.58109,0.353
1702329545218750,-9.70378,1.99102,0.725649,0.30969,0.61209,0.1147
1702329545226562,-9.69178,1.99102,0.743649,0.22969,0.64609,0.1853
1702329545234375,-9.68378,1.128102,0.765649,0.21969,0.65209,0.1553
1702329545242187,-9.66578,1.163102,0.756649,0.24269,0.48409,0.253
1702329545250000,-9.64878,1.211102,0.772649,0.21369,0.50009,0.3553
1702329545257812,-9.61078,1.251102,0.786649,0.19569,0.41909,0.253
1702329545265625,-9.61878,1.282102,0.786649,0.6869,0.41809,0.9547
1702329545273437,-9.63178,1.305102,0.765649,0.2731,0.33809,0.9647
1702329545281250,-9.65878,1.305102,0.727649,0.5931,0.41909,0.9747
1702329545289062,-9.70178,1.317102,0.732649,0.20131,0.47009,0.6747
1702329545296875,-9.73078,1.297102,0.734649,0.26131,0.48509,0.1947
1702329545304687,-9.74178,1.260102,0.759649,0.40131,0.54909,0.2147
1702329545312500,-9.74778,1.215102,0.752649,0.51431,0.48609,0.2347
1702329545320312,-9.72678,1.182102,0.747649,0.53831,0.43309,0.4353
1702329545328125,-9.70378,1.155102,0.738649,0.64631,0.40009,0.10653
1702329545335937,-9.69878,1.113102,0.749649,0.54731,0.42309,0.7253
1702329545343750,-9.68978,1.74102,0.761649,0.55231,0.44809,0.5953
1702329545351562,-9.69778,1.42102,0.745649,0.57031,0.43409,0.10653
1702329545359375,-9.70178,0.999102,0.718649,0.50531,0.44909,0.10753
1702329545367187,-9.71278,0.982102,0.704649,0.53231,0.45609,0.3953
1702329545375000,-9.69378,0.973102,0.706649,0.49031,0.44209,0.2547
1702329545382812,-9.68278,0.962102,0.698649,0.36031,0.40509,0.8647
1702329545390625,-9.67178,0.957102,0.643649,0.28831,0.32709,0.11847
1702329545398437,-9.65578,0.941102,0.596649,0.17531,0.26109,0.8447
1702329545406250,-9.61978,0.945102,0.596649,0.5269,0.32109,0.4747
1702329545414062,-9.57078,0.951102,0.641649,0.14569,0.32309,0.1753
1702329545421875,-9.56178,0.998102,0.637649,0.23569,0.27909,0.9753
1702329545429687,-9.59278,1.60102,0.626649,0.22469,0.22709,0.9953
1702329545437500,-9.61978,1.125102,0.661649,0.26569,0.31309,0.9653
1702329545445312,-9.67378,1.203102,0.704649,0.27269,0.30709,0.8353
1702329545453125,-9.70278,1.246102,0.722649,0.21369,0.38109,0.6253
1702329545460937,-9.75278,1.260102,0.743649,0.23369,0.39309,0.0
1702329545468750,-9.75978,1.258102,0.788649,0.22069,0.45609,0.0
1702329545476562,-9.74778,1.253102,0.792649,0.14269,0.43909,0.0
1702329545484375,-9.75678,1.225102,0.785649,0.12369,0.45809,0.3053
1702329545492187,-9.75178,1.204102,0.804649,0.20669,0.42109,0.4647
1702329545500000,-9.72478,1.184102,0.831649,0.19569,0.53409,0.3453
1702329545507812,-9.70578,1.141102,0.837649,0.11669,0.54809,0.6247
1702329545515625,-9.68278,1.106102,0.869649,0.14769,0.50109,0.3047
1702329545523437,-9.64878,1.96102,0.927649,0.14469,0.55309,0.1553
1702329545531250,-9.62278,1.98102,0.903649,0.17869,0.45309,0.1753
1702329545539062,-9.62478,1.94102,0.844649,0.24669,0.40209,0.10053
1702329545546875,-9.63878,1.129102,0.819649,0.23269,0.48209,0.8453
1702329545554687,-9.66078,1.136102,0.837649,0.22669,0.45209,0.253
1702329545562500,-9.68378,1.146102,0.806649,0.22569,0.53309,0.3047
1702329545570312,-9.67878,1.123102,0.768649,0.23169,0.44709,0.5947
1702329545578125,-9.68578,1.121102,0.716649,0.22869,0.43209,0.10847
1702329545585937,-9.71078,1.152102,0.689649,0.24569,0.43109,0.12347
1702329545593750,-9.70278,1.203102,0.712649,0.23269,0.46209,0.10747
1702329545601562,-9.68778,1.252102,0.734649,0.22169,0.46909,0.17547
1702329545609375,-9.66578,1.289102,0.725649,0.13069,0.41709,0.19047
1702329545617187,-9.66678,1.311102,0.732649,0.18269,0.33209,0.20447
1702329545625000,-9.66778,1.303102,0.761649,0.9369,0.30609,0.24047
1702329545632812,-9.67078,1.309102,0.768649,0.4331,0.36909,0.20947
1702329545640625,-9.66178,1.303102,0.752649,0.9331,0.41909,0.24247
1702329545648437,-9.66578,1.298102,0.756649,0.18231,0.43309,0.17847
1702329545656250,-9.66978,1.252102,0.774649,0.30831,0.44909,0.17947
1702329545664062,-9.67178,1.228102,0.770649,0.26731,0.43809,0.10147
1702329545671875,-9.68178,1.190102,0.756649,0.32931,0.45409,0.8647
1702329545679687,-9.66178,1.172102,0.774649,0.34231,0.48409,0.11747
1702329545687500,-9.65278,1.152102,0.774649,0.34231,0.47009,0.5347
1702329545695312,-9.65678,1.114102,0.779649,0.30231,0.44809,0.1453
1702329545703125,-9.66278,1.96102,0.774649,0.35131,0.43309,0.247
1702329545710937,-9.66978,1.96102,0.768649,0.36431,0.36609,0.1847
1702329545718750,-9.69878,1.101102,0.772649,0.43331,0.40109,0.8447
1702329545726562,-9.71078,1.139102,0.759649,0.31731,0.30109,0.3347
1702329545734375,-9.70678,1.148102,0.720649,0.25131,0.28109,0.6347
1702329545742187,-9.69478,1.154102,0.687649,0.27331,0.30209,0.4947
1702329545750000,-9.68678,1.167102,0.655649,0.25131,0.29809,0.6347
1702329545757812,-9.67778,1.170102,0.678649,0.27131,0.35009,0.6547
1702329545765625,-9.66378,1.167102,0.691649,0.25331,0.39809,0.1647
1702329545773437,-9.65278,1.165102,0.702649,0.24231,0.23609,0.9647
1702329545781250,-9.63678,1.176102,0.702649,0.27131,0.30109,0.4847
1702329545789062,-9.66178,1.185102,0.709649,0.27231,0.31709,0.9747
1702329545796875,-9.66878,1.185102,0.725649,0.25831,0.38409,0.9847
1702329545804687,-9.69778,1.190102,0.734649,0.28731,0.47909,0.9747
1702329545812500,-9.70278,1.199102,0.743649,0.27931,0.46809,0.13247
1702329545820312,-9.70478,1.188102,0.738649,0.28931,0.41309,0.22647
1702329545828125,-9.68178,1.186102,0.725649,0.28131,0.43509,0.22947
1702329545835937,-9.67278,1.161102,0.738649,0.26331,0.40109,0.24447
1702329545843750,-9.64578,1.136102,0.738649,0.27331,0.39709,0.22647
1702329545851562,-9.61578,1.116102,0.741649,0.23431,0.38609,0.24447
1702329545859375,-9.59978,1.89102,0.745649,0.10331,0.30209,0.20847
1702329545867187,-9.59278,1.60102,0.747649,0.3231,0.22509,0.22547
1702329545875000,-9.61078,1.40102,0.747649,0.631,0.35009,0.14247
1702329545882812,-9.63078,1.49102,0.808649,0.2531,0.44909,0.14447
1702329545890625,-9.66478,1.69102,0.797649,0.1169,0.33109,0.18947
1702329545898437,-9.71678,1.97102,0.756649,0.3469,0.45109,0.17647
1702329545906250,-9.74778,1.105102,0.738649,0.1469,0.43809,0.14647
1702329545914062,-9.78478,1.136102,0.743649,0.5069,0.45109,0.16047
1702329545921875,-9.78678,1.134102,0.741649,0.13069,0.43509,0.12747
1702329545929687,-9.77178,1.140102,0.743649,0.16669,0.44709,0.17347
1702329545937500,-9.73278,1.127102,0.745649,0.21769,0.47009,0.24047
1702329545945312,-9.68778,1.117102,0.736649,0.23969,0.43509,0.12547
1702329545953125,-9.67678,1.110102,0.743649,0.24469,0.44909,0.7647
1702329545960937,-9.66378,1.111102,0.766649,0.28169,0.46109,0.7347
1702329545968750,-9.67478,1.139102,0.770649,0.33569,0.41909,0.6047
1702329545976562,-9.68178,1.161102,0.781649,0.34569,0.43909,0.6247
1702329545984375,-9.67078,1.190102,0.790649,0.38369,0.45009,0.7547
1702329545992187,-9.66678,1.214102,0.799649,0.43469,0.43109,0.7347
1702329546000000,-9.67178,1.225102,0.806649,0.37569,0.51009,0.8947
1702329546007812,-9.65178,1.238102,0.792649,0.34969,0.41909,0.15647
1702329546015625,-9.64478,1.229102,0.761649,0.36369,0.46809,0.20547
1702329546023437,-9.63078,1.224102,0.779649,0.41369,0.51609,0.15647
1702329546031250,-9.63578,1.220102,0.822649,0.45569,0.43609,0.22047
1702329546039062,-9.63778,1.209102,0.831649,0.37869,0.43509,0.25347
1702329546046875,-9.65378,1.207102,0.792649,0.33169,0.36909,0.28547
1702329546054687,-9.65778,1.218102,0.802649,0.27469,0.33209,0.29947
1702329546062500,-9.68078,1.228102,0.815649,0.21769,0.37109,0.28847
1702329546070312,-9.71678,1.242102,0.799649,0.21969,0.30609,0.22347
1702329546078125,-9.72778,1.244102,0.783649,0.23969,0.35109,0.25347
1702329546085937,-9.72778,1.251102,0.799649,0.20269,0.40409,0.24047
1702329546093750,-9.69478,1.259102,0.799649,0.10669,0.45509,0.22647
1702329546101562,-9.67878,1.250102,0.781649,0.7669,0.50209,0.22647
1702329546109375,-9.67178,1.232102,0.783649,0.4869,0.51609,0.24147
1702329546117187,-9.69378,1.199102,0.772649,0.2831,0.56509,0.19447
1702329546125000,-9.69578,1.206102,0.783649,0.4231,0.58009,0.16147
1702329546132812,-9.68278,1.208102,0.810649,0.3331,0.60209,0.14847
1702329546140625,-9.66678,1.205102,0.819649,0.4631,0.56609,0.21147
1702329546148437,-9.66878,1.196102,0.824649,0.5631,0.54609,0.19347
1702329546156250,-9.65078,1.178102,0.799649,0.2831,0.51609,0.17747
1702329546164062,-9.64778,1.145102,0.792649,0.931,0.46409,0.22447
1702329546171875,-9.64778,1.129102,0.770649,0.5931,0.58009,0.24247
1702329546179687,-9.62278,1.129102,0.799649,0.9331,0.59909,0.17947
1702329546187500,-9.61178,1.129102,0.801649,0.2531,0.53009,0.20847
1702329546195312,-9.61878,1.136102,0.790649,0.169,0.56509,0.22647
1702329546203125,-9.63578,1.130102,0.781649,0.4031,0.45809,0.24547
1702329546210937,-9.66078,1.114102,0.759649,0.1131,0.43309,0.24047
1702329546218750,-9.68078,1.104102,0.736649,0.10769,0.45309,0.27347
1702329546226562,-9.68578,1.94102,0.743649,0.14669,0.43309,0.19047
1702329546234375,-9.68478,1.83102,0.774649,0.13469,0.39809,0.22147
1702329546242187,-9.69578,1.60102,0.797649,0.21869,0.39009,0.15947
1702329546250000,-9.70478,1.58102,0.812649,0.23169,0.32509,0.17647
1702329546257812,-9.69578,1.66102,0.831649,0.23669,0.35609,0.11047
1702329546265625,-9.66178,1.37102,0.840649,0.28369,0.45409,0.9447
1702329546273437,-9.63378,1.5102,0.855649,0.32869,0.43909,0.9447
1702329546281250,-9.62178,1.15102,0.840649,0.36069,0.42909,0.5647
1702329546289062,-9.60078,1.18102,0.846649,0.34669,0.57109,0.3353
1702329546296875,-9.59378,1.25102,0.860649,0.47469,0.55309,0.10053
1702329546304687,-9.62178,1.27102,0.862649,0.51169,0.58409,0.16653
1702329546312500,-9.65278,1.10102,0.842649,0.58469,0.68509,0.13253
1702329546320312,-9.69978,1.11102,0.810649,0.66569,0.61809,0.15053
1702329546328125,-9.73378,1.36102,0.788649,0.74469,0.56909,0.16853
1702329546335937,-9.76578,1.52102,0.768649,0.72869,0.56909,0.16853
1702329546343750,-9.79678,1.63102,0.734649,0.91669,0.56909,0.13753
1702329546351562,-9.83378,1.92102,0.720649,0.101069,0.55109,0.4353
1702329546359375,-9.82678,1.95102,0.722649,0.100769,0.61809,0.2553
1702329546367187,-9.79778,1.127102,0.729649,0.97369,0.74909,0.7247
1702329546375000,-9.75978,1.160102,0.749649,0.98669,0.71909,0.5747
1702329546382812,-9.71578,1.193102,0.754649,0.100169,0.68609,0.7247
1702329546390625,-9.68078,1.228102,0.747649,0.102269,0.64909,0.11847
1702329546398437,-9.64678,1.250102,0.786649,0.101569,0.70209,0.15347
1702329546406250,-9.63178,1.283102,0.797649,0.96869,0.70209,0.13747
1702329546414062,-9.63278,1.311102,0.792649,0.97669,0.56709,0.10247
1702329546421875,-9.63278,1.351102,0.815649,0.91569,0.56609,0.10247
1702329546429687,-9.62178,1.351102,0.851649,0.81069,0.52909,0.18147
1702329546437500,-9.61778,1.342102,0.858649,0.73069,0.57909,0.15147
1702329546445312,-9.61478,1.318102,0.871649,0.61369,0.56609,0.20347
1702329546453125,-9.60978,1.266102,0.847649,0.57469,0.57709,0.16847
1702329546460937,-9.61778,1.206102,0.824649,0.49269,0.53109,0.21947
1702329546468750,-9.62978,1.160102,0.829649,0.49269,0.64409,0.23547
1702329546476562,-9.63178,1.120102,0.862649,0.47269,0.66409,0.15747
1702329546484375,-9.63878,1.96102,0.869649,0.50069,0.49409,0.10347
1702329546492187,-9.66478,1.74102,0.810649,0.47869,0.44909,0.15447
1702329546500000,-9.69178,1.61102,0.734649,0.51569,0.33009,0.19947
1702329546507812,-9.70078,1.57102,0.684649,0.54669,0.41209,0.15147
1702329546515625,-9.70078,1.48102,0.669649,0.48869,0.36009,0.16647
1702329546523437,-9.71878,1.61102,0.709649,0.57369,0.46409,0.20047
1702329546531250,-9.72378,1.61102,0.757649,0.67769,0.44309,0.10047
1702329546539062,-9.72078,1.55102,0.772649,0.67069,0.39909,0.3847
1702329546546875,-9.71378,1.48102,0.772649,0.68069,0.37009,0.8847
1702329546554687,-9.71578,1.31102,0.756649,0.59169,0.31909,0.647
1702329546562500,-9.72778,1.55102,0.772649,0.65669,0.35009,0.2653
1702329546570312,-9.71878,1.70102,0.820649,0.70669,0.38209,0.5953
1702329546578125,-9.73478,1.113102,0.835649,0.52769,0.46709,0.7153
1702329546585937,-9.74478,1.149102,0.858649,0.48169,0.43509,0.8653
1702329546593750,-9.72278,1.177102,0.871649,0.49669,0.41809,0.7153
1702329546601562,-9.73678,1.191102,0.844649,0.48269,0.41709,0.3953
1702329546609375,-9.71878,1.206102,0.849649,0.49269,0.42109,0.3753
1702329546617187,-9.68278,1.192102,0.851649,0.50169,0.43009,0.853
1702329546625000,-9.65978,1.172102,0.856649,0.48169,0.40009,0.2447
1702329546632812,-9.62778,1.149102,0.865649,0.43769,0.46109,0.10447
1702329546640625,-9.61378,1.135102,0.847649,0.46769,0.38109,0.10447
1702329546648437,-9.59478,1.144102,0.835649,0.45869,0.31109,0.8547
1702329546656250,-9.58978,1.166102,0.835649,0.47069,0.39609,0.3947
1702329546664062,-9.57478,1.186102,0.860649,0.35769,0.43009,0.10547
1702329546671875,-9.59478,1.197102,0.867649,0.36069,0.37909,0.5647
1702329546679687,-9.61778,1.199102,0.842649,0.28369,0.31209,0.10447
1702329546687500,-9.63078,1.189102,0.844649,0.23269,0.31609,0.5847
1702329546695312,-9.65778,1.171102,0.880649,0.25169,0.37809,0.13747
1702329546703125,-9.66878,1.147102,0.910649,0.23469,0.33009,0.10547
1702329546710937,-9.68378,1.126102,0.885649,0.24369,0.35209,0.9247
1702329546718750,-9.68378,1.130102,0.889649,0.14969,0.35009,0.14147
1702329546726562,-9.69278,1.134102,0.905649,0.23069,0.44709,0.9147
1702329546734375,-9.69978,1.161102,0.925649,0.22969,0.46709,0.3553
1702329546742187,-9.70478,1.179102,0.912649,0.13869,0.36509,0.2747
1702329546750000,-9.70678,1.190102,0.878649,0.11869,0.40109,0.2947
1702329546757812,-9.69578,1.163102,0.844649,0.10969,0.43009,0.3653
1702329546765625,-9.67978,1.143102,0.849649,0.20569,0.39609,0.2253
1702329546773437,-9.64778,1.129102,0.851649,0.21769,0.38209,0.553
1702329546781250,-9.64778,1.138102,0.858649,0.22869,0.36809,0.2847
1702329546789062,-9.64978,1.145102,0.829649,0.24969,0.26809,0.653
1702329546796875,-9.66878,1.140102,0.822649,0.23969,0.31309,0.753
1702329546804687,-9.68678,1.174102,0.835649,0.23569,0.36409,0.653
1702329546812500,-9.68978,1.230102,0.833649,0.24669,0.30209,0.1047
