time,Acceleration X (m/s^2),Acceleration Y (m/s^2),Acceleration Z (m/s^2),Angular Velocity X (rad/s),Angular Velocity Y (rad/s),Angular Velocity Z (rad/s)
1702328716929687,-9.68852,1.049189,-0.031532,,,
1702328716937500,-9.68152,1.58189,0.844851,0.20676,0.36532,0.14779
1702328716945312,-9.68652,1.62189,0.832851,0.20676,0.43032,0.13179
1702328716953125,-9.69952,1.62189,0.826851,0.22176,0.38132,0.17979
1702328716960937,-9.69752,1.67189,0.836851,0.19376,0.42132,0.21679
1702328716968750,-9.68852,1.74189,0.841851,0.21476,0.45232,0.15079
1702328716984375,-9.67352,1.91189,0.857851,0.18376,0.45032,0.23079
1702328716992187,-9.66152,1.73189,0.870851,0.21476,0.41732,0.24679
1702328717000000,-9.67052,1.74189,0.861851,0.19376,0.48732,0.20079
1702328717007812,-9.68352,1.51189,0.850851,0.21476,0.40332,0.15079
1702328717031250,-9.68152,1.58189,0.834851,0.19676,0.43732,0.15179
1702328717039062,-9.67052,1.58189,0.837851,0.20176,0.45132,0.10179
1702328717046875,-9.66352,1.60189,0.819851,0.20776,0.41432,0.11579
1702328717054687,-9.65952,1.69189,0.821851,0.19376,0.39032,0.13679
1702328717062500,-9.66852,1.62189,0.846851,0.20076,0.40132,0.14979
1702328717070312,-9.68352,1.72189,0.839851,0.19176,0.44132,0.12179
1702328717078125,-9.67952,1.65189,0.848851,0.19576,0.45532,0.13579
1702328717085937,-9.68352,1.60189,0.841851,0.19776,0.43732,0.10279
1702328717093750,-9.67752,1.63189,0.843851,0.19376,0.45432,0.20079
1702328717101562,-9.66852,1.57189,0.864851,0.20376,0.41532,0.19679
1702328717109375,-9.68852,1.67189,0.868851,0.19576,0.40532,0.15179
1702328717117187,-9.69252,1.63189,0.866851,0.19676,0.40432,0.18379
1702328717125000,-9.67952,1.60189,0.852851,0.19876,0.33732,0.19879
1702328717132812,-9.67052,1.60189,0.845851,0.19176,0.47432,0.13779
1702328717140625,-9.67752,1.69189,0.834851,0.21576,0.41932,0.10179
1702328717148437,-9.67252,1.73189,0.848851,0.19676,0.47032,0.15179
1702328717156250,-9.65952,1.78189,0.852851,0.21276,0.47032,0.11979
1702328717164062,-9.66352,1.80189,0.843851,0.22976,0.42132,0.10279
1702328717171875,-9.66452,1.98189,0.848851,0.19476,0.32532,0.11979
1702328717179687,-9.67052,1.83189,0.832851,0.20576,0.44232,0.10579
1702328717187500,-9.69252,1.79189,0.827851,0.18776,0.36132,0.17079
1702328717195312,-9.69052,1.85189,0.837851,0.21376,0.43732,0.11879
1702328717203125,-9.68352,1.74189,0.848851,0.19376,0.47232,0.10479
1702328717210937,-9.68152,1.60189,0.843851,0.21576,0.45232,0.10279
1702328717218750,-9.68152,1.49189,0.836851,0.19476,0.48732,0.13679
1702328717226562,-9.67952,1.63189,0.834851,0.20876,0.47232,0.12079
1702328717234375,-9.67452,1.62189,0.830851,0.18176,0.45332,0.13579
1702328717242187,-9.67052,1.65189,0.832851,0.19376,0.47132,0.18479
1702328717250000,-9.68152,1.58189,0.836851,0.17676,0.45632,0.16979
1702328717257812,-9.67752,1.67189,0.839851,0.15776,0.36032,0.16979
1702328717265625,-9.67752,1.64189,0.850851,0.13776,0.43432,0.18279
1702328717273437,-9.67952,1.61189,0.852851,0.20576,0.42432,0.23379
1702328717281250,-9.67752,1.67189,0.848851,0.17376,0.42432,0.25079
1702328717289062,-9.66152,1.67189,0.843851,0.18976,0.35932,0.23379
1702328717296875,-9.67452,1.67189,0.843851,0.19976,0.34632,0.23479
1702328717304687,-9.68552,1.52189,0.827851,0.15276,0.38132,0.15579
1702328717312500,-9.69952,1.54189,0.827851,0.15976,0.32632,0.20179
1702328717320312,-9.69952,1.45189,0.834851,0.21276,0.42032,0.16779
1702328717328125,-9.70552,1.45189,0.821851,0.20676,0.39232,0.15279
1702328717335937,-9.71952,1.52189,0.814851,0.16776,0.35332,0.18279
1702328717343750,-9.69452,1.56189,0.812851,0.14676,0.45432,0.21779
1702328717351562,-9.68652,1.63189,0.812851,0.16176,0.45632,0.15379
1702328717359375,-9.67052,1.69189,0.812851,0.11676,0.47132,0.12079
1702328717367187,-9.67052,1.86189,0.825851,0.14076,0.44932,0.10179
1702328717375000,-9.67552,1.98189,0.846851,0.19476,0.47132,0.13679
1702328717382812,-9.68652,1.100189,0.846851,0.13676,0.41932,0.13579
1702328717390625,-9.70452,1.85189,0.807851,0.11876,0.42032,0.15279
1702328717398437,-9.72452,1.72189,0.801851,0.9576,0.46432,0.11779
1702328717406250,-9.70852,1.69189,0.805851,0.16876,0.45232,0.10279
1702328717414062,-9.68352,1.69189,0.825851,0.11776,0.47132,0.10479
1702328717421875,-9.68352,1.69189,0.834851,0.2276,0.45432,0.12179
1702328717429687,-9.67052,1.69189,0.827851,0.5476,0.48732,0.10579
1702328717437500,-9.68152,1.62189,0.796851,0.2976,0.46532,0.16779
1702328717445312,-9.68852,1.65189,0.810851,0.8976,0.45232,0.13579
1702328717453125,-9.69952,1.49189,0.832851,0.224,0.45032,0.10379
1702328717460937,-9.69752,1.43189,0.846851,0.5776,0.55032,0.13679
1702328717468750,-9.69052,1.58189,0.861851,0.5376,0.56932,0.13879
1702328717476562,-9.66852,1.64189,0.875851,0.3824,0.56632,0.18679
1702328717484375,-9.65752,1.64189,0.864851,0.4076,0.46832,0.23379
1702328717492187,-9.65052,1.62189,0.846851,0.5124,0.45032,0.21779
1702328717500000,-9.65952,1.69189,0.839851,0.524,0.46832,0.15379
1702328717507812,-9.64852,1.75189,0.843851,0.1924,0.44832,0.26479
1702328717515625,-9.65052,1.64189,0.841851,0.8376,0.47032,0.21779
1702328717523437,-9.66352,1.53189,0.834851,0.11476,0.42132,0.23379
1702328717531250,-9.67652,1.45189,0.832851,0.6976,0.38932,0.18579
1702328717539062,-9.65852,1.44189,0.832851,0.9976,0.38832,0.23379
1702328717546875,-9.65852,1.40189,0.818851,0.5624,0.35632,0.18679
1702328717554687,-9.68152,1.27189,0.825851,0.3876,0.38732,0.24979
1702328717562500,-9.68552,1.32189,0.836851,0.5276,0.37432,0.12179
1702328717570312,-9.68152,1.38189,0.845851,0.9976,0.40732,0.13779
1702328717578125,-9.68152,1.52189,0.857851,0.16376,0.38932,0.15179
1702328717585937,-9.69752,1.45189,0.855851,0.12576,0.38232,0.19779
1702328717593750,-9.68852,1.43189,0.866851,0.19576,0.45532,0.13579
1702328717601562,-9.67652,1.49189,0.861851,0.10076,0.45432,0.16979
1702328717609375,-9.68152,1.58189,0.844851,0.9776,0.38132,0.14879
1702328717617187,-9.66652,1.64189,0.843851,0.7576,0.36832,0.13479
1702328717625000,-9.67052,1.58189,0.832851,0.9276,0.30132,0.23079
1702328717632812,-9.67552,1.62189,0.832851,0.7476,0.38532,0.18379
1702328717640625,-9.66152,1.64189,0.834851,0.9976,0.38832,0.23379
1702328717648437,-9.66352,1.60189,0.832851,0.19676,0.32232,0.18279
1702328717656250,-9.66352,1.60189,0.834851,0.16676,0.38632,0.23179
1702328717664062,-9.66552,1.58189,0.848851,0.13176,0.40532,0.18479
1702328717671875,-9.66152,1.58189,0.839851,0.11876,0.35332,0.24779
1702328717679687,-9.67452,1.60189,0.845851,0.16276,0.32532,0.15279
1702328717687500,-9.69052,1.49189,0.843851,0.20076,0.33632,0.21379
1702328717695312,-9.70552,1.39189,0.843851,0.17676,0.37532,0.10479
1702328717703125,-9.71552,1.61189,0.834851,0.14876,0.43832,0.13679
1702328717710937,-9.70152,1.56189,0.832851,0.13576,0.40232,0.19979
1702328717718750,-9.70852,1.58189,0.832851,0.21176,0.42032,0.19979
1702328717726562,-9.70652,1.61189,0.834851,0.12476,0.45832,0.21979
1702328717734375,-9.67952,1.60189,0.827851,0.8276,0.42332,0.18579
1702328717742187,-9.66552,1.55189,0.810851,0.15476,0.38532,0.13379
1702328717750000,-9.66352,1.65189,0.818851,0.9876,0.48832,0.15479
1702328717757812,-9.66352,1.65189,0.850851,0.16276,0.43832,0.20079
1702328717765625,-9.66652,1.55189,0.859851,0.18776,0.41632,0.14979
1702328717773437,-9.68652,1.45189,0.850851,0.20176,0.45132,0.11779
1702328717781250,-9.69952,1.41189,0.854851,0.21076,0.45532,0.13579
1702328717789062,-9.69752,1.38189,0.852851,0.15276,0.45032,0.19879
1702328717796875,-9.69052,1.52189,0.873851,0.21276,0.48632,0.15179
1702328717804687,-9.68852,1.47189,0.879851,0.17876,0.45432,0.16879
1702328717812500,-9.69052,1.58189,0.868851,0.17676,0.48832,0.16979
1702328717820312,-9.67452,1.47189,0.859851,0.15876,0.37532,0.21779
1702328717828125,-9.65752,1.55189,0.855851,0.20376,0.41632,0.13279
1702328717835937,-9.66652,1.62189,0.855851,0.19976,0.33632,0.22979
1702328717843750,-9.65052,1.60189,0.861851,0.16376,0.46932,0.24879
1702328717851562,-9.65452,1.53189,0.866851,0.21376,0.33732,0.21479
1702328717859375,-9.66352,1.49189,0.852851,0.16576,0.37132,0.15179
1702328717867187,-9.68152,1.60189,0.846851,0.13376,0.37132,0.21579
1702328717875000,-9.67652,1.58189,0.859851,0.20476,0.42632,0.18579
1702328717882812,-9.69952,1.58189,0.870851,0.19876,0.40332,0.16679
1702328717890625,-9.68852,1.56189,0.863851,0.20676,0.40832,0.16979
1702328717898437,-9.66752,1.54189,0.861851,0.17876,0.40732,0.10479
1702328717906250,-9.67252,1.58189,0.848851,0.17576,0.34232,0.15279
1702328717914062,-9.66352,1.62189,0.859851,0.17276,0.39932,0.18079
1702328717921875,-9.67952,1.49189,0.859851,0.19276,0.32632,0.12079
1702328717929687,-9.68152,1.52189,0.850851,0.12876,0.42432,0.12179
1702328717937500,-9.68652,1.58189,0.868851,0.16676,0.35332,0.19879
1702328717945312,-9.69052,1.58189,0.868851,0.21476,0.38632,0.18279
1702328717953125,-9.70152,1.52189,0.870851,0.18976,0.44132,0.21779
1702328717960937,-9.69052,1.45189,0.873851,0.21276,0.47032,0.15179
1702328717968750,-9.68552,1.47189,0.877851,0.19676,0.45332,0.13579
1702328717976562,-9.68352,1.45189,0.886851,0.20376,0.47532,0.18679
1702328717984375,-9.67652,1.47189,0.877851,0.18776,0.42732,0.13879
1702328717992187,-9.64552,1.44189,0.875851,0.17576,0.44132,0.15379
1702328718000000,-9.66152,1.47189,0.872851,0.20676,0.40832,0.15279
1702328718007812,-9.66552,1.49189,0.864851,0.19776,0.25732,0.14979
1702328718015625,-9.66152,1.45189,0.857851,0.20976,0.39032,0.13579
1702328718023437,-9.66052,1.45189,0.886851,0.9376,0.36132,0.13979
1702328718031250,-9.67252,1.58189,0.886851,0.16576,0.25832,0.13479
1702328718039062,-9.67252,1.47189,0.891851,0.18176,0.30732,0.8679
1702328718046875,-9.68052,1.30189,0.893851,0.19276,0.31032,0.12079
1702328718054687,-9.67652,1.34189,0.875851,0.21176,0.32432,0.13479
1702328718062500,-9.68352,1.45189,0.866851,0.19476,0.24132,0.23179
1702328718070312,-9.66752,1.44189,0.884851,0.19976,0.28832,0.14979
1702328718078125,-9.66152,1.47189,0.888851,0.21376,0.32232,0.11879
1702328718085937,-9.66552,1.45189,0.900851,0.19776,0.30632,0.13479
1702328718093750,-9.65852,1.47189,0.895851,0.20876,0.25932,0.23179
1702328718101562,-9.64952,1.42189,0.886851,0.22176,0.29332,0.24879
1702328718109375,-9.63852,1.37189,0.893851,0.26176,0.22232,0.21279
1702328718117187,-9.62752,1.51189,0.897851,0.24676,0.22232,0.19679
1702328718125000,-9.62752,1.59189,0.906851,0.31176,0.17232,0.16279
1702328718132812,-9.63852,1.51189,0.875851,0.29376,0.19032,0.17979
1702328718140625,-9.65852,1.49189,0.855851,0.19876,0.15832,0.14979
1702328718148437,-9.67652,1.47189,0.852851,0.22476,0.17732,0.21479
1702328718156250,-9.69952,1.47189,0.852851,0.23276,0.20532,0.19679
1702328718164062,-9.69952,1.54189,0.850851,0.31876,0.16132,0.24579
1702328718171875,-9.70652,1.49189,0.852851,0.34476,0.18932,0.11479
1702328718179687,-9.71252,1.52189,0.845851,0.36676,0.27632,0.13379
1702328718187500,-9.71352,1.56189,0.830851,0.23076,0.19132,0.11679
1702328718195312,-9.70352,1.54189,0.834851,0.20976,0.21232,0.10379
1702328718203125,-9.69552,1.61189,0.848851,0.19776,0.19332,0.10179
1702328718210937,-9.69052,1.63189,0.859851,0.21276,0.20932,0.13379
1702328718218750,-9.68852,1.67189,0.870851,0.21076,0.25932,0.13579
1702328718226562,-9.68652,1.74189,0.855851,0.18376,0.30432,0.16579
1702328718234375,-9.68452,1.78189,0.841851,0.14176,0.25232,0.14879
1702328718242187,-9.68152,1.80189,0.830851,0.21076,0.25932,0.11879
1702328718250000,-9.68452,1.85189,0.834851,0.11576,0.32532,0.12079
1702328718257812,-9.67952,1.83189,0.832851,0.19676,0.30732,0.10279
1702328718265625,-9.69252,1.67189,0.832851,0.19676,0.32432,0.11879
1702328718273437,-9.70152,1.52189,0.837851,0.21876,0.33632,0.8479
1702328718281250,-9.71352,1.47189,0.850851,0.18676,0.35232,0.10179
1702328718289062,-9.71952,1.45189,0.857851,0.19976,0.35432,0.11779
1702328718296875,-9.69952,1.45189,0.846851,0.22176,0.35032,0.9979
1702328718304687,-9.68552,1.38189,0.852851,0.17976,0.42232,0.11979
1702328718312500,-9.67952,1.47189,0.859851,0.19876,0.38832,0.10279
1702328718320312,-9.68152,1.52189,0.859851,0.21176,0.30732,0.13479
1702328718328125,-9.69052,1.52189,0.864851,0.19676,0.50232,0.11979
1702328718335937,-9.68852,1.63189,0.877851,0.19776,0.40432,0.11879
1702328718343750,-9.69052,1.64189,0.864851,0.22176,0.41532,0.6779
1702328718351562,-9.68152,1.63189,0.850851,0.19876,0.43732,0.7079
1702328718359375,-9.68152,1.54189,0.850851,0.21176,0.34032,0.11879
1702328718367187,-9.68152,1.69189,0.857851,0.16676,0.43732,0.10379
1702328718375000,-9.68252,1.85189,0.868851,0.19876,0.30632,0.10179
1702328718382812,-9.66852,1.75189,0.848851,0.18576,0.40132,0.13379
1702328718390625,-9.66452,1.89189,0.848851,0.19576,0.37332,0.11979
1702328718398437,-9.66452,1.80189,0.855851,0.12576,0.38432,0.10179
1702328718406250,-9.66352,1.62189,0.862851,0.20876,0.34832,0.9879
1702328718414062,-9.66352,1.64189,0.861851,0.19976,0.37032,0.11779
1702328718421875,-9.66352,1.62189,0.868851,0.14876,0.43832,0.10479
1702328718429687,-9.66552,1.65189,0.870851,0.16276,0.40732,0.13679
1702328718437500,-9.68152,1.62189,0.859851,0.18376,0.40332,0.11879
1702328718445312,-9.69552,1.65189,0.859851,0.13576,0.38832,0.10379
1702328718453125,-9.70152,1.61189,0.852851,0.12176,0.33732,0.13479
1702328718460937,-9.68352,1.58189,0.850851,0.12076,0.38632,0.15179
1702328718468750,-9.66852,1.67189,0.852851,0.10376,0.33832,0.13579
1702328718476562,-9.66352,1.71189,0.861851,0.18076,0.35532,0.18379
1702328718484375,-9.67252,1.69189,0.834851,0.9176,0.38532,0.11879
1702328718492187,-9.66852,1.64189,0.837851,0.12176,0.40332,0.11979
1702328718500000,-9.66352,1.60189,0.830851,0.3424,0.30432,0.10379
1702328718507812,-9.66552,1.67189,0.837851,0.8776,0.33832,0.16779
1702328718515625,-9.68652,1.58189,0.850851,0.12776,0.31732,0.11679
1702328718523437,-9.68652,1.58189,0.857851,0.18476,0.33732,0.13379
1702328718531250,-9.66852,1.60189,0.841851,0.4976,0.33332,0.11779
1702328718539062,-9.67252,1.49189,0.850851,0.18476,0.35432,0.10179
1702328718546875,-9.68652,1.65189,0.841851,0.12376,0.31932,0.11779
1702328718554687,-9.68652,1.73189,0.841851,0.8024,0.38532,0.10479
1702328718562500,-9.66852,1.71189,0.834851,0.10876,0.33432,0.16579
1702328718570312,-9.66852,1.71189,0.832851,0.9776,0.29932,0.13179
1702328718578125,-9.67552,1.58189,0.830851,0.17476,0.31732,0.9979
1702328718585937,-9.65952,1.56189,0.832851,0.13376,0.30732,0.11979
1702328718593750,-9.66352,1.58189,0.819851,0.9276,0.31932,0.10179
1702328718601562,-9.66852,1.58189,0.825851,0.15276,0.33732,0.11879
1702328718609375,-9.69752,1.71189,0.850851,0.10876,0.33632,0.10179
1702328718617187,-9.67752,1.64189,0.850851,0.12876,0.31732,0.8479
1702328718625000,-9.66352,1.60189,0.828851,0.16676,0.35532,0.10279
1702328718632812,-9.68352,1.52189,0.818851,0.17576,0.39332,0.7379
1702328718640625,-9.68452,1.62189,0.832851,0.10876,0.30332,0.8579
1702328718648437,-9.69552,1.65189,0.852851,0.8976,0.35532,0.7179
1702328718656250,-9.68152,1.71189,0.828851,0.10376,0.33832,0.15179
1702328718664062,-9.66652,1.80189,0.818851,0.8476,0.30832,0.12079
1702328718671875,-9.66652,1.78189,0.832851,0.11676,0.32532,0.10479
1702328718679687,-9.67952,1.87189,0.836851,0.10176,0.37332,0.12079
1702328718687500,-9.68852,1.87189,0.843851,0.876,0.35432,0.16879
1702328718695312,-9.67952,1.65189,0.834851,0.5176,0.32632,0.12179
1702328718703125,-9.69952,1.61189,0.828851,0.12076,0.32232,0.10279
1702328718710937,-9.71052,1.47189,0.832851,0.4576,0.33632,0.8679
1702328718718750,-9.70152,1.27189,0.839851,0.3624,0.35532,0.8879
1702328718726562,-9.70152,1.27189,0.843851,0.15376,0.33732,0.10279
1702328718734375,-9.69952,1.25189,0.828851,0.7976,0.38232,0.14979
1702328718742187,-9.70352,1.32189,0.798851,0.7476,0.37032,0.10379
1702328718750000,-9.71052,1.43189,0.801851,0.9376,0.33432,0.13379
1702328718757812,-9.69952,1.51189,0.807851,0.18776,0.41632,0.14979
1702328718765625,-9.69252,1.54189,0.812851,0.19576,0.42232,0.11979
1702328718773437,-9.68152,1.49189,0.814851,0.19876,0.38832,0.10279
1702328718781250,-9.67252,1.55189,0.828851,0.20276,0.46532,0.16579
1702328718789062,-9.65952,1.46189,0.848851,0.19976,0.46732,0.18279
1702328718796875,-9.64752,1.40189,0.850851,0.20076,0.41832,0.14979
1702328718804687,-9.65252,1.42189,0.852851,0.20276,0.35132,0.16479
1702328718812500,-9.66152,1.60189,0.834851,0.19776,0.35532,0.15079
1702328718820312,-9.66652,1.64189,0.837851,0.21876,0.33432,0.16479
1702328718828125,-9.68352,1.78189,0.843851,0.19076,0.36032,0.12179
1702328718835937,-9.67752,1.76189,0.828851,0.21776,0.32032,0.13279
1702328718843750,-9.67752,1.71189,0.796851,0.19576,0.34032,0.15179
1702328718851562,-9.68152,1.64189,0.783851,0.22076,0.38232,0.14779
1702328718859375,-9.67052,1.58189,0.810851,0.18776,0.36932,0.6979
1702328718867187,-9.68152,1.54189,0.834851,0.19776,0.35532,0.11879
1702328718875000,-9.69052,1.54189,0.834851,0.21276,0.32432,0.10279
1702328718882812,-9.68852,1.65189,0.823851,0.19676,0.32432,0.11879
1702328718890625,-9.69252,1.47189,0.809851,0.24476,0.33932,0.13379
1702328718898437,-9.70852,1.52189,0.825851,0.27976,0.35232,0.16479
1702328718906250,-9.71052,1.56189,0.832851,0.21876,0.40032,0.16479
1702328718914062,-9.69052,1.52189,0.821851,0.21076,0.45432,0.15179
1702328718921875,-9.68352,1.41189,0.834851,0.20976,0.45632,0.10479
1702328718929687,-9.67452,1.40189,0.841851,0.19576,0.47132,0.8779
1702328718937500,-9.66752,1.38189,0.841851,0.21476,0.46832,0.11879
1702328718945312,-9.65652,1.29189,0.850851,0.19976,0.41932,0.11879
1702328718953125,-9.66152,1.26189,0.846851,0.34976,0.30032,0.9679
1702328718960937,-9.66552,1.33189,0.843851,0.32376,0.37232,0.11779
1702328718968750,-9.66352,1.45189,0.845851,0.29976,0.44232,0.13679
1702328718976562,-9.67252,1.45189,0.852851,0.27776,0.43632,0.14979
1702328718984375,-9.68652,1.53189,0.850851,0.31276,0.36732,0.17979
1702328718992187,-9.67252,1.56189,0.843851,0.23676,0.35932,0.23279
1702328719000000,-9.67252,1.63189,0.834851,0.21876,0.39332,0.24979
1702328719007812,-9.66352,1.65189,0.836851,0.27076,0.35732,0.21579
1702328719015625,-9.67452,1.62189,0.841851,0.28776,0.40532,0.23179
1702328719023437,-9.68652,1.69189,0.837851,0.30576,0.37132,0.24679
1702328719031250,-9.69552,1.69189,0.841851,0.20676,0.42832,0.24379
1702328719039062,-9.69952,1.69189,0.848851,0.19576,0.42032,0.23179
1702328719046875,-9.69952,1.70189,0.832851,0.20976,0.34032,0.21579
1702328719054687,-9.69952,1.74189,0.821851,0.22976,0.38632,0.18279
1702328719062500,-9.69952,1.61189,0.814851,0.19776,0.35532,0.13479
1702328719070312,-9.71752,1.63189,0.807851,0.21676,0.51632,0.11879
1702328719078125,-9.70452,1.65189,0.816851,0.23076,0.45232,0.10279
1702328719085937,-9.69352,1.60189,0.828851,0.20676,0.46332,0.11579
1702328719093750,-9.68352,1.67189,0.843851,0.21376,0.45332,0.10279
1702328719101562,-9.68652,1.63189,0.845851,0.19476,0.47132,0.13679
1702328719109375,-9.69052,1.65189,0.845851,0.20876,0.52132,0.13679
1702328719117187,-9.69752,1.56189,0.855851,0.22876,0.48632,0.13579
1702328719125000,-9.69052,1.60189,0.873851,0.21276,0.50232,0.10379
1702328719132812,-9.67752,1.69189,0.873851,0.26576,0.43332,0.14879
1702328719140625,-9.67052,1.73189,0.861851,0.15676,0.44932,0.11779
1702328719148437,-9.67052,1.78189,0.850851,0.22976,0.40332,0.16679
1702328719156250,-9.67052,1.78189,0.839851,0.13876,0.48332,0.11879
1702328719164062,-9.68452,1.83189,0.850851,0.19176,0.47232,0.20179
1702328719171875,-9.68452,1.67189,0.843851,0.18376,0.45032,0.19879
1702328719179687,-9.68152,1.63189,0.832851,0.16276,0.45432,0.21679
1702328719187500,-9.68252,1.78189,0.837851,0.12276,0.46732,0.15179
1702328719195312,-9.68152,1.71189,0.850851,0.14876,0.50432,0.10479
1702328719203125,-9.69052,1.63189,0.834851,0.3776,0.50332,0.15479
1702328719210937,-9.68152,1.62189,0.837851,0.1376,0.49932,0.10479
1702328719218750,-9.66152,1.65189,0.852851,0.14376,0.55532,0.13879
1702328719226562,-9.65952,1.60189,0.877851,0.16176,0.50532,0.13779
1702328719234375,-9.65952,1.62189,0.884851,0.13176,0.45432,0.15279
1702328719242187,-9.66652,1.64189,0.870851,0.9276,0.46532,0.16679
1702328719250000,-9.66852,1.62189,0.870851,0.6276,0.44932,0.11879
1702328719257812,-9.67252,1.65189,0.864851,0.11976,0.47032,0.10479
1702328719265625,-9.67952,1.60189,0.861851,0.1076,0.45232,0.13679
1702328719273437,-9.68152,1.65189,0.866851,0.8776,0.48632,0.12079
1702328719281250,-9.68152,1.63189,0.868851,0.8576,0.47132,0.10579
1702328719289062,-9.67752,1.47189,0.877851,0.12376,0.45132,0.10279
1702328719296875,-9.68352,1.49189,0.882851,0.7176,0.46932,0.12079
1702328719304687,-9.67252,1.47189,0.864851,0.2124,0.46832,0.16979
1702328719312500,-9.67452,1.49189,0.864851,0.0,0.44732,0.15079
1702328719320312,-9.67752,1.62189,0.871851,0.6776,0.46132,0.14879
1702328719328125,-9.68152,1.63189,0.870851,0.16176,0.45632,0.15379
1702328719335937,-9.69052,1.65189,0.877851,0.13576,0.43532,0.15179
1702328719343750,-9.68452,1.62189,0.870851,0.14176,0.46432,0.13379
1702328719351562,-9.68852,1.65189,0.877851,0.14976,0.45332,0.13579
1702328719359375,-9.69052,1.60189,0.882851,0.15476,0.46732,0.11879
1702328719367187,-9.68152,1.62189,0.870851,0.524,0.45132,0.18579
1702328719375000,-9.66152,1.64189,0.879851,0.3624,0.45132,0.16979
1702328719382812,-9.68352,1.51189,0.886851,0.9176,0.46732,0.10379
1702328719390625,-9.68152,1.45189,0.888851,0.8776,0.45332,0.13679
1702328719398437,-9.66352,1.35189,0.895851,0.4776,0.46432,0.15079
1702328719406250,-9.66352,1.40189,0.895851,0.2676,0.43532,0.13679
1702328719414062,-9.65452,1.40189,0.909851,0.9576,0.43132,0.13379
1702328719421875,-9.66352,1.40189,0.904851,0.4476,0.40132,0.15179
1702328719429687,-9.66552,1.44189,0.891851,0.3124,0.43232,0.11979
1702328719437500,-9.67752,1.51189,0.897851,0.10576,0.45232,0.10379
1702328719445312,-9.67052,1.67189,0.920851,0.15776,0.47532,0.15479
1702328719453125,-9.68152,1.61189,0.927851,0.16076,0.45632,0.18579
1702328719460937,-9.68152,1.58189,0.909851,0.19776,0.42132,0.11879
1702328719468750,-9.68552,1.58189,0.890851,0.11476,0.42332,0.16979
1702328719476562,-9.69052,1.65189,0.909851,0.21876,0.44932,0.14979
1702328719484375,-9.69952,1.63189,0.911851,0.12076,0.46832,0.13579
1702328719492187,-9.70152,1.65189,0.915851,0.7976,0.44032,0.23579
1702328719500000,-9.69352,1.69189,0.902851,0.2776,0.46632,0.18479
1702328719507812,-9.68152,1.76189,0.897851,0.0,0.47432,0.23679
1702328719515625,-9.66852,1.85189,0.909851,0.10276,0.45332,0.15279
1702328719523437,-9.65552,1.95189,0.927851,0.2276,0.50232,0.20279
1702328719531250,-9.66252,1.86189,0.936851,0.0,0.46432,0.19979
1702328719539062,-9.66352,1.69189,0.900851,0.1724,0.48132,0.18479
1702328719546875,-9.67052,1.62189,0.877851,0.5776,0.46832,0.13679
1702328719554687,-9.68852,1.63189,0.881851,0.2424,0.45632,0.4279
1702328719562500,-9.69952,1.38189,0.893851,0.9076,0.47032,0.821
1702328719570312,-9.70552,1.32189,0.900851,0.2376,0.45332,0.16979
1702328719578125,-9.69052,1.40189,0.902851,0.7376,0.46832,0.13679
1702328719585937,-9.68152,1.38189,0.906851,0.8776,0.45332,0.10479
1702328719593750,-9.67152,1.29189,0.904851,0.14376,0.47332,0.17079
1702328719601562,-9.66752,1.38189,0.906851,0.8176,0.52132,0.18679
1702328719609375,-9.67952,1.49189,0.915851,0.11576,0.48732,0.18579
1702328719617187,-9.67652,1.59189,0.924851,0.10676,0.49232,0.25279
1702328719625000,-9.66552,1.65189,0.927851,0.6776,0.50332,0.21879
1702328719632812,-9.67452,1.63189,0.924851,0.16376,0.45432,0.15279
1702328719640625,-9.68352,1.65189,0.915851,0.14576,0.50332,0.23379
1702328719648437,-9.67652,1.58189,0.904851,0.14576,0.50532,0.16979
1702328719656250,-9.65852,1.56189,0.906851,0.12876,0.45732,0.12179
1702328719664062,-9.65652,1.47189,0.918851,0.13276,0.46932,0.20079
1702328719671875,-9.65852,1.45189,0.922851,0.20576,0.45932,0.12179
1702328719679687,-9.64952,1.44189,0.918851,0.17776,0.47232,0.10479
1702328719687500,-9.64352,1.49189,0.913851,0.11676,0.45432,0.12079
1702328719695312,-9.65652,1.58189,0.922851,0.9776,0.47432,0.10679
1702328719703125,-9.65452,1.51189,0.918851,0.9976,0.47232,0.12179
1702328719710937,-9.66352,1.49189,0.924851,0.13476,0.46932,0.13679
1702328719718750,-9.67952,1.54189,0.931851,0.17776,0.45632,0.13679
1702328719726562,-9.68152,1.54189,0.927851,0.15076,0.47032,0.11979
1702328719734375,-9.68152,1.58189,0.929851,0.20476,0.45832,0.17079
1702328719742187,-9.68452,1.65189,0.922851,0.15276,0.46732,0.21579
1702328719750000,-9.67652,1.51189,0.924851,0.17976,0.45532,0.13679
1702328719757812,-9.68152,1.58189,0.920851,0.20876,0.43932,0.16879
1702328719765625,-9.68352,1.62189,0.906851,0.19876,0.46832,0.13479
1702328719773437,-9.67752,1.65189,0.918851,0.21376,0.47032,0.7079
1702328719781250,-9.67252,1.62189,0.922851,0.17976,0.43832,0.13679
1702328719789062,-9.66852,1.65189,0.924851,0.15976,0.45732,0.13779
1702328719796875,-9.66352,1.62189,0.915851,0.13876,0.45032,0.13479
1702328719804687,-9.66152,1.65189,0.922851,0.17776,0.43932,0.15279
1702328719812500,-9.65952,1.60189,0.929851,0.21176,0.46932,0.19979
1702328719820312,-9.66852,1.60189,0.927851,0.20776,0.45632,0.20079
1702328719828125,-9.66752,1.47189,0.922851,0.17776,0.42132,0.24879
1702328719835937,-9.66152,1.47189,0.924851,0.19976,0.43632,0.11879
1702328719843750,-9.67052,1.45189,0.931851,0.20876,0.47232,0.12079
1702328719851562,-9.68552,1.63189,0.924851,0.18876,0.49332,0.9079
1702328719859375,-9.68552,1.63189,0.922851,0.20876,0.41032,0.721
1702328719867187,-9.69052,1.65189,0.922851,0.19776,0.43732,0.11979
1702328719875000,-9.67452,1.58189,0.922851,0.19776,0.48432,0.19979
1702328719882812,-9.68152,1.67189,0.924851,0.19576,0.45532,0.13579
1702328719890625,-9.67452,1.65189,0.922851,0.19576,0.43832,0.11979
1702328719898437,-9.65952,1.67189,0.924851,0.18776,0.45832,0.21879
1702328719906250,-9.65752,1.64189,0.927851,0.19776,0.37032,0.21479
1702328719914062,-9.65952,1.62189,0.933851,0.21076,0.43832,0.13579
1702328719921875,-9.66652,1.62189,0.938851,0.20576,0.36632,0.13179
1702328719929687,-9.67652,1.59189,0.933851,0.20376,0.32932,0.13779
1702328719937500,-9.68152,1.65189,0.933851,0.19076,0.32732,0.13779
1702328719945312,-9.67452,1.51189,0.924851,0.21076,0.34032,0.19979
1702328719953125,-9.68652,1.58189,0.929851,0.17876,0.35632,0.23279
1702328719960937,-9.68152,1.58189,0.929851,0.19076,0.35932,0.21779
1702328719968750,-9.66552,1.62189,0.949851,0.21276,0.45332,0.11879
1702328719976562,-9.66352,1.62189,0.942851,0.20276,0.38532,0.8579
1702328719984375,-9.66352,1.65189,0.945851,0.21176,0.37332,0.11979
1702328719992187,-9.66552,1.62189,0.942851,0.19876,0.41932,0.15079
1702328720000000,-9.67252,1.60189,0.936851,0.20176,0.35232,0.14979
1702328720007812,-9.65052,1.64189,0.949851,0.21476,0.43532,0.16679
1702328720015625,-9.65652,1.62189,0.958851,0.19276,0.43932,0.18479
1702328720023437,-9.67252,1.65189,0.945851,0.21376,0.38832,0.13479
1702328720031250,-9.67952,1.60189,0.936851,0.20176,0.35232,0.13379
1702328720039062,-9.66652,1.62189,0.936851,0.20076,0.33632,0.21379
1702328720046875,-9.66352,1.64189,0.936851,0.15276,0.38632,0.13479
1702328720054687,-9.67052,1.63189,0.958851,0.19376,0.34132,0.16879
1702328720062500,-9.68852,1.56189,0.942851,0.19376,0.30832,0.18379
1702328720070312,-9.68352,1.61189,0.924851,0.20976,0.25932,0.18379
1702328720078125,-9.69252,1.54189,0.933851,0.18176,0.33832,0.16679
1702328720085937,-9.69252,1.47189,0.927851,0.19676,0.32232,0.18279
1702328720093750,-9.68652,1.62189,0.927851,0.21776,0.33632,0.13279
1702328720101562,-9.66552,1.58189,0.924851,0.18276,0.32232,0.11879
1702328720109375,-9.66552,1.53189,0.922851,0.7376,0.33732,0.16779
1702328720117187,-9.65952,1.44189,0.931851,0.17176,0.40032,0.13379
1702328720125000,-9.66052,1.49189,0.944851,0.20376,0.41132,0.12279
1702328720132812,-9.65452,1.47189,0.958851,0.19376,0.40732,0.15279
1702328720140625,-9.66152,1.49189,0.949851,0.20776,0.31032,0.16879
1702328720148437,-9.66552,1.62189,0.940851,0.19776,0.35532,0.13479
1702328720156250,-9.68652,1.65189,0.936851,0.20076,0.28832,0.11779
1702328720164062,-9.68852,1.52189,0.920851,0.21076,0.32532,0.10379
1702328720171875,-9.70652,1.59189,0.924851,0.19376,0.32532,0.15179
1702328720179687,-9.71952,1.59189,0.929851,0.18076,0.37332,0.10379
1702328720187500,-9.70652,1.63189,0.938851,0.17676,0.42332,0.16879
1702328720195312,-9.68352,1.65189,0.954851,0.19276,0.40732,0.16879
1702328720203125,-9.67952,1.60189,0.945851,0.21676,0.31932,0.18179
1702328720210937,-9.66352,1.62189,0.945851,0.19576,0.37332,0.15179
1702328720218750,-9.65052,1.66189,0.947851,0.21776,0.38532,0.10179
1702328720226562,-9.64352,1.80189,0.949851,0.18976,0.40932,0.12179
1702328720234375,-9.63652,1.84189,0.967851,0.20976,0.40732,0.13679
1702328720242187,-9.65052,1.82189,0.947851,0.19276,0.34132,0.18479
1702328720250000,-9.66652,1.93189,0.918851,0.21676,0.27232,0.10079
1702328720257812,-9.68652,1.78189,0.906851,0.18476,0.25532,0.14979
1702328720265625,-9.69752,1.60189,0.920851,0.20376,0.33532,0.11679
1702328720273437,-9.71952,1.66189,0.927851,0.20976,0.32532,0.11979
1702328720281250,-9.70852,1.59189,0.931851,0.16676,0.33832,0.13479
1702328720289062,-9.69052,1.62189,0.922851,0.17076,0.33632,0.11779
1702328720296875,-9.68552,1.49189,0.920851,0.20976,0.37432,0.10379
1702328720304687,-9.67852,1.45189,0.922851,0.19176,0.35932,0.16879
1702328720312500,-9.68552,1.50189,0.924851,0.22276,0.35932,0.18479
1702328720320312,-9.67952,1.61189,0.933851,0.12876,0.45732,0.15479
1702328720328125,-9.67952,1.58189,0.933851,0.19676,0.42032,0.16779
1702328720335937,-9.67252,1.62189,0.945851,0.15476,0.36932,0.13379
1702328720343750,-9.66852,1.63189,0.942851,0.19176,0.39032,0.21679
1702328720351562,-9.66352,1.64189,0.911851,0.10576,0.32132,0.16679
1702328720359375,-9.66352,1.58189,0.904851,0.17276,0.31832,0.10079
1702328720367187,-9.66352,1.55189,0.900851,0.17176,0.33432,0.14879
1702328720375000,-9.65952,1.55189,0.924851,0.20176,0.33432,0.22979
1702328720382812,-9.65452,1.46189,0.936851,0.18476,0.35232,0.18179
1702328720390625,-9.65952,1.55189,0.929851,0.20376,0.31832,0.16479
1702328720398437,-9.66852,1.51189,0.913851,0.21976,0.31832,0.14879
1702328720406250,-9.66852,1.58189,0.913851,0.19676,0.35532,0.19879
1702328720414062,-9.69052,1.47189,0.906851,0.21476,0.30432,0.18179
1702328720421875,-9.69452,1.38189,0.911851,0.18276,0.37032,0.19879
1702328720429687,-9.68352,1.56189,0.931851,0.19876,0.33932,0.11879
1702328720437500,-9.68152,1.64189,0.940851,0.22176,0.33332,0.13179
1702328720445312,-9.67952,1.71189,0.929851,0.21676,0.30332,0.19779
1702328720453125,-9.68252,1.82189,0.900851,0.20776,0.23432,0.14679
1702328720460937,-9.69352,1.69189,0.886851,0.21876,0.28532,0.19679
1702328720468750,-9.69052,1.63189,0.904851,0.8776,0.35532,0.16879
1702328720476562,-9.68452,1.62189,0.929851,0.15376,0.36832,0.16679
1702328720484375,-9.69052,1.65189,0.936851,0.16776,0.30432,0.18279
1702328720492187,-9.68152,1.60189,0.909851,0.10876,0.20332,0.24579
1702328720500000,-9.68652,1.62189,0.888851,0.4776,0.28532,0.11779
1702328720507812,-9.69552,1.65189,0.891851,0.7376,0.23832,0.19879
1702328720515625,-9.68452,1.64189,0.911851,0.9676,0.31532,0.18079
1702328720523437,-9.67452,1.62189,0.929851,0.8776,0.33832,0.16779
1702328720531250,-9.67052,1.60189,0.918851,0.10876,0.26932,0.18179
1702328720539062,-9.66352,1.60189,0.918851,0.15476,0.25432,0.16579
1702328720546875,-9.66552,1.44189,0.909851,0.8176,0.28232,0.18079
1702328720554687,-9.67652,1.47189,0.908851,0.9876,0.32432,0.18579
1702328720562500,-9.67752,1.42189,0.900851,0.15776,0.31732,0.19679
1702328720570312,-9.66752,1.49189,0.895851,0.10176,0.33832,0.23279
1702328720578125,-9.65952,1.60189,0.895851,0.17976,0.22532,0.18279
1702328720585937,-9.66152,1.62189,0.906851,0.17876,0.24132,0.23179
1702328720593750,-9.67952,1.63189,0.904851,0.10176,0.29032,0.18479
1702328720601562,-9.68152,1.63189,0.913851,0.11976,0.33832,0.15179
1702328720609375,-9.68852,1.63189,0.918851,0.14776,0.32532,0.12079
1702328720617187,-9.68352,1.63189,0.915851,0.9776,0.34232,0.16979
1702328720625000,-9.69052,1.56189,0.904851,0.16276,0.27632,0.16779
1702328720632812,-9.70652,1.59189,0.891851,0.13276,0.32332,0.18479
1702328720640625,-9.70652,1.57189,0.888851,0.4476,0.37732,0.25279
1702328720648437,-9.69252,1.48189,0.886851,0.15576,0.36132,0.20279
1702328720656250,-9.67952,1.54189,0.895851,0.13276,0.40432,0.24879
1702328720664062,-9.67652,1.54189,0.902851,0.20976,0.37432,0.15179
1702328720671875,-9.69052,1.63189,0.884851,0.19676,0.32432,0.11879
1702328720679687,-9.68852,1.49189,0.884851,0.21676,0.33632,0.16579
1702328720687500,-9.67852,1.54189,0.879851,0.15576,0.32932,0.18679
1702328720695312,-9.69052,1.47189,0.886851,0.16076,0.34232,0.15279
1702328720703125,-9.68352,1.45189,0.886851,0.20776,0.42332,0.23279
1702328720710937,-9.66552,1.31189,0.888851,0.19376,0.42132,0.21679
1702328720718750,-9.67452,1.27189,0.890851,0.20776,0.40732,0.20079
1702328720726562,-9.68352,1.39189,0.886851,0.18876,0.42632,0.20279
1702328720734375,-9.68152,1.48189,0.888851,0.20076,0.42832,0.15579
1702328720742187,-9.68152,1.43189,0.884851,0.18776,0.41132,0.12279
1702328720750000,-9.69752,1.54189,0.872851,0.20476,0.39332,0.16979
1702328720757812,-9.70152,1.50189,0.863851,0.18576,0.47632,0.20379
1702328720765625,-9.71252,1.57189,0.872851,0.20476,0.45832,0.15379
1702328720773437,-9.72452,1.59189,0.886851,0.17376,0.49132,0.13879
1702328720781250,-9.71752,1.65189,0.897851,0.16176,0.47232,0.15379
1702328720789062,-9.69552,1.74189,0.870851,0.16676,0.48432,0.19979
1702328720796875,-9.67952,1.67189,0.875851,0.19476,0.43832,0.16879
1702328720804687,-9.67952,1.65189,0.879851,0.17576,0.47332,0.15379
1702328720812500,-9.68852,1.45189,0.888851,0.8976,0.45232,0.13579
1702328720820312,-9.69252,1.47189,0.888851,0.13076,0.47032,0.21779
1702328720828125,-9.67452,1.40189,0.868851,0.13376,0.46932,0.16879
1702328720835937,-9.66052,1.34189,0.850851,0.14276,0.45732,0.21879
1702328720843750,-9.64752,1.29189,0.852851,0.12876,0.42332,0.24979
1702328720851562,-9.65052,1.42189,0.834851,0.7676,0.36732,0.19879
1702328720859375,-9.65952,1.53189,0.843851,0.12076,0.46632,0.21579
1702328720867187,-9.65452,1.51189,0.853851,0.14476,0.41432,0.13279
1702328720875000,-9.65652,1.42189,0.866851,0.10576,0.35332,0.15179
1702328720882812,-9.67252,1.38189,0.852851,0.20276,0.41632,0.14979
1702328720890625,-9.68152,1.29189,0.837851,0.18776,0.36732,0.13279
1702328720898437,-9.69452,1.29189,0.848851,0.10676,0.46732,0.11879
1702328720906250,-9.69952,1.27189,0.864851,0.19776,0.45332,0.10379
1702328720914062,-9.70152,1.34189,0.868851,0.17376,0.47532,0.12279
1702328720921875,-9.68352,1.29189,0.886851,0.10476,0.51732,0.13679
1702328720929687,-9.67952,1.38189,0.904851,0.19576,0.53532,0.16879
1702328720937500,-9.66352,1.47189,0.900851,0.18076,0.51932,0.16879
1702328720945312,-9.66352,1.60189,0.886851,0.13576,0.46832,0.16779
1702328720953125,-9.66552,1.55189,0.888851,0.6076,0.45032,0.10379
1702328720960937,-9.68652,1.60189,0.900851,0.20076,0.46732,0.16679
1702328720968750,-9.69052,1.60189,0.913851,0.21676,0.46732,0.11779
1702328720976562,-9.68852,1.47189,0.918851,0.17376,0.46432,0.10079
1702328720984375,-9.68652,1.40189,0.925851,0.11076,0.44832,0.14979
1702328720992187,-9.67252,1.40189,0.929851,0.18476,0.48332,0.13479
1702328721000000,-9.64952,1.29189,0.942851,0.21376,0.50132,0.15079
1702328721007812,-9.66352,1.27189,0.942851,0.19876,0.43532,0.16679
1702328721015625,-9.65852,1.13189,0.936851,0.21776,0.44932,0.19779
1702328721023437,-9.66252,1.4189,0.920851,0.19976,0.45232,0.10279
1702328721031250,-9.67652,0.998189,0.927851,0.23276,0.46732,0.10179
1702328721039062,-9.67652,1.7189,0.933851,0.29576,0.41832,0.13279
1702328721046875,-9.67452,1.189,0.911851,0.26276,0.38732,0.10179
1702328721054687,-9.67852,1.16189,0.886851,0.27576,0.43732,0.11879
1702328721062500,-9.68052,1.9189,0.886851,0.35376,0.40632,0.8579
1702328721070312,-9.68052,1.12189,0.904851,0.34976,0.48932,0.11979
1702328721078125,-9.67152,1.9189,0.918851,0.40176,0.45432,0.11679
1702328721085937,-9.67252,1.18189,0.929851,0.45476,0.43232,0.19479
1702328721093750,-9.66752,1.29189,0.922851,0.43476,0.46732,0.19579
1702328721101562,-9.67252,1.27189,0.924851,0.39476,0.45632,0.23079
1702328721109375,-9.66352,1.33189,0.934851,0.40776,0.46432,0.19479
1702328721117187,-9.67052,1.43189,0.947851,0.41276,0.45632,0.13479
1702328721125000,-9.67252,1.60189,0.960851,0.38676,0.46932,0.13279
1702328721132812,-9.66352,1.66189,0.974851,0.42276,0.38432,0.16279
1702328721140625,-9.65752,1.66189,0.965851,0.46676,0.32032,0.21079
1702328721148437,-9.67252,1.76189,0.938851,0.44976,0.32132,0.21179
1702328721156250,-9.68452,1.67189,0.922851,0.35676,0.35432,0.13279
1702328721164062,-9.68152,1.67189,0.936851,0.32176,0.37132,0.21379
1702328721171875,-9.68852,1.62189,0.956851,0.37576,0.38432,0.13079
1702328721179687,-9.67252,1.56189,0.956851,0.33376,0.39032,0.18279
1702328721187500,-9.67952,1.58189,0.924851,0.28976,0.38932,0.11879
1702328721195312,-9.68352,1.49189,0.900851,0.24476,0.40332,0.19879
1702328721203125,-9.67952,1.51189,0.929851,0.22676,0.43732,0.21579
1702328721210937,-9.67452,1.47189,0.942851,0.31076,0.43432,0.13279
1702328721218750,-9.68152,1.47189,0.942851,0.28876,0.48732,0.15179
1702328721226562,-9.67052,1.45189,0.933851,0.37076,0.42132,0.11679
1702328721234375,-9.66552,1.47189,0.927851,0.30976,0.38732,0.10079
1702328721242187,-9.68352,1.44189,0.929851,0.22076,0.44832,0.11679
1702328721250000,-9.69752,1.58189,0.927851,0.21376,0.45332,0.10279
1702328721257812,-9.68352,1.65189,0.940851,0.19276,0.43932,0.18479
1702328721265625,-9.67752,1.63189,0.929851,0.19576,0.47132,0.11979
1702328721273437,-9.68152,1.62189,0.927851,0.20076,0.45032,0.16679
1702328721281250,-9.66652,1.64189,0.956851,0.20076,0.46732,0.15079
1702328721289062,-9.67052,1.67189,0.947851,0.19876,0.43532,0.16679
1702328721296875,-9.67452,1.63189,0.958851,0.20976,0.45632,0.12079
1702328721304687,-9.68652,1.65189,0.958851,0.20076,0.46732,0.13479
1702328721312500,-9.69052,1.63189,0.983851,0.20676,0.45732,0.13779
1702328721320312,-9.68852,1.60189,0.978851,0.19676,0.47032,0.13579
1702328721328125,-9.69552,1.65189,0.970851,0.21976,0.44932,0.10079
1702328721335937,-9.69052,1.60189,0.972851,0.18776,0.48232,0.11779
1702328721343750,-9.68652,1.58189,0.976851,0.19576,0.50432,0.10479
1702328721351562,-9.67452,1.62189,0.981851,0.21476,0.46832,0.11879
1702328721359375,-9.66152,1.75189,0.965851,0.19876,0.48532,0.13479
1702328721367187,-9.65452,1.78189,0.965851,0.20676,0.52332,0.15379
1702328721375000,-9.66552,1.69189,0.983851,0.17976,0.48732,0.10479
1702328721382812,-9.66152,1.62189,0.965851,0.13176,0.42132,0.20079
1702328721390625,-9.67052,1.65189,0.978851,0.11976,0.46832,0.20079
1702328721398437,-9.67252,1.47189,0.976851,0.14076,0.44932,0.10179
1702328721406250,-9.66352,1.31189,0.978851,0.12976,0.45632,0.18579
1702328721414062,-9.64752,1.40189,0.976851,0.12976,0.48832,0.18579
1702328721421875,-9.66152,1.31189,0.976851,0.13776,0.46732,0.18379
1702328721429687,-9.67052,1.31189,0.963851,0.19876,0.45232,0.15079
1702328721437500,-9.66952,1.27189,0.963851,0.17976,0.47132,0.12079
1702328721445312,-9.67952,1.51189,0.956851,0.18376,0.46832,0.10279
1702328721453125,-9.67052,1.56189,0.958851,0.23176,0.45132,0.14979
1702328721460937,-9.68352,1.56189,0.963851,0.13376,0.46932,0.18479
1702328721468750,-9.68152,1.62189,0.965851,0.20276,0.48232,0.13379
1702328721476562,-9.67252,1.62189,0.965851,0.18176,0.48432,0.23179
1702328721484375,-9.66152,1.62189,0.981851,0.16176,0.47132,0.21679
1702328721492187,-9.67452,1.49189,0.976851,0.22876,0.46832,0.21479
1702328721500000,-9.67452,1.36189,0.978851,0.16976,0.45132,0.11879
1702328721507812,-9.66552,1.49189,0.979851,0.13876,0.49832,0.21479
1702328721515625,-9.66752,1.42189,0.974851,0.13576,0.43532,0.18379
1702328721523437,-9.66552,1.53189,0.974851,0.16576,0.48632,0.15179
1702328721531250,-9.66352,1.49189,0.965851,0.17376,0.49032,0.20279
1702328721539062,-9.66352,1.38189,0.972851,0.17476,0.52332,0.15479
1702328721546875,-9.66352,1.60189,0.960851,0.12676,0.47532,0.15479
1702328721554687,-9.66552,1.47189,0.956851,0.22176,0.45732,0.20179
1702328721562500,-9.65952,1.46189,0.952851,0.13976,0.48032,0.23079
1702328721570312,-9.66352,1.40189,0.938851,0.19476,0.47132,0.15279
1702328721578125,-9.66752,1.36189,0.947851,0.5976,0.46732,0.13579
1702328721585937,-9.66352,1.51189,0.965851,0.2576,0.43532,0.18479
1702328721593750,-9.66552,1.44189,0.974851,0.18776,0.38432,0.14979
1702328721601562,-9.67452,1.43189,0.967851,0.10076,0.45432,0.15379
1702328721609375,-9.67952,1.47189,0.954851,0.15276,0.41932,0.10279
1702328721617187,-9.66352,1.60189,0.960851,0.16576,0.43532,0.23179
1702328721625000,-9.66352,1.60189,0.990851,0.20676,0.47432,0.15379
1702328721632812,-9.65052,1.56189,0.972851,0.13076,0.43832,0.23379
1702328721640625,-9.65652,1.47189,0.945851,0.13276,0.38932,0.15279
1702328721648437,-9.66352,1.44189,0.938851,0.15276,0.41932,0.13479
1702328721656250,-9.66552,1.36189,0.942851,0.16376,0.40532,0.15279
1702328721664062,-9.67052,1.31189,0.958851,0.17176,0.41632,0.11779
1702328721671875,-9.66752,1.34189,0.960851,0.21176,0.40532,0.13579
1702328721679687,-9.66752,1.31189,0.956851,0.15476,0.31932,0.16579
1702328721687500,-9.66152,1.27189,0.945851,0.12276,0.36832,0.15079
1702328721695312,-9.66352,1.27189,0.954851,0.13776,0.32132,0.10279
1702328721703125,-9.67252,1.32189,0.969851,0.16176,0.40732,0.15279
1702328721710937,-9.66552,1.35189,0.979851,0.20376,0.43332,0.10079
1702328721718750,-9.66552,1.52189,0.958851,0.8176,0.40832,0.15479
1702328721726562,-9.66352,1.55189,0.960851,0.10776,0.36932,0.11879
1702328721734375,-9.66552,1.58189,0.958851,0.11976,0.38832,0.13579
1702328721742187,-9.66352,1.62189,0.960851,0.20976,0.34132,0.15179
1702328721750000,-9.67052,1.58189,0.958851,0.11876,0.29132,0.11979
1702328721757812,-9.67952,1.56189,0.945851,0.12476,0.31832,0.16579
1702328721765625,-9.66752,1.47189,0.931851,0.8376,0.34132,0.15379
1702328721773437,-9.68652,1.47189,0.965851,0.9276,0.30332,0.11779
1702328721781250,-9.66552,1.42189,0.990851,0.7276,0.33832,0.13579
1702328721789062,-9.67052,1.38189,0.990851,0.16976,0.35432,0.6979
1702328721796875,-9.67952,1.47189,0.979851,0.7876,0.38232,0.19779
1702328721804687,-9.65952,1.55189,0.978851,0.5976,0.31932,0.16679
1702328721812500,-9.67752,1.63189,0.981851,0.524,0.32232,0.10479
1702328721820312,-9.68852,1.76189,0.996851,0.876,0.30532,0.20079
1702328721828125,-9.67052,1.80189,1.26851,0.2676,0.35332,0.15179
1702328721835937,-9.66852,1.75189,1.6851,0.7976,0.31732,0.16579
1702328721843750,-9.65952,1.82189,0.997851,0.2776,0.22132,0.24679
1702328721851562,-9.65952,1.75189,0.974851,0.1424,0.23432,0.19779
1702328721859375,-9.67052,1.58189,0.960851,0.4924,0.30332,0.16779
1702328721867187,-9.68152,1.47189,0.978851,0.5324,0.38732,0.15379
1702328721875000,-9.67652,1.45189,0.985851,0.4124,0.40532,0.23479
1702328721882812,-9.67852,1.41189,0.987851,0.6024,0.32532,0.21979
1702328721890625,-9.67052,1.31189,0.969851,0.424,0.43532,0.12079
1702328721898437,-9.66252,1.27189,0.976851,0.11276,0.39132,0.18679
1702328721906250,-9.64952,1.27189,0.960851,0.17976,0.30732,0.18379
1702328721914062,-9.65652,1.29189,0.965851,0.6876,0.32532,0.12079
1702328721921875,-9.65452,1.40189,0.978851,0.8976,0.33732,0.13479
1702328721929687,-9.65452,1.56189,0.987851,0.14876,0.29132,0.16779
1702328721937500,-9.66152,1.65189,0.994851,0.15776,0.26332,0.13779
1702328721945312,-9.66352,1.60189,0.985851,0.6876,0.24332,0.18479
1702328721953125,-9.66352,1.65189,0.960851,0.11576,0.19332,0.20079
1702328721960937,-9.66352,1.64189,0.951851,0.8676,0.32232,0.21679
1702328721968750,-9.66352,1.71189,0.947851,0.5176,0.31032,0.10579
1702328721976562,-9.67452,1.65189,0.953851,0.1776,0.24532,0.15479
1702328721984375,-9.67752,1.70189,0.956851,0.4976,0.21332,0.15379
1702328721992187,-9.69052,1.67189,0.938851,0.724,0.17732,0.8879
1702328722000000,-9.69752,1.47189,0.936851,0.4076,0.29132,0.8879
1702328722007812,-9.66752,1.45189,0.956851,0.524,0.33832,0.12079
1702328722015625,-9.65052,1.40189,0.954851,0.0,0.31832,0.10279
1702328722023437,-9.65152,1.43189,0.944851,0.8076,0.32732,0.12279
1702328722031250,-9.64752,1.47189,0.933851,0.6176,0.34632,0.12379
1702328722039062,-9.64552,1.53189,0.922851,0.7076,0.27432,0.16879
1702328722046875,-9.66852,1.53189,0.924851,0.9076,0.20632,0.13479
1702328722054687,-9.68152,1.56189,0.922851,0.1076,0.27332,0.13679
1702328722062500,-9.68152,1.47189,0.924851,0.2376,0.20832,0.15279
1702328722070312,-9.67952,1.47189,0.922851,0.5976,0.32132,0.10279
1702328722078125,-9.67252,1.40189,0.920851,0.3676,0.37432,0.15379
1702328722085937,-9.68352,1.31189,0.924851,0.16876,0.37032,0.13479
1702328722093750,-9.68052,1.23189,0.922851,0.20776,0.35932,0.12079
1702328722101562,-9.69652,1.14189,0.924851,0.20576,0.35132,0.5179
1702328722109375,-9.70052,1.5189,0.920851,0.21076,0.39132,0.7179
1702328722117187,-9.69852,1.14189,0.922851,0.19576,0.38932,0.13579
1702328722125000,-9.68852,1.29189,0.924851,0.15676,0.46632,0.10179
1702328722132812,-9.67952,1.47189,0.922851,0.17076,0.38532,0.11779
1702328722140625,-9.67252,1.51189,0.924851,0.18676,0.31932,0.13379
1702328722148437,-9.67452,1.65189,0.933851,0.14476,0.35732,0.23379
1702328722156250,-9.68152,1.65189,0.947851,0.16376,0.38932,0.16879
1702328722164062,-9.66152,1.69189,0.947851,0.10476,0.30432,0.18279
1702328722171875,-9.67252,1.71189,0.945851,0.14076,0.30232,0.16579
1702328722179687,-9.68152,1.58189,0.947851,0.13376,0.34032,0.11979
1702328722187500,-9.66652,1.60189,0.942851,0.15576,0.27032,0.10079
1702328722195312,-9.66352,1.47189,0.945851,0.21076,0.27632,0.11979
1702328722203125,-9.66352,1.51189,0.942851,0.17776,0.27732,0.10379
1702328722210937,-9.66352,1.55189,0.931851,0.13976,0.23732,0.14979
1702328722218750,-9.66352,1.58189,0.906851,0.3576,0.22832,0.15379
1702328722226562,-9.66352,1.62189,0.893851,0.16676,0.24032,0.18279
1702328722234375,-9.66352,1.64189,0.888851,0.9176,0.18832,0.18179
1702328722242187,-9.67252,1.60189,0.913851,0.8176,0.31532,0.14879
1702328722250000,-9.67452,1.45189,0.897851,0.10476,0.24032,0.11879
1702328722257812,-9.68352,1.34189,0.886851,0.14076,0.22132,0.10079
1702328722265625,-9.67952,1.29189,0.884851,0.18976,0.30032,0.17979
1702328722273437,-9.69252,1.23189,0.879851,0.5676,0.28932,0.13579
1702328722281250,-9.68752,1.25189,0.904851,0.15176,0.25732,0.10279
1702328722289062,-9.66552,1.13189,0.906851,0.9076,0.32132,0.10279
1702328722296875,-9.66552,1.17189,0.907851,0.19276,0.25032,0.13079
1702328722304687,-9.66952,1.22189,0.904851,0.18876,0.23632,0.11579
1702328722312500,-9.66752,1.31189,0.922851,0.11976,0.30632,0.15179
1702328722320312,-9.66352,1.40189,0.913851,0.18176,0.32232,0.18279
1702328722328125,-9.66352,1.29189,0.900851,0.21276,0.19232,0.14979
1702328722335937,-9.66952,1.33189,0.873851,0.18176,0.32232,0.16679
1702328722343750,-9.70152,1.23189,0.854851,0.13076,0.27532,0.16879
1702328722351562,-9.71252,1.32189,0.866851,0.19076,0.33332,0.9979
1702328722359375,-9.72452,1.30189,0.870851,0.18776,0.36732,0.14879
1702328722367187,-9.72152,1.28189,0.875851,0.17676,0.31032,0.15279
1702328722375000,-9.68152,1.29189,0.861851,0.13176,0.35832,0.10479
1702328722382812,-9.67652,1.25189,0.859851,0.15376,0.36432,0.12379
1702328722390625,-9.66752,1.12189,0.879851,0.20876,0.34332,0.10479
1702328722398437,-9.66252,0.996189,0.886851,0.19876,0.30632,0.11879
1702328722406250,-9.68252,0.994189,0.904851,0.21076,0.29232,0.10379
1702328722414062,-9.68252,0.991189,0.900851,0.20076,0.32132,0.11779
1702328722421875,-9.68952,1.1189,0.891851,0.19676,0.35632,0.10379
1702328722429687,-9.68952,1.9189,0.870851,0.21276,0.24232,0.11879
1702328722437500,-9.68052,1.7189,0.879851,0.24976,0.30332,0.10079
1702328722445312,-9.68152,1.27189,0.872851,0.22776,0.25832,0.13479
1702328722453125,-9.68052,1.27189,0.872851,0.22176,0.32832,0.12079
1702328722460937,-9.66752,1.29189,0.868851,0.32376,0.33932,0.11679
1702328722468750,-9.66352,1.20189,0.879851,0.19976,0.28832,0.16579
1702328722476562,-9.67652,1.11189,0.877851,0.26176,0.29032,0.11779
1702328722484375,-9.67152,1.9189,0.870851,0.21976,0.18932,0.8379
1702328722492187,-9.67152,1.7189,0.879851,0.22976,0.32232,0.13379
1702328722500000,-9.68552,1.5189,0.881851,0.25376,0.27832,0.13579
1702328722507812,-9.69152,1.5189,0.879851,0.28876,0.25932,0.13479
1702328722515625,-9.68052,1.18189,0.884851,0.28976,0.32432,0.15079
1702328722523437,-9.68552,1.25189,0.886851,0.25776,0.34032,0.19879
1702328722531250,-9.69652,1.29189,0.886851,0.38576,0.33932,0.14879
1702328722539062,-9.69752,1.47189,0.866851,0.38676,0.33732,0.19679
1702328722546875,-9.68852,1.58189,0.864851,0.32176,0.30732,0.14979
1702328722554687,-9.66552,1.60189,0.861851,0.30676,0.30732,0.11779
1702328722562500,-9.66352,1.60189,0.868851,0.28676,0.34332,0.10379
1702328722570312,-9.67052,1.64189,0.870851,0.23176,0.27232,0.13279
1702328722578125,-9.69952,1.47189,0.868851,0.22876,0.33932,0.15079
1702328722585937,-9.69052,1.36189,0.873851,0.23776,0.31732,0.9879
1702328722593750,-9.69652,1.23189,0.884851,0.29776,0.33532,0.13179
1702328722601562,-9.68152,1.18189,0.879851,0.23576,0.31832,0.11579
1702328722609375,-9.68552,1.25189,0.868851,0.20876,0.34132,0.16779
1702328722617187,-9.68352,1.27189,0.866851,0.24776,0.32132,0.11679
1702328722625000,-9.68152,1.34189,0.870851,0.19576,0.35632,0.13579
1702328722632812,-9.69452,1.52189,0.868851,0.17976,0.40532,0.15179
1702328722640625,-9.69352,1.60189,0.870851,0.22176,0.35032,0.11579
1702328722648437,-9.69552,1.63189,0.870851,0.19876,0.48532,0.16779
1702328722656250,-9.69752,1.52189,0.877851,0.16476,0.45332,0.18379
1702328722664062,-9.69452,1.43189,0.877851,0.21576,0.45232,0.10279
1702328722671875,-9.69952,1.22189,0.868851,0.23676,0.43232,0.13279
1702328722679687,-9.70152,1.23189,0.875851,0.20876,0.47232,0.12079
1702328722687500,-9.68152,1.20189,0.884851,0.27776,0.48532,0.13379
1702328722695312,-9.66352,1.31189,0.886851,0.21576,0.46732,0.18279
1702328722703125,-9.66352,1.42189,0.877851,0.21476,0.40332,0.15079
1702328722710937,-9.66652,1.48189,0.880851,0.20576,0.41432,0.17979
1702328722718750,-9.67752,1.60189,0.877851,0.22076,0.39932,0.16479
1702328722726562,-9.69052,1.58189,0.886851,0.19576,0.38732,0.21579
1702328722734375,-9.69952,1.63189,0.884851,0.19376,0.43932,0.13679
1702328722742187,-9.68852,1.65189,0.886851,0.19776,0.45232,0.19979
1702328722750000,-9.68352,1.62189,0.888851,0.19776,0.45232,0.18279
1702328722757812,-9.68152,1.65189,0.884851,0.19876,0.37032,0.16679
1702328722765625,-9.69052,1.60189,0.886851,0.21776,0.35232,0.11679
1702328722773437,-9.68352,1.63189,0.886851,0.19676,0.40432,0.15179
1702328722781250,-9.67752,1.63189,0.877851,0.20876,0.47232,0.13679
1702328722789062,-9.66552,1.58189,0.872851,0.19176,0.45732,0.10579
1702328722796875,-9.66352,1.67189,0.884851,0.21276,0.45332,0.15179
1702328722804687,-9.66352,1.71189,0.888851,0.14976,0.46932,0.13579
1702328722812500,-9.66452,1.82189,0.886851,0.13676,0.41932,0.15179
1702328722820312,-9.66652,1.80189,0.893851,0.9076,0.38632,0.8779
1702328722828125,-9.66852,1.80189,0.895851,0.10176,0.42232,0.13679
1702328722835937,-9.67252,1.76189,0.902851,0.17776,0.43932,0.13679
1702328722843750,-9.68352,1.70189,0.886851,0.12076,0.39732,0.15679
1702328722851562,-9.68152,1.58189,0.886851,0.4976,0.50632,0.15579
1702328722859375,-9.69052,1.52189,0.891851,0.8576,0.45432,0.10479
1702328722867187,-9.67252,1.52189,0.904851,0.8176,0.49032,0.12279
1702328722875000,-9.66552,1.45189,0.924851,0.876,0.48632,0.13779
1702328722882812,-9.66552,1.47189,0.931851,0.6476,0.40932,0.10679
1702328722890625,-9.64952,1.47189,0.924851,0.5076,0.35932,0.13879
1702328722898437,-9.66752,1.45189,0.933851,0.5976,0.44432,0.18879
1702328722906250,-9.69052,1.47189,0.931851,0.2524,0.39032,0.13879
1702328722914062,-9.67452,1.49189,0.927851,0.2524,0.40632,0.10679
1702328722921875,-9.67952,1.54189,0.936851,0.2276,0.35732,0.8979
1702328722929687,-9.67652,1.49189,0.915851,0.2524,0.37432,0.12279
1702328722937500,-9.67652,1.47189,0.920851,0.1076,0.32232,0.10479
1702328722945312,-9.68152,1.58189,0.924851,0.976,0.42032,0.12179
1702328722953125,-9.68652,1.65189,0.929851,0.7076,0.40532,0.12079
1702328722960937,-9.67952,1.60189,0.927851,0.3824,0.32332,0.10579
1702328722968750,-9.66552,1.63189,0.924851,0.176,0.32732,0.13979
1702328722976562,-9.66552,1.55189,0.922851,0.6076,0.33632,0.15079
1702328722984375,-9.65852,1.52189,0.933851,0.4724,0.44332,0.12579
1702328722992187,-9.65252,1.62189,0.960851,0.5924,0.37532,0.13979
1702328723000000,-9.66752,1.51189,0.945851,0.2724,0.40632,0.21979
1702328723007812,-9.67452,1.36189,0.920851,0.576,0.39032,0.15479
1702328723015625,-9.66052,1.50189,0.906851,0.2676,0.34932,0.10979
1702328723023437,-9.67252,1.45189,0.913851,0.4276,0.38632,0.11979
1702328723031250,-9.67952,1.56189,0.920851,0.6076,0.38532,0.10279
1702328723039062,-9.69052,1.58189,0.938851,0.11976,0.42032,0.11979
1702328723046875,-9.69252,1.65189,0.947851,0.5676,0.33832,0.13679
1702328723054687,-9.67252,1.60189,0.943851,0.0,0.40032,0.7079
1702328723062500,-9.65952,1.46189,0.924851,0.2876,0.46732,0.11979
1702328723070312,-9.66052,1.34189,0.945851,0.2524,0.42332,0.10679
1702328723078125,-9.67052,1.51189,0.972851,0.376,0.46332,0.11879
1702328723085937,-9.67952,1.49189,0.965851,0.7024,0.43632,0.17079
1702328723093750,-9.68152,1.58189,0.947851,0.2524,0.37232,0.20279
1702328723101562,-9.68152,1.60189,0.922851,0.4076,0.40432,0.15279
1702328723109375,-9.68152,1.63189,0.911851,0.6024,0.44032,0.18879
1702328723117187,-9.68152,1.60189,0.909851,0.624,0.43632,0.13779
1702328723125000,-9.68152,1.52189,0.922851,0.5724,0.35732,0.13879
1702328723132812,-9.66752,1.38189,0.924851,0.4924,0.45032,0.12079
1702328723140625,-9.67252,1.29189,0.929851,0.324,0.40132,0.20079
1702328723148437,-9.67452,1.14189,0.927851,0.524,0.45132,0.15279
1702328723156250,-9.66052,1.16189,0.920851,0.624,0.42032,0.13779
1702328723164062,-9.66952,1.14189,0.931851,0.8776,0.45332,0.12079
1702328723171875,-9.65352,1.5189,0.938851,0.1976,0.45532,0.17079
1702328723179687,-9.66252,1.20189,0.947851,0.9976,0.45632,0.13779
1702328723187500,-9.66352,1.25189,0.947851,0.19776,0.42132,0.11879
1702328723195312,-9.66552,1.29189,0.958851,0.13176,0.45432,0.16879
1702328723203125,-9.68352,1.27189,0.956851,0.19476,0.35632,0.18379
1702328723210937,-9.68352,1.32189,0.956851,0.11476,0.34132,0.16879
1702328723218750,-9.69452,1.45189,0.931851,0.15776,0.32732,0.18579
1702328723226562,-9.70652,1.43189,0.929851,0.19476,0.37232,0.19979
1702328723234375,-9.70652,1.48189,0.927851,0.17676,0.47232,0.18579
1702328723242187,-9.70452,1.52189,0.929851,0.16976,0.45032,0.13479
1702328723250000,-9.69752,1.59189,0.938851,0.6876,0.47232,0.10579
1702328723257812,-9.68152,1.47189,0.915851,0.9876,0.43932,0.15379
1702328723265625,-9.66852,1.49189,0.918851,0.12476,0.44932,0.15079
1702328723273437,-9.67052,1.47189,0.929851,0.19776,0.42132,0.10279
1702328723281250,-9.66752,1.42189,0.947851,0.20976,0.37232,0.21579
1702328723289062,-9.66252,1.27189,0.940851,0.9376,0.44332,0.10779
1702328723296875,-9.66052,1.29189,0.929851,0.15976,0.44132,0.15379
1702328723304687,-9.65152,1.24189,0.927851,0.21276,0.42032,0.15079
1702328723312500,-9.66052,1.27189,0.933851,0.19276,0.39032,0.20079
1702328723320312,-9.68352,1.21189,0.931851,0.19276,0.43932,0.18479
1702328723328125,-9.68752,1.28189,0.924851,0.17276,0.39432,0.13879
1702328723335937,-9.68552,1.25189,0.924851,0.20976,0.35832,0.15179
1702328723343750,-9.69252,1.39189,0.920851,0.18876,0.39432,0.12279
1702328723351562,-9.68752,1.43189,0.927851,0.20976,0.42332,0.13679
1702328723359375,-9.68752,1.41189,0.927851,0.19376,0.40732,0.13679
1702328723367187,-9.67952,1.42189,0.933851,0.21376,0.45232,0.18279
1702328723375000,-9.66352,1.38189,0.942851,0.19576,0.47132,0.11979
1702328723382812,-9.64752,1.35189,0.940851,0.21376,0.45232,0.18279
1702328723390625,-9.65652,1.45189,0.954851,0.22776,0.42232,0.10379
1702328723398437,-9.67852,1.43189,0.956851,0.18976,0.36032,0.16979
1702328723406250,-9.66552,1.47189,0.947851,0.20776,0.34332,0.12079
1702328723414062,-9.67252,1.41189,0.951851,0.18976,0.45932,0.13879
1702328723421875,-9.67952,1.47189,0.958851,0.20776,0.39232,0.12079
1702328723429687,-9.67952,1.52189,0.949851,0.19176,0.50632,0.10579
1702328723437500,-9.66752,1.49189,0.942851,0.19176,0.47432,0.13779
1702328723445312,-9.65952,1.62189,0.940851,0.18976,0.42432,0.23379
1702328723453125,-9.64752,1.65189,0.942851,0.19976,0.33132,0.17179
1702328723460937,-9.65652,1.62189,0.940851,0.19776,0.33832,0.16679
1702328723468750,-9.65452,1.54189,0.942851,0.20476,0.32732,0.20179
1702328723476562,-9.67052,1.43189,0.949851,0.19176,0.34132,0.24879
1702328723484375,-9.67852,1.43189,0.942851,0.20176,0.33032,0.15479
1702328723492187,-9.69952,1.32189,0.931851,0.17976,0.30732,0.19979
1702328723500000,-9.70952,1.17189,0.938851,0.18976,0.32632,0.24979
1702328723507812,-9.70352,1.12189,0.936851,0.21176,0.37132,0.21579
1702328723515625,-9.69152,1.10189,0.945851,0.19176,0.43932,0.23379
1702328723523437,-9.67352,1.19189,0.956851,0.18776,0.37832,0.15479
1702328723531250,-9.64752,1.27189,0.958851,0.20476,0.39332,0.16979
1702328723539062,-9.64552,1.29189,0.974851,0.19276,0.30832,0.21679
1702328723546875,-9.65152,1.27189,0.963851,0.21176,0.35532,0.23179
1702328723554687,-9.65652,1.38189,0.956851,0.22176,0.27732,0.24879
1702328723562500,-9.66752,1.47189,0.954851,0.20876,0.30832,0.18379
1702328723570312,-9.66752,1.45189,0.958851,0.24176,0.25832,0.23079
1702328723578125,-9.66352,1.45189,0.960851,0.19476,0.27432,0.23179
1702328723585937,-9.66552,1.40189,0.967851,0.21376,0.28832,0.24579
1702328723593750,-9.67052,1.31189,0.956851,0.23176,0.33632,0.21379
1702328723601562,-9.68352,1.38189,0.949851,0.25276,0.36432,0.22779
1702328723609375,-9.69052,1.42189,0.952851,0.26376,0.38332,0.24479
1702328723617187,-9.69452,1.36189,0.958851,0.19376,0.33932,0.24779
1702328723625000,-9.69952,1.38189,0.963851,0.22076,0.35032,0.14779
1702328723632812,-9.68552,1.43189,0.967851,0.19676,0.40432,0.16779
1702328723640625,-9.67452,1.42189,0.960851,0.19576,0.43732,0.19979
1702328723648437,-9.65952,1.64189,0.965851,0.21476,0.33732,0.18179
1702328723656250,-9.64352,1.66189,0.999851,0.15176,0.33732,0.21479
1702328723664062,-9.62552,1.73189,1.12851,0.17876,0.40532,0.21679
1702328723671875,-9.66152,1.65189,0.967851,0.20976,0.25832,0.24779
1702328723679687,-9.66152,1.63189,0.938851,0.14276,0.32632,0.26579
1702328723687500,-9.66152,1.60189,0.940851,0.14176,0.22932,0.23379
1702328723695312,-9.66552,1.49189,0.967851,0.21076,0.29132,0.19879
1702328723703125,-9.67252,1.45189,0.981851,0.22876,0.30632,0.16679
1702328723710937,-9.66852,1.46189,0.972851,0.20776,0.26632,0.16279
1702328723718750,-9.67452,1.45189,0.963851,0.21376,0.19132,0.19779
1702328723726562,-9.66552,1.53189,0.960851,0.20176,0.28732,0.16479
1702328723734375,-9.66152,1.44189,0.968851,0.21476,0.34432,0.8079
1702328723742187,-9.66552,1.42189,0.976851,0.21176,0.32232,0.23079
1702328723750000,-9.67252,1.45189,0.976851,0.17576,0.34132,0.24879
1702328723757812,-9.66552,1.53189,0.994851,0.18076,0.30532,0.21479
1702328723765625,-9.65452,1.60189,0.987851,0.22976,0.25732,0.13379
1702328723773437,-9.66352,1.56189,0.963851,0.14776,0.30732,0.21579
1702328723781250,-9.67952,1.49189,0.956851,0.19476,0.25832,0.21579
1702328723789062,-9.68152,1.47189,0.949851,0.9876,0.29232,0.23379
1702328723796875,-9.68352,1.40189,0.951851,0.12076,0.32132,0.16679
1702328723804687,-9.68552,1.27189,0.967851,0.20376,0.22032,0.17979
1702328723812500,-9.68852,1.25189,0.970851,0.21976,0.33332,0.21279
1702328723820312,-9.66152,1.26189,0.961851,0.20576,0.35032,0.14779
1702328723828125,-9.64952,1.29189,0.960851,0.20576,0.35932,0.23379
1702328723835937,-9.65852,1.27189,0.951851,0.19576,0.28932,0.24679
1702328723843750,-9.65852,1.27189,0.949851,0.20976,0.22532,0.24679
1702328723851562,-9.66352,1.38189,0.956851,0.7876,0.17932,0.26679
1702328723859375,-9.65652,1.45189,0.967851,0.8276,0.25932,0.23379
1702328723867187,-9.66352,1.40189,0.974851,0.13176,0.22532,0.23179
1702328723875000,-9.66352,1.47189,0.960851,0.17976,0.19232,0.19879
1702328723882812,-9.67052,1.45189,0.947851,0.13276,0.20832,0.21579
1702328723890625,-9.67752,1.53189,0.933851,0.20276,0.22132,0.14879
1702328723898437,-9.67052,1.49189,0.929851,0.15976,0.22832,0.21679
1702328723906250,-9.66152,1.63189,0.924851,0.14376,0.21332,0.13679
1702328723914062,-9.64352,1.64189,0.915851,0.8776,0.24032,0.19979
1702328723921875,-9.62952,1.60189,0.897851,0.11676,0.17732,0.15179
1702328723929687,-9.67052,1.60189,0.893851,0.4576,0.30132,0.21479
1702328723937500,-9.67252,1.43189,0.888851,0.6124,0.27832,0.20379
1702328723945312,-9.67252,1.31189,0.893851,0.20076,0.27032,0.22979
1702328723953125,-9.69252,1.25189,0.911851,0.15676,0.31632,0.21279
1702328723960937,-9.69452,1.16189,0.922851,0.15976,0.26632,0.17979
1702328723968750,-9.70352,1.7189,0.929851,0.7876,0.30232,0.11779
1702328723976562,-9.72152,1.10189,0.933851,0.7276,0.38832,0.10379
1702328723984375,-9.70752,1.14189,0.942851,0.18176,0.43732,0.13579
1702328723992187,-9.69952,1.27189,0.936851,0.20576,0.33332,0.11579
1702328724000000,-9.68552,1.29189,0.949851,0.12176,0.40332,0.10279
1702328724007812,-9.68152,1.27189,0.958851,0.16976,0.31932,0.16579
1702328724015625,-9.67852,1.32189,0.965851,0.20876,0.29232,0.18379
1702328724023437,-9.66552,1.38189,0.947851,0.20576,0.26232,0.15279
1702328724031250,-9.66052,1.27189,0.938851,0.14376,0.26032,0.23379
1702328724039062,-9.64952,1.33189,0.924851,0.18476,0.25432,0.24579
1702328724046875,-9.63852,1.42189,0.915851,0.21076,0.25832,0.21479
1702328724054687,-9.64152,1.39189,0.911851,0.20276,0.22032,0.22879
1702328724062500,-9.64752,1.40189,0.909851,0.21776,0.22032,0.24479
1702328724070312,-9.65452,1.33189,0.895851,0.20176,0.18832,0.21279
1702328724078125,-9.66152,1.44189,0.877851,0.16776,0.20632,0.21379
1702328724085937,-9.68752,1.25189,0.882851,0.21576,0.19032,0.19679
1702328724093750,-9.68752,1.36189,0.875851,0.8776,0.20932,0.11979
1702328724101562,-9.67852,1.27189,0.877851,0.16676,0.20732,0.14979
1702328724109375,-9.68352,1.29189,0.877851,0.15876,0.18532,0.19579
1702328724117187,-9.68152,1.27189,0.882851,0.13876,0.20532,0.18179
1702328724125000,-9.68152,1.27189,0.888851,0.19876,0.22432,0.11779
1702328724132812,-9.68352,1.32189,0.893851,0.21076,0.22732,0.13479
1702328724140625,-9.69452,1.30189,0.893851,0.19576,0.19232,0.18279
1702328724148437,-9.69652,1.30189,0.906851,0.21076,0.29032,0.21579
1702328724156250,-9.69452,1.18189,0.902851,0.19776,0.33932,0.13479
1702328724164062,-9.69252,1.5189,0.888851,0.19976,0.27232,0.18179
1702328724171875,-9.68552,0.994189,0.884851,0.20176,0.27032,0.16479
1702328724179687,-9.69852,0.990189,0.886851,0.19376,0.29232,0.15179
1702328724187500,-9.69452,0.989189,0.902851,0.20176,0.25432,0.18079
1702328724195312,-9.67352,0.994189,0.924851,0.19676,0.27432,0.11879
1702328724203125,-9.66052,1.5189,0.922851,0.19276,0.35932,0.10479
1702328724210937,-9.66752,1.9189,0.915851,0.20876,0.32532,0.19979
1702328724218750,-9.68952,1.14189,0.906851,0.19576,0.25832,0.18279
1702328724226562,-9.68952,1.16189,0.906851,0.21276,0.40432,0.15079
1702328724234375,-9.68352,1.14189,0.909851,0.22776,0.34032,0.10279
1702328724242187,-9.67852,1.23189,0.913851,0.18976,0.26232,0.20079
1702328724250000,-9.67652,1.34189,0.906851,0.21376,0.33932,0.11879
1702328724257812,-9.68352,1.45189,0.886851,0.18376,0.28232,0.20379
1702328724265625,-9.69052,1.36189,0.888851,0.20776,0.31032,0.15279
1702328724273437,-9.68352,1.38189,0.886851,0.20076,0.33632,0.16579
1702328724281250,-9.68152,1.38189,0.897851,0.20176,0.35232,0.14979
1702328724289062,-9.68552,1.27189,0.904851,0.19676,0.32432,0.10279
1702328724296875,-9.69952,1.29189,0.897851,0.20076,0.32132,0.8579
1702328724304687,-9.70152,1.27189,0.886851,0.19676,0.34032,0.11979
1702328724312500,-9.68352,1.18189,0.888851,0.19976,0.38632,0.11879
1702328724320312,-9.67452,1.18189,0.888851,0.19176,0.32632,0.15279
1702328724328125,-9.67452,1.31189,0.904851,0.21276,0.43732,0.16779
1702328724335937,-9.65252,1.37189,0.922851,0.20476,0.38232,0.16479
1702328724343750,-9.65852,1.34189,0.899851,0.20976,0.32532,0.11979
1702328724351562,-9.66552,1.38189,0.866851,0.19376,0.27632,0.16779
1702328724359375,-9.66352,1.45189,0.863851,0.20676,0.24632,0.15279
1702328724367187,-9.69052,1.39189,0.888851,0.17576,0.35932,0.16879
1702328724375000,-9.70152,1.32189,0.906851,0.19376,0.32532,0.15179
1702328724382812,-9.69952,1.27189,0.900851,0.21376,0.33932,0.11879
1702328724390625,-9.69652,1.23189,0.884851,0.19876,0.32132,0.18179
1702328724398437,-9.69252,1.10189,0.881851,0.19576,0.35632,0.13579
1702328724406250,-9.67852,1.7189,0.882851,0.21476,0.38632,0.18279
1702328724414062,-9.66252,1.9189,0.886851,0.23176,0.38532,0.18179
1702328724421875,-9.66552,1.5189,0.893851,0.19576,0.42032,0.21579
1702328724429687,-9.66052,1.25189,0.895851,0.20976,0.33932,0.24779
1702328724437500,-9.65452,1.31189,0.888851,0.19476,0.25932,0.15179
1702328724445312,-9.66052,1.24189,0.888851,0.21476,0.25532,0.19779
1702328724453125,-9.67052,1.45189,0.879851,0.19776,0.27332,0.16679
1702328724460937,-9.67852,1.27189,0.873851,0.19976,0.25532,0.18179
1702328724468750,-9.69152,1.19189,0.861851,0.18676,0.29732,0.15479
1702328724476562,-9.68552,1.16189,0.870851,0.19676,0.24032,0.21479
1702328724484375,-9.68552,1.16189,0.879851,0.19576,0.29132,0.18379
1702328724492187,-9.67652,1.23189,0.886851,0.21376,0.32232,0.15079
1702328724500000,-9.66052,1.20189,0.875851,0.19276,0.27532,0.21579
1702328724507812,-9.66952,1.27189,0.882851,0.21076,0.32332,0.18379
1702328724515625,-9.66552,1.37189,0.877851,0.20676,0.33232,0.19579
1702328724523437,-9.67952,1.45189,0.879851,0.21676,0.30332,0.19779
1702328724531250,-9.68852,1.36189,0.902851,0.18576,0.31832,0.26179
1702328724539062,-9.69452,1.27189,0.913851,0.19376,0.29232,0.15179
1702328724546875,-9.68952,1.9189,0.904851,0.24776,0.19032,0.13279
1702328724554687,-9.67652,1.27189,0.882851,0.19976,0.32132,0.13379
1702328724562500,-9.66752,1.29189,0.868851,0.19776,0.25732,0.16679
1702328724570312,-9.66552,1.38189,0.875851,0.21376,0.19132,0.16579
1702328724578125,-9.68152,1.43189,0.875851,0.22576,0.16132,0.18279
1702328724585937,-9.66152,1.60189,0.868851,0.19376,0.22632,0.18379
1702328724593750,-9.67752,1.65189,0.870851,0.21476,0.24032,0.13379
1702328724601562,-9.69052,1.63189,0.868851,0.19576,0.27432,0.15079
1702328724609375,-9.69752,1.63189,0.873851,0.21476,0.24032,0.13379
1702328724617187,-9.70152,1.41189,0.875851,0.16576,0.32232,0.18279
1702328724625000,-9.69452,1.27189,0.873851,0.21576,0.35432,0.11779
1702328724632812,-9.70152,1.30189,0.873851,0.16576,0.35632,0.10379
1702328724640625,-9.69052,1.29189,0.895851,0.17176,0.41632,0.11779
1702328724648437,-9.67652,1.43189,0.897851,0.20876,0.31032,0.10379
1702328724656250,-9.67252,1.51189,0.881851,0.19276,0.30832,0.19979
1702328724664062,-9.66852,1.63189,0.877851,0.17576,0.22832,0.21679
1702328724671875,-9.68352,1.65189,0.861851,0.16176,0.30832,0.20079
1702328724679687,-9.67952,1.60189,0.884851,0.14676,0.33932,0.23279
1702328724687500,-9.67952,1.61189,0.884851,0.16076,0.34232,0.15279
1702328724695312,-9.67052,1.60189,0.881851,0.14576,0.30832,0.21679
1702328724703125,-9.66852,1.51189,0.870851,0.18276,0.27332,0.15079
1702328724710937,-9.67052,1.47189,0.866851,0.12276,0.32132,0.10279
1702328724718750,-9.67652,1.50189,0.881851,0.15976,0.31132,0.12179
1702328724726562,-9.68552,1.43189,0.879851,0.13176,0.39032,0.12079
1702328724734375,-9.68552,1.34189,0.873851,0.7376,0.27332,0.10379
1702328724742187,-9.69052,1.36189,0.868851,0.7076,0.34032,0.13679
1702328724750000,-9.68052,1.27189,0.870851,0.16276,0.32532,0.13679
1702328724757812,-9.68352,1.34189,0.868851,0.8876,0.33832,0.13579
1702328724765625,-9.67452,1.27189,0.881851,0.8376,0.24432,0.12079
1702328724773437,-9.66052,1.25189,0.881851,0.5276,0.32532,0.15379
1702328724781250,-9.66052,1.22189,0.877851,0.7176,0.29132,0.10379
1702328724789062,-9.66552,1.29189,0.886851,0.17576,0.19632,0.13679
1702328724796875,-9.66352,1.34189,0.888851,0.15776,0.29432,0.21779
1702328724804687,-9.66752,1.27189,0.886851,0.22076,0.22932,0.20079
1702328724812500,-9.66952,1.32189,0.879851,0.6876,0.28632,0.19079
1702328724820312,-9.67452,1.38189,0.877851,0.11776,0.25832,0.15179
1702328724828125,-9.68052,1.36189,0.870851,0.18776,0.23032,0.20179
1702328724835937,-9.67652,1.47189,0.884851,0.13176,0.25932,0.15279
1702328724843750,-9.67852,1.43189,0.877851,0.8276,0.21132,0.15279
1702328724851562,-9.68352,1.41189,0.870851,0.17576,0.21332,0.13679
1702328724859375,-9.68552,1.34189,0.870851,0.17276,0.19832,0.16979
1702328724867187,-9.68152,1.34189,0.877851,0.21576,0.23932,0.18179
1702328724875000,-9.69452,1.32189,0.884851,0.21176,0.27432,0.15079
1702328724882812,-9.69652,1.23189,0.890851,0.17876,0.30832,0.11979
1702328724890625,-9.68752,1.21189,0.875851,0.19676,0.35632,0.8679
1702328724898437,-9.67852,1.25189,0.866851,0.19176,0.35932,0.13679
1702328724906250,-9.68352,1.27189,0.875851,0.16676,0.33832,0.13479
1702328724914062,-9.68152,1.27189,0.868851,0.17976,0.30732,0.16779
1702328724921875,-9.68552,1.29189,0.857851,0.14876,0.27432,0.16779
1702328724929687,-9.68352,1.34189,0.868851,0.16176,0.34132,0.20079
1702328724937500,-9.68152,1.43189,0.886851,0.19776,0.32232,0.13479
1702328724945312,-9.67652,1.42189,0.893851,0.18376,0.33732,0.16679
1702328724953125,-9.67452,1.38189,0.873851,0.16576,0.32232,0.16679
1702328724960937,-9.69252,1.38189,0.875851,0.19476,0.34032,0.19979
1702328724968750,-9.70452,1.40189,0.868851,0.22276,0.31532,0.17979
1702328724976562,-9.69252,1.34189,0.873851,0.22776,0.35532,0.21479
1702328724984375,-9.68652,1.40189,0.873851,0.21976,0.33332,0.21279
1702328724992187,-9.68152,1.34189,0.882851,0.22876,0.33732,0.26279
1702328725000000,-9.67252,1.43189,0.888851,0.19576,0.35632,0.15179
1702328725007812,-9.66852,1.60189,0.893851,0.21676,0.33732,0.10179
1702328725015625,-9.66352,1.64189,0.866851,0.20176,0.36932,0.13379
1702328725023437,-9.66552,1.58189,0.834851,0.19976,0.31932,0.22979
1702328725031250,-9.67952,1.56189,0.832851,0.21776,0.33432,0.21279
1702328725039062,-9.69052,1.47189,0.850851,0.19576,0.32332,0.16779
1702328725046875,-9.67952,1.45189,0.866851,0.21776,0.33632,0.13279
1702328725054687,-9.67852,1.38189,0.854851,0.15876,0.34232,0.21779
1702328725062500,-9.69852,1.23189,0.852851,0.20976,0.32532,0.16779
1702328725070312,-9.69652,1.21189,0.848851,0.21176,0.34032,0.13479
1702328725078125,-9.69652,1.19189,0.850851,0.17676,0.31032,0.15279
1702328725085937,-9.68352,1.27189,0.850851,0.21376,0.32232,0.13479
1702328725093750,-9.67252,1.29189,0.857851,0.20376,0.33532,0.11679
1702328725101562,-9.67052,1.42189,0.870851,0.21376,0.37132,0.10279
1702328725109375,-9.68552,1.47189,0.868851,0.19576,0.35632,0.16779
1702328725117187,-9.68652,1.54189,0.868851,0.19776,0.32232,0.15079
1702328725125000,-9.68552,1.45189,0.863851,0.19576,0.32332,0.16779
1702328725132812,-9.68352,1.40189,0.857851,0.19976,0.33532,0.24579
1702328725140625,-9.67452,1.31189,0.870851,0.20376,0.35132,0.14879
1702328725148437,-9.67052,1.27189,0.868851,0.20376,0.31832,0.14879
1702328725156250,-9.67952,1.29189,0.870851,0.20376,0.33432,0.14879
1702328725164062,-9.67252,1.27189,0.866851,0.20276,0.32032,0.10079
1702328725171875,-9.67452,1.36189,0.852851,0.20776,0.34332,0.12079
1702328725179687,-9.66552,1.47189,0.859851,0.20076,0.32132,0.10179
1702328725187500,-9.66352,1.49189,0.850851,0.21576,0.30332,0.21379
1702328725195312,-9.67652,1.45189,0.859851,0.19976,0.27232,0.16579
1702328725203125,-9.68752,1.36189,0.868851,0.17776,0.29232,0.16779
1702328725210937,-9.68552,1.42189,0.882851,0.21776,0.30332,0.14879
1702328725218750,-9.68352,1.41189,0.886851,0.18676,0.29632,0.21879
1702328725226562,-9.68152,1.43189,0.879851,0.21076,0.29132,0.18279
1702328725234375,-9.68152,1.43189,0.868851,0.19776,0.24032,0.16579
1702328725242187,-9.68152,1.47189,0.861851,0.21176,0.25832,0.16679
1702328725250000,-9.68152,1.45189,0.841851,0.20076,0.28832,0.10179
1702328725257812,-9.68652,1.49189,0.848851,0.21476,0.27232,0.18179
1702328725265625,-9.69052,1.56189,0.852851,0.19876,0.30432,0.19779
1702328725273437,-9.70652,1.41189,0.834851,0.18276,0.25732,0.11779
1702328725281250,-9.71952,1.28189,0.832851,0.21276,0.32432,0.10279
1702328725289062,-9.70552,1.30189,0.832851,0.20976,0.34132,0.11979
1702328725296875,-9.70752,1.28189,0.848851,0.19076,0.39332,0.10579
1702328725304687,-9.69452,1.29189,0.852851,0.21476,0.33732,0.19779
1702328725312500,-9.67652,1.38189,0.850851,0.13076,0.43932,0.12179
1702328725320312,-9.67452,1.47189,0.843851,0.16876,0.41932,0.11879
1702328725328125,-9.67252,1.62189,0.850851,0.18076,0.42232,0.10379
1702328725335937,-9.68352,1.49189,0.859851,0.19576,0.40532,0.13579
1702328725343750,-9.68352,1.52189,0.866851,0.18076,0.38932,0.11979
1702328725351562,-9.68352,1.54189,0.839851,0.17676,0.47432,0.10579
1702328725359375,-9.69552,1.56189,0.852851,0.19976,0.40332,0.11879
1702328725367187,-9.69752,1.43189,0.868851,0.15276,0.38632,0.10279
1702328725375000,-9.69452,1.34189,0.854851,0.18076,0.32432,0.11979
1702328725382812,-9.69752,1.34189,0.852851,0.21576,0.37032,0.10179
1702328725390625,-9.69052,1.38189,0.848851,0.21076,0.43832,0.13579
1702328725398437,-9.68752,1.29189,0.843851,0.22676,0.45532,0.13579
1702328725406250,-9.70152,1.27189,0.839851,0.19776,0.35532,0.15079
1702328725414062,-9.68352,1.29189,0.835851,0.22476,0.42932,0.14679
1702328725421875,-9.66552,1.29189,0.830851,0.19976,0.40332,0.10279
1702328725429687,-9.66252,1.22189,0.854851,0.20976,0.42332,0.12079
1702328725437500,-9.66352,1.22189,0.861851,0.22976,0.33932,0.10179
1702328725445312,-9.67952,1.31189,0.832851,0.20176,0.33632,0.11679
1702328725453125,-9.68552,1.20189,0.814851,0.21476,0.40332,0.15079
1702328725460937,-9.68752,1.25189,0.812851,0.20176,0.35232,0.14979
1702328725468750,-9.69052,1.31189,0.832851,0.21476,0.45232,0.13479
1702328725476562,-9.69252,1.36189,0.843851,0.25276,0.41532,0.11579
1702328725484375,-9.68052,1.27189,0.832851,0.22276,0.47432,0.13779
1702328725492187,-9.69052,1.43189,0.834851,0.19076,0.52432,0.7479
1702328725500000,-9.68352,1.60189,0.816851,0.21176,0.45532,0.8779
1702328725507812,-9.67452,1.65189,0.830851,0.19876,0.37132,0.10279
1702328725515625,-9.67452,1.65189,0.830851,0.21276,0.47032,0.13579
1702328725523437,-9.69052,1.61189,0.850851,0.19576,0.42232,0.13579
1702328725531250,-9.69052,1.49189,0.841851,0.20076,0.43432,0.13379
1702328725539062,-9.68752,1.38189,0.825851,0.20576,0.44132,0.20179
1702328725546875,-9.68052,1.27189,0.821851,0.19176,0.44132,0.12179
1702328725554687,-9.67852,1.21189,0.839851,0.20676,0.37732,0.10579
1702328725562500,-9.66952,1.11189,0.848851,0.18076,0.35632,0.11979
1702328725570312,-9.66252,1.16189,0.845851,0.18976,0.44232,0.12179
1702328725578125,-9.66952,1.12189,0.845851,0.20776,0.40832,0.10479
1702328725585937,-9.67652,1.34189,0.834851,0.19776,0.35532,0.15079
1702328725593750,-9.69252,1.39189,0.830851,0.20776,0.32632,0.16879
1702328725601562,-9.69052,1.43189,0.834851,0.18976,0.37732,0.13779
1702328725609375,-9.68352,1.43189,0.839851,0.20776,0.40832,0.12079
1702328725617187,-9.66952,1.32189,0.832851,0.17476,0.34432,0.10579
1702328725625000,-9.66352,1.36189,0.836851,0.19276,0.35932,0.12079
1702328725632812,-9.66752,1.40189,0.818851,0.17976,0.38932,0.13579
1702328725640625,-9.66552,1.27189,0.823851,0.17976,0.34032,0.16779
1702328725648437,-9.67452,1.29189,0.834851,0.16376,0.47132,0.15279
1702328725656250,-9.68552,1.29189,0.843851,0.20976,0.42332,0.13679
1702328725664062,-9.68152,1.25189,0.834851,0.16676,0.40432,0.11979
1702328725671875,-9.69252,1.34189,0.834851,0.20976,0.42332,0.10479
1702328725679687,-9.71052,1.26189,0.845851,0.14476,0.42432,0.10579
1702328725687500,-9.69852,1.25189,0.832851,0.14776,0.42332,0.7279
1702328725695312,-9.68752,1.25189,0.834851,0.11476,0.45632,0.15379
1702328725703125,-9.68552,1.25189,0.832851,0.16076,0.44132,0.12179
1702328725710937,-9.69452,1.30189,0.834851,0.9876,0.37532,0.10579
1702328725718750,-9.68052,1.36189,0.827851,0.12376,0.44532,0.10779
1702328725726562,-9.67652,1.30189,0.836851,0.7976,0.44232,0.12379
1702328725734375,-9.68952,1.27189,0.832851,0.8676,0.32532,0.4079
1702328725742187,-9.69952,1.27189,0.830851,0.11776,0.42232,0.8879
1702328725750000,-9.69952,1.27189,0.832851,0.15576,0.43432,0.3779
1702328725757812,-9.69652,1.18189,0.843851,0.15176,0.45332,0.3979
1702328725765625,-9.68552,1.16189,0.859851,0.18376,0.46832,0.10279
1702328725773437,-9.67252,1.18189,0.870851,0.15676,0.44932,0.10179
1702328725781250,-9.65652,1.25189,0.866851,0.21076,0.45532,0.13579
1702328725789062,-9.65652,1.33189,0.866851,0.17676,0.47232,0.15379
1702328725796875,-9.67452,1.52189,0.866851,0.18676,0.42732,0.17079
1702328725804687,-9.68352,1.52189,0.868851,0.9776,0.35732,0.23379
1702328725812500,-9.68152,1.56189,0.855851,0.7176,0.41932,0.23279
1702328725820312,-9.69052,1.47189,0.850851,0.14476,0.43932,0.21779
1702328725828125,-9.68152,1.47189,0.854851,0.3276,0.47332,0.21979
1702328725835937,-9.68352,1.36189,0.845851,0.6376,0.47532,0.15579
1702328725843750,-9.67652,1.36189,0.850851,0.11076,0.49132,0.12379
1702328725851562,-9.67652,1.25189,0.854851,0.5276,0.48832,0.10679
1702328725859375,-9.69652,1.32189,0.857851,0.6576,0.47332,0.12279
1702328725867187,-9.70152,1.28189,0.870851,0.14476,0.47432,0.12179
1702328725875000,-9.69852,1.28189,0.854851,0.4876,0.44232,0.10779
1702328725882812,-9.69952,1.41189,0.850851,0.1424,0.47532,0.14079
1702328725890625,-9.69552,1.51189,0.861851,0.2776,0.46732,0.15279
1702328725898437,-9.68852,1.50189,0.870851,0.1976,0.45732,0.10779
1702328725906250,-9.68152,1.56189,0.854851,0.5624,0.48732,0.13979
1702328725914062,-9.68152,1.47189,0.843851,0.3824,0.46932,0.15479
1702328725921875,-9.67952,1.36189,0.850851,0.2224,0.45132,0.23379
1702328725929687,-9.69052,1.41189,0.852851,0.3924,0.52032,0.10679
1702328725937500,-9.68552,1.27189,0.866851,0.724,0.56832,0.12279
1702328725945312,-9.67652,1.29189,0.855851,0.7176,0.46932,0.13679
1702328725953125,-9.66752,1.11189,0.866851,0.10276,0.55132,0.10479
1702328725960937,-9.66952,1.11189,0.866851,0.5276,0.50532,0.10679
1702328725968750,-9.66252,1.18189,0.863851,0.6876,0.50332,0.15379
1702328725976562,-9.67252,1.27189,0.859851,0.5776,0.48432,0.15279
1702328725984375,-9.67652,1.29189,0.861851,0.5676,0.50132,0.16879
1702328725992187,-9.68552,1.27189,0.882851,0.10376,0.46832,0.21679
1702328726000000,-9.69452,1.38189,0.870851,0.4076,0.46932,0.13779
1702328726007812,-9.69652,1.32189,0.868851,0.10176,0.47132,0.8879
1702328726015625,-9.69052,1.36189,0.886851,0.3676,0.55232,0.17079
1702328726023437,-9.69952,1.34189,0.895851,0.11476,0.52132,0.12179
1702328726031250,-9.69252,1.48189,0.908851,0.11076,0.62232,0.10779
1702328726039062,-9.68152,1.47189,0.918851,0.7176,0.56832,0.12179
1702328726046875,-9.67652,1.34189,0.922851,0.6776,0.45632,0.13879
1702328726054687,-9.65352,1.32189,0.920851,0.324,0.47732,0.18979
1702328726062500,-9.65852,1.32189,0.922851,0.4376,0.52632,0.14179
1702328726070312,-9.64952,1.29189,0.915851,0.10176,0.47132,0.10479
1702328726078125,-9.64952,1.45189,0.924851,0.7976,0.45732,0.23579
1702328726085937,-9.64752,1.42189,0.906851,0.10076,0.47132,0.16979
1702328726093750,-9.64352,1.44189,0.900851,0.14776,0.45432,0.18479
1702328726101562,-9.65652,1.40189,0.893851,0.3976,0.46932,0.16979
1702328726109375,-9.65852,1.31189,0.870851,0.11876,0.38732,0.15179
1702328726117187,-9.67152,1.25189,0.877851,0.6776,0.35732,0.18579
1702328726125000,-9.68152,1.34189,0.884851,0.8176,0.35932,0.17079
1702328726132812,-9.69252,1.27189,0.900851,0.876,0.40432,0.16979
1702328726140625,-9.70152,1.27189,0.895851,0.2224,0.46932,0.13779
1702328726148437,-9.69852,1.21189,0.897851,0.10176,0.45432,0.10479
1702328726156250,-9.70552,1.23189,0.904851,0.8476,0.50332,0.15379
1702328726164062,-9.70152,1.27189,0.927851,0.4076,0.46932,0.12179
1702328726171875,-9.68352,1.27189,0.947851,0.17576,0.45732,0.13779
1702328726179687,-9.66052,1.25189,0.947851,0.13476,0.47032,0.12079
1702328726187500,-9.66552,1.38189,0.935851,0.15876,0.45932,0.10679
1702328726195312,-9.66152,1.53189,0.922851,0.8976,0.46832,0.13579
1702328726203125,-9.66152,1.60189,0.906851,0.6176,0.46532,0.15179
1702328726210937,-9.66652,1.64189,0.915851,0.15476,0.45132,0.11879
1702328726218750,-9.66352,1.64189,0.927851,0.7576,0.41832,0.13579
1702328726226562,-9.67052,1.60189,0.927851,0.3676,0.50332,0.21879
1702328726234375,-9.68152,1.41189,0.922851,0.1776,0.47332,0.20379
1702328726242187,-9.68552,1.32189,0.924851,0.9776,0.48832,0.18679
1702328726250000,-9.68352,1.25189,0.920851,0.5476,0.43832,0.12179
1702328726257812,-9.67852,1.29189,0.931851,0.4076,0.46932,0.13779
1702328726265625,-9.66752,1.29189,0.945851,0.10776,0.45032,0.11879
1702328726273437,-9.66752,1.36189,0.947851,0.4276,0.48432,0.10479
1702328726281250,-9.66352,1.40189,0.958851,0.11476,0.47232,0.15379
1702328726289062,-9.66352,1.51189,0.947851,0.5476,0.45432,0.12179
1702328726296875,-9.66952,1.43189,0.949851,0.12876,0.49032,0.13879
1702328726304687,-9.67452,1.52189,0.947851,0.20576,0.47532,0.8979
1702328726312500,-9.66152,1.47189,0.963851,0.18276,0.45232,0.15079
1702328726320312,-9.67652,1.45189,0.965851,0.18376,0.46832,0.11879
1702328726328125,-9.69452,1.32189,0.954851,0.16176,0.45632,0.13779
1702328726335937,-9.70152,1.28189,0.951851,0.12976,0.48832,0.15379
1702328726343750,-9.69452,1.26189,0.965851,0.18676,0.47632,0.15479
1702328726351562,-9.68752,1.32189,0.978851,0.17676,0.53832,0.13779
1702328726359375,-9.67152,1.30189,0.953851,0.18076,0.52832,0.23779
1702328726367187,-9.65852,1.36189,0.935851,0.23676,0.53932,0.21779
1702328726375000,-9.64952,1.65189,0.947851,0.18476,0.54332,0.17279
1702328726382812,-9.64352,1.64189,0.958851,0.20676,0.50632,0.13779
1702328726390625,-9.63852,1.73189,0.992851,0.19076,0.50632,0.15379
1702328726398437,-9.64552,1.82189,0.976851,0.20776,0.45732,0.12179
1702328726406250,-9.65952,1.69189,0.938851,0.19476,0.47132,0.13679
1702328726414062,-9.67952,1.65189,0.922851,0.18976,0.45932,0.12179
1702328726421875,-9.69752,1.63189,0.935851,0.20576,0.47532,0.10579
1702328726429687,-9.69252,1.65189,0.956851,0.19176,0.45732,0.13779
1702328726437500,-9.68152,1.63189,0.969851,0.14176,0.55732,0.13979
1702328726445312,-9.66752,1.65189,0.938851,0.17176,0.50932,0.13979
1702328726453125,-9.66352,1.58189,0.927851,0.15976,0.53732,0.20279
1702328726460937,-9.65652,1.58189,0.963851,0.10276,0.51932,0.13679
1702328726468750,-9.64352,1.62189,0.974851,0.16376,0.50432,0.12079
1702328726476562,-9.64552,1.64189,0.985851,0.20676,0.52132,0.21779
1702328726484375,-9.64852,1.62189,0.979851,0.12176,0.40132,0.19879
1702328726492187,-9.64552,1.64189,0.967851,0.19876,0.35332,0.19879
1702328726500000,-9.64552,1.62189,0.945851,0.17876,0.42232,0.18479
1702328726507812,-9.64752,1.64189,0.958851,0.16576,0.40432,0.16779
1702328726515625,-9.65952,1.62189,0.958851,0.8676,0.45332,0.16879
1702328726523437,-9.65752,1.64189,0.963851,0.15076,0.43532,0.21579
1702328726531250,-9.65452,1.58189,0.958851,0.21076,0.47132,0.15279
1702328726539062,-9.65952,1.62189,0.942851,0.14876,0.42232,0.13679
1702328726546875,-9.66552,1.51189,0.945851,0.13176,0.43832,0.20079
1702328726554687,-9.67252,1.58189,0.951851,0.21476,0.43532,0.15079
1702328726562500,-9.67952,1.58189,0.935851,0.20776,0.45732,0.12179
1702328726570312,-9.67952,1.58189,0.940851,0.18776,0.46632,0.10179
1702328726578125,-9.67452,1.65189,0.958851,0.19476,0.40532,0.16779
1702328726585937,-9.66352,1.71189,0.978851,0.20776,0.40832,0.10479
1702328726593750,-9.66152,1.89189,0.976851,0.18376,0.35432,0.13479
1702328726601562,-9.65552,1.98189,0.956851,0.5376,0.33932,0.20179
1702328726609375,-9.64652,1.98189,0.940851,0.14376,0.37532,0.21779
1702328726617187,-9.64652,1.100189,0.931851,0.10076,0.34132,0.12079
1702328726625000,-9.64552,1.92189,0.974851,0.11776,0.38332,0.15779
1702328726632812,-9.66152,1.91189,0.978851,0.12576,0.47532,0.18779
1702328726640625,-9.66352,1.65189,0.978851,0.9776,0.39232,0.12179
1702328726648437,-9.66352,1.63189,0.965851,0.14376,0.36032,0.10579
1702328726656250,-9.66152,1.62189,0.958851,0.15676,0.33532,0.11679
1702328726664062,-9.64752,1.62189,0.958851,0.976,0.35532,0.13679
1702328726671875,-9.64552,1.64189,0.972851,0.2176,0.39032,0.13879
1702328726679687,-9.64752,1.62189,0.978851,0.9876,0.37432,0.20179
1702328726687500,-9.66852,1.69189,0.958851,0.6776,0.32432,0.16979
1702328726695312,-9.68852,1.81189,0.967851,0.8576,0.32332,0.16879
1702328726703125,-9.67752,1.74189,0.972851,0.11876,0.34032,0.10379
1702328726710937,-9.67252,1.69189,0.965851,0.13876,0.31932,0.14979
1702328726718750,-9.67052,1.83189,0.972851,0.14576,0.32532,0.20079
1702328726726562,-9.65952,1.71189,0.956851,0.2376,0.25632,0.24879
1702328726734375,-9.66552,1.58189,0.956851,0.4376,0.28632,0.21479
1702328726742187,-9.66152,1.62189,0.942851,0.10476,0.28932,0.11979
1702328726750000,-9.66752,1.49189,0.954851,0.11576,0.32532,0.13679
1702328726757812,-9.66952,1.40189,0.965851,0.19476,0.32532,0.8779
1702328726765625,-9.66052,1.31189,0.972851,0.18076,0.34032,0.13579
1702328726773437,-9.65852,1.33189,0.976851,0.19776,0.32232,0.16679
1702328726781250,-9.65852,1.24189,0.958851,0.21176,0.30532,0.23079
1702328726789062,-9.64752,1.36189,0.972851,0.19376,0.30732,0.24779
1702328726796875,-9.64552,1.57189,0.992851,0.21376,0.33732,0.23079
1702328726804687,-9.64552,1.64189,1.5851,0.19276,0.27532,0.24879
1702328726812500,-9.64552,1.64189,1.19851,0.27376,0.25832,0.21479
1702328726820312,-9.64652,1.86189,1.23851,0.22776,0.25632,0.23079
1702328726828125,-9.64652,1.96189,1.8851,0.20676,0.21132,0.23179
1702328726835937,-9.65052,1.104189,1.8851,0.24676,0.19032,0.21279
1702328726843750,-9.66252,1.122189,1.14851,0.19076,0.21132,0.24879
1702328726851562,-9.64452,1.120189,1.12851,0.21276,0.19132,0.24579
1702328726859375,-9.64652,1.126189,1.28851,0.16376,0.20832,0.21579
1702328726867187,-9.64652,1.129189,1.10851,0.18976,0.18032,0.23279
1702328726875000,-9.65152,1.138189,0.999851,0.16476,0.12732,0.21479
1702328726882812,-9.67352,1.147189,0.981851,0.3776,0.17532,0.24879
1702328726890625,-9.68552,1.154189,0.974851,0.4076,0.20732,0.19979
1702328726898437,-9.69452,1.151189,0.952851,0.1276,0.18832,0.24679
1702328726906250,-9.70152,1.154189,0.949851,0.4724,0.20332,0.18279
1702328726914062,-9.68752,1.138189,0.936851,0.6224,0.20332,0.16679
1702328726921875,-9.68952,1.122189,0.933851,0.9624,0.33532,0.15279
1702328726929687,-9.69352,1.127189,0.936851,0.24424,0.30832,0.10879
1702328726937500,-9.67552,1.111189,0.925851,0.29624,0.23632,0.8879
1702328726945312,-9.66452,1.100189,0.925851,0.28024,0.34932,0.12179
1702328726953125,-9.66152,1.84189,0.915851,0.30124,0.38632,0.10779
1702328726960937,-9.67452,1.58189,0.922851,0.28724,0.35332,0.17179
1702328726968750,-9.69052,1.36189,0.929851,0.29824,0.46532,0.12279
1702328726976562,-9.67852,1.23189,0.947851,0.30224,0.37132,0.4379
1702328726984375,-9.68352,1.25189,0.940851,0.28724,0.38732,0.10879
1702328726992187,-9.68052,1.12189,0.924851,0.30524,0.42132,0.9379
1702328727000000,-9.67452,1.9189,0.931851,0.28724,0.46932,0.4479
1702328727007812,-9.68052,1.7189,0.922851,0.28524,0.41832,0.7579
1702328727015625,-9.67252,1.20189,0.938851,0.16224,0.48632,0.7579
1702328727023437,-9.66252,1.9189,0.951851,0.22224,0.41932,0.7479
1702328727031250,-9.67152,1.11189,0.951851,0.14324,0.41932,0.4179
1702328727039062,-9.67352,1.1189,0.958851,0.9324,0.39432,0.9379
1702328727046875,-9.66952,1.5189,0.951851,0.7224,0.32432,0.12279
1702328727054687,-9.66952,1.5189,0.958851,0.2324,0.35632,0.10579
1702328727062500,-9.66752,0.998189,0.949851,0.4724,0.33432,0.16779
1702328727070312,-9.65152,0.993189,0.945851,0.3724,0.35532,0.12179
1702328727078125,-9.65352,1.4189,0.954851,0.2124,0.33832,0.10479
1702328727085937,-9.66552,1.18189,0.945851,0.724,0.30732,0.10479
1702328727093750,-9.66952,1.29189,0.917851,0.2524,0.34132,0.13879
1702328727101562,-9.67452,1.27189,0.902851,0.824,0.21032,0.12179
1702328727109375,-9.67452,1.31189,0.888851,0.124,0.25432,0.13479
1702328727117187,-9.69252,1.29189,0.888851,0.624,0.27332,0.16879
1702328727125000,-9.69052,1.25189,0.891851,0.6176,0.20532,0.14979
1702328727132812,-9.69452,1.25189,0.888851,0.2776,0.27132,0.13579
1702328727140625,-9.69452,1.16189,0.877851,0.10476,0.30432,0.18279
1702328727148437,-9.68752,1.23189,0.882851,0.10376,0.30632,0.13579
1702328727156250,-9.67152,1.16189,0.904851,0.13076,0.29232,0.16879
1702328727164062,-9.66752,1.27189,0.909851,0.14876,0.35632,0.13579
1702328727171875,-9.65852,1.47189,0.918851,0.21076,0.34032,0.18379
1702328727179687,-9.66552,1.45189,0.904851,0.14976,0.33832,0.18379
1702328727187500,-9.68352,1.60189,0.882851,0.11976,0.30632,0.15179
1702328727195312,-9.67952,1.67189,0.884851,0.8076,0.32732,0.15479
1702328727203125,-9.66152,1.71189,0.884851,0.16176,0.34132,0.16879
1702328727210937,-9.66152,1.58189,0.875851,0.8676,0.30732,0.11979
1702328727218750,-9.67252,1.60189,0.872851,0.13176,0.32532,0.13679
1702328727226562,-9.67452,1.51189,0.895851,0.15476,0.35232,0.13379
1702328727234375,-9.65052,1.42189,0.906851,0.17076,0.31832,0.24579
1702328727242187,-9.67252,1.27189,0.918851,0.21876,0.33532,0.14879
1702328727250000,-9.68352,1.29189,0.915851,0.20376,0.33532,0.13279
1702328727257812,-9.68052,1.12189,0.908851,0.17876,0.32532,0.11979
1702328727265625,-9.68952,1.14189,0.906851,0.20876,0.31032,0.10379
1702328727273437,-9.68352,1.29189,0.918851,0.19876,0.32232,0.10279
1702328727281250,-9.67452,1.31189,0.938851,0.21376,0.30832,0.3879
1702328727289062,-9.66352,1.31189,0.938851,0.19976,0.23932,0.18179
1702328727296875,-9.64752,1.37189,0.933851,0.22076,0.23632,0.11579
1702328727304687,-9.66152,1.38189,0.927851,0.19676,0.19232,0.15079
1702328727312500,-9.69552,1.47189,0.895851,0.20976,0.19932,0.17779
1702328727320312,-9.70852,1.43189,0.875851,0.19576,0.19232,0.18279
1702328727328125,-9.70552,1.30189,0.873851,0.21676,0.25532,0.10079
1702328727335937,-9.68752,1.25189,0.879851,0.20176,0.30332,0.16579
1702328727343750,-9.66552,1.15189,0.891851,0.22176,0.28432,0.14779
1702328727351562,-9.65652,1.189,0.877851,0.19976,0.30432,0.14979
1702328727359375,-9.64652,0.991189,0.882851,0.27676,0.24032,0.13279
1702328727367187,-9.63852,1.6189,0.870851,0.35876,0.28532,0.22679
1702328727375000,-9.62952,1.13189,0.877851,0.33176,0.21132,0.24679
1702328727382812,-9.66052,1.27189,0.895851,0.33476,0.25932,0.18179
1702328727390625,-9.69852,1.23189,0.904851,0.33676,0.20932,0.21379
1702328727398437,-9.69952,1.38189,0.906851,0.38376,0.20932,0.18079
1702328727406250,-9.71552,1.50189,0.897851,0.44776,0.19332,0.13179
1702328727414062,-9.71252,1.47189,0.891851,0.40076,0.20832,0.22779
1702328727421875,-9.69952,1.45189,0.895851,0.40376,0.19032,0.17879
1702328727429687,-9.72252,1.47189,0.904851,0.35776,0.28732,0.21179
1702328727437500,-9.69252,1.34189,0.902851,0.35976,0.20532,0.13079
1702328727445312,-9.66552,1.45189,0.881851,0.34376,0.26332,0.23279
1702328727453125,-9.67252,1.45189,0.886851,0.38076,0.21032,0.22979
1702328727460937,-9.66752,1.47189,0.886851,0.41776,0.27232,0.25979
1702328727468750,-9.66352,1.44189,0.882851,0.32376,0.25532,0.24479
1702328727476562,-9.67252,1.47189,0.888851,0.32576,0.31932,0.19579
1702328727484375,-9.67052,1.38189,0.891851,0.38676,0.32132,0.22879
1702328727492187,-9.65452,1.31189,0.895851,0.30876,0.27232,0.21279
1702328727500000,-9.65452,1.58189,0.884851,0.41276,0.21032,0.19679
1702328727507812,-9.66352,1.44189,0.891851,0.35476,0.19132,0.19579
1702328727515625,-9.68152,1.54189,0.895851,0.27576,0.19132,0.19679
1702328727523437,-9.69052,1.52189,0.881851,0.31676,0.22832,0.19879
1702328727531250,-9.67452,1.47189,0.886851,0.35076,0.22732,0.16579
1702328727539062,-9.69452,1.45189,0.879851,0.33076,0.32632,0.24779
1702328727546875,-9.71752,1.61189,0.888851,0.22376,0.29232,0.23179
1702328727554687,-9.71552,1.45189,0.868851,0.29076,0.25632,0.22979
1702328727562500,-9.71752,1.49189,0.857851,0.26576,0.31832,0.16379
1702328727570312,-9.70852,1.50189,0.861851,0.25576,0.37432,0.19979
1702328727578125,-9.68352,1.49189,0.873851,0.22676,0.40432,0.24779
1702328727585937,-9.68152,1.49189,0.886851,0.19576,0.35632,0.16779
1702328727593750,-9.68152,1.56189,0.882851,0.21276,0.40232,0.24679
1702328727601562,-9.67752,1.63189,0.864851,0.21076,0.35632,0.18379
1702328727609375,-9.69452,1.63189,0.850851,0.18776,0.44332,0.13879
1702328727617187,-9.69752,1.63189,0.852851,0.20976,0.43832,0.18379
1702328727625000,-9.68152,1.60189,0.850851,0.19676,0.47032,0.13579
1702328727632812,-9.68552,1.43189,0.859851,0.21176,0.43832,0.10379
1702328727640625,-9.68352,1.27189,0.870851,0.17376,0.45832,0.13879
1702328727648437,-9.68052,1.21189,0.884851,0.15676,0.47632,0.12379
1702328727656250,-9.68352,1.9189,0.891851,0.19776,0.45332,0.10379
1702328727664062,-9.67652,1.18189,0.895851,0.21176,0.46932,0.16779
1702328727671875,-9.66552,1.13189,0.891851,0.21676,0.46732,0.13379
1702328727679687,-9.66252,1.9189,0.884851,0.19176,0.45732,0.10579
1702328727687500,-9.66352,1.27189,0.890851,0.20876,0.47232,0.13679
1702328727695312,-9.66352,1.27189,0.888851,0.19776,0.45332,0.11979
1702328727703125,-9.66152,1.36189,0.886851,0.26076,0.45332,0.11879
1702328727710937,-9.67652,1.34189,0.888851,0.30976,0.35432,0.10079
1702328727718750,-9.67452,1.29189,0.870851,0.21076,0.47132,0.11979
1702328727726562,-9.65452,1.24189,0.870851,0.21276,0.47032,0.11979
1702328727734375,-9.64952,1.24189,0.861851,0.19776,0.48632,0.11979
1702328727742187,-9.66352,1.33189,0.875851,0.21876,0.43332,0.13279
1702328727750000,-9.67452,1.47189,0.873851,0.19676,0.48632,0.15179
1702328727757812,-9.68352,1.43189,0.866851,0.19176,0.40832,0.13679
1702328727765625,-9.69052,1.36189,0.868851,0.21476,0.35432,0.14979
1702328727773437,-9.68152,1.38189,0.882851,0.19576,0.38932,0.11979
1702328727781250,-9.67652,1.47189,0.877851,0.18276,0.42132,0.10279
1702328727789062,-9.67252,1.38189,0.886851,0.21376,0.38832,0.11879
1702328727796875,-9.66352,1.44189,0.888851,0.20376,0.38432,0.10079
1702328727804687,-9.66552,1.40189,0.895851,0.21576,0.41932,0.11879
1702328727812500,-9.66352,1.40189,0.873851,0.21176,0.40632,0.10379
1702328727820312,-9.66352,1.47189,0.864851,0.20176,0.32132,0.6979
1702328727828125,-9.67452,1.47189,0.852851,0.13076,0.34332,0.8879
1702328727835937,-9.69252,1.45189,0.852851,0.6176,0.40132,0.7079
1702328727843750,-9.68852,1.40189,0.861851,0.17176,0.38532,0.5379
1702328727851562,-9.67752,1.40189,0.877851,0.15676,0.36732,0.10079
1702328727859375,-9.68152,1.27189,0.877851,0.10676,0.40332,0.8679
1702328727867187,-9.67452,1.20189,0.868851,0.9076,0.35332,0.11879
1702328727875000,-9.66052,1.11189,0.882851,0.13776,0.40332,0.7079
1702328727882812,-9.65152,1.9189,0.893851,0.15676,0.36732,0.11779
1702328727890625,-9.64952,1.22189,0.895851,0.13776,0.33732,0.10279
1702328727898437,-9.66052,1.25189,0.911851,0.6876,0.39032,0.12179
1702328727906250,-9.65652,1.26189,0.918851,0.15576,0.28732,0.10179
1702328727914062,-9.65852,1.22189,0.902851,0.14276,0.26932,0.8479
1702328727921875,-9.66752,1.31189,0.873851,0.21576,0.30532,0.11779
1702328727929687,-9.67252,1.25189,0.882851,0.16776,0.30632,0.7079
1702328727937500,-9.68052,1.9189,0.886851,0.19876,0.32132,0.18179
1702328727945312,-9.67652,1.2189,0.891851,0.18876,0.33532,0.11679
1702328727953125,-9.67652,1.12189,0.900851,0.19676,0.30732,0.10279
1702328727960937,-9.68052,1.5189,0.906851,0.21576,0.33732,0.11779
1702328727968750,-9.66752,1.5189,0.913851,0.21276,0.24232,0.11879
1702328727976562,-9.66752,1.9189,0.904851,0.25076,0.22032,0.16379
1702328727984375,-9.65852,1.24189,0.913851,0.23376,0.28732,0.11679
1702328727992187,-9.65852,1.22189,0.922851,0.22576,0.32532,0.11979
1702328728000000,-9.66352,1.27189,0.929851,0.20276,0.30332,0.10079
1702328728007812,-9.67452,1.29189,0.942851,0.24476,0.28932,0.16579
1702328728015625,-9.67652,1.29189,0.940851,0.26876,0.21932,0.16279
1702328728023437,-9.67052,1.42189,0.924851,0.21276,0.19332,0.13379
1702328728031250,-9.66652,1.46189,0.893851,0.25776,0.20032,0.14479
1702328728039062,-9.68452,1.69189,0.893851,0.28376,0.20232,0.17879
1702328728046875,-9.68152,1.64189,0.913851,0.30076,0.25232,0.11379
1702328728054687,-9.68152,1.60189,0.906851,0.26576,0.20532,0.9979
1702328728062500,-9.68152,1.65189,0.881851,0.19476,0.19432,0.13479
1702328728070312,-9.68852,1.51189,0.873851,0.21776,0.22132,0.14879
1702328728078125,-9.69752,1.47189,0.891851,0.21776,0.32032,0.11679
1702328728085937,-9.68552,1.40189,0.906851,0.28276,0.33532,0.9979
1702328728093750,-9.68052,1.23189,0.906851,0.24076,0.39032,0.11979
1702328728101562,-9.68552,1.9189,0.895851,0.37476,0.36932,0.9979
1702328728109375,-9.69252,1.10189,0.886851,0.43176,0.34032,0.11679
1702328728117187,-9.68052,1.3189,0.897851,0.33376,0.37632,0.10279
1702328728125000,-9.67852,1.14189,0.882851,0.39976,0.42232,0.11779
1702328728132812,-9.68152,1.29189,0.888851,0.37376,0.25632,0.9879
1702328728140625,-9.67652,1.40189,0.877851,0.45176,0.25632,0.11479
1702328728148437,-9.68352,1.63189,0.888851,0.39876,0.32532,0.10179
1702328728156250,-9.68152,1.56189,0.882851,0.41776,0.33932,0.13179
1702328728164062,-9.68152,1.49189,0.877851,0.47376,0.38232,0.11279
1702328728171875,-9.69052,1.47189,0.881851,0.44576,0.34232,0.11679
1702328728179687,-9.71052,1.43189,0.884851,0.46076,0.37432,0.13379
1702328728187500,-9.71252,1.43189,0.877851,0.44676,0.42232,0.10079
1702328728195312,-9.69952,1.36189,0.868851,0.49776,0.37132,0.11479
1702328728203125,-9.69252,1.34189,0.868851,0.50076,0.46632,0.11379
1702328728210937,-9.68352,1.40189,0.861851,0.45076,0.45232,0.9979
1702328728218750,-9.68152,1.49189,0.870851,0.47176,0.39932,0.12979
1702328728226562,-9.67952,1.62189,0.877851,0.45176,0.40232,0.16279
1702328728234375,-9.66852,1.60189,0.861851,0.45076,0.41832,0.19579
1702328728242187,-9.67752,1.65189,0.855851,0.46576,0.35432,0.14679
1702328728250000,-9.69152,1.83189,0.866851,0.48176,0.46932,0.13179
1702328728257812,-9.69152,1.80189,0.870851,0.45176,0.43532,0.14779
1702328728265625,-9.70252,1.85189,0.877851,0.46476,0.40332,0.21179
1702328728273437,-9.68452,1.83189,0.868851,0.46376,0.45432,0.11679
1702328728281250,-9.67752,1.80189,0.875851,0.43176,0.48532,0.22879
1702328728289062,-9.68152,1.85189,0.866851,0.41276,0.45632,0.11879
1702328728296875,-9.68252,1.94189,0.852851,0.41276,0.47332,0.13479
1702328728304687,-9.65952,1.100189,0.852851,0.41676,0.45432,0.11679
1702328728312500,-9.67752,1.118189,0.872851,0.32876,0.50932,0.10579
1702328728320312,-9.68452,1.116189,0.888851,0.38976,0.43532,0.11579
1702328728328125,-9.68252,1.116189,0.884851,0.38576,0.43732,0.10079
1702328728335937,-9.67752,1.98189,0.873851,0.42076,0.41832,0.11579
1702328728343750,-9.68252,1.100189,0.875851,0.37076,0.43732,0.10179
1702328728351562,-9.68652,1.91189,0.870851,0.30876,0.46832,0.13379
1702328728359375,-9.67952,1.98189,0.882851,0.21276,0.47032,0.13579
1702328728367187,-9.68052,1.100189,0.884851,0.27576,0.43732,0.13479
1702328728375000,-9.68252,1.96189,0.881851,0.26976,0.42532,0.13679
1702328728382812,-9.68252,1.98189,0.882851,0.26076,0.42132,0.11879
1702328728390625,-9.67752,1.98189,0.875851,0.26076,0.46832,0.18279
1702328728398437,-9.68252,1.91189,0.884851,0.19476,0.45432,0.18479
1702328728406250,-9.68252,1.91189,0.882851,0.20176,0.46532,0.19779
1702328728414062,-9.65552,1.84189,0.891851,0.21476,0.45232,0.15079
1702328728421875,-9.65252,1.73189,0.895851,0.27776,0.40332,0.11779
1702328728429687,-9.65252,1.75189,0.893851,0.23276,0.45132,0.13379
1702328728437500,-9.64852,1.77189,0.895851,0.20076,0.46732,0.15079
1702328728445312,-9.65952,1.82189,0.891851,0.23076,0.43632,0.11879
1702328728453125,-9.67052,1.78189,0.904851,0.27676,0.38632,0.19779
1702328728460937,-9.67952,1.80189,0.909851,0.22376,0.50532,0.15279
1702328728468750,-9.67352,1.91189,0.920851,0.26476,0.49832,0.16579
1702328728476562,-9.68652,1.93189,0.911851,0.21776,0.44932,0.18179
1702328728484375,-9.68952,1.100189,0.904851,0.21076,0.46032,0.11479
1702328728492187,-9.67952,1.96189,0.904851,0.19576,0.45332,0.18379
1702328728500000,-9.66852,1.100189,0.909851,0.21876,0.46432,0.21379
1702328728507812,-9.66452,1.104189,0.927851,0.19976,0.45032,0.18279
1702328728515625,-9.66952,1.131189,0.927851,0.20976,0.45432,0.21679
1702328728523437,-9.68052,1.118189,0.911851,0.18176,0.40432,0.13579
1702328728531250,-9.67352,1.115189,0.895851,0.18976,0.44832,0.10079
1702328728539062,-9.68552,1.120189,0.895851,0.23676,0.41432,0.19579
1702328728546875,-9.68252,1.129189,0.916851,0.12476,0.49832,0.13479
1702328728554687,-9.68052,1.133189,0.913851,0.8976,0.46832,0.10379
1702328728562500,-9.67652,1.126189,0.877851,0.11076,0.46432,0.14979
1702328728570312,-9.66652,1.117189,0.857851,0.4576,0.46532,0.13579
1702328728578125,-9.66652,1.115189,0.870851,0.10776,0.53132,0.16779
1702328728585937,-9.68452,1.111189,0.900851,0.16676,0.58332,0.13579
1702328728593750,-9.68252,1.102189,0.920851,0.2476,0.55132,0.10579
1702328728601562,-9.68452,1.100189,0.909851,0.9376,0.46632,0.10279
1702328728609375,-9.68252,1.82189,0.888851,0.12176,0.51732,0.7179
1702328728617187,-9.69052,1.60189,0.895851,0.2676,0.50132,0.10479
1702328728625000,-9.69952,1.70189,0.913851,0.6376,0.62132,0.17279
1702328728632812,-9.69752,1.79189,0.929851,0.1624,0.54232,0.9379
1702328728640625,-9.67752,1.96189,0.940851,0.2424,0.50332,0.13879
1702328728648437,-9.65752,1.106189,0.943851,0.7676,0.53132,0.13579
1702328728656250,-9.64252,1.117189,0.945851,0.1076,0.56632,0.8979
1702328728664062,-9.64452,1.120189,0.929851,0.6024,0.50632,0.17279
1702328728671875,-9.63352,1.117189,0.924851,0.3924,0.47132,0.12279
1702328728679687,-9.61252,1.113189,0.915851,0.4224,0.53732,0.15679
1702328728687500,-9.61252,1.93189,0.924851,0.5724,0.53732,0.10779
1702328728695312,-9.62352,1.95189,0.936851,0.8824,0.48732,0.20379
1702328728703125,-9.63052,1.80189,0.965851,0.4624,0.44232,0.15679
1702328728710937,-9.62752,1.62189,0.960851,0.2324,0.42032,0.20179
1702328728718750,-9.63852,1.64189,0.949851,0.5924,0.37332,0.23579
1702328728726562,-9.65452,1.62189,0.940851,0.2524,0.47032,0.17079
1702328728734375,-9.65852,1.54189,0.945851,0.4124,0.45532,0.12379
1702328728742187,-9.68352,1.54189,0.942851,0.5824,0.40632,0.18779
1702328728750000,-9.68852,1.49189,0.933851,0.4024,0.45432,0.13879
1702328728757812,-9.69552,1.67189,0.956851,0.5924,0.47232,0.20479
1702328728765625,-9.68452,1.76189,0.963851,0.3724,0.46932,0.12179
1702328728773437,-9.67552,1.83189,0.960851,0.4524,0.45732,0.20479
1702328728781250,-9.66652,1.94189,0.940851,0.376,0.45532,0.18779
1702328728789062,-9.65752,1.97189,0.924851,0.4276,0.40132,0.21579
1702328728796875,-9.64652,1.100189,0.927851,0.6824,0.45132,0.18579
1702328728804687,-9.64152,1.97189,0.945851,0.0,0.44932,0.13579
1702328728812500,-9.62652,1.99189,0.949851,0.524,0.46832,0.16979
1702328728820312,-9.64552,1.78189,0.956851,0.7176,0.42032,0.13679
1702328728828125,-9.66352,1.60189,0.954851,0.2576,0.45132,0.16879
1702328728835937,-9.66852,1.62189,0.958851,0.4376,0.41732,0.15179
1702328728843750,-9.67252,1.42189,0.960851,0.10476,0.27132,0.21479
1702328728851562,-9.68152,1.43189,0.963851,0.14876,0.29132,0.16779
1702328728859375,-9.66752,1.29189,0.960851,0.14976,0.27332,0.19879
1702328728867187,-9.66552,1.36189,0.933851,0.16776,0.23932,0.19779
1702328728875000,-9.65952,1.56189,0.931851,0.16376,0.30732,0.18379
1702328728882812,-9.66352,1.64189,0.933851,0.21376,0.27132,0.26179
1702328728890625,-9.66352,1.69189,0.929851,0.19376,0.29032,0.24779
1702328728898437,-9.67052,1.82189,0.931851,0.21076,0.30732,0.19979
1702328728906250,-9.68452,1.69189,0.918851,0.21576,0.27032,0.22979
1702328728914062,-9.68652,1.74189,0.927851,0.19976,0.28632,0.24579
1702328728921875,-9.67952,1.78189,0.940851,0.21976,0.31732,0.22879
1702328728929687,-9.67952,1.69189,0.949851,0.17876,0.33932,0.23179
1702328728937500,-9.67752,1.74189,0.960851,0.19576,0.28932,0.24679
1702328728945312,-9.67352,1.78189,0.956851,0.21576,0.31932,0.22979
1702328728953125,-9.66452,1.80189,0.952851,0.21776,0.30132,0.24479
1702328728960937,-9.67952,1.85189,0.951851,0.19676,0.28932,0.21479
1702328728968750,-9.68952,1.93189,0.963851,0.21776,0.23632,0.22879
1702328728976562,-9.68952,1.102189,0.981851,0.18476,0.28632,0.21379
1702328728984375,-9.68852,1.92189,0.963851,0.19676,0.24232,0.15079
1702328728992187,-9.69052,1.76189,0.960851,0.21676,0.22132,0.19679
1702328729000000,-9.68352,1.63189,0.956851,0.19576,0.27432,0.16679
1702328729007812,-9.67752,1.60189,0.958851,0.20976,0.27632,0.18379
1702328729015625,-9.67052,1.56189,0.938851,0.19876,0.19132,0.14979
1702328729023437,-9.66852,1.56189,0.918851,0.19676,0.22532,0.13479
1702328729031250,-9.67752,1.60189,0.906851,0.19376,0.22632,0.18379
1702328729039062,-9.67952,1.63189,0.899851,0.19376,0.25932,0.19979
1702328729046875,-9.67952,1.65189,0.893851,0.21276,0.33832,0.19879
1702328729054687,-9.67452,1.49189,0.902851,0.19876,0.30432,0.21479
1702328729062500,-9.69252,1.56189,0.895851,0.21376,0.28932,0.16679
1702328729070312,-9.68152,1.47189,0.891851,0.20576,0.29932,0.24379
1702328729078125,-9.67952,1.56189,0.891851,0.21176,0.30532,0.23079
1702328729085937,-9.68152,1.56189,0.904851,0.17576,0.40632,0.23379
1702328729093750,-9.68152,1.63189,0.933851,0.19676,0.37132,0.16679
1702328729101562,-9.68652,1.51189,0.943851,0.21876,0.38432,0.16479
1702328729109375,-9.69952,1.47189,0.945851,0.20176,0.33632,0.14979
1702328729117187,-9.69952,1.45189,0.942851,0.21576,0.35432,0.11779
1702328729125000,-9.69452,1.54189,0.940851,0.19576,0.38932,0.15179
1702328729132812,-9.68552,1.49189,0.938851,0.21276,0.45332,0.16779
1702328729140625,-9.69752,1.56189,0.931851,0.22376,0.43932,0.20079
1702328729148437,-9.69252,1.54189,0.922851,0.19776,0.45232,0.18279
1702328729156250,-9.67252,1.54189,0.918851,0.21176,0.48632,0.19979
1702328729164062,-9.66852,1.55189,0.902851,0.20376,0.38432,0.11679
1702328729171875,-9.67952,1.62189,0.913851,0.21776,0.38332,0.21379
1702328729179687,-9.67552,1.64189,0.907851,0.20576,0.46332,0.18079
1702328729187500,-9.69552,1.63189,0.897851,0.14676,0.45632,0.13779
1702328729195312,-9.69952,1.65189,0.886851,0.19876,0.43732,0.8679
1702328729203125,-9.67752,1.63189,0.888851,0.19276,0.45632,0.15279
1702328729210937,-9.65952,1.75189,0.906851,0.21276,0.48632,0.13579
1702328729218750,-9.64352,1.100189,0.918851,0.19276,0.47232,0.16879
1702328729226562,-9.61952,1.95189,0.918851,0.18776,0.38432,0.14979
1702328729234375,-9.61252,1.106189,0.922851,0.19776,0.37032,0.23079
1702328729242187,-9.60852,1.117189,0.924851,0.18376,0.37032,0.16679
1702328729250000,-9.62852,1.102189,0.958851,0.14376,0.39132,0.20179
1702328729257812,-9.64152,1.84189,0.949851,0.16576,0.25832,0.11879
1702328729265625,-9.66352,1.80189,0.924851,0.14776,0.30832,0.10379
1702328729273437,-9.68152,1.58189,0.904851,0.19876,0.19132,0.13379
1702328729281250,-9.68852,1.63189,0.900851,0.16776,0.27332,0.11879
1702328729289062,-9.70152,1.61189,0.913851,0.15176,0.24032,0.11879
1702328729296875,-9.69252,1.58189,0.904851,0.16476,0.27432,0.13479
1702328729304687,-9.67452,1.67189,0.884851,0.10276,0.29132,0.10379
1702328729312500,-9.66352,1.67189,0.888851,0.2324,0.25732,0.16979
1702328729320312,-9.67552,1.78189,0.906851,0.8476,0.30732,0.20079
1702328729328125,-9.67752,1.82189,0.922851,0.5776,0.38632,0.16779
1702328729335937,-9.68452,1.78189,0.924851,0.2676,0.35332,0.18479
1702328729343750,-9.67952,1.69189,0.915851,0.4276,0.33732,0.15179
1702328729351562,-9.69052,1.65189,0.904851,0.6876,0.32532,0.12079
1702328729359375,-9.69752,1.56189,0.915851,0.2576,0.33832,0.10479
1702328729367187,-9.68152,1.45189,0.931851,0.9176,0.36832,0.13479
1702328729375000,-9.66752,1.45189,0.949851,0.5476,0.35632,0.12079
1702328729382812,-9.66152,1.33189,0.949851,0.5876,0.32132,0.15179
1702328729390625,-9.65652,1.40189,0.936851,0.15876,0.33232,0.21279
1702328729398437,-9.64552,1.42189,0.931851,0.18576,0.31932,0.16579
1702328729406250,-9.63452,1.46189,0.938851,0.21476,0.33732,0.19779
1702328729414062,-9.64952,1.47189,0.953851,0.20776,0.29332,0.16879
1702328729421875,-9.65652,1.45189,0.960851,0.17776,0.27632,0.16779
1702328729429687,-9.67052,1.54189,0.960851,0.18176,0.30632,0.16679
1702328729437500,-9.66152,1.64189,0.942851,0.16676,0.22432,0.16679
1702328729445312,-9.66352,1.62189,0.942851,0.21476,0.23932,0.21379
1702328729453125,-9.69052,1.63189,0.936851,0.15076,0.27132,0.24679
1702328729460937,-9.69452,1.66189,0.944851,0.17076,0.26432,0.17079
1702328729468750,-9.67752,1.60189,0.947851,0.21276,0.28932,0.21479
1702328729476562,-9.65652,1.62189,0.954851,0.17876,0.29032,0.24779
1702328729484375,-9.65652,1.67189,0.949851,0.19176,0.35732,0.24879
1702328729492187,-9.66652,1.76189,0.960851,0.19576,0.19232,0.21479
1702328729500000,-9.66352,1.76189,0.942851,0.13276,0.27432,0.19979
1702328729507812,-9.66352,1.64189,0.954851,0.19676,0.25632,0.23079
1702328729515625,-9.67052,1.62189,0.965851,0.16776,0.18932,0.22979
1702328729523437,-9.67952,1.45189,0.958851,0.15276,0.28832,0.18279
1702328729531250,-9.68352,1.47189,0.963851,0.12076,0.20732,0.11879
1702328729539062,-9.67652,1.45189,0.960851,0.8676,0.19232,0.18379
1702328729546875,-9.67052,1.54189,0.956851,0.8576,0.20832,0.21579
1702328729554687,-9.66552,1.62189,0.940851,0.15176,0.18932,0.24579
1702328729562500,-9.66352,1.64189,0.940851,0.7376,0.22232,0.19879
1702328729570312,-9.65952,1.58189,0.945851,0.12176,0.25532,0.16679
1702328729578125,-9.66352,1.65189,0.954851,0.16176,0.24332,0.21579
1702328729585937,-9.66352,1.53189,0.956851,0.13476,0.28932,0.19979
1702328729593750,-9.66552,1.42189,0.942851,0.11576,0.25732,0.24879
1702328729601562,-9.67052,1.56189,0.945851,0.14576,0.27532,0.21679
1702328729609375,-9.66752,1.52189,0.944851,0.15776,0.27832,0.23379
1702328729617187,-9.67652,1.49189,0.938851,0.17976,0.19232,0.23079
1702328729625000,-9.67952,1.63189,0.947851,0.18076,0.22532,0.16679
1702328729632812,-9.68452,1.71189,0.936851,0.14076,0.23632,0.16479
1702328729640625,-9.68152,1.80189,0.920851,0.17776,0.19432,0.19979
1702328729648437,-9.68352,1.63189,0.913851,0.17676,0.21332,0.8879
1702328729656250,-9.67752,1.78189,0.906851,0.19376,0.21032,0.19979
1702328729664062,-9.67252,1.87189,0.904851,0.14876,0.27432,0.16779
1702328729671875,-9.68252,1.85189,0.909851,0.10476,0.32032,0.18379
1702328729679687,-9.68152,1.76189,0.906851,0.21776,0.22132,0.14879
1702328729687500,-9.67752,1.71189,0.913851,0.15576,0.23832,0.10079
1702328729695312,-9.66752,1.63189,0.906851,0.18976,0.21332,0.18479
1702328729703125,-9.66352,1.56189,0.904851,0.14476,0.27732,0.18479
1702328729710937,-9.66552,1.47189,0.904851,0.10376,0.33832,0.16779
1702328729718750,-9.64752,1.38189,0.904851,0.17976,0.32332,0.16779
1702328729726562,-9.64552,1.37189,0.895851,0.16876,0.30332,0.21379
1702328729734375,-9.65452,1.46189,0.886851,0.20076,0.28632,0.22979
1702328729742187,-9.65452,1.40189,0.888851,0.21176,0.27432,0.16679
1702328729750000,-9.68352,1.44189,0.868851,0.20476,0.30032,0.17979
1702328729757812,-9.69052,1.45189,0.870851,0.21276,0.22532,0.13479
1702328729765625,-9.69752,1.49189,0.870851,0.17076,0.28732,0.11679
1702328729773437,-9.70452,1.56189,0.868851,0.17276,0.23632,0.14879
1702328729781250,-9.71752,1.41189,0.877851,0.21676,0.32132,0.10179
1702328729789062,-9.73052,1.30189,0.888851,0.19976,0.32132,0.16579
1702328729796875,-9.72652,1.30189,0.882851,0.20876,0.37232,0.24779
1702328729804687,-9.70352,1.30189,0.897851,0.19176,0.40632,0.21679
1702328729812500,-9.68352,1.31189,0.906851,0.21576,0.32132,0.13379
1702328729820312,-9.65852,1.47189,0.915851,0.19176,0.34232,0.16879
1702328729828125,-9.65952,1.60189,0.906851,0.21276,0.33832,0.18279
1702328729835937,-9.64752,1.57189,0.895851,0.21676,0.36932,0.14979
1702328729843750,-9.65452,1.51189,0.900851,0.28476,0.26632,0.19479
1702328729851562,-9.66152,1.53189,0.902851,0.30276,0.20132,0.14579
1702328729859375,-9.66352,1.53189,0.868851,0.25776,0.19832,0.19279
1702328729867187,-9.66652,1.59189,0.868851,0.25676,0.19932,0.19379
1702328729875000,-9.66852,1.60189,0.863851,0.28676,0.21032,0.26279
1702328729882812,-9.65452,1.71189,0.854851,0.23876,0.19532,0.19979
1702328729890625,-9.66652,1.82189,0.839851,0.21076,0.20932,0.23079
1702328729898437,-9.67552,1.85189,0.834851,0.22776,0.19232,0.14979
1702328729906250,-9.67252,1.83189,0.827851,0.25576,0.21032,0.21479
1702328729914062,-9.68152,1.81189,0.823851,0.23576,0.19832,0.18479
1702328729921875,-9.69752,1.67189,0.836851,0.19576,0.30732,0.15079
1702328729929687,-9.70152,1.57189,0.838851,0.19676,0.34932,0.20479
1702328729937500,-9.70152,1.52189,0.852851,0.19676,0.30532,0.21479
1702328729945312,-9.69052,1.58189,0.864851,0.19676,0.27432,0.11879
1702328729953125,-9.67252,1.62189,0.861851,0.21876,0.27132,0.10079
1702328729960937,-9.65452,1.60189,0.875851,0.25376,0.30132,0.11479
1702328729968750,-9.66152,1.58189,0.870851,0.25576,0.27732,0.11979
1702328729976562,-9.67752,1.60189,0.868851,0.21576,0.28832,0.16579
1702328729984375,-9.67952,1.60189,0.866851,0.20276,0.23832,0.11679
1702328729992187,-9.68152,1.60189,0.870851,0.19876,0.32232,0.10279
1702328730000000,-9.67252,1.69189,0.868851,0.21376,0.32232,0.13479
1702328730007812,-9.67952,1.74189,0.870851,0.25576,0.19532,0.16679
1702328730015625,-9.67952,1.69189,0.859851,0.28076,0.23832,0.16379
1702328730023437,-9.68252,1.80189,0.855851,0.25276,0.18632,0.16279
1702328730031250,-9.68652,1.76189,0.850851,0.19576,0.27432,0.16679
1702328730039062,-9.68652,1.75189,0.857851,0.22676,0.34632,0.14579
1702328730046875,-9.68452,1.62189,0.884851,0.20076,0.28732,0.19779
1702328730054687,-9.68152,1.65189,0.870851,0.21576,0.33632,0.22979
1702328730062500,-9.68252,1.62189,0.859851,0.20976,0.19932,0.17779
1702328730070312,-9.67052,1.64189,0.862851,0.25776,0.24732,0.20979
1702328730078125,-9.67352,1.62189,0.871851,0.25576,0.21632,0.20979
1702328730085937,-9.66452,1.73189,0.873851,0.20876,0.26532,0.19479
1702328730093750,-9.66352,1.71189,0.861851,0.24676,0.23932,0.18079
1702328730101562,-9.66652,1.64189,0.837851,0.23376,0.20532,0.14779
1702328730109375,-9.68652,1.78189,0.825851,0.20576,0.20232,0.17979
1702328730117187,-9.69952,1.76189,0.843851,0.21376,0.19132,0.19779
1702328730125000,-9.69752,1.61189,0.843851,0.19876,0.20832,0.11779
1702328730132812,-9.70152,1.61189,0.859851,0.19776,0.35532,0.11879
1702328730140625,-9.70152,1.54189,0.864851,0.21076,0.30732,0.18379
1702328730148437,-9.69252,1.43189,0.854851,0.19476,0.35832,0.11979
1702328730156250,-9.67652,1.45189,0.875851,0.21176,0.29132,0.13479
1702328730164062,-9.66952,1.49189,0.879851,0.23676,0.41032,0.12179
1702328730171875,-9.66552,1.63189,0.890851,0.22376,0.37532,0.13679
1702328730179687,-9.66552,1.64189,0.884851,0.19776,0.30632,0.15079
1702328730187500,-9.65952,1.82189,0.879851,0.25976,0.28932,0.19779
1702328730195312,-9.66352,1.82189,0.866851,0.21076,0.22532,0.23079
1702328730203125,-9.66252,1.82189,0.853851,0.22276,0.23332,0.19479
1702328730210937,-9.67752,1.76189,0.843851,0.20276,0.28732,0.8479
1702328730218750,-9.69752,1.62189,0.837851,0.20876,0.28132,0.17879
1702328730226562,-9.69952,1.60189,0.841851,0.22076,0.31732,0.17979
1702328730234375,-9.68852,1.51189,0.850851,0.20876,0.21632,0.19379
1702328730242187,-9.69252,1.47189,0.850851,0.21976,0.33332,0.19579
1702328730250000,-9.68852,1.56189,0.841851,0.23276,0.27032,0.16479
1702328730257812,-9.69552,1.63189,0.823851,0.19576,0.30732,0.16779
1702328730265625,-9.69952,1.65189,0.821851,0.20376,0.33532,0.13279
1702328730273437,-9.69052,1.72189,0.834851,0.21276,0.34032,0.10279
1702328730281250,-9.68652,1.89189,0.825851,0.18076,0.43832,0.10379
1702328730289062,-9.68452,1.78189,0.850851,0.19876,0.35332,0.16679
1702328730296875,-9.67952,1.82189,0.843851,0.21676,0.36832,0.18179
1702328730304687,-9.65752,1.73189,0.846851,0.21476,0.38632,0.16679
1702328730312500,-9.65452,1.71189,0.837851,0.18476,0.43432,0.18279
1702328730320312,-9.66352,1.69189,0.846851,0.20376,0.36732,0.13279
1702328730328125,-9.66352,1.62189,0.848851,0.21376,0.28932,0.13379
1702328730335937,-9.66352,1.62189,0.857851,0.18476,0.38632,0.10279
1702328730343750,-9.67052,1.69189,0.852851,0.14976,0.37332,0.7179
1702328730351562,-9.68252,1.71189,0.846851,0.18976,0.25132,0.16379
1702328730359375,-9.67052,1.56189,0.834851,0.17876,0.21032,0.18379
1702328730367187,-9.68152,1.67189,0.825851,0.20276,0.20532,0.11579
1702328730375000,-9.67752,1.67189,0.837851,0.21576,0.30432,0.13379
1702328730382812,-9.67052,1.76189,0.845851,0.20976,0.27632,0.18379
1702328730390625,-9.67052,1.78189,0.850851,0.15376,0.33732,0.10279
1702328730398437,-9.67952,1.58189,0.830851,0.16276,0.30832,0.13579
1702328730406250,-9.69052,1.60189,0.821851,0.18576,0.27032,0.16479
1702328730414062,-9.68152,1.62189,0.832851,0.9176,0.30332,0.16679
1702328730421875,-9.68452,1.64189,0.832851,0.10876,0.33432,0.18179
1702328730429687,-9.67952,1.58189,0.819851,0.16676,0.27332,0.15079
1702328730437500,-9.68552,1.52189,0.823851,0.13276,0.30732,0.18379
1702328730445312,-9.68852,1.54189,0.830851,0.14976,0.34032,0.10379
1702328730453125,-9.68152,1.52189,0.834851,0.7876,0.32932,0.15579
1702328730460937,-9.68152,1.49189,0.848851,0.17376,0.33332,0.18079
1702328730468750,-9.68152,1.49189,0.835851,0.20976,0.29832,0.11379
1702328730476562,-9.68352,1.53189,0.837851,0.15376,0.31932,0.19779
1702328730484375,-9.67952,1.60189,0.841851,0.19476,0.34032,0.19979
1702328730492187,-9.66352,1.62189,0.841851,0.20176,0.31932,0.14979
1702328730500000,-9.67952,1.65189,0.843851,0.18276,0.24032,0.13379
1702328730507812,-9.68152,1.62189,0.843851,0.7776,0.26932,0.16579
1702328730515625,-9.67952,1.58189,0.837851,0.16876,0.23732,0.24579
1702328730523437,-9.68152,1.56189,0.830851,0.21776,0.28532,0.22879
1702328730531250,-9.68152,1.38189,0.841851,0.20076,0.33632,0.19779
1702328730539062,-9.68152,1.40189,0.834851,0.18776,0.26932,0.16479
1702328730546875,-9.69052,1.43189,0.818851,0.21376,0.25832,0.8679
1702328730554687,-9.68852,1.54189,0.800851,0.19976,0.19132,0.11779
1702328730562500,-9.68652,1.49189,0.794851,0.20176,0.25432,0.14879
1702328730570312,-9.69752,1.45189,0.778851,0.23076,0.30432,0.16579
1702328730578125,-9.70152,1.50189,0.785851,0.27376,0.30732,0.16679
1702328730585937,-9.70852,1.47189,0.800851,0.30576,0.37132,0.24679
1702328730593750,-9.69752,1.40189,0.805851,0.30876,0.43432,0.22979
1702328730601562,-9.69752,1.58189,0.816851,0.21476,0.49932,0.21479
1702328730609375,-9.68452,1.69189,0.855851,0.24776,0.48232,0.21379
1702328730617187,-9.68252,1.89189,0.884851,0.24176,0.55132,0.23279
1702328730625000,-9.68052,1.100189,0.918851,0.19576,0.48632,0.18379
1702328730632812,-9.68052,1.104189,0.922851,0.18376,0.46732,0.21479
1702328730640625,-9.68252,1.96189,0.900851,0.16776,0.41932,0.15079
1702328730648437,-9.66852,1.104189,0.870851,0.19776,0.41932,0.23079
1702328730656250,-9.66852,1.100189,0.864851,0.18176,0.35332,0.24679
1702328730664062,-9.66452,1.80189,0.839851,0.21676,0.36732,0.24579
1702328730671875,-9.65952,1.62189,0.830851,0.16676,0.41932,0.19979
1702328730679687,-9.63852,1.33189,0.832851,0.14076,0.43132,0.22979
1702328730687500,-9.62752,1.26189,0.846851,0.19076,0.31532,0.19579
1702328730695312,-9.63352,1.19189,0.843851,0.13876,0.23732,0.18179
1702328730703125,-9.65452,1.26189,0.825851,0.17476,0.21932,0.13179
1702328730710937,-9.68152,1.25189,0.812851,0.16976,0.32132,0.10179
1702328730718750,-9.71252,1.36189,0.805851,0.18476,0.35432,0.11779
1702328730726562,-9.72652,1.41189,0.819851,0.21576,0.40332,0.10179
1702328730734375,-9.73552,1.34189,0.848851,0.19076,0.36632,0.9979
1702328730742187,-9.72852,1.28189,0.848851,0.8976,0.46832,0.13579
1702328730750000,-9.71752,1.30189,0.848851,0.18476,0.35232,0.21379
1702328730757812,-9.71752,1.36189,0.843851,0.13376,0.38732,0.19979
1702328730765625,-9.71752,1.21189,0.839851,0.20076,0.36832,0.19779
1702328730773437,-9.71452,1.28189,0.834851,0.14976,0.42032,0.16779
1702328730781250,-9.69252,1.27189,0.832851,0.17876,0.45432,0.20079
1702328730789062,-9.67452,1.38189,0.850851,0.20776,0.45632,0.21779
1702328730796875,-9.66152,1.42189,0.850851,0.21976,0.38232,0.19679
1702328730804687,-9.65452,1.60189,0.848851,0.17876,0.37232,0.19979
1702328730812500,-9.66152,1.69189,0.848851,0.20376,0.31832,0.14879
1702328730820312,-9.68452,1.76189,0.850851,0.21076,0.32232,0.26279
1702328730828125,-9.68452,1.71189,0.828851,0.21376,0.30432,0.21379
1702328730835937,-9.71052,1.79189,0.789851,0.18976,0.45732,0.23379
1702328730843750,-9.71752,1.72189,0.782851,0.21176,0.42032,0.19979
1702328730851562,-9.72652,1.83189,0.794851,0.14776,0.38932,0.18479
1702328730859375,-9.71152,1.92189,0.814851,0.4576,0.46532,0.13579
1702328730867187,-9.70052,1.94189,0.848851,0.5176,0.45632,0.15479
1702328730875000,-9.68652,1.98189,0.868851,0.17376,0.48132,0.10079
1702328730882812,-9.68252,1.100189,0.893851,0.10376,0.50132,0.20079
1702328730890625,-9.68252,1.98189,0.889851,0.7976,0.52832,0.21479
1702328730898437,-9.65952,1.87189,0.888851,0.5376,0.53632,0.15479
1702328730906250,-9.65952,1.89189,0.886851,0.1824,0.53232,0.12079
1702328730914062,-9.65352,1.102189,0.888851,0.5024,0.48332,0.13679
1702328730921875,-9.65552,1.101189,0.889851,0.2824,0.42832,0.23079
1702328730929687,-9.66452,1.98189,0.857851,0.5824,0.47032,0.25179
1702328730937500,-9.67352,1.91189,0.821851,0.3924,0.46932,0.18679
1702328730945312,-9.67552,1.78189,0.798851,0.6424,0.35032,0.18379
1702328730953125,-9.67652,1.47189,0.812851,0.5524,0.32532,0.9079
1702328730960937,-9.68552,1.29189,0.825851,0.3024,0.36732,0.7079
1702328730968750,-9.67852,1.16189,0.852851,0.3124,0.46532,0.10379
