time,Acceleration X (m/s^2),Acceleration Y (m/s^2),Acceleration Z (m/s^2),Angular Velocity X (rad/s),Angular Velocity Y (rad/s),Angular Velocity Z (rad/s)
1696784160539062,-9.748869,1.724121,-0.02109,,,
1696784160546875,-9.750869,1.742121,0.195396,0.122419,0.2129,0.36356
1696784160554687,-9.737869,1.757121,0.174396,0.142719,0.3019,0.25256
1696784160562500,-9.699869,1.765121,0.161396,0.141719,0.3539,0.19956
1696784160570312,-9.690869,1.748121,0.172396,0.147419,0.3619,0.29856
1696784160578125,-9.672869,1.716121,0.163396,0.143219,0.2579,0.23156
1696784160593750,-9.648869,1.681121,0.136396,0.117519,0.2979,0.36656
1696784160601562,-9.665869,1.700121,0.170396,0.119419,0.3189,0.42656
1696784160609375,-9.678869,1.701121,0.213396,0.107719,0.5249,0.49756
1696784160617187,-9.676869,1.701121,0.240396,0.92219,0.6159,0.52956
1696784160640625,-9.695869,1.659121,0.258396,0.91919,0.8489,0.50056
1696784160648437,-9.643869,1.634121,0.334396,0.93519,0.9469,0.45256
1696784160656250,-9.634869,1.638121,0.370396,0.100219,0.8439,0.36856
1696784160664062,-9.639869,1.683121,0.395396,0.103219,0.7019,0.41756
1696784160671875,-9.618869,1.733121,0.454396,0.97219,0.5909,0.27356
1696784160679687,-9.598869,1.744121,0.524396,0.83419,0.5989,0.23956
1696784160687500,-9.553869,1.739121,0.530396,0.56919,0.5819,0.19456
1696784160695312,-9.524869,1.734121,0.510396,0.22519,0.5319,0.16556
1696784160703125,-9.504869,1.787121,0.501396,0.981,0.3039,0.21556
1696784160710937,-9.514869,1.843121,0.472396,0.21781,0.2319,0.22156
1696784160718750,-9.530869,1.890121,0.463396,0.32581,0.969,0.25256
1696784160726562,-9.576869,1.932121,0.483396,0.45181,0.299,0.33356
1696784160734375,-9.630869,1.944121,0.539396,0.62281,0.711,0.33356
1696784160742187,-9.673869,1.956121,0.551396,0.76181,0.1431,0.38056
1696784160750000,-9.704869,1.950121,0.573396,0.87481,0.1901,0.51156
1696784160757812,-9.697869,1.921121,0.542396,0.106081,0.2921,0.49556
1696784160765625,-9.609869,1.871121,0.492396,0.114281,0.3491,0.51556
1696784160773437,-9.509869,1.829121,0.494396,0.126481,0.4691,0.48156
1696784160781250,-9.400869,1.772121,0.451396,0.129481,0.5111,0.30756
1696784160789062,-9.271869,1.666121,0.395396,0.110381,0.5771,0.22356
1696784160796875,-9.213869,1.583121,0.348396,0.87481,0.7481,0.4144
1696784160804687,-9.257869,1.519121,0.255396,0.42981,0.10051,0.32044
1696784160812500,-9.342869,1.449121,0.215396,0.1981,0.12151,0.39044
1696784160820312,-9.453869,1.387121,0.244396,0.24819,0.12311,0.44144
1696784160828125,-9.562869,1.322121,0.300396,0.45119,0.12491,0.39644
1696784160835937,-9.649869,1.254121,0.278396,0.40319,0.11331,0.39444
1696784160843750,-9.690869,1.164121,0.233396,0.43319,0.9721,0.34644
1696784160851562,-9.727869,1.76121,0.219396,0.54119,0.9851,0.31444
1696784160859375,-9.776869,1.41121,0.266396,0.69519,0.9331,0.23444
1696784160867187,-9.783869,1.55121,0.359396,0.68019,0.10051,0.10844
1696784160875000,-9.805869,1.42121,0.456396,0.69219,0.9041,0.2544
1696784160882812,-9.805869,1.35121,0.494396,0.50519,0.8131,0.656
1696784160890625,-9.776869,1.39121,0.478396,0.42319,0.7411,0.2656
1696784160898437,-9.749869,1.65121,0.462396,0.43919,0.7081,0.2144
1696784160906250,-9.732869,1.94121,0.467396,0.44219,0.7111,0.7144
1696784160914062,-9.737869,1.138121,0.451396,0.67919,0.6761,0.21744
1696784160921875,-9.713869,1.164121,0.415396,0.82219,0.6931,0.25244
1696784160929687,-9.697869,1.182121,0.366396,0.93319,0.6641,0.30344
1696784160937500,-9.701869,1.171121,0.255396,0.97919,0.5871,0.46044
1696784160945312,-9.695869,1.211121,0.176396,0.110519,0.3961,0.42944
1696784160953125,-9.656869,1.254121,0.185396,0.114019,0.3991,0.54444
1696784160960937,-9.603869,1.340121,0.224396,0.114119,0.3951,0.68744
1696784160968750,-9.524869,1.439121,0.291396,0.120819,0.4941,0.81844
1696784160976562,-9.451869,1.542121,0.323396,0.119819,0.5461,0.101344
1696784160984375,-9.450869,1.635121,0.334396,0.121719,0.7091,0.114344
1696784160992187,-9.498869,1.693121,0.337396,0.120119,0.7891,0.114344
1696784161000000,-9.533869,1.761121,0.355396,0.121719,0.9501,0.112744
1696784161007812,-9.588869,1.850121,0.359396,0.118319,0.11271,0.103044
1696784161015625,-9.657869,1.940121,0.352396,0.119819,0.11821,0.88844
1696784161023437,-9.723869,1.994121,0.303396,0.121319,0.12161,0.79244
1696784161031250,-9.755869,2.26121,0.265396,0.125419,0.10431,0.75544
1696784161039062,-9.757869,2.35121,0.235396,0.123619,0.8811,0.64244
1696784161046875,-9.757869,2.17121,0.231396,0.140919,0.9521,0.56644
1696784161054687,-9.759869,1.993121,0.208396,0.142419,0.11501,0.42344
1696784161062500,-9.742869,1.944121,0.168396,0.145119,0.12601,0.29444
1696784161070312,-9.743869,1.852121,0.89396,0.139019,0.10711,0.29444
1696784161078125,-9.756869,1.817121,0.26396,0.126219,0.8711,0.30644
1696784161085937,-9.753869,1.735121,0.10396,0.109119,0.6301,0.33644
1696784161093750,-9.714869,1.681121,0.6396,0.93019,0.5211,0.39444
1696784161101562,-9.657869,1.632121,0.19396,0.94819,0.4291,0.44444
1696784161109375,-9.623869,1.638121,0.24396,0.85319,0.3451,0.45844
1696784161117187,-9.615869,1.666121,0.24396,0.71219,0.3691,0.33044
1696784161125000,-9.590869,1.699121,0.12396,0.75719,0.4441,0.32944
1696784161132812,-9.546869,1.727121,0.23604,0.91519,0.4461,0.33144
1696784161140625,-9.497869,1.771121,0.38604,0.91019,0.4191,0.31144
1696784161148437,-9.471869,1.817121,0.65604,0.97919,0.5931,0.34944
1696784161156250,-9.485869,1.840121,0.97604,0.102519,0.6061,0.34844
1696784161164062,-9.503869,1.864121,0.86604,0.115119,0.6601,0.28844
1696784161171875,-9.537869,1.878121,0.81604,0.119419,0.7191,0.18944
1696784161179687,-9.566869,1.876121,0.63604,0.118019,0.5981,0.12844
1696784161187500,-9.607869,1.888121,0.45604,0.118019,0.4981,0.17544
1696784161195312,-9.636869,1.891121,0.18604,0.119519,0.4821,0.17544
1696784161203125,-9.645869,1.906121,0.27604,0.100319,0.4611,0.4244
1696784161210937,-9.650869,1.913121,0.0,0.95419,0.4561,0.3944
1696784161218750,-9.637869,1.915121,0.39396,0.90919,0.4341,0.2156
1696784161226562,-9.638869,1.895121,0.62396,0.78319,0.3981,0.744
1696784161234375,-9.627869,1.864121,0.55396,0.51819,0.3691,0.3844
1696784161242187,-9.626869,1.842121,0.2604,0.20119,0.3481,0.3156
1696784161250000,-9.638869,1.851121,0.72604,0.18319,0.4631,0.17656
1696784161257812,-9.632869,1.886121,0.115604,0.13719,0.4671,0.20756
1696784161265625,-9.625869,1.926121,0.151604,0.12019,0.5091,0.16156
1696784161273437,-9.639869,1.953121,0.160604,0.10519,0.5621,0.19256
1696784161281250,-9.642869,1.966121,0.160604,0.10719,0.4831,0.12756
1696784161289062,-9.637869,1.957121,0.149604,0.7519,0.4011,0.11256
1696784161296875,-9.644869,1.942121,0.149604,0.3181,0.2421,0.1556
1696784161304687,-9.614869,1.928121,0.146604,0.3281,0.1531,0.6144
1696784161312500,-9.598869,1.919121,0.119604,0.13919,0.1511,0.7844
1696784161320312,-9.596869,1.906121,0.95604,0.17319,0.2021,0.16044
1696784161328125,-9.605869,1.895121,0.43604,0.22019,0.2671,0.11344
1696784161335937,-9.622869,1.893121,0.18604,0.27919,0.2951,0.3144
1696784161343750,-9.634869,1.895121,0.11604,0.26519,0.2461,0.12744
1696784161351562,-9.639869,1.909121,0.0,0.23319,0.1681,0.7944
1696784161359375,-9.629869,1.886121,0.15396,0.31019,0.821,0.7844
1696784161367187,-9.618869,1.888121,0.6396,0.19919,0.469,0.6144
1696784161375000,-9.623869,1.891121,0.7604,0.16919,0.289,0.7744
1696784161382812,-9.620869,1.891121,0.29604,0.9119,0.779,0.12444
1696784161390625,-9.603869,1.919121,0.50604,0.18619,0.759,0.11044
1696784161398437,-9.587869,1.910121,0.79604,0.20219,0.259,0.11144
1696784161406250,-9.599869,1.925121,0.79604,0.22119,0.431,0.14544
1696784161414062,-9.598869,1.914121,0.41604,0.40919,0.81,0.21144
1696784161421875,-9.603869,1.915121,0.12396,0.42419,0.861,0.22644
1696784161429687,-9.605869,1.921121,0.44396,0.43819,0.1321,0.19344
1696784161437500,-9.592869,1.926121,0.6396,0.39019,0.1491,0.12944
1696784161445312,-9.596869,1.935121,0.63604,0.28119,0.1511,0.11244
1696784161453125,-9.617869,1.941121,0.135604,0.31319,0.1891,0.3444
1696784161460937,-9.637869,1.931121,0.160604,0.21719,0.1371,0.3144
1696784161468750,-9.623869,1.917121,0.151604,0.18219,0.811,0.356
1696784161476562,-9.603869,1.910121,0.119604,0.5919,0.881,0.3456
1696784161484375,-9.596869,1.919121,0.92604,0.7519,0.1031,0.1344
1696784161492187,-9.583869,1.939121,0.81604,0.9019,0.1651,0.2844
1696784161500000,-9.561869,1.947121,0.52604,0.5919,0.1061,0.6656
1696784161507812,-9.558869,1.952121,0.47604,0.3681,0.231,0.8456
1696784161515625,-9.549869,1.927121,0.47604,0.2081,0.1361,0.6856
1696784161523437,-9.535869,1.923121,0.41604,0.11381,0.1691,0.5256
1696784161531250,-9.529869,1.922121,0.34604,0.13181,0.1181,0.11856
1696784161539062,-9.543869,1.960121,0.11604,0.17681,0.851,0.944
1696784161546875,-9.570869,1.970121,0.21396,0.14481,0.1671,0.1044
1696784161554687,-9.565869,1.967121,0.42396,0.19281,0.1651,0.944
1696784161562500,-9.561869,1.976121,0.55396,0.30381,0.1041,0.8756
1696784161570312,-9.570869,1.967121,0.46396,0.31981,0.221,0.8856
1696784161578125,-9.547869,1.940121,0.30396,0.30281,0.401,0.8756
1696784161585937,-9.545869,1.927121,0.5604,0.33281,0.921,0.10256
1696784161593750,-9.542869,1.907121,0.36604,0.31981,0.1811,0.7356
1696784161601562,-9.542869,1.905121,0.34604,0.33581,0.2001,0.13656
1696784161609375,-9.562869,1.923121,0.18604,0.40981,0.2051,0.2256
1696784161617187,-9.565869,1.938121,0.2604,0.37881,0.1891,0.5456
1696784161625000,-9.554869,1.956121,0.6396,0.50381,0.2041,0.744
1696784161632812,-9.547869,1.956121,0.28396,0.50781,0.1461,0.2044
1696784161640625,-9.529869,1.956121,0.30396,0.67881,0.1831,0.1256
1696784161648437,-9.520869,1.942121,0.44396,0.61481,0.2171,0.544
1696784161656250,-9.490869,1.902121,0.71396,0.65981,0.1731,0.2244
1696784161664062,-9.470869,1.897121,0.64396,0.64581,0.2331,0.544
1696784161671875,-9.487869,1.867121,0.69396,0.59981,0.2791,0.2044
1696784161679687,-9.480869,1.866121,0.64396,0.56681,0.4121,0.644
1696784161687500,-9.492869,1.878121,0.82396,0.56781,0.3941,0.2244
1696784161695312,-9.490869,1.902121,0.107396,0.46981,0.4841,0.4344
1696784161703125,-9.490869,1.913121,0.98396,0.39381,0.6551,0.944
1696784161710937,-9.457869,1.926121,0.82396,0.54981,0.6741,0.756
1696784161718750,-9.451869,1.970121,0.24396,0.56681,0.7721,0.7056
1696784161726562,-9.471869,2.1121,0.21396,0.69181,0.8231,0.10356
1696784161734375,-9.512869,2.24121,0.33396,0.86781,0.8371,0.23556
1696784161742187,-9.588869,1.995121,0.69396,0.101081,0.9641,0.27056
1696784161750000,-9.673869,1.965121,0.89396,0.122881,0.10661,0.31856
1696784161757812,-9.751869,1.944121,0.71396,0.136981,0.11861,0.44656
1696784161765625,-9.775869,1.880121,0.30396,0.152881,0.10061,0.48156
1696784161773437,-9.783869,1.824121,0.30396,0.165581,0.10531,0.51656
1696784161781250,-9.835869,1.816121,0.35396,0.192181,0.10551,0.50256
1696784161789062,-9.848869,1.794121,0.30396,0.218881,0.8771,0.52256
1696784161796875,-9.881869,1.768121,0.37396,0.236381,0.5481,0.49556
1696784161804687,-9.906869,1.753121,0.6396,0.252681,0.3161,0.66156
1696784161812500,-9.930869,1.747121,0.38604,0.260781,0.109,0.69656
1696784161820312,-9.984869,1.726121,0.12396,0.259181,0.2389,0.63256
1696784161828125,-10.28869,1.664121,0.114396,0.259281,0.4519,0.60256
1696784161835937,-10.29869,1.575121,0.246396,0.262081,0.5949,0.48956
1696784161843750,-10.25869,1.489121,0.316396,0.263481,0.6099,0.45656
1696784161851562,-9.957869,1.397121,0.368396,0.261981,0.8229,0.40956
1696784161859375,-9.931869,1.361121,0.440396,0.263681,0.8609,0.36356
1696784161867187,-9.890869,1.345121,0.415396,0.257281,0.7149,0.33056
1696784161875000,-9.839869,1.337121,0.386396,0.239881,0.7289,0.31156
1696784161882812,-9.718869,1.260121,0.294396,0.230381,0.9219,0.26256
1696784161890625,-9.654869,1.161121,0.267396,0.219581,0.11519,0.27856
1696784161898437,-9.592869,1.56121,0.246396,0.214981,0.11229,0.24656
1696784161906250,-9.548869,0.996121,0.246396,0.226081,0.11279,0.20156
1696784161914062,-9.494869,0.959121,0.194396,0.235081,0.11809,0.24756
1696784161921875,-9.476869,0.961121,0.113396,0.227281,0.11539,0.16756
1696784161929687,-9.481869,1.12121,0.14396,0.209881,0.10689,0.17956
1696784161937500,-9.493869,1.37121,0.77604,0.193981,0.10509,0.8056
1696784161945312,-9.482869,1.65121,0.46604,0.181181,0.12229,0.19044
1696784161953125,-9.520869,1.95121,0.5396,0.177881,0.13399,0.38244
1696784161960937,-9.548869,1.102121,0.89396,0.156881,0.13019,0.54844
1696784161968750,-9.534869,1.120121,0.161396,0.147281,0.12929,0.72444
1696784161976562,-9.531869,1.182121,0.174396,0.132781,0.12609,0.91944
1696784161984375,-9.523869,1.232121,0.190396,0.124081,0.10679,0.105644
1696784161992187,-9.580869,1.315121,0.228396,0.106681,0.9139,0.120044
1696784162000000,-9.654869,1.423121,0.282396,0.101681,0.9289,0.136244
1696784162007812,-9.757869,1.551121,0.366396,0.79781,0.8539,0.141144
1696784162015625,-9.865869,1.704121,0.409396,0.68381,0.9829,0.158944
1696784162023437,-9.930869,1.847121,0.463396,0.54481,0.11519,0.165244
1696784162031250,-9.976869,1.950121,0.398396,0.65081,0.11469,0.173344
1696784162039062,-9.981869,1.954121,0.314396,0.82481,0.12109,0.165144
1696784162046875,-9.984869,1.838121,0.265396,0.115481,0.11549,0.150544
1696784162054687,-9.979869,1.679121,0.303396,0.163181,0.11409,0.124144
1696784162062500,-10.3869,1.504121,0.373396,0.212281,0.9949,0.97844
1696784162070312,-9.961869,1.372121,0.363396,0.265881,0.9729,0.79644
1696784162078125,-9.856869,1.291121,0.350396,0.286881,0.8949,0.56744
1696784162085937,-9.720869,1.346121,0.298396,0.281881,0.6749,0.49144
1696784162093750,-9.588869,1.360121,0.217396,0.250481,0.6739,0.46344
1696784162101562,-9.504869,1.356121,0.163396,0.217681,0.8259,0.54544
1696784162109375,-9.442869,1.397121,0.147396,0.206581,0.8749,0.61044
1696784162117187,-9.373869,1.439121,0.120396,0.197381,0.10079,0.57844
1696784162125000,-9.288869,1.497121,0.129396,0.189581,0.10389,0.56344
1696784162132812,-9.269869,1.586121,0.80396,0.178481,0.8629,0.62844
1696784162140625,-9.330869,1.684121,0.96396,0.156281,0.7449,0.64944
1696784162148437,-9.425869,1.788121,0.107396,0.132581,0.6199,0.76344
1696784162156250,-9.496869,1.857121,0.129396,0.106881,0.5639,0.93144
1696784162164062,-9.501869,1.853121,0.186396,0.106781,0.6489,0.104244
1696784162171875,-9.514869,1.845121,0.289396,0.91081,0.7479,0.110744
1696784162179687,-9.595869,1.864121,0.429396,0.80081,0.7669,0.114044
1696784162187500,-9.662869,1.856121,0.562396,0.63081,0.6569,0.110844
1696784162195312,-9.709869,1.823121,0.661396,0.54981,0.4409,0.106444
1696784162203125,-9.738869,1.773121,0.672396,0.56881,0.2759,0.85644
1696784162210937,-9.714869,1.673121,0.587396,0.74281,0.1429,0.69444
1696784162218750,-9.663869,1.596121,0.481396,0.95081,0.2749,0.59444
1696784162226562,-9.685869,1.586121,0.406396,0.109181,0.4709,0.63944
1696784162234375,-9.710869,1.599121,0.393396,0.116981,0.7429,0.62344
1696784162242187,-9.693869,1.628121,0.404396,0.131181,0.9789,0.81044
1696784162250000,-9.677869,1.663121,0.442396,0.131481,0.13149,0.90144
1696784162257812,-9.658869,1.716121,0.472396,0.151581,0.14119,0.102744
1696784162265625,-9.666869,1.781121,0.499396,0.157281,0.14409,0.125444
1696784162273437,-9.728869,1.877121,0.587396,0.159881,0.13409,0.144844
1696784162281250,-9.799869,1.980121,0.672396,0.157881,0.12759,0.164244
1696784162289062,-9.834869,2.16121,0.796396,0.147881,0.11759,0.182244
1696784162296875,-9.845869,2.63121,0.848396,0.119681,0.9849,0.184044
1696784162304687,-9.808869,2.105121,0.855396,0.103981,0.9339,0.182744
1696784162312500,-9.705869,2.139121,0.826396,0.100981,0.9029,0.176344
1696784162320312,-9.608869,2.88121,0.819396,0.77581,0.8669,0.163844
1696784162328125,-9.551869,2.43121,0.886396,0.49481,0.8539,0.165644
1696784162335937,-9.525869,1.978121,0.943396,0.11781,0.9519,0.169344
1696784162343750,-9.599869,1.946121,0.886396,0.19719,0.12329,0.187044
1696784162351562,-9.666869,1.914121,0.794396,0.33419,0.18409,0.189944
1696784162359375,-9.727869,1.846121,0.821396,0.63119,0.22219,0.204344
1696784162367187,-9.868869,1.773121,0.906396,0.96119,0.25509,0.218944
1696784162375000,-9.944869,1.738121,1.19396,0.115019,0.28029,0.214544
1696784162382812,-9.938869,1.767121,1.174396,0.163119,0.33149,0.211344
1696784162390625,-9.838869,1.883121,1.244396,0.236019,0.41179,0.200344
1696784162398437,-9.667869,2.16121,1.303396,0.305919,0.47089,0.189444
1696784162406250,-9.496869,2.147121,1.350396,0.388019,0.53389,0.171944
1696784162414062,-9.298869,2.252121,1.407396,0.456719,0.57699,0.150344
1696784162421875,-9.196869,2.337121,1.492396,0.507519,0.60259,0.130944
1696784162429687,-9.104869,2.396121,1.569396,0.554119,0.62679,0.112144
1696784162437500,-9.133869,2.498121,1.704396,0.572619,0.61859,0.93144
1696784162445312,-9.202869,2.624121,1.636396,0.583019,0.58709,0.53344
1696784162453125,-9.326869,2.783121,1.587396,0.532119,0.59039,0.20444
1696784162460937,-9.546869,2.922121,1.524396,0.462719,0.57539,0.2756
1696784162468750,-9.720869,2.984121,1.344396,0.386019,0.55359,0.14556
1696784162476562,-9.741869,3.121,1.98396,0.312519,0.54819,0.13656
1696784162484375,-9.615869,3.11121,0.943396,0.238619,0.57359,0.2744
1696784162492187,-9.477869,3.107121,0.916396,0.188919,0.56049,0.21544
1696784162500000,-9.339869,3.153121,0.905396,0.155219,0.48159,0.28244
1696784162507812,-9.220869,3.180121,0.837396,0.140219,0.39649,0.35144
1696784162515625,-9.112869,3.195121,0.740396,0.121619,0.35309,0.47844
1696784162523437,-9.63869,3.227121,0.657396,0.95619,0.34259,0.65544
1696784162531250,-9.56869,3.220121,0.722396,0.107019,0.32139,0.77144
1696784162539062,-9.128869,3.202121,1.62396,0.130319,0.33359,0.81844
1696784162546875,-9.271869,3.119121,1.441396,0.155519,0.34929,0.80644
1696784162554687,-9.503869,3.28121,1.774396,0.194519,0.36269,0.77744
1696784162562500,-9.729869,2.969121,1.950396,0.243319,0.35549,0.73744
1696784162570312,-9.941869,2.828121,1.977396,0.277619,0.33599,0.62944
1696784162578125,-10.100869,2.671121,1.887396,0.268319,0.34309,0.78744
1696784162585937,-10.188869,2.566121,1.884396,0.232519,0.38519,0.94244
1696784162593750,-10.40869,2.428121,1.898396,0.202919,0.41159,0.116244
1696784162601562,-9.774869,2.262121,1.871396,0.191119,0.41669,0.154644
1696784162609375,-9.599869,2.233121,1.816396,0.193519,0.38569,0.183944
1696784162617187,-9.428869,2.244121,1.726396,0.203519,0.34209,0.211444
1696784162625000,-9.260869,2.277121,1.711396,0.230519,0.31809,0.229444
1696784162632812,-9.209869,2.362121,1.605396,0.265919,0.28809,0.249644
1696784162640625,-9.100869,2.422121,1.535396,0.305619,0.26969,0.261744
1696784162648437,-8.981869,2.434121,1.535396,0.337019,0.25349,0.263744
1696784162656250,-8.867869,2.432121,1.553396,0.388919,0.24349,0.261344
1696784162664062,-8.846869,2.421121,1.490396,0.437219,0.21449,0.245744
1696784162671875,-8.867869,2.439121,1.434396,0.483819,0.18839,0.220644
1696784162679687,-8.831869,2.445121,1.391396,0.498819,0.18069,0.193344
1696784162687500,-8.773869,2.457121,1.344396,0.492219,0.19989,0.173944
1696784162695312,-8.733869,2.519121,1.353396,0.462219,0.21719,0.159244
1696784162703125,-8.655869,2.551121,1.240396,0.448119,0.18559,0.143344
1696784162710937,-8.641869,2.637121,1.195396,0.460119,0.16679,0.127244
1696784162718750,-8.698869,2.709121,1.166396,0.449019,0.16469,0.111144
1696784162726562,-8.760869,2.785121,1.175396,0.415819,0.17139,0.105844
1696784162734375,-8.738869,2.854121,1.256396,0.362019,0.18919,0.87444
1696784162742187,-8.713869,2.947121,1.263396,0.341719,0.16289,0.79344
1696784162750000,-8.641869,2.943121,1.292396,0.335219,0.14299,0.61744
1696784162757812,-8.635869,3.1121,1.288396,0.292919,0.14419,0.54944
1696784162765625,-8.678869,3.57121,1.161396,0.242119,0.13689,0.37944
1696784162773437,-8.671869,3.37121,1.42396,0.218119,0.10939,0.18344
1696784162781250,-8.702869,3.75121,1.6396,0.199719,0.7139,0.11456
1696784162789062,-8.742869,3.62121,1.15396,0.177019,0.1799,0.47056
1696784162796875,-8.731869,3.71121,1.85396,0.127919,0.1909,0.79656
1696784162804687,-8.778869,3.103121,1.87396,0.66619,0.1549,0.91456
1696784162812500,-8.779869,3.160121,1.85396,0.25619,0.519,0.114256
1696784162820312,-8.812869,3.223121,1.78396,0.1981,0.1079,0.142356
1696784162828125,-8.897869,3.202121,0.909396,0.13181,0.421,0.163156
1696784162835937,-9.42869,3.171121,0.860396,0.29181,0.3139,0.173156
1696784162843750,-9.156869,3.131121,0.885396,0.17281,0.6929,0.186256
1696784162851562,-9.248869,3.70121,0.954396,0.15219,0.9869,0.197356
1696784162859375,-9.356869,2.994121,1.47396,0.28619,0.12869,0.215356
1696784162867187,-9.433869,3.11121,1.249396,0.64719,0.12289,0.230656
1696784162875000,-9.490869,2.934121,1.524396,0.91219,0.6589,0.249356
1696784162882812,-9.622869,2.872121,1.625396,0.94219,0.2539,0.262156
1696784162890625,-9.714869,2.876121,1.724396,0.61419,0.2979,0.260756
1696784162898437,-9.658869,2.855121,1.839396,0.22219,0.3149,0.258056
1696784162906250,-9.543869,2.813121,1.801396,0.11781,0.1131,0.254856
1696784162914062,-9.441869,2.814121,1.594396,0.64881,0.5011,0.247256
1696784162921875,-9.382869,2.760121,1.517396,0.147881,0.6051,0.251256
1696784162929687,-9.431869,2.727121,1.501396,0.222681,0.8331,0.234256
1696784162937500,-9.597869,2.696121,1.767396,0.259681,0.4081,0.191456
1696784162945312,-9.711869,2.634121,2.386396,0.239881,0.121,0.130356
1696784162953125,-9.845869,2.572121,2.904396,0.118081,0.519,0.83756
1696784162960937,-9.910869,2.462121,3.71396,0.68019,0.1371,0.34956
1696784162968750,-9.824869,2.266121,2.774396,0.264819,0.3421,0.7544
1696784162976562,-9.669869,1.946121,2.150396,0.387619,0.5721,0.20444
1696784162984375,-9.573869,1.582121,1.704396,0.409419,0.3751,0.18944
1696784162992187,-9.512869,1.393121,1.685396,0.359819,0.829,0.9356
1696784163000000,-9.380869,1.446121,1.884396,0.311819,0.2609,0.51856
1696784163007812,-9.351869,1.639121,1.974396,0.237119,0.6679,0.90056
1696784163015625,-9.380869,1.928121,1.861396,0.182419,0.13909,0.126756
1696784163023437,-9.406869,2.256121,1.742396,0.128419,0.20079,0.148656
1696784163031250,-9.392869,2.556121,1.663396,0.79719,0.23969,0.146156
1696784163039062,-9.305869,2.823121,1.673396,0.52319,0.22309,0.117256
1696784163046875,-9.196869,3.72121,1.725396,0.45319,0.18079,0.84856
1696784163054687,-9.127869,3.239121,1.731396,0.66819,0.11359,0.55056
1696784163062500,-9.74869,3.301121,1.788396,0.66119,0.6019,0.22656
1696784163070312,-9.29869,3.298121,1.934396,0.66519,0.2359,0.23856
1696784163078125,-8.927869,3.276121,2.65396,0.62019,0.571,0.22156
1696784163085937,-8.813869,3.186121,2.137396,0.68319,0.3481,0.23556
1696784163093750,-8.716869,3.111121,2.209396,0.70019,0.6741,0.21756
1696784163101562,-8.687869,3.2121,2.213396,0.78019,0.7901,0.21556
1696784163109375,-8.786869,2.862121,2.200396,0.84819,0.8711,0.2744
1696784163117187,-8.910869,2.710121,2.159396,0.69319,0.8111,0.2744
1696784163125000,-9.39869,2.548121,2.150396,0.53419,0.8211,0.3944
1696784163132812,-9.156869,2.386121,2.186396,0.33119,0.8141,0.8856
1696784163140625,-9.269869,2.259121,2.247396,0.9119,0.6961,0.20656
1696784163148437,-9.324869,2.198121,2.314396,0.19381,0.3861,0.24456
1696784163156250,-9.306869,2.189121,2.337396,0.33781,0.881,0.24956
1696784163164062,-9.282869,2.222121,2.330396,0.27681,0.2321,0.31356
1696784163171875,-9.312869,2.288121,2.256396,0.16481,0.4151,0.30956
1696784163179687,-9.337869,2.338121,2.215396,0.16681,0.4451,0.37456
1696784163187500,-9.336869,2.375121,2.148396,0.35381,0.4491,0.35956
1696784163195312,-9.305869,2.424121,2.114396,0.35381,0.5941,0.35856
1696784163203125,-9.224869,2.442121,2.170396,0.49281,0.7291,0.37456
1696784163210937,-9.166869,2.446121,2.213396,0.37981,0.10201,0.25956
1696784163218750,-9.103869,2.421121,2.213396,0.35881,0.12671,0.12856
1696784163226562,-9.106869,2.381121,2.193396,0.43581,0.14091,0.3144
1696784163234375,-9.119869,2.334121,2.123396,0.50581,0.15131,0.24244
1696784163242187,-9.188869,2.262121,2.71396,0.57081,0.14901,0.30344
1696784163250000,-9.225869,2.205121,2.78396,0.67981,0.15081,0.30344
1696784163257812,-9.232869,2.192121,2.105396,0.78981,0.14591,0.28544
1696784163265625,-9.223869,2.183121,2.123396,0.86881,0.14631,0.18944
1696784163273437,-9.218869,2.190121,2.141396,0.104481,0.14101,0.10444
1696784163281250,-9.220869,2.172121,2.197396,0.103181,0.15211,0.2344
1696784163289062,-9.265869,2.162121,2.316396,0.87381,0.17851,0.5256
1696784163296875,-9.352869,2.138121,2.355396,0.80981,0.18521,0.1856
1696784163304687,-9.422869,2.122121,2.343396,0.99781,0.18191,0.2056
1696784163312500,-9.473869,2.105121,2.305396,0.104281,0.17721,0.5944
1696784163320312,-9.514869,2.134121,2.307396,0.107381,0.17851,0.13844
1696784163328125,-9.521869,2.156121,2.247396,0.105181,0.17761,0.31944
1696784163335937,-9.492869,2.158121,2.181396,0.110181,0.17331,0.37844
1696784163343750,-9.391869,2.176121,2.152396,0.105281,0.15771,0.36544
1696784163351562,-9.251869,2.141121,2.145396,0.108581,0.15851,0.42644
1696784163359375,-9.162869,2.155121,2.114396,0.93781,0.18221,0.52944
1696784163367187,-9.119869,2.150121,2.69396,0.74881,0.19681,0.56444
1696784163375000,-9.103869,2.157121,2.10396,0.54381,0.19631,0.67744
1696784163382812,-9.143869,2.160121,1.997396,0.31081,0.19111,0.66244
1696784163390625,-9.175869,2.178121,1.992396,0.26481,0.18101,0.69344
1696784163398437,-9.225869,2.187121,2.26396,0.26281,0.16901,0.61644
1696784163406250,-9.248869,2.205121,2.60396,0.28181,0.15541,0.59744
1696784163414062,-9.256869,2.190121,2.55396,0.20581,0.13461,0.45344
1696784163421875,-9.223869,2.207121,1.981396,0.28881,0.12421,0.36844
1696784163429687,-9.193869,2.214121,1.958396,0.35781,0.9751,0.26744
1696784163437500,-9.169869,2.195121,1.997396,0.31081,0.10461,0.14144
1696784163445312,-9.166869,2.204121,1.999396,0.32781,0.10941,0.9344
1696784163453125,-9.196869,2.213121,1.972396,0.21681,0.11951,0.6444
1696784163460937,-9.250869,2.210121,1.936396,0.24681,0.10881,0.3344
1696784163468750,-9.277869,2.221121,1.909396,0.32981,0.9671,0.1956
1696784163476562,-9.293869,2.237121,1.855396,0.25281,0.9981,0.9956
1696784163484375,-9.276869,2.279121,1.798396,0.17181,0.8751,0.7956
1696784163492187,-9.263869,2.317121,1.760396,0.3881,0.7981,0.19656
1696784163500000,-9.263869,2.326121,1.765396,0.19519,0.7651,0.24256
1696784163507812,-9.281869,2.303121,1.747396,0.39119,0.8631,0.23256
1696784163515625,-9.312869,2.288121,1.756396,0.46819,0.8921,0.24856
1696784163523437,-9.349869,2.231121,1.774396,0.53019,0.9431,0.31156
1696784163531250,-9.378869,2.205121,1.765396,0.66619,0.9661,0.39456
1696784163539062,-9.400869,2.177121,1.780396,0.71319,0.8701,0.39356
1696784163546875,-9.424869,2.150121,1.787396,0.72519,0.8501,0.49156
1696784163554687,-9.448869,2.129121,1.823396,0.70819,0.7961,0.47856
1696784163562500,-9.500869,2.107121,1.807396,0.66119,0.8161,0.52556
1696784163570312,-9.532869,2.114121,1.767396,0.61619,0.7861,0.46056
1696784163578125,-9.557869,2.143121,1.738396,0.68319,0.7761,0.39256
1696784163585937,-9.577869,2.175121,1.693396,0.64419,0.7001,0.49456
1696784163593750,-9.591869,2.199121,1.659396,0.64719,0.6881,0.47656
1696784163601562,-9.585869,2.197121,1.661396,0.56919,0.5751,0.46156
1696784163609375,-9.566869,2.199121,1.648396,0.44219,0.5031,0.36956
1696784163617187,-9.566869,2.170121,1.643396,0.47519,0.5921,0.43056
1696784163625000,-9.545869,2.130121,1.645396,0.42619,0.5871,0.41756
1696784163632812,-9.520869,2.112121,1.648396,0.41519,0.4781,0.31856
1696784163640625,-9.518869,2.112121,1.645396,0.43019,0.4401,0.24056
1696784163648437,-9.502869,2.129121,1.641396,0.46119,0.4401,0.22456
1696784163656250,-9.501869,2.145121,1.614396,0.44719,0.2981,0.22356
1696784163664062,-9.500869,2.154121,1.587396,0.42619,0.1061,0.16556
1696784163671875,-9.492869,2.156121,1.526396,0.24319,0.191,0.13156
1696784163679687,-9.472869,2.171121,1.472396,0.14519,0.1329,0.18356
1696784163687500,-9.459869,2.199121,1.456396,0.11719,0.2369,0.14856
1696784163695312,-9.445869,2.199121,1.467396,0.16219,0.1619,0.15056
1696784163703125,-9.441869,2.204121,1.510396,0.18119,0.1429,0.5156
1696784163710937,-9.434869,2.192121,1.542396,0.27519,0.969,0.5156
1696784163718750,-9.425869,2.201121,1.566396,0.41619,0.2139,0.6044
1696784163726562,-9.443869,2.208121,1.571396,0.46919,0.2379,0.16144
1696784163734375,-9.417869,2.232121,1.569396,0.65819,0.2529,0.18044
1696784163742187,-9.401869,2.265121,1.630396,0.92319,0.1939,0.21344
1696784163750000,-9.394869,2.254121,1.706396,0.111019,0.321,0.11944
1696784163757812,-9.383869,2.247121,1.756396,0.131319,0.1301,0.7444
1696784163765625,-9.385869,2.216121,1.776396,0.144219,0.1981,0.14144
1696784163773437,-9.362869,2.196121,1.749396,0.144019,0.3421,0.6144
1696784163781250,-9.355869,2.145121,1.726396,0.161319,0.1961,0.12744
1696784163789062,-9.393869,2.130121,1.704396,0.163219,0.1961,0.27244
1696784163796875,-9.408869,2.106121,1.688396,0.150719,0.321,0.33344
1696784163804687,-9.388869,2.99121,1.699396,0.141219,0.171,0.26844
1696784163812500,-9.384869,2.127121,1.733396,0.147719,0.89,0.25644
1696784163820312,-9.393869,2.136121,1.726396,0.147319,0.341,0.20544
1696784163828125,-9.366869,2.167121,1.686396,0.144119,0.109,0.9344
1696784163835937,-9.344869,2.180121,1.632396,0.150119,0.799,0.4344
1696784163843750,-9.326869,2.175121,1.584396,0.143619,0.669,0.656
1696784163851562,-9.309869,2.215121,1.621396,0.162719,0.419,0.1656
1696784163859375,-9.294869,2.268121,1.661396,0.195419,0.671,0.4656
1696784163867187,-9.272869,2.319121,1.690396,0.217319,0.1801,0.7556
1696784163875000,-9.259869,2.367121,1.708396,0.256519,0.1481,0.11956
1696784163882812,-9.246869,2.401121,1.711396,0.268719,0.761,0.15356
1696784163890625,-9.226869,2.440121,1.666396,0.271819,0.189,0.18456
1696784163898437,-9.214869,2.460121,1.648396,0.275119,0.619,0.19856
1696784163906250,-9.243869,2.491121,1.654396,0.270619,0.889,0.18056
1696784163914062,-9.282869,2.505121,1.623396,0.259419,0.1219,0.27856
1696784163921875,-9.315869,2.512121,1.594396,0.223019,0.3549,0.30256
1696784163929687,-9.295869,2.508121,1.603396,0.195919,0.5379,0.40456
1696784163937500,-9.291869,2.512121,1.742396,0.192219,0.4589,0.61556
1696784163945312,-9.331869,2.515121,1.826396,0.186019,0.1429,0.74156
1696784163953125,-9.331869,2.530121,1.835396,0.157819,0.1579,0.75956
1696784163960937,-9.298869,2.539121,1.830396,0.118919,0.1539,0.69856
1696784163968750,-9.257869,2.496121,1.808396,0.93719,0.289,0.67056
1696784163976562,-9.303869,2.470121,1.767396,0.68719,0.41,0.65756
1696784163984375,-9.298869,2.403121,1.767396,0.45419,0.901,0.60956
1696784163992187,-9.282869,2.379121,1.699396,0.22219,0.2351,0.49956
1696784164000000,-9.300869,2.370121,1.616396,0.16219,0.4501,0.44956
1696784164007812,-9.321869,2.419121,1.596396,0.881,0.5461,0.38656
1696784164015625,-9.339869,2.426121,1.659396,0.919,0.7811,0.44756
1696784164023437,-9.399869,2.414121,1.731396,0.19719,0.9211,0.39856
1696784164031250,-9.455869,2.383121,1.753396,0.16819,0.9921,0.38056
1696784164039062,-9.520869,2.345121,1.726396,0.18719,0.9751,0.21956
1696784164046875,-9.566869,2.297121,1.724396,0.16719,0.7571,0.23956
1696784164054687,-9.581869,2.239121,1.679396,0.21519,0.6931,0.22256
1696784164062500,-9.584869,2.179121,1.605396,0.41719,0.6571,0.23756
1696784164070312,-9.599869,2.113121,1.618396,0.45419,0.5391,0.18456
1696784164078125,-9.585869,2.88121,1.679396,0.63919,0.5151,0.16956
1696784164085937,-9.551869,2.52121,1.717396,0.68319,0.2661,0.17156
1696784164093750,-9.485869,2.11121,1.722396,0.63619,0.2351,0.20456
1696784164101562,-9.377869,2.5121,1.751396,0.50619,0.961,0.22656
1696784164109375,-9.274869,2.1121,1.787396,0.28719,0.1879,0.29156
1696784164117187,-9.170869,1.998121,1.744396,0.20819,0.89,0.37156
1696784164125000,-9.72869,2.16121,1.686396,0.36419,0.561,0.41756
1696784164132812,-9.869,2.15121,1.632396,0.64619,0.1401,0.47756
1696784164140625,-8.957869,2.12121,1.627396,0.80519,0.1231,0.37956
1696784164148437,-8.979869,1.988121,1.683396,0.91619,0.1261,0.37756
1696784164156250,-9.19869,1.931121,1.733396,0.92919,0.1321,0.33256
1696784164164062,-9.121869,1.888121,1.794396,0.116519,0.2641,0.37656
1696784164171875,-9.231869,1.879121,1.810396,0.116319,0.4101,0.45656
1696784164179687,-9.322869,1.878121,1.783396,0.132119,0.4531,0.59556
1696784164187500,-9.359869,1.868121,1.708396,0.147219,0.3941,0.67856
1696784164195312,-9.364869,1.852121,1.661396,0.161319,0.4291,0.70856
1696784164203125,-9.368869,1.828121,1.638396,0.164219,0.4801,0.91656
1696784164210937,-9.360869,1.788121,1.627396,0.178119,0.4771,0.94756
1696784164218750,-9.346869,1.750121,1.584396,0.196719,0.6081,0.107356
1696784164226562,-9.355869,1.712121,1.544396,0.212419,0.7081,0.115056
1696784164234375,-9.364869,1.708121,1.519396,0.217219,0.6951,0.114956
1696784164242187,-9.386869,1.728121,1.512396,0.231319,0.5981,0.116356
1696784164250000,-9.421869,1.762121,1.537396,0.242319,0.7111,0.116256
1696784164257812,-9.485869,1.823121,1.562396,0.240719,0.6811,0.120956
1696784164265625,-9.580869,1.877121,1.551396,0.254619,0.7601,0.127356
1696784164273437,-9.623869,1.933121,1.494396,0.256119,0.7621,0.132056
1696784164281250,-9.645869,1.987121,1.479396,0.253119,0.7161,0.133656
1696784164289062,-9.672869,2.5121,1.510396,0.265619,0.6671,0.130356
1696784164296875,-9.703869,2.1121,1.551396,0.265619,0.6161,0.127156
1696784164304687,-9.705869,1.975121,1.587396,0.274819,0.6271,0.127256
1696784164312500,-9.716869,1.946121,1.596396,0.289119,0.6451,0.122156
1696784164320312,-9.708869,1.899121,1.564396,0.293919,0.6771,0.118956
1696784164328125,-9.638869,1.878121,1.524396,0.314219,0.5711,0.107756
1696784164335937,-9.533869,1.879121,1.548396,0.322519,0.4851,0.105656
1696784164343750,-9.441869,1.908121,1.600396,0.353819,0.5301,0.103756
1696784164351562,-9.351869,1.905121,1.620396,0.371419,0.5501,0.92156
1696784164359375,-9.364869,1.878121,1.623396,0.380919,0.5341,0.90456
1696784164367187,-9.423869,1.917121,1.542396,0.391919,0.5751,0.76056
1696784164375000,-9.414869,1.921121,1.355396,0.392019,0.2841,0.66456
1696784164382812,-9.375869,1.974121,1.89396,0.407719,0.1119,0.50556
1696784164390625,-9.364869,2.38121,0.920396,0.423219,0.5379,0.45856
1696784164398437,-9.343869,2.117121,0.837396,0.443519,0.9609,0.44156
1696784164406250,-9.286869,2.185121,0.814396,0.466619,0.13559,0.47556
1696784164414062,-9.305869,2.247121,0.835396,0.471019,0.16329,0.55656
1696784164421875,-9.472869,2.283121,0.954396,0.451919,0.20529,0.65656
1696784164429687,-9.696869,2.272121,1.197396,0.432319,0.24749,0.66656
1696784164437500,-9.847869,2.285121,1.447396,0.414819,0.26529,0.76556
1696784164445312,-9.930869,2.297121,1.603396,0.416219,0.24489,0.100356
1696784164453125,-9.941869,2.284121,1.470396,0.414319,0.21079,0.122756
1696784164460937,-9.984869,2.301121,1.265396,0.415819,0.22569,0.119656
1696784164468750,-10.869,2.316121,1.67396,0.414419,0.24159,0.116456
1696784164476562,-9.973869,2.291121,0.981396,0.425119,0.26849,0.108656
1696784164484375,-9.866869,2.237121,0.990396,0.421719,0.25609,0.110456
1696784164492187,-9.769869,2.173121,1.53396,0.404919,0.22419,0.111856
1696784164500000,-9.762869,2.159121,1.159396,0.377119,0.18139,0.108556
1696784164507812,-9.771869,2.171121,1.240396,0.365219,0.13359,0.98556
1696784164515625,-9.764869,2.151121,1.321396,0.340219,0.12389,0.93956
1696784164523437,-9.754869,2.144121,1.240396,0.305819,0.12969,0.75456
1696784164531250,-9.706869,2.176121,1.157396,0.276619,0.12539,0.64056
1696784164539062,-9.589869,2.228121,1.112396,0.256419,0.11659,0.38856
1696784164546875,-9.460869,2.283121,1.85396,0.240019,0.9309,0.20956
1696784164554687,-9.349869,2.366121,1.89396,0.221219,0.7519,0.22656
1696784164562500,-9.242869,2.444121,1.53396,0.201219,0.5719,0.9856
1696784164570312,-9.187869,2.517121,0.990396,0.190419,0.5029,0.8256
1696784164578125,-9.171869,2.601121,0.911396,0.193619,0.4049,0.6456
1696784164585937,-9.156869,2.683121,0.923396,0.192019,0.4939,0.4444
1696784164593750,-9.146869,2.738121,0.979396,0.193519,0.5759,0.2744
1696784164601562,-9.157869,2.758121,1.22396,0.191819,0.6099,0.4244
1696784164609375,-9.173869,2.761121,1.128396,0.192019,0.6209,0.1244
1696784164617187,-9.202869,2.743121,1.224396,0.193319,0.4089,0.14756
1696784164625000,-9.266869,2.695121,1.195396,0.190119,0.3109,0.19556
1696784164632812,-9.310869,2.648121,1.193396,0.158319,0.6099,0.23556
1696784164640625,-9.283869,2.594121,1.278396,0.122419,0.8489,0.22256
1696784164648437,-9.242869,2.542121,1.380396,0.116319,0.5789,0.33156
1696784164656250,-9.258869,2.454121,1.431396,0.91219,0.3689,0.36556
1696784164664062,-9.311869,2.381121,1.413396,0.44119,0.4499,0.35556
1696784164671875,-9.338869,2.366121,1.373396,0.6619,0.6099,0.31156
1696784164679687,-9.338869,2.384121,1.299396,0.15081,0.4789,0.24856
1696784164687500,-9.312869,2.412121,1.285396,0.37181,0.4969,0.26756
1696784164695312,-9.297869,2.443121,1.398396,0.57381,0.4129,0.25256
1696784164703125,-9.303869,2.465121,1.463396,0.68481,0.2519,0.27056
1696784164710937,-9.331869,2.512121,1.461396,0.87281,0.1189,0.35156
1696784164718750,-9.372869,2.511121,1.290396,0.120381,0.4309,0.29356
1696784164726562,-9.341869,2.532121,1.105396,0.121981,0.5729,0.38956
1696784164734375,-9.366869,2.557121,0.905396,0.134581,0.1149,0.53356
1696784164742187,-9.402869,2.606121,0.776396,0.127081,0.5961,0.70756
1696784164750000,-9.441869,2.660121,1.55396,0.136381,0.8141,0.85056
1696784164757812,-9.490869,2.637121,1.310396,0.169881,0.3711,0.95456
1696784164765625,-9.523869,2.588121,1.425396,0.204681,0.1629,0.100856
1696784164773437,-9.488869,2.517121,1.391396,0.223981,0.4459,0.109556
1696784164781250,-9.487869,2.446121,1.317396,0.222681,0.3469,0.123956
1696784164789062,-9.509869,2.391121,1.303396,0.220881,0.3059,0.130056
1696784164796875,-9.554869,2.374121,1.400396,0.219981,0.3339,0.138556
1696784164804687,-9.632869,2.348121,1.546396,0.202481,0.3109,0.141256
1696784164812500,-9.665869,2.320121,1.623396,0.184281,0.4849,0.147956
1696784164820312,-9.630869,2.240121,1.704396,0.163981,0.5959,0.152556
1696784164828125,-9.580869,2.172121,1.681396,0.160281,0.4569,0.145656
1696784164835937,-9.600869,2.139121,1.620396,0.136481,0.3069,0.143556
1696784164843750,-9.590869,2.130121,1.515396,0.134881,0.2469,0.132456
1696784164851562,-9.570869,2.126121,1.492396,0.114581,0.1699,0.132356
1696784164859375,-9.611869,2.117121,1.636396,0.112681,0.1309,0.127156
1696784164867187,-9.670869,2.185121,1.837396,0.119081,0.559,0.122656
1696784164875000,-9.729869,2.204121,1.945396,0.124681,0.2221,0.98356
1696784164882812,-9.817869,2.119121,2.64396,0.144581,0.3711,0.83856
1696784164890625,-10.10869,2.42121,2.314396,0.171981,0.4731,0.54956
1696784164898437,-10.125869,1.946121,2.465396,0.164981,0.5051,0.24256
1696784164906250,-10.41869,1.772121,2.334396,0.147281,0.5051,0.4756
1696784164914062,-9.938869,1.633121,2.89396,0.131781,0.1521,0.14144
1696784164921875,-9.828869,1.495121,1.877396,0.133081,0.909,0.31844
1696784164929687,-9.811869,1.442121,1.902396,0.115981,0.2909,0.36544
1696784164937500,-9.778869,1.492121,1.938396,0.71981,0.3029,0.34044
1696784164945312,-9.640869,1.559121,1.760396,0.12781,0.3709,0.18544
1696784164953125,-9.372869,1.544121,1.591396,0.36419,0.9459,0.7156
1696784164960937,-9.93869,1.626121,1.433396,0.105019,0.10279,0.24156
1696784164968750,-8.889869,1.671121,1.580396,0.210219,0.9449,0.24456
1696784164976562,-8.777869,1.710121,1.814396,0.294319,0.8849,0.41356
1696784164984375,-8.739869,1.709121,1.958396,0.358019,0.12299,0.60156
1696784164992187,-8.843869,1.640121,1.938396,0.365419,0.13949,0.73156
1696784165000000,-8.986869,1.542121,1.974396,0.354119,0.14889,0.89256
1696784165007812,-9.80869,1.417121,2.86396,0.327219,0.15079,0.97756
1696784165015625,-9.153869,1.343121,2.25396,0.306519,0.16019,0.115656
1696784165023437,-9.221869,1.375121,1.866396,0.289619,0.16479,0.102856
1696784165031250,-9.222869,1.435121,1.816396,0.321219,0.14849,0.97556
1696784165039062,-9.195869,1.554121,1.836396,0.346319,0.13049,0.100356
1696784165046875,-9.174869,1.683121,1.764396,0.362119,0.9479,0.100056
1696784165054687,-9.155869,1.751121,1.638396,0.353019,0.6989,0.103056
1696784165062500,-9.102869,1.810121,1.539396,0.332519,0.4579,0.106556
1696784165070312,-9.96869,1.841121,1.465396,0.316819,0.331,0.120956
1696784165078125,-9.208869,1.836121,1.402396,0.310819,0.4461,0.126956
1696784165085937,-9.390869,1.810121,1.395396,0.284219,0.7071,0.130356
1696784165093750,-9.550869,1.704121,1.433396,0.260819,0.6741,0.121056
1696784165101562,-9.648869,1.617121,1.438396,0.231619,0.7251,0.100356
1696784165109375,-9.649869,1.570121,1.424396,0.208319,0.6251,0.79756
1696784165117187,-9.611869,1.563121,1.508396,0.164619,0.3611,0.58056
1696784165125000,-9.505869,1.546121,1.676396,0.124519,0.5811,0.48356
1696784165132812,-9.360869,1.499121,1.805396,0.77719,0.8931,0.43856
1696784165140625,-9.264869,1.522121,1.933396,0.32419,0.12941,0.37956
1696784165148437,-9.202869,1.581121,1.969396,0.619,0.20561,0.22956
1696784165156250,-9.161869,1.667121,1.965396,0.33681,0.25121,0.18356
1696784165164062,-9.172869,1.773121,1.981396,0.81381,0.28131,0.2544
1696784165171875,-9.232869,1.945121,1.967396,0.122281,0.27891,0.13044
1696784165179687,-9.295869,2.71121,1.942396,0.124081,0.25911,0.11144
1696784165187500,-9.342869,2.218121,1.952396,0.102081,0.24171,0.3544
1696784165195312,-9.452869,2.328121,1.967396,0.80881,0.23291,0.17456
1696784165203125,-9.590869,2.375121,1.985396,0.58781,0.23051,0.24956
1696784165210937,-9.791869,2.478121,1.907396,0.54781,0.23991,0.50856
1696784165218750,-9.949869,2.513121,1.835396,0.67881,0.22101,0.86256
1696784165226562,-10.19869,2.490121,1.670396,0.93681,0.18951,0.101456
1696784165234375,-9.993869,2.407121,1.526396,0.106981,0.14721,0.127656
1696784165242187,-9.984869,2.265121,1.535396,0.132781,0.14541,0.158656
1696784165250000,-9.942869,2.49121,1.625396,0.187681,0.13151,0.167156
1696784165257812,-9.826869,1.810121,1.578396,0.238081,0.11361,0.174256
1696784165265625,-9.674869,1.579121,1.391396,0.263081,0.9171,0.152356
1696784165273437,-9.533869,1.310121,1.237396,0.258981,0.8301,0.131056
1696784165281250,-9.432869,1.47121,1.197396,0.262181,0.8011,0.102556
1696784165289062,-9.291869,0.655121,1.138396,0.286381,0.4111,0.56256
1696784165296875,-9.362869,0.569121,1.86396,0.323481,0.1349,0.5756
1696784165304687,-9.527869,0.372121,1.187396,0.337081,0.4949,0.29344
1696784165312500,-9.699869,0.262121,1.451396,0.371281,0.9539,0.59144
1696784165320312,-9.898869,0.343121,1.710396,0.404181,0.12979,0.69844
1696784165328125,-9.978869,0.435121,2.36396,0.407581,0.14889,0.55344
1696784165335937,-10.21869,0.611121,2.325396,0.409681,0.13479,0.37444
1696784165343750,-10.167869,0.773121,2.426396,0.376981,0.7079,0.7744
1696784165351562,-10.321869,0.948121,2.291396,0.319281,0.999,0.32956
1696784165359375,-10.314869,1.64121,2.28396,0.274581,0.1341,0.85256
1696784165367187,-10.172869,1.70121,1.620396,0.269581,0.1759,0.136956
1696784165375000,-10.15869,1.112121,1.95396,0.295881,0.7009,0.173156
1696784165382812,-9.907869,1.77121,0.667396,0.290581,0.11409,0.207156
1696784165390625,-9.764869,0.990121,0.645396,0.254081,0.15249,0.237956
1696784165398437,-9.587869,0.892121,1.7396,0.215181,0.15889,0.253556
1696784165406250,-9.556869,0.898121,1.323396,0.180581,0.12879,0.268856
1696784165414062,-9.689869,0.929121,1.584396,0.163181,0.11259,0.262156
1696784165421875,-9.839869,0.919121,1.685396,0.181481,0.10649,0.235056
1696784165429687,-9.960869,0.885121,1.624396,0.204481,0.12239,0.211156
1696784165437500,-10.2869,0.826121,1.528396,0.227481,0.15829,0.177756
1696784165445312,-9.933869,0.778121,1.539396,0.260681,0.22309,0.156356
1696784165453125,-9.876869,0.839121,1.597396,0.296481,0.27189,0.132856
1696784165460937,-9.814869,0.927121,1.631396,0.312281,0.27379,0.133256
1696784165468750,-9.732869,0.999121,1.586396,0.311981,0.24579,0.131356
1696784165476562,-9.659869,1.58121,1.701396,0.287081,0.22419,0.150056
1696784165484375,-9.549869,1.61121,1.800396,0.296781,0.20509,0.161556
1696784165492187,-9.441869,1.68121,1.832396,0.323481,0.19959,0.176156
1696784165500000,-9.346869,1.29121,1.721396,0.360081,0.20019,0.188056
1696784165507812,-9.305869,0.946121,1.593396,0.377181,0.18999,0.191256
1696784165515625,-9.335869,0.891121,1.489396,0.386081,0.14709,0.186056
1696784165523437,-9.373869,0.831121,1.437396,0.406081,0.13049,0.176456
1696784165531250,-9.393869,0.703121,1.392396,0.432881,0.12439,0.173756
1696784165539062,-9.406869,0.654121,1.329396,0.422681,0.7499,0.158656
1696784165546875,-9.466869,0.640121,1.266396,0.399881,0.4059,0.132256
1696784165554687,-9.513869,0.627121,1.255396,0.385281,0.3109,0.109556
1696784165562500,-9.503869,0.651121,1.331396,0.353281,0.3069,0.84856
1696784165570312,-9.425869,0.577121,1.295396,0.324981,0.4239,0.75056
1696784165578125,-9.323869,0.531121,1.289396,0.276081,0.5899,0.53756
1696784165585937,-9.243869,0.452121,1.302396,0.219281,0.6279,0.29056
1696784165593750,-9.164869,0.300121,1.300396,0.162381,0.7239,0.7456
1696784165601562,-9.109869,0.215121,1.347396,0.118281,0.8619,0.15244
1696784165609375,-9.110869,0.160121,1.388396,0.72281,0.8309,0.39944
1696784165617187,-9.166869,0.105121,1.417396,0.27781,0.6159,0.58444
1696784165625000,-9.226869,0.75121,1.487396,0.11619,0.6319,0.67044
1696784165632812,-9.273869,0.93121,1.493396,0.22619,0.3929,0.70244
1696784165640625,-9.314869,0.103121,1.383396,0.39919,0.3249,0.64244
1696784165648437,-9.314869,0.103121,1.207396,0.47619,0.3239,0.57844
1696784165656250,-9.337869,0.112121,1.117396,0.69719,0.5059,0.74044
1696784165664062,-9.423869,0.142121,1.140396,0.90419,0.5369,0.85644
1696784165671875,-9.479869,0.163121,1.273396,0.119519,0.2699,0.105744
1696784165679687,-9.509869,0.226121,1.500396,0.144419,0.1009,0.113744
1696784165687500,-9.521869,0.272121,1.665396,0.177919,0.851,0.120944
1696784165695312,-9.539869,0.368121,1.761396,0.218719,0.4271,0.113544
1696784165703125,-9.630869,0.454121,1.746396,0.261319,0.7581,0.112844
1696784165710937,-9.691869,0.488121,1.660396,0.304719,0.8141,0.103344
1696784165718750,-9.721869,0.533121,1.527396,0.337719,0.7841,0.100644
1696784165726562,-9.701869,0.541121,1.446396,0.375219,0.5181,0.107144
1696784165734375,-9.662869,0.528121,1.383396,0.411219,0.5981,0.109144
1696784165742187,-9.628869,0.503121,1.385396,0.434819,0.7101,0.111044
1696784165750000,-9.622869,0.527121,1.424396,0.485119,0.7471,0.105444
1696784165757812,-9.596869,0.577121,1.478396,0.530519,0.9981,0.88644
1696784165765625,-9.627869,0.583121,1.658396,0.563219,0.11531,0.83944
1696784165773437,-9.709869,0.626121,2.14396,0.574119,0.12201,0.74544
1696784165781250,-9.924869,0.734121,2.568396,0.547119,0.9611,0.66044
1696784165789062,-10.190869,0.905121,3.298396,0.458619,0.3861,0.56444
1696784165796875,-10.354869,1.85121,3.546396,0.326619,0.3051,0.45144
1696784165804687,-10.312869,1.306121,2.832396,0.205319,0.3411,0.14844
1696784165812500,-10.65869,1.586121,2.59396,0.148219,0.959,0.8556
1696784165820312,-9.795869,1.990121,1.706396,0.135219,0.529,0.21756
1696784165828125,-9.519869,2.289121,1.729396,0.163719,0.5271,0.36856
1696784165835937,-9.260869,2.454121,1.992396,0.197719,0.9181,0.70156
1696784165843750,-9.123869,2.432121,2.328396,0.216619,0.12761,0.71356
1696784165851562,-9.95869,2.352121,2.639396,0.204519,0.11551,0.66356
1696784165859375,-9.190869,2.231121,2.688396,0.191519,0.6101,0.63856
1696784165867187,-9.274869,1.986121,2.600396,0.171419,0.1819,0.41656
1696784165875000,-9.351869,1.723121,2.282396,0.137919,0.7769,0.42756
1696784165882812,-9.345869,1.379121,2.16396,0.123919,0.8939,0.26956
1696784165890625,-9.378869,1.34121,1.829396,0.114719,0.5989,0.30056
1696784165898437,-9.373869,0.714121,1.777396,0.119519,0.1259,0.36156
1696784165906250,-9.381869,0.510121,1.856396,0.100919,0.2301,0.26656
1696784165914062,-9.337869,0.443121,1.989396,0.88819,0.4171,0.23156
1696784165921875,-9.300869,0.469121,2.174396,0.59319,0.3871,0.15356
1696784165929687,-9.272869,0.571121,2.198396,0.40319,0.3011,0.14256
1696784165937500,-9.295869,0.786121,2.106396,0.52719,0.2641,0.10956
1696784165945312,-9.333869,1.29121,2.57396,0.62519,0.4091,0.3644
1696784165953125,-9.368869,1.251121,2.82396,0.53219,0.3511,0.544
1696784165960937,-9.395869,1.407121,2.152396,0.32519,0.3301,0.6356
1696784165968750,-9.362869,1.482121,2.233396,0.2819,0.2851,0.8156
1696784165976562,-9.323869,1.514121,2.309396,0.30081,0.1101,0.10156
1696784165984375,-9.342869,1.464121,2.321396,0.55281,0.1681,0.544
1696784165992187,-9.388869,1.373121,2.357396,0.75381,0.2351,0.8544
1696784166000000,-9.447869,1.297121,2.386396,0.86281,0.2621,0.19444
1696784166007812,-9.500869,1.213121,2.363396,0.82981,0.3771,0.26044
1696784166015625,-9.575869,1.115121,2.309396,0.81181,0.4311,0.26344
1696784166023437,-9.646869,1.96121,2.262396,0.57581,0.4941,0.28144
1696784166031250,-9.686869,1.28121,2.273396,0.57681,0.4601,0.28044
1696784166039062,-9.735869,1.4121,2.293396,0.46981,0.4111,0.18444
1696784166046875,-9.736869,0.978121,2.287396,0.37981,0.3081,0.8644
1696784166054687,-9.727869,0.964121,2.269396,0.33081,0.1871,0.2544
1696784166062500,-9.713869,1.19121,2.262396,0.38181,0.1681,0.5656
1696784166070312,-9.689869,1.81121,2.282396,0.39981,0.1831,0.15356
1696784166078125,-9.640869,1.142121,2.266396,0.46281,0.1831,0.20256
1696784166085937,-9.587869,1.179121,2.224396,0.52281,0.1801,0.29456
1696784166093750,-9.513869,1.211121,2.167396,0.61881,0.2081,0.32956
1696784166101562,-9.466869,1.210121,2.134396,0.61981,0.2271,0.39356
1696784166109375,-9.405869,1.194121,2.122396,0.76181,0.2241,0.38056
1696784166117187,-9.351869,1.175121,2.147396,0.87281,0.2391,0.39856
1696784166125000,-9.321869,1.164121,2.154396,0.90081,0.4001,0.28556
1696784166132812,-9.284869,1.167121,2.165396,0.94481,0.4071,0.23456
1696784166140625,-9.250869,1.205121,2.172396,0.91181,0.6361,0.24856
1696784166148437,-9.251869,1.231121,2.192396,0.83181,0.7801,0.16756
1696784166156250,-9.255869,1.238121,2.197396,0.54981,0.8271,0.11656
1696784166164062,-9.271869,1.245121,2.210396,0.39281,0.8751,0.13056
1696784166171875,-9.300869,1.228121,2.197396,0.26681,0.8901,0.9756
1696784166179687,-9.331869,1.188121,2.183396,0.18981,0.7901,0.9856
1696784166187500,-9.341869,1.131121,2.185396,0.7581,0.6981,0.144
1696784166195312,-9.354869,1.82121,2.169396,0.419,0.8281,0.6744
1696784166203125,-9.363869,1.53121,2.129396,0.19419,0.7801,0.11844
1696784166210937,-9.380869,1.7121,2.64396,0.20919,0.7951,0.11844
1696784166218750,-9.393869,1.3121,2.1396,0.34919,0.8081,0.13444
1696784166226562,-9.390869,0.956121,1.960396,0.31919,0.8381,0.23044
1696784166234375,-9.372869,0.960121,1.967396,0.22719,0.8531,0.34144
1696784166242187,-9.341869,0.973121,1.982396,0.19719,0.8711,0.39044
1696784166250000,-9.337869,0.984121,2.5396,0.7419,0.9381,0.43844
1696784166257812,-9.358869,1.22121,1.974396,0.8181,0.10531,0.43744
1696784166265625,-9.382869,1.36121,1.899396,0.5081,0.10351,0.46944
1696784166273437,-9.410869,1.56121,1.883396,0.12581,0.11351,0.55044
1696784166281250,-9.475869,1.66121,1.861396,0.25081,0.11221,0.55044
1696784166289062,-9.518869,1.67121,1.838396,0.26881,0.11281,0.59444
1696784166296875,-9.569869,1.70121,1.827396,0.15681,0.11981,0.58144
1696784166304687,-9.626869,1.82121,1.854396,0.27881,0.11891,0.63144
1696784166312500,-9.662869,1.85121,1.879396,0.15481,0.12471,0.66244
1696784166320312,-9.698869,1.83121,1.908396,0.12481,0.12621,0.64644
1696784166328125,-9.728869,1.110121,1.931396,0.9181,0.12501,0.64844
1696784166335937,-9.757869,1.142121,1.933396,0.1681,0.12311,0.53544
1696784166343750,-9.762869,1.173121,1.915396,0.10819,0.12531,0.39444
1696784166351562,-9.773869,1.166121,1.908396,0.20219,0.11561,0.41144
1696784166359375,-9.786869,1.113121,1.944396,0.21319,0.10891,0.24944
1696784166367187,-9.761869,1.95121,1.998396,0.19719,0.10441,0.18544
1696784166375000,-9.722869,1.43121,2.1396,0.17819,0.10241,0.8744
1696784166382812,-9.664869,1.40121,2.34396,0.20819,0.9591,0.2244
1696784166390625,-9.682869,1.41121,2.70396,0.4819,0.9091,0.7656
1696784166398437,-9.725869,1.61121,2.131396,0.9581,0.9921,0.25456
1696784166406250,-9.710869,1.112121,2.147396,0.23681,0.8951,0.22456
1696784166414062,-9.681869,1.138121,2.102396,0.38081,0.8321,0.41856
1696784166421875,-9.648869,1.171121,2.50396,0.53981,0.7781,0.40656
1696784166429687,-9.585869,1.194121,1.998396,0.75881,0.7191,0.45556
1696784166437500,-9.489869,1.241121,1.996396,0.96081,0.6401,0.40956
1696784166445312,-9.426869,1.249121,1.996396,0.110481,0.5881,0.46056
1696784166453125,-9.372869,1.242121,1.947396,0.123181,0.7131,0.46356
1696784166460937,-9.336869,1.206121,1.958396,0.146681,0.7461,0.48256
1696784166468750,-9.317869,1.126121,1.859396,0.155881,0.8481,0.46556
1696784166476562,-9.267869,1.96121,1.769396,0.159081,0.7661,0.45056
1696784166484375,-9.268869,1.81121,1.685396,0.157281,0.7451,0.27456
1696784166492187,-9.315869,1.52121,1.539396,0.157381,0.4831,0.24456
1696784166500000,-9.389869,1.20121,1.503396,0.158281,0.1761,0.7744
1696784166507812,-9.485869,1.13121,1.478396,0.146781,0.541,0.47844
1696784166515625,-9.559869,0.967121,1.489396,0.128881,0.2519,0.80244
1696784166523437,-9.605869,0.873121,1.586396,0.111081,0.3659,0.104544
1696784166531250,-9.638869,0.835121,1.694396,0.80981,0.3339,0.121044
1696784166539062,-9.647869,0.811121,1.730396,0.73181,0.879,0.110044
1696784166546875,-9.662869,0.823121,1.633396,0.40481,0.1079,0.107044
1696784166554687,-9.627869,0.860121,1.521396,0.4681,0.1339,0.110344
1696784166562500,-9.574869,0.921121,1.505396,0.21819,0.2329,0.107344
1696784166570312,-9.523869,0.978121,1.559396,0.45319,0.1529,0.104344
1696784166578125,-9.508869,1.44121,1.588396,0.67319,0.509,0.101544
1696784166585937,-9.523869,1.100121,1.615396,0.73719,0.1181,0.89144
1696784166593750,-9.645869,1.140121,1.685396,0.71919,0.3611,0.76244
1696784166601562,-9.762869,1.164121,1.724396,0.38819,0.6081,0.61544
1696784166609375,-9.819869,1.191121,1.730396,0.7319,0.6941,0.45344
1696784166617187,-9.837869,1.196121,1.753396,0.24081,0.7641,0.32244
1696784166625000,-9.794869,1.208121,1.782396,0.46181,0.8321,0.20844
1696784166632812,-9.720869,1.219121,1.825396,0.78081,0.7101,0.12044
1696784166640625,-9.628869,1.219121,1.861396,0.78081,0.7931,0.8944
1696784166648437,-9.559869,1.245121,1.904396,0.76881,0.8401,0.7256
1696784166656250,-9.557869,1.258121,1.893396,0.83281,0.9711,0.18456
1696784166664062,-9.572869,1.250121,1.755396,0.104181,0.9981,0.28556
1696784166671875,-9.592869,1.219121,1.485396,0.104181,0.9201,0.33356
1696784166679687,-9.607869,1.148121,1.399396,0.97581,0.7351,0.31356
1696784166687500,-9.608869,1.61121,1.546396,0.111381,0.6911,0.26556
1696784166695312,-9.602869,0.986121,1.593396,0.125781,0.6151,0.20656
1696784166703125,-9.565869,0.959121,1.539396,0.132181,0.5951,0.17656
1696784166710937,-9.561869,0.992121,1.516396,0.133981,0.6111,0.25756
1696784166718750,-9.569869,1.70121,1.566396,0.132381,0.5631,0.25756
1696784166726562,-9.566869,1.127121,1.604396,0.132281,0.4501,0.24156
1696784166734375,-9.532869,1.136121,1.615396,0.120081,0.2811,0.25956
1696784166742187,-9.523869,1.113121,1.688396,0.119681,0.2431,0.23856
1696784166750000,-9.590869,1.68121,1.811396,0.138481,0.2441,0.25756
1696784166757812,-9.686869,1.54121,1.935396,0.163681,0.2571,0.24556
1696784166765625,-9.781869,1.73121,1.938396,0.179181,0.4581,0.27656
1696784166773437,-9.779869,1.98121,1.811396,0.184481,0.3681,0.37756
1696784166781250,-9.721869,1.107121,1.604396,0.182881,0.671,0.45656
1696784166789062,-9.671869,1.93121,1.377396,0.192581,0.2129,0.50856
1696784166796875,-9.648869,1.37121,1.120396,0.194581,0.7619,0.38656
1696784166804687,-9.680869,0.962121,0.883396,0.183281,0.14769,0.8256
1696784166812500,-9.742869,0.884121,0.870396,0.170781,0.21239,0.23344
1696784166820312,-9.802869,0.836121,1.41396,0.174881,0.27249,0.58544
1696784166828125,-9.846869,0.810121,1.345396,0.193681,0.30289,0.83544
1696784166835937,-9.876869,0.828121,1.687396,0.235381,0.30069,0.104144
1696784166843750,-9.936869,0.931121,1.949396,0.281981,0.27109,0.115244
1696784166851562,-9.926869,1.24121,1.951396,0.305181,0.24259,0.110544
1696784166859375,-9.909869,1.108121,1.825396,0.307381,0.24179,0.94044
1696784166867187,-9.834869,1.153121,1.701396,0.293281,0.27189,0.86344
1696784166875000,-9.764869,1.164121,1.602396,0.276681,0.29889,0.79544
1696784166882812,-9.715869,1.154121,1.597396,0.253181,0.29909,0.79744
1696784166890625,-9.640869,1.98121,1.643396,0.223381,0.29279,0.83344
1696784166898437,-9.571869,1.32121,1.669396,0.207581,0.27139,0.80544
1696784166906250,-9.481869,0.995121,1.624396,0.196581,0.26119,0.71144
1696784166914062,-9.352869,0.951121,1.606396,0.182481,0.25499,0.74444
1696784166921875,-9.223869,0.900121,1.642396,0.182381,0.24499,0.74644
1696784166929687,-9.101869,0.867121,1.627396,0.163181,0.20719,0.76744
1696784166937500,-9.46869,0.815121,1.627396,0.156581,0.17319,0.89844
1696784166945312,-9.12869,0.779121,1.631396,0.159381,0.12569,0.88544
1696784166953125,-9.12869,0.773121,1.611396,0.176281,0.8929,0.85544
1696784166960937,-8.990869,0.805121,1.453396,0.181181,0.5809,0.66444
1696784166968750,-8.925869,0.822121,1.196396,0.162581,0.3219,0.53844
1696784166976562,-8.892869,0.846121,0.877396,0.143681,0.2339,0.41444
1696784166984375,-8.907869,0.806121,0.699396,0.107681,0.1759,0.51344
1696784166992187,-9.21869,0.768121,0.712396,0.77781,0.661,0.56544
1696784167000000,-9.254869,0.703121,0.892396,0.39481,0.2021,0.73444
1696784167007812,-9.563869,0.623121,1.172396,0.3519,0.4431,0.101344
1696784167015625,-9.850869,0.477121,1.408396,0.33919,0.4941,0.127544
1696784167023437,-10.25869,0.331121,1.475396,0.87419,0.5361,0.145744
1696784167031250,-10.62869,0.252121,1.426396,0.114119,0.2231,0.158544
1696784167039062,-10.26869,0.229121,1.322396,0.152019,0.1631,0.160844
1696784167046875,-9.980869,0.319121,1.250396,0.187919,0.1301,0.154744
1696784167054687,-9.913869,0.447121,1.286396,0.222019,0.941,0.143744
1696784167062500,-9.893869,0.604121,1.381396,0.246819,0.2271,0.121644
1696784167070312,-9.873869,0.764121,1.537396,0.263919,0.4071,0.110744
1696784167078125,-9.872869,0.884121,1.647396,0.273119,0.6371,0.91644
1696784167085937,-9.829869,0.963121,1.710396,0.279319,0.7531,0.80644
1696784167093750,-9.780869,1.9121,1.762396,0.280619,0.8671,0.66144
1696784167101562,-9.790869,1.64121,1.854396,0.275519,0.9441,0.54744
1696784167109375,-9.840869,1.134121,1.877396,0.244319,0.8881,0.49844
1696784167117187,-9.836869,1.180121,1.568396,0.213719,0.6861,0.29744
1696784167125000,-9.737869,1.167121,1.62396,0.221719,0.5931,0.29944
1696784167132812,-9.604869,1.105121,0.908396,0.256419,0.3151,0.46344
1696784167140625,-9.486869,1.51121,1.21396,0.260919,0.239,0.68244
1696784167148437,-9.417869,0.945121,1.359396,0.240419,0.4529,0.80444
1696784167156250,-9.435869,0.815121,1.606396,0.216019,0.6129,0.109244
1696784167164062,-9.486869,0.745121,1.669396,0.194319,0.7439,0.126544
1696784167171875,-9.525869,0.650121,1.843396,0.175619,0.9719,0.135944
1696784167179687,-9.569869,0.624121,1.996396,0.116219,0.10179,0.143344
1696784167187500,-9.604869,0.676121,2.396,0.92719,0.7119,0.141444
1696784167195312,-9.675869,0.748121,1.949396,0.113619,0.2289,0.137644
1696784167203125,-9.750869,0.851121,1.967396,0.133719,0.271,0.129644
1696784167210937,-9.753869,0.909121,1.940396,0.163119,0.59,0.112244
1696784167218750,-9.695869,0.928121,1.928396,0.173919,0.1699,0.105844
1696784167226562,-9.585869,0.886121,1.845396,0.190619,0.4479,0.89744
1696784167234375,-9.505869,0.849121,1.701396,0.195419,0.5429,0.91444
1696784167242187,-9.476869,0.815121,1.714396,0.192319,0.6269,0.97744
1696784167250000,-9.477869,0.758121,1.827396,0.176719,0.5939,0.100844
1696784167257812,-9.481869,0.718121,1.951396,0.159619,0.3989,0.105544
1696784167265625,-9.530869,0.665121,1.906396,0.150319,0.1959,0.92944
1696784167273437,-9.560869,0.610121,1.622396,0.188019,0.2091,0.88644
1696784167281250,-9.500869,0.623121,1.498396,0.252719,0.4711,0.99344
1696784167289062,-9.583869,0.655121,1.692396,0.329519,0.4671,0.103244
1696784167296875,-9.623869,0.738121,2.39396,0.414119,0.5801,0.101044
1696784167304687,-9.701869,0.828121,2.32396,0.502119,0.8931,0.94344
1696784167312500,-9.688869,0.908121,1.960396,0.610419,0.11881,0.86244
1696784167320312,-9.721869,0.955121,2.120396,0.710919,0.14811,0.85944
1696784167328125,-9.865869,0.979121,2.233396,0.753119,0.14621,0.84744
1696784167335937,-9.825869,1.38121,2.248396,0.741819,0.10111,0.70044
1696784167343750,-9.687869,1.80121,2.37396,0.727319,0.9321,0.52244
1696784167351562,-9.566869,1.154121,1.976396,0.768919,0.10401,0.23544
1696784167359375,-9.430869,1.170121,2.111396,0.818919,0.16301,0.2856
1696784167367187,-9.422869,1.136121,2.118396,0.792219,0.15501,0.6356
1696784167375000,-9.460869,1.108121,2.73396,0.699119,0.7301,0.4956
1696784167382812,-9.406869,1.94121,2.12396,0.565519,0.3499,0.15344
1696784167390625,-9.332869,1.106121,2.68396,0.481219,0.6729,0.36744
1696784167398437,-9.395869,1.229121,2.242396,0.412619,0.4429,0.45844
1696784167406250,-9.573869,1.416121,2.366396,0.364319,0.39,0.51944
1696784167414062,-9.703869,1.691121,2.316396,0.315919,0.139,0.54744
1696784167421875,-9.803869,1.941121,2.224396,0.272019,0.829,0.63744
1696784167429687,-9.895869,2.204121,2.267396,0.234419,0.489,0.63344
1696784167437500,-10.6869,2.435121,2.438396,0.188719,0.101,0.61044
1696784167445312,-10.62869,2.524121,2.596396,0.130019,0.3319,0.35944
1696784167453125,-9.962869,2.618121,2.551396,0.80819,0.8309,0.12744
1696784167460937,-9.729869,2.614121,2.377396,0.47419,0.13779,0.8556
1696784167468750,-9.201869,2.515121,2.393396,0.2619,0.18789,0.16256
1696784167476562,-8.698869,2.275121,2.429396,0.56581,0.14989,0.18256
1696784167484375,-8.402869,2.13121,2.249396,0.121081,0.7359,0.36456
1696784167492187,-8.301869,1.729121,2.136396,0.183081,0.2219,0.26856
1696784167500000,-8.413869,1.449121,1.949396,0.249581,0.3201,0.4656
1696784167507812,-8.682869,1.216121,1.775396,0.296781,0.7031,0.40444
1696784167515625,-9.25869,1.50121,1.710396,0.316081,0.8781,0.94944
1696784167523437,-9.350869,0.948121,1.674396,0.306481,0.12111,0.153544
1696784167531250,-9.610869,0.939121,1.593396,0.258181,0.16241,0.220044
1696784167539062,-9.721869,0.977121,1.507396,0.185181,0.18451,0.265844
1696784167546875,-9.679869,1.38121,1.433396,0.91881,0.21741,0.289844
1696784167554687,-9.618869,1.159121,1.357396,0.19319,0.24471,0.283044
1696784167562500,-9.539869,1.247121,1.397396,0.143219,0.26311,0.268744
1696784167570312,-9.535869,1.466121,1.505396,0.277719,0.26181,0.243044
1696784167578125,-9.560869,1.635121,1.620396,0.406519,0.25401,0.205344
1696784167585937,-9.543869,1.711121,1.708396,0.520419,0.22491,0.177644
1696784167593750,-9.454869,1.722121,1.733396,0.619719,0.14471,0.152544
1696784167601562,-9.310869,1.598121,1.773396,0.692219,0.6711,0.128344
1696784167609375,-9.237869,1.533121,1.872396,0.755719,0.1551,0.95244
1696784167617187,-9.274869,1.454121,2.192396,0.808419,0.1391,0.66844
1696784167625000,-9.383869,1.342121,2.440396,0.765519,0.2351,0.40544
1696784167632812,-9.456869,1.284121,2.602396,0.661419,0.729,0.18244
1696784167640625,-9.487869,1.226121,2.670396,0.568419,0.3279,0.10156
1696784167648437,-9.534869,1.258121,2.579396,0.511919,0.2939,0.14056
1696784167656250,-9.606869,1.379121,2.442396,0.472719,0.2289,0.12856
1696784167664062,-9.688869,1.589121,2.327396,0.464519,0.4319,0.10156
1696784167671875,-9.714869,1.842121,2.105396,0.483419,0.8369,0.3656
1696784167679687,-9.619869,2.95121,1.819396,0.519419,0.12149,0.6144
1696784167687500,-9.474869,2.304121,1.524396,0.566119,0.16929,0.11144
1696784167695312,-9.329869,2.534121,1.425396,0.611419,0.20339,0.6644
1696784167703125,-9.251869,2.718121,1.515396,0.643719,0.21569,0.3056
1696784167710937,-9.175869,2.743121,1.580396,0.667519,0.18889,0.8756
1696784167718750,-9.201869,2.783121,1.531396,0.669619,0.16999,0.6656
1696784167726562,-9.254869,2.777121,1.472396,0.659819,0.17869,0.11856
1696784167734375,-9.314869,2.723121,1.528396,0.615619,0.19509,0.18956
1696784167742187,-9.331869,2.665121,1.573396,0.548219,0.19119,0.32356
1696784167750000,-9.361869,2.673121,1.589396,0.485119,0.19149,0.41356
1696784167757812,-9.393869,2.762121,1.652396,0.433219,0.20779,0.45256
1696784167765625,-9.453869,2.829121,1.736396,0.384719,0.22069,0.37756
1696784167773437,-9.635869,2.952121,1.830396,0.344719,0.19559,0.18556
1696784167781250,-9.848869,3.79121,1.990396,0.308919,0.20889,0.244
1696784167789062,-9.950869,3.101121,2.175396,0.263319,0.28099,0.18444
1696784167796875,-9.909869,3.107121,1.968396,0.243219,0.29739,0.39044
1696784167804687,-9.799869,3.94121,1.718396,0.253119,0.28769,0.60144
1696784167812500,-9.740869,3.78121,1.662396,0.259719,0.26729,0.84144
1696784167820312,-9.770869,3.127121,1.639396,0.224219,0.27829,0.104844
1696784167828125,-9.742869,3.89121,1.756396,0.201919,0.31629,0.107344
1696784167835937,-9.701869,3.4121,1.918396,0.191819,0.31859,0.135044
1696784167843750,-9.701869,2.904121,1.866396,0.195119,0.29459,0.141444
1696784167851562,-9.710869,2.835121,1.754396,0.176619,0.30409,0.154244
1696784167859375,-9.663869,2.739121,1.664396,0.160819,0.33189,0.158644
1696784167867187,-9.550869,2.740121,1.751396,0.122519,0.37379,0.157544
1696784167875000,-9.470869,2.727121,1.907396,0.66119,0.43839,0.164744
1696784167882812,-9.502869,2.653121,1.846396,0.17519,0.45799,0.168944
1696784167890625,-9.574869,2.667121,1.686396,0.1819,0.44389,0.176644
1696784167898437,-9.673869,2.682121,1.614396,0.21019,0.41109,0.183544
1696784167906250,-9.633869,2.670121,1.693396,0.59019,0.36529,0.187544
1696784167914062,-9.456869,2.594121,1.974396,0.92319,0.35029,0.191444
1696784167921875,-9.405869,2.498121,2.249396,0.95419,0.35429,0.205644
1696784167929687,-9.358869,2.464121,2.184396,0.94619,0.31219,0.208044
1696784167937500,-9.291869,2.363121,2.114396,0.93119,0.29959,0.214344
1696784167945312,-9.140869,2.350121,2.100396,0.95419,0.29409,0.229144
1696784167953125,-8.976869,2.323121,2.175396,0.96219,0.31249,0.217544
1696784167960937,-8.907869,2.268121,2.114396,0.82319,0.28289,0.214444
1696784167968750,-8.810869,2.356121,2.44396,0.72919,0.23929,0.209544
1696784167976562,-8.816869,2.469121,1.909396,0.58919,0.19939,0.195444
1696784167984375,-8.824869,2.562121,1.461396,0.62419,0.10939,0.183244
1696784167992187,-8.788869,2.701121,1.420396,0.84119,0.11449,0.180144
1696784168000000,-8.709869,2.820121,1.481396,0.57319,0.15219,0.181144
1696784168007812,-8.616869,2.896121,1.328396,0.42919,0.13899,0.163344
1696784168015625,-8.511869,2.923121,1.170396,0.82119,0.7999,0.143344
1696784168023437,-8.414869,2.950121,1.206396,0.116319,0.2079,0.110444
1696784168031250,-8.392869,2.959121,1.366396,0.103119,0.459,0.76444
1696784168039062,-8.407869,2.931121,1.668396,0.68319,0.1211,0.55344
1696784168046875,-8.480869,2.974121,1.844396,0.27619,0.5771,0.47044
1696784168054687,-8.540869,2.946121,1.871396,0.24181,0.7681,0.22744
1696784168062500,-8.612869,2.927121,1.812396,0.65081,0.10241,0.20644
1696784168070312,-8.761869,2.958121,1.666396,0.105581,0.13721,0.15744
1696784168078125,-8.780869,3.34121,1.475396,0.147981,0.15661,0.12044
1696784168085937,-8.715869,3.64121,1.463396,0.178281,0.15681,0.15656
1696784168093750,-8.821869,3.79121,1.369396,0.188081,0.20061,0.38156
1696784168101562,-8.855869,3.113121,1.310396,0.179881,0.27171,0.55056
1696784168109375,-8.976869,3.90121,1.457396,0.213181,0.25551,0.71656
1696784168117187,-9.115869,3.70121,1.315396,0.238581,0.27671,0.91156
1696784168125000,-9.155869,3.33121,1.234396,0.259481,0.25861,0.104456
1696784168132812,-9.208869,2.987121,1.369396,0.297381,0.21851,0.119356
1696784168140625,-9.250869,2.937121,1.511396,0.312281,0.22121,0.147156
1696784168148437,-9.251869,2.868121,1.666396,0.307681,0.26421,0.174056
1696784168156250,-9.323869,2.703121,1.992396,0.317381,0.28411,0.194856
1696784168164062,-9.511869,2.487121,2.503396,0.350181,0.25011,0.184056
1696784168171875,-9.816869,2.301121,2.979396,0.384381,0.23201,0.163656
1696784168179687,-10.54869,2.27121,3.44396,0.349081,0.26071,0.123056
1696784168187500,-10.248869,1.751121,2.794396,0.274381,0.29971,0.84956
1696784168195312,-10.446869,1.372121,2.521396,0.221681,0.30801,0.43856
1696784168203125,-10.539869,1.127121,2.359396,0.234081,0.25551,0.20256
1696784168210937,-10.107869,0.941121,2.395396,0.259481,0.17871,0.17856
1696784168218750,-9.559869,0.937121,2.708396,0.274381,0.9051,0.26656
1696784168226562,-9.320869,1.73121,2.951396,0.329881,0.7361,0.43756
1696784168234375,-9.299869,1.288121,3.46396,0.411881,0.9171,0.70356
1696784168242187,-9.462869,1.492121,2.913396,0.485581,0.13631,0.86856
1696784168250000,-9.693869,1.678121,2.399396,0.514781,0.18491,0.64556
1696784168257812,-9.653869,1.821121,1.868396,0.532681,0.14101,0.13356
1696784168265625,-9.516869,1.925121,1.533396,0.511381,0.7391,0.47744
1696784168273437,-9.312869,2.121,1.449396,0.477881,0.6191,0.86444
1696784168281250,-9.145869,2.92121,1.661396,0.413981,0.10621,0.123044
1696784168289062,-9.126869,2.174121,2.66396,0.321781,0.19691,0.126744
1696784168296875,-9.239869,2.189121,2.375396,0.262481,0.27171,0.111644
1696784168304687,-9.346869,2.165121,2.449396,0.231781,0.27571,0.95544
1696784168312500,-9.313869,2.51121,2.271396,0.229181,0.25191,0.65044
1696784168320312,-9.237869,1.919121,2.105396,0.205181,0.20431,0.29544
1696784168328125,-9.161869,1.791121,2.32396,0.182281,0.18801,0.7144
1696784168335937,-9.76869,1.688121,2.210396,0.164081,0.18281,0.16956
1696784168343750,-9.20869,1.554121,2.480396,0.154881,0.17811,0.28156
1696784168351562,-9.12869,1.461121,2.724396,0.176981,0.17191,0.39556
1696784168359375,-9.112869,1.407121,2.755396,0.183281,0.17321,0.34956
1696784168367187,-9.219869,1.355121,2.625396,0.183081,0.15881,0.25256
1696784168375000,-9.297869,1.283121,2.483396,0.178381,0.15061,0.23656
1696784168382812,-9.386869,1.271121,2.262396,0.154881,0.15181,0.17056
1696784168390625,-9.466869,1.319121,2.73396,0.124881,0.15191,0.13456
1696784168398437,-9.518869,1.355121,2.68396,0.79281,0.14671,0.3044
1696784168406250,-9.433869,1.425121,2.208396,0.41781,0.13971,0.1744
1696784168414062,-9.347869,1.486121,2.431396,0.5481,0.14051,0.756
1696784168421875,-9.324869,1.499121,2.604396,0.18919,0.13641,0.15356
1696784168429687,-9.343869,1.522121,2.634396,0.12419,0.13631,0.23556
1696784168437500,-9.375869,1.542121,2.564396,0.14019,0.12851,0.26656
1696784168445312,-9.364869,1.586121,2.483396,0.4519,0.11881,0.29956
1696784168453125,-9.333869,1.592121,2.447396,0.6119,0.11751,0.34656
1696784168460937,-9.313869,1.645121,2.487396,0.3581,0.12361,0.42956
1696784168468750,-9.309869,1.663121,2.499396,0.24381,0.11961,0.46756
1696784168476562,-9.313869,1.659121,2.508396,0.39981,0.11991,0.50056
1696784168484375,-9.306869,1.623121,2.512396,0.50781,0.11371,0.46856
1696784168492187,-9.306869,1.581121,2.514396,0.58581,0.10751,0.48456
1696784168500000,-9.289869,1.549121,2.512396,0.38481,0.11051,0.54856
1696784168507812,-9.307869,1.499121,2.467396,0.5181,0.12551,0.50956
1696784168515625,-9.310869,1.465121,2.453396,0.13419,0.11541,0.52556
1696784168523437,-9.290869,1.441121,2.449396,0.24319,0.9891,0.49356
1696784168531250,-9.247869,1.404121,2.424396,0.51119,0.10571,0.47256
1696784168539062,-9.239869,1.367121,2.372396,0.83919,0.11191,0.48556
1696784168546875,-9.255869,1.374121,2.314396,0.105819,0.11991,0.51556
1696784168554687,-9.273869,1.392121,2.293396,0.142019,0.10701,0.46256
1696784168562500,-9.285869,1.418121,2.327396,0.168519,0.11341,0.52456
1696784168570312,-9.330869,1.415121,2.370396,0.196919,0.12511,0.56756
1696784168578125,-9.345869,1.386121,2.384396,0.213819,0.11461,0.53656
1696784168585937,-9.358869,1.324121,2.372396,0.220319,0.9721,0.53456
1696784168593750,-9.351869,1.319121,2.338396,0.231319,0.9761,0.58056
1696784168601562,-9.351869,1.328121,2.320396,0.246919,0.9261,0.57856
1696784168609375,-9.332869,1.386121,2.289396,0.267119,0.9441,0.68856
1696784168617187,-9.328869,1.468121,2.190396,0.287219,0.9541,0.72056
1696784168625000,-9.282869,1.538121,2.145396,0.318319,0.9361,0.79856
1696784168632812,-9.274869,1.556121,2.118396,0.316719,0.9521,0.84756
1696784168640625,-9.290869,1.567121,2.107396,0.315319,0.7931,0.81456
1696784168648437,-9.311869,1.605121,2.75396,0.298119,0.8101,0.78356
1696784168656250,-9.351869,1.623121,2.37396,0.292119,0.8601,0.70356
1696784168664062,-9.406869,1.688121,1.958396,0.293719,0.9621,0.74956
1696784168671875,-9.455869,1.780121,1.852396,0.291919,0.10051,0.78356
1696784168679687,-9.433869,1.844121,1.794396,0.294519,0.9971,0.88356
1696784168687500,-9.395869,1.863121,1.764396,0.313819,0.12711,0.97156
1696784168695312,-9.382869,1.874121,1.780396,0.316519,0.13791,0.108556
1696784168703125,-9.365869,1.814121,1.832396,0.308619,0.14941,0.111756
1696784168710937,-9.387869,1.768121,1.866396,0.296319,0.15121,0.106956
1696784168718750,-9.422869,1.682121,1.891396,0.287219,0.14971,0.95756
1696784168726562,-9.466869,1.620121,1.852396,0.273619,0.15401,0.95556
1696784168734375,-9.490869,1.579121,1.776396,0.266919,0.15611,0.86356
1696784168742187,-9.483869,1.603121,1.661396,0.268319,0.14761,0.88156
1696784168750000,-9.444869,1.640121,1.487396,0.282719,0.14981,0.86156
1696784168757812,-9.377869,1.672121,1.312396,0.312519,0.13171,0.81056
1696784168765625,-9.355869,1.685121,1.118396,0.344219,0.12381,0.64556
1696784168773437,-9.443869,1.708121,1.39396,0.391719,0.10921,0.46256
1696784168781250,-9.554869,1.666121,1.96396,0.441619,0.9151,0.28656
1696784168789062,-9.715869,1.611121,1.219396,0.481419,0.7891,0.7056
1696784168796875,-9.870869,1.602121,1.309396,0.516119,0.6241,0.9344
1696784168804687,-9.927869,1.634121,1.397396,0.519119,0.5061,0.10744
1696784168812500,-9.885869,1.696121,1.418396,0.514119,0.4101,0.2256
1696784168820312,-9.826869,1.815121,1.346396,0.502819,0.3751,0.13756
1696784168828125,-9.793869,2.25121,1.348396,0.483419,0.159,0.30256
1696784168835937,-9.772869,2.237121,1.407396,0.460519,0.4269,0.56756
1696784168843750,-9.740869,2.370121,1.445396,0.423419,0.8069,0.88256
1696784168851562,-9.678869,2.440121,1.409396,0.405819,0.9679,0.104556
1696784168859375,-9.659869,2.520121,1.242396,0.393019,0.11299,0.114456
1696784168867187,-9.623869,2.494121,1.31396,0.410519,0.12259,0.104556
1696784168875000,-9.589869,2.501121,0.988396,0.424519,0.15899,0.90256
1696784168882812,-9.599869,2.406121,1.143396,0.428119,0.16239,0.69356
1696784168890625,-9.671869,2.223121,1.467396,0.458819,0.14749,0.36556
1696784168898437,-9.879869,2.44121,1.810396,0.483219,0.13599,0.2544
1696784168906250,-10.81869,1.896121,1.852396,0.491319,0.12679,0.21744
1696784168914062,-10.149869,1.751121,1.771396,0.494619,0.16689,0.28344
1696784168921875,-10.91869,1.670121,1.659396,0.475019,0.21809,0.13044
1696784168929687,-9.909869,1.643121,1.512396,0.460419,0.25859,0.5056
1696784168937500,-9.775869,1.702121,1.330396,0.454019,0.25789,0.19356
1696784168945312,-9.671869,1.816121,1.82396,0.425519,0.26599,0.32556
1696784168953125,-9.649869,1.960121,1.35396,0.390419,0.28969,0.41556
1696784168960937,-9.624869,2.108121,1.157396,0.351319,0.29539,0.48156
1696784168968750,-9.621869,2.235121,1.303396,0.312219,0.26789,0.43756
1696784168976562,-9.625869,2.337121,1.386396,0.283019,0.21559,0.27656
1696784168984375,-9.627869,2.451121,1.382396,0.256519,0.16569,0.23056
1696784168992187,-9.579869,2.525121,1.377396,0.227419,0.14029,0.13256
1696784169000000,-9.462869,2.532121,1.409396,0.187019,0.13389,0.7244
1696784169007812,-9.304869,2.516121,1.420396,0.140319,0.11449,0.21244
1696784169015625,-9.175869,2.439121,1.422396,0.109419,0.8799,0.30844
1696784169023437,-9.37869,2.388121,1.337396,0.58119,0.7789,0.43244
1696784169031250,-8.956869,2.395121,1.175396,0.21919,0.8129,0.39544
1696784169039062,-8.901869,2.443121,1.17396,0.381,0.8609,0.26344
1696784169046875,-8.882869,2.503121,0.965396,0.8281,0.8919,0.18344
1696784169054687,-8.959869,2.575121,1.87396,0.20019,0.6919,0.10844
1696784169062500,-9.74869,2.588121,1.231396,0.40019,0.4549,0.2844
1696784169070312,-9.208869,2.579121,1.371396,0.52619,0.4719,0.3044
1696784169078125,-9.346869,2.484121,1.413396,0.47519,0.5359,0.11556
1696784169085937,-9.496869,2.402121,1.540396,0.48919,0.7469,0.18056
1696784169093750,-9.629869,2.322121,1.749396,0.40719,0.6189,0.31056
1696784169101562,-9.709869,2.214121,1.911396,0.45619,0.5779,0.40356
1696784169109375,-9.747869,2.100121,2.15396,0.39319,0.6469,0.35756
1696784169117187,-9.692869,2.12121,1.994396,0.14119,0.6609,0.40856
1696784169125000,-9.555869,1.891121,1.897396,0.12619,0.6679,0.28256
1696784169132812,-9.530869,1.875121,1.938396,0.16019,0.6469,0.23156
1696784169140625,-9.470869,1.905121,1.841396,0.13319,0.3499,0.16456
1696784169148437,-9.514869,1.967121,1.611396,0.719,0.2059,0.15056
1696784169156250,-9.541869,2.19121,1.238396,0.24281,0.3369,0.7356
1696784169164062,-9.518869,2.114121,1.141396,0.32281,0.6499,0.2956
1696784169171875,-9.462869,2.253121,1.280396,0.34181,0.10119,0.4856
1696784169179687,-9.418869,2.357121,1.564396,0.30281,0.11309,0.27656
1696784169187500,-9.422869,2.445121,1.785396,0.6781,0.8289,0.52656
1696784169195312,-9.431869,2.445121,1.817396,0.11319,0.7149,0.87856
1696784169203125,-9.412869,2.379121,1.783396,0.12519,0.9749,0.102456
1696784169210937,-9.478869,2.284121,1.846396,0.9881,0.15349,0.100056
1696784169218750,-9.534869,2.265121,1.510396,0.1819,0.11109,0.75456
1696784169226562,-9.418869,2.314121,1.359396,0.41519,0.6539,0.65056
1696784169234375,-9.244869,2.254121,1.594396,0.6719,0.12089,0.64156
1696784169242187,-9.163869,2.246121,1.607396,0.26181,0.16959,0.53556
1696784169250000,-9.145869,2.279121,1.492396,0.10681,0.14519,0.69356
1696784169257812,-9.136869,2.274121,1.366396,0.11119,0.11279,0.80256
1696784169265625,-9.186869,2.313121,1.393396,0.1481,0.13499,0.88356
1696784169273437,-9.172869,2.399121,1.693396,0.30381,0.18769,0.97256
1696784169281250,-9.155869,2.450121,1.949396,0.26381,0.16179,0.129356
1696784169289062,-9.157869,2.450121,2.161396,0.31281,0.13369,0.151656
1696784169296875,-9.141869,2.406121,2.125396,0.55181,0.11179,0.188656
1696784169304687,-9.145869,2.370121,1.929396,0.71181,0.7579,0.214356
1696784169312500,-9.193869,2.315121,1.850396,0.98281,0.5139,0.237156
1696784169320312,-9.232869,2.241121,1.999396,0.123981,0.5489,0.260056
1696784169328125,-9.363869,2.256121,2.73396,0.158581,0.3949,0.279456
1696784169335937,-9.411869,2.190121,2.28396,0.190181,0.819,0.303756
1696784169343750,-9.477869,2.80121,2.161396,0.240781,0.11,0.325156
1696784169351562,-9.559869,2.13121,2.226396,0.268881,0.6051,0.331656
1696784169359375,-9.709869,1.835121,2.255396,0.277781,0.11831,0.337556
1696784169367187,-9.843869,1.620121,2.309396,0.299381,0.14931,0.326356
1696784169375000,-9.900869,1.362121,2.494396,0.323681,0.14771,0.292756
1696784169382812,-9.942869,1.165121,2.771396,0.338681,0.14221,0.244856
1696784169390625,-9.946869,0.866121,3.36396,0.315681,0.15031,0.199456
1696784169398437,-10.16869,0.612121,3.203396,0.295881,0.17961,0.160356
1696784169406250,-10.183869,0.466121,3.147396,0.232481,0.14801,0.114956
1696784169414062,-10.145869,0.381121,2.908396,0.103281,0.9251,0.75056
1696784169421875,-10.46869,0.505121,2.496396,0.64819,0.3621,0.33356
1696784169429687,-9.748869,0.683121,2.219396,0.228819,0.6129,0.22756
1696784169437500,-9.438869,0.879121,2.93396,0.376019,0.12789,0.21256
1696784169445312,-9.144869,1.48121,2.82396,0.474119,0.19329,0.38356
1696784169453125,-8.994869,1.257121,2.79396,0.516719,0.21389,0.73756
1696784169460937,-9.9869,1.481121,1.987396,0.491319,0.19999,0.107556
1696784169468750,-9.49869,1.588121,1.888396,0.406219,0.19009,0.132556
1696784169476562,-9.10869,1.545121,1.899396,0.322919,0.16819,0.154156
1696784169484375,-9.1869,1.516121,2.3396,0.249319,0.13879,0.158056
1696784169492187,-9.138869,1.541121,2.53396,0.180519,0.8859,0.152256
1696784169500000,-9.225869,1.486121,2.55396,0.145419,0.3439,0.124856
1696784169507812,-9.319869,1.452121,2.35396,0.132319,0.2811,0.105156
1696784169515625,-9.329869,1.372121,2.32396,0.112519,0.7451,0.98356
1696784169523437,-9.266869,1.241121,2.1396,0.109719,0.10871,0.90156
1696784169531250,-9.192869,1.242121,1.922396,0.111419,0.14791,0.93156
1696784169539062,-9.115869,1.209121,1.850396,0.114619,0.18211,0.99356
1696784169546875,-9.123869,1.278121,1.800396,0.141519,0.20481,0.90856
1696784169554687,-9.191869,1.428121,1.809396,0.184319,0.23781,0.85256
1696784169562500,-9.262869,1.533121,1.877396,0.231619,0.25391,0.73356
1696784169570312,-9.313869,1.681121,1.958396,0.269419,0.24501,0.52256
1696784169578125,-9.312869,1.745121,1.983396,0.274419,0.22751,0.40856
1696784169585937,-9.313869,1.783121,2.21396,0.276019,0.22711,0.34556
1696784169593750,-9.390869,1.826121,2.143396,0.261919,0.22891,0.36256
1696784169601562,-9.500869,1.932121,2.244396,0.233919,0.22821,0.44256
1696784169609375,-9.552869,1.966121,2.348396,0.188119,0.24481,0.65656
1696784169617187,-9.614869,1.934121,2.357396,0.121619,0.26081,0.90556
1696784169625000,-9.619869,1.923121,2.244396,0.33719,0.24721,0.109056
1696784169632812,-9.652869,1.877121,2.78396,0.55381,0.20421,0.146056
1696784169640625,-9.617869,1.834121,1.947396,0.151681,0.14181,0.154156
1696784169648437,-9.572869,1.824121,1.879396,0.228781,0.9481,0.156856
1696784169656250,-9.537869,1.728121,1.895396,0.303781,0.6051,0.135456
1696784169664062,-9.520869,1.650121,1.942396,0.367481,0.5571,0.108756
1696784169671875,-9.385869,1.460121,1.956396,0.422881,0.4271,0.56256
1696784169679687,-9.186869,1.235121,1.940396,0.455981,0.4921,0.7844
1696784169687500,-8.937869,0.976121,1.933396,0.474881,0.4441,0.72144
1696784169695312,-8.792869,0.774121,1.955396,0.483381,0.4411,0.123444
1696784169703125,-8.733869,0.555121,1.964396,0.467081,0.2791,0.154244
1696784169710937,-8.784869,0.426121,2.86396,0.425981,0.2821,0.189644
1696784169718750,-9.10869,0.333121,2.104396,0.373381,0.5181,0.208444
1696784169726562,-9.314869,0.218121,1.926396,0.327781,0.5291,0.223344
1696784169734375,-9.544869,0.137121,1.656396,0.271181,0.2511,0.236644
1696784169742187,-9.738869,0.41121,1.550396,0.230781,0.4739,0.247744
1696784169750000,-9.951869,0.22879,1.703396,0.230081,0.11739,0.224844
1696784169757812,-10.207869,0.8121,1.811396,0.226181,0.9299,0.179844
1696784169765625,-10.393869,0.93121,1.703396,0.196781,0.2509,0.127844
1696784169773437,-10.533869,0.275121,1.685396,0.136981,0.1921,0.51544
1696784169781250,-10.503869,0.434121,1.536396,0.103981,0.4461,0.12656
1696784169789062,-10.418869,0.552121,1.431396,0.66781,0.3561,0.45856
1696784169796875,-10.401869,0.639121,1.498396,0.52181,0.941,0.84556
1696784169804687,-10.322869,0.720121,1.485396,0.34181,0.2019,0.113556
1696784169812500,-10.205869,0.753121,1.629396,0.41081,0.9169,0.131756
1696784169820312,-10.62869,0.820121,1.575396,0.51081,0.13439,0.143456
1696784169828125,-9.839869,0.921121,1.550396,0.34581,0.17959,0.147256
1696784169835937,-9.604869,1.95121,1.850396,0.64481,0.24729,0.149256
1696784169843750,-9.521869,1.264121,2.86396,0.119681,0.26689,0.156456
1696784169851562,-9.583869,1.338121,2.149396,0.169581,0.23729,0.155256
1696784169859375,-9.743869,1.263121,2.43396,0.185081,0.21309,0.148956
1696784169867187,-9.816869,1.145121,1.935396,0.182081,0.20209,0.145756
1696784169875000,-9.771869,1.26121,1.890396,0.189581,0.21729,0.147156
1696784169882812,-9.576869,0.930121,1.836396,0.180781,0.24139,0.147656
1696784169890625,-9.362869,0.838121,1.730396,0.155381,0.24879,0.145456
1696784169898437,-9.236869,0.698121,1.642396,0.133581,0.22769,0.154856
1696784169906250,-9.156869,0.655121,1.599396,0.133781,0.20649,0.169156
1696784169914062,-9.71869,0.629121,1.426396,0.154381,0.20639,0.182356
1696784169921875,-9.50869,0.598121,1.334396,0.168181,0.19339,0.171156
1696784169929687,-9.57869,0.582121,1.293396,0.179681,0.13849,0.154456
1696784169937500,-9.135869,0.595121,1.404396,0.187581,0.10369,0.143456
1696784169945312,-9.251869,0.554121,1.444396,0.184981,0.1659,0.131356
1696784169953125,-9.300869,0.518121,1.491396,0.188681,0.4391,0.101956
1696784169960937,-9.400869,0.563121,1.503396,0.189081,0.9541,0.75556
1696784169968750,-9.477869,0.569121,1.437396,0.181881,0.14261,0.39756
1696784169976562,-9.434869,0.573121,1.422396,0.161581,0.14461,0.22256
1696784169984375,-9.347869,0.622121,1.415396,0.126381,0.14971,0.2444
1696784169992187,-9.256869,0.699121,1.464396,0.85181,0.16911,0.22244
1696784170000000,-9.174869,0.753121,1.579396,0.32981,0.20841,0.29644
1696784170007812,-9.141869,0.817121,1.685396,0.13019,0.24941,0.36944
1696784170015625,-9.107869,0.765121,1.721396,0.49619,0.27291,0.42644
1696784170023437,-9.41869,0.642121,1.545396,0.71519,0.28841,0.53944
1696784170031250,-8.951869,0.492121,1.309396,0.92119,0.25211,0.79644
1696784170039062,-8.968869,0.379121,1.149396,0.122419,0.23131,0.97744
1696784170046875,-9.13869,0.233121,1.7396,0.147719,0.25531,0.110944
1696784170054687,-9.43869,0.123121,0.879396,0.184619,0.27221,0.135844
1696784170062500,-9.207869,0.139121,0.829396,0.236319,0.26451,0.155344
1696784170070312,-9.426869,0.224121,0.811396,0.274419,0.27321,0.160944
1696784170078125,-9.608869,0.369121,0.732396,0.315519,0.29151,0.164844
1696784170085937,-9.714869,0.521121,0.656396,0.387519,0.30711,0.170344
1696784170093750,-9.710869,0.583121,0.654396,0.451819,0.30551,0.166244
1696784170101562,-9.770869,0.633121,0.629396,0.487919,0.29411,0.168244
1696784170109375,-9.793869,0.669121,0.694396,0.547319,0.26291,0.170344
1696784170117187,-9.856869,0.677121,0.847396,0.578719,0.27761,0.167544
1696784170125000,-9.806869,0.649121,0.967396,0.602219,0.26791,0.169444
1696784170132812,-9.740869,0.608121,0.991396,0.622419,0.24441,0.174144
1696784170140625,-9.739869,0.533121,0.906396,0.661819,0.24301,0.182744
1696784170148437,-9.684869,0.481121,0.804396,0.708519,0.23281,0.175044
1696784170156250,-9.692869,0.424121,0.658396,0.757219,0.22231,0.192944
1696784170164062,-9.757869,0.375121,0.570396,0.804719,0.21151,0.205044
1696784170171875,-9.829869,0.396121,0.543396,0.860019,0.20521,0.221844
1696784170179687,-9.881869,0.437121,0.611396,0.908719,0.19341,0.230344
1696784170187500,-9.986869,0.552121,0.705396,0.936919,0.18061,0.229044
1696784170195312,-10.34869,0.715121,0.787396,0.977419,0.17861,0.222944
1696784170203125,-10.144869,0.892121,1.43396,0.995819,0.17331,0.211644
1696784170210937,-10.294869,1.90121,1.568396,0.983219,0.17701,0.198844
1696784170218750,-10.455869,1.350121,2.113396,0.929419,0.19361,0.169344
1696784170226562,-10.555869,1.569121,2.454396,0.858019,0.23131,0.120444
1696784170234375,-10.642869,1.805121,2.521396,0.779019,0.27141,0.68544
1696784170242187,-10.745869,2.71121,2.429396,0.680419,0.27641,0.6144
1696784170250000,-10.841869,2.354121,2.213396,0.568019,0.24271,0.45156
1696784170257812,-10.778869,2.593121,1.950396,0.478619,0.19341,0.98156
1696784170265625,-10.533869,2.804121,1.727396,0.409819,0.12461,0.138256
1696784170273437,-10.121869,2.831121,1.396396,0.371519,0.7301,0.167756
1696784170281250,-9.687869,2.724121,1.197396,0.370819,0.1061,0.176356
1696784170289062,-9.292869,2.616121,1.116396,0.383619,0.1019,0.164856
1696784170296875,-9.108869,2.464121,1.202396,0.410619,0.1119,0.134356
1696784170304687,-9.154869,2.255121,1.362396,0.417719,0.481,0.95556
1696784170312500,-9.233869,1.950121,1.539396,0.407319,0.1109,0.73056
1696784170320312,-9.325869,1.656121,1.571396,0.385719,0.1309,0.47756
1696784170328125,-9.418869,1.426121,1.303396,0.351419,0.1419,0.44656
1696784170335937,-9.432869,1.200121,0.992396,0.323019,0.499,0.48456
1696784170343750,-9.410869,1.58121,0.782396,0.316919,0.2991,0.57656
1696784170351562,-9.330869,1.12121,0.775396,0.296419,0.6701,0.65956
1696784170359375,-9.312869,0.997121,0.929396,0.291919,0.10181,0.72056
1696784170367187,-9.279869,1.50121,1.188396,0.293619,0.12631,0.73456
1696784170375000,-9.278869,1.152121,1.420396,0.290319,0.14881,0.79956
1696784170382812,-9.262869,1.271121,1.510396,0.287119,0.13101,0.80056
1696784170390625,-9.205869,1.375121,1.555396,0.272819,0.9151,0.72556
1696784170398437,-9.191869,1.483121,1.584396,0.236819,0.5091,0.63456
1696784170406250,-9.220869,1.590121,1.613396,0.213619,0.3831,0.50756
1696784170414062,-9.248869,1.679121,1.634396,0.196319,0.4911,0.47956
1696784170421875,-9.317869,1.716121,1.686396,0.190519,0.7431,0.44356
1696784170429687,-9.434869,1.771121,1.647396,0.175019,0.9731,0.42756
1696784170437500,-9.553869,1.764121,1.535396,0.167119,0.12101,0.38156
1696784170445312,-9.629869,1.734121,1.460396,0.168819,0.11191,0.39556
1696784170453125,-9.667869,1.677121,1.478396,0.165719,0.10681,0.33256
1696784170460937,-9.676869,1.602121,1.496396,0.165719,0.12281,0.36456
1696784170468750,-9.678869,1.562121,1.501396,0.156419,0.12011,0.36356
1696784170476562,-9.716869,1.551121,1.494396,0.150019,0.12151,0.39756
1696784170484375,-9.777869,1.539121,1.415396,0.134019,0.11821,0.52856
1696784170492187,-9.806869,1.528121,1.303396,0.116419,0.11141,0.59656
1696784170500000,-9.817869,1.510121,1.219396,0.115119,0.11041,0.59456
1696784170507812,-9.838869,1.451121,1.181396,0.104319,0.11571,0.61056
1696784170515625,-9.811869,1.435121,1.167396,0.91519,0.11171,0.58256
1696784170523437,-9.786869,1.423121,1.213396,0.86919,0.12151,0.54956
1696784170531250,-9.757869,1.447121,1.264396,0.71519,0.12831,0.46956
1696784170539062,-9.751869,1.483121,1.323396,0.66819,0.13171,0.55056
1696784170546875,-9.720869,1.503121,1.323396,0.50819,0.13091,0.53956
1696784170554687,-9.702869,1.480121,1.321396,0.25719,0.10691,0.54156
1696784170562500,-9.673869,1.470121,1.291396,0.16619,0.9461,0.50856
1696784170570312,-9.623869,1.436121,1.287396,0.16519,0.7521,0.54156
1696784170578125,-9.548869,1.406121,1.343396,0.11919,0.7021,0.49356
1696784170585937,-9.495869,1.361121,1.397396,0.11619,0.6941,0.48156
1696784170593750,-9.452869,1.352121,1.424396,0.981,0.7051,0.38756
1696784170601562,-9.421869,1.338121,1.447396,0.16419,0.7071,0.35256
1696784170609375,-9.385869,1.315121,1.456396,0.7419,0.7641,0.35056
1696784170617187,-9.396869,1.318121,1.478396,0.16181,0.7921,0.27456
1696784170625000,-9.417869,1.358121,1.471396,0.30281,0.6941,0.22856
1696784170632812,-9.453869,1.403121,1.431396,0.39881,0.7221,0.24756
1696784170640625,-9.465869,1.436121,1.366396,0.45781,0.5371,0.22856
1696784170648437,-9.479869,1.456121,1.298396,0.36681,0.3151,0.15156
1696784170656250,-9.486869,1.443121,1.249396,0.32781,0.1971,0.256
1696784170664062,-9.494869,1.434121,1.246396,0.31281,0.601,0.10744
1696784170671875,-9.501869,1.421121,1.300396,0.15081,0.679,0.33544
1696784170679687,-9.507869,1.408121,1.354396,0.19781,0.719,0.41344
1696784170687500,-9.518869,1.397121,1.386396,0.10381,0.1249,0.50944
1696784170695312,-9.544869,1.411121,1.384396,0.17981,0.1539,0.54244
1696784170703125,-9.591869,1.447121,1.359396,0.32481,0.2099,0.52144
1696784170710937,-9.650869,1.464121,1.359396,0.34081,0.2149,0.56744
1696784170718750,-9.706869,1.489121,1.336396,0.35381,0.819,0.63344
1696784170726562,-9.733869,1.496121,1.357396,0.46481,0.2129,0.64744
1696784170734375,-9.726869,1.496121,1.296396,0.37081,0.1829,0.66344
1696784170742187,-9.740869,1.496121,1.217396,0.35181,0.1269,0.66744
1696784170750000,-9.776869,1.472121,1.226396,0.31781,0.709,0.67044
1696784170757812,-9.804869,1.435121,1.262396,0.48981,0.429,0.74744
1696784170765625,-9.770869,1.408121,1.305396,0.58581,0.829,0.77544
1696784170773437,-9.719869,1.396121,1.408396,0.70581,0.621,0.76444
1696784170781250,-9.667869,1.404121,1.476396,0.85081,0.3001,0.64844
1696784170789062,-9.617869,1.408121,1.487396,0.88381,0.4951,0.55244
1696784170796875,-9.604869,1.396121,1.435396,0.106781,0.6211,0.49044
1696784170804687,-9.559869,1.398121,1.433396,0.105481,0.7341,0.37844
1696784170812500,-9.505869,1.379121,1.388396,0.103981,0.7181,0.33044
1696784170820312,-9.451869,1.405121,1.330396,0.107281,0.7511,0.23344
1696784170828125,-9.338869,1.350121,1.291396,0.106081,0.7331,0.8844
1696784170835937,-9.284869,1.342121,1.197396,0.107781,0.7501,0.3944
1696784170843750,-9.320869,1.338121,1.100396,0.108081,0.8091,0.544
1696784170851562,-9.396869,1.329121,0.949396,0.106481,0.7601,0.2144
1696784170859375,-9.461869,1.316121,0.827396,0.108281,0.6911,0.344
1696784170867187,-9.546869,1.302121,0.800396,0.107981,0.5961,0.10044
1696784170875000,-9.699869,1.300121,0.807396,0.124981,0.6301,0.21144
1696784170882812,-9.789869,1.328121,0.816396,0.126481,0.8761,0.14944
1696784170890625,-9.772869,1.381121,0.938396,0.123081,0.9141,0.15144
1696784170898437,-9.790869,1.377121,0.960396,0.144981,0.12091,0.8744
1696784170906250,-9.825869,1.446121,0.999396,0.143481,0.14041,0.5544
1696784170914062,-9.884869,1.491121,1.73396,0.156281,0.14181,0.2756
1696784170921875,-9.889869,1.536121,1.111396,0.176881,0.13551,0.14256
1696784170929687,-9.846869,1.533121,0.969396,0.192781,0.12701,0.16156
1696784170937500,-9.711869,1.511121,0.681396,0.199181,0.11571,0.21156
1696784170945312,-9.639869,1.463121,0.393396,0.194881,0.6351,0.27856
1696784170953125,-9.441869,1.444121,0.303396,0.187081,0.3101,0.26256
1696784170960937,-9.385869,1.388121,0.298396,0.201581,0.819,0.3156
1696784170968750,-9.468869,1.363121,0.339396,0.211981,0.6149,0.25644
1696784170976562,-9.641869,1.328121,0.372396,0.225881,0.9629,0.50844
1696784170984375,-9.761869,1.254121,0.438396,0.243181,0.15039,0.69544
1696784170992187,-9.871869,1.207121,0.553396,0.285481,0.22359,0.84844
1696784171000000,-10.31869,1.232121,0.685396,0.335381,0.26599,0.108244
1696784171007812,-10.187869,1.325121,0.823396,0.372681,0.30319,0.127044
1696784171015625,-10.346869,1.427121,0.987396,0.408481,0.32139,0.145744
1696784171023437,-10.418869,1.453121,1.161396,0.446181,0.31679,0.148444
1696784171031250,-10.339869,1.416121,1.226396,0.486981,0.30699,0.149544
1696784171039062,-10.141869,1.393121,1.147396,0.508981,0.30679,0.142944
1696784171046875,-9.925869,1.396121,1.10396,0.504681,0.31289,0.118944
1696784171054687,-9.723869,1.429121,0.884396,0.462681,0.30329,0.100144
1696784171062500,-9.580869,1.469121,0.773396,0.417681,0.27719,0.73444
1696784171070312,-9.533869,1.468121,0.731396,0.362781,0.24299,0.64544
1696784171078125,-9.530869,1.392121,0.706396,0.321881,0.20799,0.49444
1696784171085937,-9.532869,1.277121,0.679396,0.289681,0.16709,0.33344
1696784171093750,-9.588869,1.125121,0.627396,0.250281,0.15009,0.22944
1696784171101562,-9.599869,0.965121,0.546396,0.215481,0.12999,0.25244
1696784171109375,-9.576869,0.865121,0.501396,0.187081,0.12789,0.24144
1696784171117187,-9.621869,0.762121,0.379396,0.165181,0.10569,0.24344
1696784171125000,-9.492869,0.728121,0.397396,0.128881,0.8429,0.28144
1696784171132812,-9.451869,0.672121,0.437396,0.112981,0.5029,0.34944
1696784171140625,-9.460869,0.650121,0.415396,0.104681,0.2869,0.40144
1696784171148437,-9.446869,0.668121,0.431396,0.96481,0.409,0.50044
1696784171156250,-9.431869,0.692121,0.426396,0.101181,0.1371,0.50044
1696784171164062,-9.429869,0.739121,0.437396,0.93281,0.2171,0.53344
1696784171171875,-9.368869,0.806121,0.584396,0.82081,0.4481,0.52144
1696784171179687,-9.324869,0.915121,0.712396,0.99681,0.6691,0.45344
1696784171187500,-9.353869,1.15121,0.746396,0.94381,0.9271,0.41244
1696784171195312,-9.455869,1.79121,0.728396,0.80181,0.10051,0.50944
1696784171203125,-9.538869,1.82121,0.717396,0.79881,0.11881,0.52844
1696784171210937,-9.576869,1.87121,0.674396,0.78181,0.12141,0.71944
1696784171218750,-9.551869,1.18121,0.670396,0.55781,0.10721,0.85244
1696784171226562,-9.477869,0.928121,0.690396,0.32581,0.8531,0.89944
1696784171234375,-9.441869,0.876121,0.622396,0.14581,0.9431,0.106644
1696784171242187,-9.422869,0.834121,0.530396,0.29119,0.9011,0.114844
1696784171250000,-9.426869,0.801121,0.528396,0.70019,0.7501,0.127944
1696784171257812,-9.493869,0.764121,0.683396,0.98619,0.6891,0.139744
1696784171265625,-9.576869,0.757121,0.841396,0.120919,0.7521,0.157644
1696784171273437,-9.628869,0.768121,0.953396,0.130619,0.7091,0.161244
1696784171281250,-9.711869,0.763121,0.913396,0.155519,0.6541,0.166044
1696784171289062,-9.833869,0.852121,0.845396,0.169219,0.2701,0.167244
1696784171296875,-9.922869,0.873121,0.852396,0.183619,0.1621,0.175644
1696784171304687,-9.999869,0.925121,0.868396,0.177319,0.2021,0.188144
1696784171312500,-10.18869,1.12121,0.771396,0.193219,0.781,0.190144
1696784171320312,-9.971869,1.36121,0.699396,0.202219,0.1389,0.183544
1696784171328125,-9.882869,1.54121,0.652396,0.221019,0.3169,0.183644
1696784171335937,-9.834869,1.58121,0.645396,0.239519,0.4829,0.180444
1696784171343750,-9.763869,1.68121,0.703396,0.247719,0.5259,0.185644
1696784171351562,-9.722869,1.60121,0.778396,0.249319,0.4439,0.184144
1696784171359375,-9.740869,1.72121,0.764396,0.266319,0.4689,0.188744
1696784171367187,-9.749869,1.45121,0.800396,0.272719,0.6769,0.195344
1696784171375000,-9.773869,0.986121,0.962396,0.244619,0.8429,0.209344
1696784171382812,-9.822869,0.976121,1.64396,0.210219,0.7459,0.213744
1696784171390625,-9.837869,1.56121,1.131396,0.176319,0.5569,0.218644
1696784171398437,-9.815869,1.142121,1.167396,0.169919,0.2869,0.216844
1696784171406250,-9.802869,1.291121,1.230396,0.163619,0.1091,0.202644
1696784171414062,-9.773869,1.423121,1.285396,0.154219,0.3601,0.185244
1696784171421875,-9.720869,1.509121,1.271396,0.153719,0.4031,0.168844
1696784171429687,-9.635869,1.545121,1.120396,0.126619,0.3921,0.141344
1696784171437500,-9.564869,1.562121,0.875396,0.140119,0.4401,0.114144
1696784171445312,-9.523869,1.597121,0.839396,0.183619,0.8451,0.90544
1696784171453125,-9.553869,1.577121,0.873396,0.234419,0.13471,0.82344
1696784171460937,-9.596869,1.505121,0.900396,0.289319,0.16031,0.84544
1696784171468750,-9.659869,1.468121,0.936396,0.336119,0.17431,0.84844
1696784171476562,-9.635869,1.388121,0.954396,0.350919,0.17691,0.99944
1696784171484375,-9.600869,1.451121,0.947396,0.343219,0.15371,0.117344
1696784171492187,-9.550869,1.435121,0.904396,0.315119,0.11911,0.136044
1696784171500000,-9.429869,1.422121,0.893396,0.294819,0.10281,0.143744
1696784171507812,-9.338869,1.494121,1.39396,0.260419,0.9421,0.156044
1696784171515625,-9.404869,1.666121,1.391396,0.213419,0.10651,0.141344
1696784171523437,-9.698869,1.995121,1.949396,0.166219,0.15841,0.131244
1696784171531250,-10.133869,2.354121,2.326396,0.86219,0.21961,0.98744
1696784171539062,-10.448869,2.617121,2.452396,0.11819,0.24121,0.56244
1696784171546875,-10.555869,2.857121,2.447396,0.65181,0.19011,0.36144
1696784171554687,-10.599869,2.954121,2.560396,0.175481,0.9231,0.1856
1696784171562500,-10.482869,3.72121,2.619396,0.276681,0.2301,0.36956
1696784171570312,-10.104869,3.82121,2.502396,0.367681,0.4959,0.75856
1696784171578125,-9.654869,3.43121,2.179396,0.429381,0.9779,0.104056
1696784171585937,-9.203869,2.919121,1.709396,0.434481,0.11959,0.102856
1696784171593750,-8.701869,2.480121,1.386396,0.402381,0.15369,0.67056
1696784171601562,-8.507869,2.253121,1.152396,0.338181,0.16989,0.2944
1696784171609375,-8.435869,1.946121,1.132396,0.262281,0.17949,0.58044
1696784171617187,-8.514869,1.677121,1.354396,0.163981,0.15799,0.96544
1696784171625000,-8.712869,1.555121,1.638396,0.84581,0.12659,0.125244
1696784171632812,-9.108869,1.460121,1.875396,0.15581,0.10939,0.133844
1696784171640625,-9.573869,1.400121,1.926396,0.34519,0.10879,0.118644
1696784171648437,-9.894869,1.290121,1.922396,0.99719,0.13249,0.104444
1696784171656250,-10.194869,1.39121,1.956396,0.165619,0.18249,0.108344
1696784171664062,-10.425869,0.875121,1.935396,0.176319,0.21309,0.123944
1696784171671875,-10.482869,0.762121,1.901396,0.165619,0.27779,0.143044
1696784171679687,-10.373869,0.714121,1.944396,0.168319,0.32469,0.155144
1696784171687500,-10.106869,0.723121,2.12396,0.174319,0.38009,0.156544
1696784171695312,-9.803869,0.783121,2.23396,0.209919,0.40319,0.143844
1696784171703125,-9.493869,0.940121,2.46396,0.252019,0.42769,0.139444
1696784171710937,-9.257869,1.162121,2.88396,0.286419,0.46469,0.133344
1696784171718750,-9.187869,1.474121,2.145396,0.317219,0.47689,0.122044
1696784171726562,-9.222869,1.861121,2.132396,0.331419,0.45189,0.111244
1696784171734375,-9.249869,2.119121,2.26396,0.370519,0.44709,0.105344
1696784171742187,-9.312869,2.399121,1.922396,0.376619,0.46039,0.103644
1696784171750000,-9.340869,2.517121,1.812396,0.371519,0.49359,0.107944
1696784171757812,-9.346869,2.619121,1.578396,0.340119,0.53109,0.115444
1696784171765625,-9.296869,2.574121,1.348396,0.313719,0.56829,0.127944
1696784171773437,-9.278869,2.669121,1.200396,0.317219,0.55999,0.140944
1696784171781250,-9.209869,2.756121,1.116396,0.319019,0.52719,0.141244
1696784171789062,-9.337869,2.756121,1.267396,0.314119,0.51329,0.142544
1696784171796875,-9.387869,2.768121,1.58396,0.320719,0.40219,0.130444
1696784171804687,-9.341869,2.832121,1.184396,0.343219,0.35749,0.129644
1696784171812500,-9.358869,2.817121,1.688396,0.316219,0.40369,0.133644
1696784171820312,-9.430869,2.803121,2.114396,0.257919,0.46199,0.129544
1696784171828125,-9.608869,2.805121,2.339396,0.207519,0.51619,0.141444
1696784171835937,-9.674869,2.871121,2.121396,0.190419,0.51659,0.152344
1696784171843750,-9.602869,2.863121,1.884396,0.170119,0.55519,0.158544
1696784171851562,-9.554869,2.860121,1.938396,0.141419,0.62279,0.165544
1696784171859375,-9.374869,2.937121,1.864396,0.142819,0.61329,0.162244
1696784171867187,-9.307869,3.5121,1.873396,0.139819,0.57909,0.160844
1696784171875000,-9.284869,3.86121,1.756396,0.150119,0.51309,0.174544
1696784171882812,-9.212869,3.225121,2.4396,0.167519,0.48489,0.162144
1696784171890625,-9.239869,3.388121,2.276396,0.153419,0.43879,0.147944
1696784171898437,-9.178869,3.482121,2.254396,0.151419,0.40269,0.114344
1696784171906250,-9.112869,3.497121,2.184396,0.171019,0.37579,0.87044
1696784171914062,-9.37869,3.524121,2.200396,0.167919,0.38179,0.80744
1696784171921875,-8.990869,3.442121,2.364396,0.108319,0.42739,0.87844
1696784171929687,-9.12869,3.400121,2.279396,0.73819,0.42929,0.95344
1696784171937500,-8.944869,3.339121,2.171396,0.47419,0.39779,0.93744
1696784171945312,-8.819869,3.279121,2.207396,0.1481,0.42609,0.97644
1696784171953125,-8.773869,3.192121,2.267396,0.23081,0.42719,0.105644
1696784171960937,-8.841869,3.102121,2.238396,0.35081,0.38299,0.113844
1696784171968750,-8.814869,3.102121,2.83396,0.18781,0.32289,0.132044
1696784171976562,-8.692869,3.48121,2.101396,0.23081,0.30269,0.138844
1696784171984375,-8.604869,2.990121,2.220396,0.48181,0.29789,0.138544
1696784171992187,-8.535869,2.927121,2.281396,0.71481,0.27549,0.147844
1696784172000000,-8.543869,2.878121,2.396396,0.91381,0.24909,0.160744
1696784172007812,-8.639869,2.842121,2.305396,0.106681,0.19209,0.167344
1696784172015625,-8.725869,2.818121,2.152396,0.102881,0.10769,0.158644
1696784172023437,-8.733869,2.770121,2.35396,0.115181,0.5379,0.155644
1696784172031250,-8.717869,2.780121,2.134396,0.147781,0.4379,0.165044
1696784172039062,-8.706869,2.809121,2.168396,0.154081,0.1479,0.163444
1696784172046875,-8.736869,2.816121,2.116396,0.145981,0.3311,0.152744
1696784172054687,-8.842869,2.851121,1.873396,0.118981,0.10821,0.147044
1696784172062500,-8.846869,2.844121,1.679396,0.123581,0.11841,0.142444
1696784172070312,-8.783869,2.812121,1.742396,0.142881,0.10211,0.125944
1696784172078125,-8.756869,2.717121,1.684396,0.157281,0.14231,0.112844
1696784172085937,-8.644869,2.673121,1.677396,0.154281,0.17571,0.87644
1696784172093750,-8.563869,2.561121,1.868396,0.163981,0.17901,0.69844
1696784172101562,-8.586869,2.461121,1.855396,0.155981,0.25091,0.59144
1696784172109375,-8.584869,2.414121,1.747396,0.154081,0.29571,0.51644
1696784172117187,-8.545869,2.376121,1.729396,0.156081,0.29201,0.41744
1696784172125000,-8.483869,2.326121,1.778396,0.159281,0.29361,0.35244
1696784172132812,-8.411869,2.321121,1.789396,0.151681,0.33521,0.2044
1696784172140625,-8.480869,2.273121,1.796396,0.130081,0.37131,0.24856
1696784172148437,-8.630869,2.366121,1.805396,0.145781,0.40391,0.36056
1696784172156250,-8.727869,2.525121,1.774396,0.169581,0.40731,0.49256
1696784172164062,-8.810869,2.691121,1.643396,0.196681,0.40251,0.73656
1696784172171875,-8.831869,2.866121,1.355396,0.225181,0.39631,0.88456
1696784172179687,-8.819869,3.8121,1.256396,0.248081,0.37441,0.113256
1696784172187500,-8.839869,3.68121,1.292396,0.260881,0.38341,0.142056
1696784172195312,-8.891869,3.133121,1.373396,0.271781,0.43151,0.162556
1696784172203125,-8.917869,3.171121,1.484396,0.270881,0.44261,0.190056
1696784172210937,-9.65869,3.39121,1.749396,0.247781,0.46721,0.216956
1696784172218750,-9.341869,2.854121,2.94396,0.231781,0.52181,0.229056
1696784172226562,-9.743869,2.562121,2.362396,0.232081,0.54351,0.230956
1696784172234375,-10.112869,2.148121,2.706396,0.261881,0.53561,0.229656
1696784172242187,-10.360869,1.779121,2.895396,0.259281,0.56031,0.197156
1696784172250000,-10.481869,1.546121,2.816396,0.239781,0.55541,0.161556
1696784172257812,-10.417869,1.216121,2.636396,0.220581,0.52071,0.131056
1696784172265625,-10.265869,0.832121,2.469396,0.206281,0.47311,0.103856
1696784172273437,-10.176869,0.629121,2.442396,0.199681,0.45101,0.68756
1696784172281250,-10.106869,0.723121,2.476396,0.170481,0.44821,0.31256
1696784172289062,-9.971869,0.990121,2.552396,0.165781,0.41701,0.23356
1696784172296875,-9.897869,1.344121,2.420396,0.195781,0.40861,0.22256
1696784172304687,-9.840869,1.726121,2.73396,0.216081,0.40091,0.23956
1696784172312500,-9.739869,2.18121,1.760396,0.231881,0.38911,0.22756
1696784172320312,-9.677869,2.207121,1.609396,0.228681,0.38461,0.25856
1696784172328125,-9.659869,2.360121,1.598396,0.212781,0.39631,0.23856
1696784172335937,-9.570869,2.408121,1.576396,0.195881,0.40681,0.22356
1696784172343750,-9.410869,2.385121,1.652396,0.192381,0.37301,0.7856
1696784172351562,-9.299869,2.330121,1.756396,0.206781,0.34771,0.1956
1696784172359375,-9.192869,2.240121,1.688396,0.211081,0.35331,0.6344
1696784172367187,-9.186869,2.149121,1.661396,0.207781,0.34291,0.27044
1696784172375000,-9.193869,2.45121,1.668396,0.223281,0.34931,0.36444
1696784172382812,-9.246869,1.946121,1.737396,0.230981,0.32141,0.50644
1696784172390625,-9.353869,1.874121,1.792396,0.214881,0.29561,0.70144
1696784172398437,-9.453869,1.802121,1.769396,0.200681,0.30171,0.79944
1696784172406250,-9.481869,1.718121,1.782396,0.176981,0.29541,0.86644
1696784172414062,-9.525869,1.659121,1.990396,0.147081,0.27901,0.96544
1696784172421875,-9.628869,1.641121,2.71396,0.109181,0.28251,0.101944
1696784172429687,-9.660869,1.688121,1.954396,0.69881,0.26471,0.104044
1696784172437500,-9.642869,1.694121,1.814396,0.14181,0.23321,0.88244
1696784172445312,-9.613869,1.685121,1.834396,0.38319,0.16751,0.70544
1696784172453125,-9.604869,1.725121,1.891396,0.75319,0.13931,0.59344
1696784172460937,-9.594869,1.773121,1.936396,0.117119,0.11491,0.37144
1696784172468750,-9.613869,1.831121,1.956396,0.148319,0.9051,0.32544
1696784172476562,-9.623869,1.880121,1.900396,0.172919,0.8541,0.15044
1696784172484375,-9.569869,1.882121,1.929396,0.193119,0.7691,0.13444
1696784172492187,-9.573869,1.869121,2.26396,0.211919,0.7691,0.12044
1696784172500000,-9.600869,1.873121,2.48396,0.213919,0.8271,0.15744
1696784172507812,-9.627869,1.856121,2.48396,0.179119,0.7411,0.13544
1696784172515625,-9.605869,1.876121,2.71396,0.168319,0.6961,0.15044
1696784172523437,-9.559869,1.862121,2.165396,0.152619,0.6101,0.24344
1696784172531250,-9.513869,1.885121,2.170396,0.138519,0.5301,0.24244
1696784172539062,-9.459869,1.907121,2.98396,0.145119,0.6831,0.24644
1696784172546875,-9.385869,1.885121,1.987396,0.137119,0.4521,0.29144
1696784172554687,-9.333869,1.907121,1.837396,0.122719,0.3161,0.28644
1696784172562500,-9.302869,1.962121,1.701396,0.144519,0.2321,0.25544
1696784172570312,-9.276869,2.33121,1.663396,0.172419,0.1471,0.19244
1696784172578125,-9.271869,2.97121,1.688396,0.202219,0.2861,0.2244
1696784172585937,-9.273869,2.123121,1.731396,0.228519,0.2501,0.10456
1696784172593750,-9.256869,2.167121,1.747396,0.245419,0.1681,0.23156
1696784172601562,-9.261869,2.156121,1.749396,0.265819,0.1511,0.22956
1696784172609375,-9.281869,2.159121,1.767396,0.273319,0.269,0.37456
1696784172617187,-9.317869,2.166121,1.762396,0.274519,0.2099,0.42556
1696784172625000,-9.355869,2.149121,1.729396,0.271119,0.3389,0.55456
1696784172632812,-9.390869,2.105121,1.713396,0.261219,0.5199,0.67056
1696784172640625,-9.408869,2.105121,1.711396,0.245519,0.5319,0.76756
1696784172648437,-9.407869,2.55121,1.769396,0.244019,0.3079,0.73556
1696784172656250,-9.487869,1.985121,1.852396,0.239619,0.1379,0.74856
1696784172664062,-9.581869,1.931121,1.875396,0.225419,0.619,0.67156
1696784172671875,-9.611869,1.871121,1.846396,0.217919,0.829,0.46456
1696784172679687,-9.613869,1.825121,1.778396,0.229319,0.129,0.36456
1696784172687500,-9.633869,1.816121,1.722396,0.252819,0.809,0.31456
1696784172695312,-9.617869,1.825121,1.713396,0.268919,0.749,0.21356
1696784172703125,-9.591869,1.856121,1.717396,0.270119,0.3119,0.17056
1696784172710937,-9.514869,1.866121,1.749396,0.276319,0.4639,0.9156
1696784172718750,-9.420869,1.851121,1.762396,0.271419,0.5449,0.17356
1696784172726562,-9.343869,1.867121,1.737396,0.268219,0.6269,0.19056
1696784172734375,-9.289869,1.844121,1.659396,0.258819,0.7869,0.19156
1696784172742187,-9.275869,1.835121,1.593396,0.255319,0.9719,0.19456
1696784172750000,-9.249869,1.854121,1.557396,0.246319,0.10289,0.16056
1696784172757812,-9.195869,1.869121,1.593396,0.241419,0.10779,0.20956
1696784172765625,-9.200869,1.894121,1.661396,0.243019,0.10069,0.30356
1696784172773437,-9.227869,1.892121,1.776396,0.240819,0.8909,0.40556
1696784172781250,-9.267869,1.853121,1.848396,0.231819,0.8459,0.45056
1696784172789062,-9.288869,1.773121,1.852396,0.236619,0.8939,0.41756
1696784172796875,-9.307869,1.698121,1.814396,0.239719,0.8609,0.44856
1696784172804687,-9.308869,1.616121,1.780396,0.249119,0.9119,0.36856
1696784172812500,-9.311869,1.507121,1.859396,0.281919,0.8689,0.36656
1696784172820312,-9.390869,1.504121,1.992396,0.305619,0.8839,0.31456
1696784172828125,-9.517869,1.593121,2.138396,0.332419,0.7989,0.32556
1696784172835937,-9.629869,1.743121,2.147396,0.371219,0.5899,0.49856
1696784172843750,-9.667869,1.863121,1.954396,0.387719,0.9309,0.80356
1696784172851562,-9.626869,1.943121,1.771396,0.388719,0.12579,0.98356
1696784172859375,-9.577869,1.973121,1.747396,0.391319,0.15849,0.111456
1696784172867187,-9.570869,1.966121,1.810396,0.391119,0.16199,0.116356
1696784172875000,-9.625869,1.911121,1.886396,0.411919,0.15039,0.104656
1696784172882812,-9.654869,1.868121,1.924396,0.416619,0.14109,0.96756
1696784172890625,-9.557869,1.842121,1.909396,0.419919,0.14729,0.94956
1696784172898437,-9.467869,1.820121,1.857396,0.442119,0.16159,0.88256
1696784172906250,-9.446869,1.780121,1.828396,0.459519,0.14239,0.79956
1696784172914062,-9.500869,1.814121,1.724396,0.487719,0.14079,0.78056
1696784172921875,-9.588869,1.844121,1.638396,0.527219,0.14459,0.58456
1696784172929687,-9.654869,1.874121,1.584396,0.577819,0.15069,0.44856
1696784172937500,-9.695869,1.899121,1.580396,0.635619,0.16279,0.39656
1696784172945312,-9.745869,1.958121,1.596396,0.671719,0.17109,0.34456
1696784172953125,-9.732869,1.986121,1.618396,0.706219,0.18079,0.35656
1696784172960937,-9.649869,2.3121,1.717396,0.714019,0.20819,0.35556
1696784172968750,-9.524869,2.27121,1.843396,0.712519,0.21289,0.35556
1696784172976562,-9.383869,2.76121,1.927396,0.687119,0.20969,0.47156
1696784172984375,-9.240869,2.123121,1.861396,0.666919,0.18619,0.55056
1696784172992187,-9.187869,2.211121,1.657396,0.633619,0.18529,0.60556
1696784173000000,-9.186869,2.299121,1.503396,0.616619,0.19849,0.44756
1696784173007812,-9.163869,2.383121,1.476396,0.612019,0.20619,0.46356
1696784173015625,-9.179869,2.383121,1.454396,0.620319,0.19439,0.33156
1696784173023437,-9.241869,2.362121,1.382396,0.634519,0.19209,0.15556
1696784173031250,-9.380869,2.327121,1.301396,0.648919,0.21969,0.3844
1696784173039062,-9.485869,2.271121,1.258396,0.683319,0.23169,0.11944
1696784173046875,-9.533869,2.225121,1.220396,0.718019,0.23479,0.18944
1696784173054687,-9.544869,2.209121,1.186396,0.739519,0.26949,0.13944
1696784173062500,-9.531869,2.236121,1.172396,0.770619,0.29189,0.3356
1696784173070312,-9.514869,2.244121,1.179396,0.788919,0.31759,0.27356
1696784173078125,-9.522869,2.224121,1.247396,0.793319,0.31769,0.36956
1696784173085937,-9.579869,2.223121,1.375396,0.791319,0.31119,0.59556
1696784173093750,-9.637869,2.182121,1.481396,0.796119,0.29599,0.68856
1696784173101562,-9.677869,2.190121,1.578396,0.781219,0.30889,0.76156
1696784173109375,-9.684869,2.243121,1.661396,0.764219,0.30999,0.74556
1696784173117187,-9.611869,2.284121,1.614396,0.745419,0.30309,0.82656
1696784173125000,-9.475869,2.361121,1.485396,0.713819,0.31129,0.87956
1696784173132812,-9.343869,2.395121,1.371396,0.681019,0.30489,0.78656
1696784173140625,-9.251869,2.433121,1.346396,0.657719,0.27389,0.77156
1696784173148437,-9.187869,2.484121,1.353396,0.632719,0.24789,0.75656
1696784173156250,-9.212869,2.522121,1.368396,0.596919,0.22629,0.74256
1696784173164062,-9.249869,2.582121,1.355396,0.559319,0.22149,0.73056
1696784173171875,-9.266869,2.664121,1.346396,0.505919,0.21469,0.83256
1696784173179687,-9.231869,2.717121,1.276396,0.454219,0.20439,0.88456
1696784173187500,-9.218869,2.755121,1.170396,0.414719,0.18769,0.87656
1696784173195312,-9.223869,2.806121,1.105396,0.374019,0.17289,0.89656
1696784173203125,-9.229869,2.859121,1.134396,0.349619,0.16149,0.86056
1696784173210937,-9.216869,2.905121,1.231396,0.337119,0.13269,0.79756
1696784173218750,-9.204869,2.899121,1.272396,0.318619,0.10459,0.78156
1696784173226562,-9.210869,2.845121,1.224396,0.300319,0.7009,0.68356
1696784173234375,-9.269869,2.822121,1.265396,0.273919,0.7789,0.58956
1696784173242187,-9.252869,2.795121,1.375396,0.242619,0.6479,0.59156
1696784173250000,-9.205869,2.770121,1.434396,0.242719,0.1429,0.65356
1696784173257812,-9.195869,2.716121,1.474396,0.229419,0.1931,0.55256
1696784173265625,-9.206869,2.677121,1.461396,0.209119,0.4961,0.45956
1696784173273437,-9.223869,2.655121,1.441396,0.181119,0.4811,0.38156
1696784173281250,-9.234869,2.653121,1.432396,0.154819,0.4811,0.20756
1696784173289062,-9.217869,2.675121,1.310396,0.147019,0.6141,0.22256
1696784173296875,-9.215869,2.717121,1.175396,0.145519,0.6791,0.22256
1696784173304687,-9.198869,2.781121,1.85396,0.124719,0.6771,0.38756
1696784173312500,-9.145869,2.820121,1.67396,0.118319,0.7961,0.53056
1696784173320312,-9.140869,2.824121,1.69396,0.108719,0.9551,0.58056
1696784173328125,-9.185869,2.825121,1.119396,0.81719,0.9871,0.72956
1696784173335937,-9.227869,2.775121,1.231396,0.51819,0.9291,0.89156
1696784173343750,-9.265869,2.700121,1.290396,0.11119,0.9641,0.91156
1696784173351562,-9.304869,2.651121,1.213396,0.29581,0.10001,0.91456
1696784173359375,-9.327869,2.681121,1.121396,0.72281,0.8341,0.100256
1696784173367187,-9.278869,2.684121,1.92396,0.106781,0.5751,0.97456
1696784173375000,-9.247869,2.753121,1.238396,0.107481,0.4911,0.121856
1696784173382812,-9.234869,2.755121,1.242396,0.126181,0.7701,0.128256
1696784173390625,-9.272869,2.744121,1.182396,0.135781,0.8001,0.130056
1696784173398437,-9.388869,2.719121,1.222396,0.149881,0.5251,0.128756
1696784173406250,-9.437869,2.694121,1.303396,0.162681,0.4731,0.135456
1696784173414062,-9.491869,2.661121,1.384396,0.165981,0.4091,0.140356
1696784173421875,-9.570869,2.669121,1.488396,0.177281,0.1621,0.147156
1696784173429687,-9.609869,2.601121,1.609396,0.169781,0.1251,0.153656
1696784173437500,-9.655869,2.502121,1.621396,0.161881,0.2011,0.172456
1696784173445312,-9.615869,2.439121,1.603396,0.162481,0.39,0.181056
1696784173453125,-9.549869,2.354121,1.679396,0.171881,0.3899,0.179556
1696784173460937,-9.522869,2.378121,1.702396,0.181581,0.7079,0.170456
1696784173468750,-9.527869,2.380121,1.684396,0.209981,0.10969,0.172556
1696784173476562,-9.562869,2.334121,1.812396,0.217781,0.13939,0.156856
1696784173484375,-9.706869,2.345121,1.945396,0.201481,0.10929,0.149756
1696784173492187,-9.850869,2.316121,1.994396,0.172781,0.10089,0.134756
1696784173500000,-9.923869,2.305121,2.116396,0.160781,0.12649,0.133556
1696784173507812,-9.866869,2.172121,2.98396,0.136981,0.14689,0.129856
1696784173515625,-9.855869,2.104121,2.75396,0.132481,0.20289,0.119056
1696784173523437,-9.858869,2.104121,2.73396,0.112381,0.21969,0.119056
1696784173531250,-9.743869,2.77121,2.138396,0.87181,0.23089,0.113956
1696784173539062,-9.701869,2.4121,2.366396,0.87381,0.21829,0.120456
1696784173546875,-9.604869,1.963121,2.560396,0.85881,0.19239,0.125256
1696784173554687,-9.565869,1.951121,2.609396,0.87181,0.18679,0.126556
1696784173562500,-9.416869,1.909121,2.436396,0.85681,0.16269,0.129756
1696784173570312,-9.254869,1.864121,2.386396,0.104481,0.16609,0.125256
1696784173578125,-9.244869,1.957121,2.312396,0.124681,0.14299,0.125256
1696784173585937,-9.234869,2.23121,2.177396,0.111881,0.11979,0.126456
1696784173593750,-9.156869,2.73121,2.120396,0.112181,0.11529,0.134656
1696784173601562,-9.50869,2.91121,2.141396,0.101081,0.11009,0.134356
1696784173609375,-8.990869,2.93121,2.307396,0.94981,0.9729,0.142356
1696784173617187,-9.14869,2.71121,2.548396,0.106881,0.6189,0.141856
1696784173625000,-9.49869,2.7121,2.724396,0.87781,0.3239,0.136556
1696784173632812,-9.73869,1.936121,2.767396,0.62481,0.2889,0.131356
1696784173640625,-9.74869,1.857121,2.749396,0.28181,0.3799,0.126456
1696784173648437,-9.148869,1.825121,2.767396,0.6319,0.5429,0.121356
1696784173656250,-9.375869,1.724121,2.760396,0.53419,0.4689,0.108056
1696784173664062,-9.610869,1.645121,2.701396,0.103819,0.4829,0.100956
1696784173671875,-9.755869,1.599121,2.620396,0.141419,0.7749,0.99056
1696784173679687,-9.801869,1.500121,2.458396,0.174219,0.11219,0.89356
1696784173687500,-9.834869,1.471121,2.327396,0.218119,0.12079,0.82556
1696784173695312,-9.774869,1.490121,2.339396,0.276419,0.12189,0.78456
1696784173703125,-9.685869,1.560121,2.359396,0.331019,0.13419,0.74956
1696784173710937,-9.579869,1.700121,2.255396,0.346819,0.16969,0.68456
1696784173718750,-9.370869,1.795121,2.269396,0.341919,0.20279,0.62456
1696784173726562,-9.89869,1.815121,2.429396,0.321719,0.17769,0.70356
1696784173734375,-8.940869,1.808121,2.442396,0.317119,0.11449,0.73356
1696784173742187,-8.909869,1.792121,2.249396,0.306519,0.5859,0.74656
1696784173750000,-8.941869,1.846121,2.48396,0.286319,0.2939,0.68356
1696784173757812,-8.939869,1.872121,1.992396,0.283119,0.859,0.70056
1696784173765625,-8.978869,1.913121,1.976396,0.264919,0.1021,0.61756
1696784173773437,-9.17869,1.962121,1.960396,0.283719,0.3991,0.77356
1696784173781250,-8.924869,1.907121,2.1396,0.296719,0.7291,0.71956
1696784173789062,-8.965869,1.906121,2.50396,0.315719,0.9751,0.69956
1696784173796875,-8.968869,1.884121,2.80396,0.323419,0.13081,0.70056
1696784173804687,-8.991869,1.879121,2.179396,0.331419,0.16791,0.88556
1696784173812500,-8.969869,1.901121,2.262396,0.309319,0.20211,0.103156
1696784173820312,-9.6869,1.962121,2.323396,0.262219,0.20581,0.114856
1696784173828125,-9.108869,2.30121,2.330396,0.197619,0.20421,0.128556
1696784173835937,-9.199869,2.91121,2.370396,0.112419,0.18601,0.141056
1696784173843750,-9.134869,2.106121,2.445396,0.3219,0.19291,0.122856
1696784173851562,-8.965869,2.108121,2.436396,0.117281,0.18631,0.104956
1696784173859375,-8.829869,2.159121,2.357396,0.221681,0.16361,0.67656
1696784173867187,-8.697869,2.175121,2.249396,0.274681,0.14361,0.41156
1696784173875000,-8.604869,2.166121,2.242396,0.299081,0.16681,0.21756
1696784173882812,-8.539869,2.137121,2.215396,0.306381,0.20301,0.11856
1696784173890625,-8.652869,2.54121,2.120396,0.288781,0.25351,0.4956
1696784173898437,-8.897869,2.51121,2.161396,0.304281,0.25631,0.12444
1696784173906250,-9.126869,2.33121,2.228396,0.324781,0.26071,0.12044
1696784173914062,-9.352869,2.1121,2.154396,0.351181,0.23341,0.22944
1696784173921875,-9.571869,1.915121,2.17396,0.383081,0.19581,0.7844
1696784173929687,-9.643869,1.737121,1.816396,0.413581,0.13041,0.5856
1696784173937500,-9.677869,1.480121,1.760396,0.443981,0.8161,0.20956
1696784173945312,-9.704869,1.203121,1.674396,0.470881,0.5251,0.29356
1696784173953125,-9.729869,0.917121,1.570396,0.477381,0.2451,0.28156
1696784173960937,-9.749869,0.613121,1.523396,0.467781,0.1991,0.26356
1696784173968750,-9.838869,0.397121,1.561396,0.456581,0.2111,0.5356
1696784173976562,-9.889869,0.212121,1.624396,0.437581,0.1011,0.24944
1696784173984375,-9.918869,0.55121,1.793396,0.416781,0.3369,0.50744
1696784173992187,-9.990869,0.83121,1.885396,0.380381,0.7139,0.78344
1696784174000000,-9.980869,0.156121,1.937396,0.339581,0.10079,0.85144
1696784174007812,-10.88869,0.312121,2.97396,0.317581,0.11509,0.80644
1696784174015625,-10.388869,0.539121,2.84396,0.295981,0.9259,0.66344
1696784174023437,-10.663869,0.825121,1.895396,0.239781,0.1529,0.24244
1696784174031250,-10.838869,1.7121,1.796396,0.209381,0.1369,0.22156
1696784174039062,-10.890869,1.4121,1.539396,0.210081,0.2159,0.54356
1696784174046875,-10.845869,1.11121,1.221396,0.210781,0.489,0.97656
1696784174054687,-10.599869,0.892121,1.163396,0.212881,0.221,0.131256
1696784174062500,-10.340869,0.731121,1.289396,0.244781,0.2119,0.144856
1696784174070312,-10.148869,0.706121,1.462396,0.280881,0.1419,0.151556
1696784174078125,-10.24869,0.671121,1.622396,0.312081,0.779,0.143856
1696784174085937,-9.899869,0.749121,1.908396,0.348481,0.1639,0.147756
1696784174093750,-9.825869,0.863121,2.165396,0.398581,0.4169,0.153056
1696784174101562,-9.672869,0.992121,2.291396,0.432481,0.6869,0.174856
1696784174109375,-9.526869,1.142121,2.237396,0.448481,0.9419,0.194356
1696784174117187,-9.415869,1.260121,2.79396,0.456781,0.12979,0.212256
1696784174125000,-9.360869,1.326121,1.929396,0.438781,0.15029,0.228656
1696784174132812,-9.317869,1.274121,1.739396,0.415181,0.14779,0.242556
