time,Acceleration X (m/s^2),Acceleration Y (m/s^2),Acceleration Z (m/s^2),Angular Velocity X (rad/s),Angular Velocity Y (rad/s),Angular Velocity Z (rad/s)
1696783828539062,-9.627225,1.792066,-0.005079,,,
1696783828546875,-9.614225,1.803066,0.18079,0.30821,0.2241,0.232
1696783828554687,-9.607225,1.814066,0.39079,0.33921,0.5541,0.72
1696783828562500,-9.609225,1.812066,0.45079,0.29121,0.7341,0.1208
1696783828570312,-9.611225,1.812066,0.12079,0.19721,0.5741,0.1218
1696783828578125,-9.621225,1.819066,0.3921,0.18121,0.4141,0.1548
1696783828593750,-9.601225,1.834066,0.37921,0.16721,0.5841,0.1698
1696783828601562,-9.601225,1.827066,0.39921,0.27921,0.4341,0.1198
1696783828609375,-9.591225,1.821066,0.28921,0.46221,0.7141,0.1358
1696783828617187,-9.594225,1.832066,0.34921,0.45821,0.5241,0.1208
1696783828640625,-9.573225,1.827066,0.104921,0.68221,0.20241,0.1488
1696783828648437,-9.567225,1.814066,0.95921,0.69721,0.8741,0.1488
1696783828656250,-9.567225,1.818066,0.89921,0.80921,0.20341,0.1308
1696783828664062,-9.569225,1.822066,0.77921,0.90221,0.13641,0.978
1696783828671875,-9.580225,1.827066,0.80921,0.94821,0.15141,0.498
1696783828679687,-9.598225,1.830066,0.91921,0.92721,0.6641,0.848
1696783828687500,-9.601225,1.829066,0.77921,0.88821,0.13741,0.978
1696783828695312,-9.603225,1.827066,0.57921,0.83721,0.5341,0.998
1696783828703125,-9.623225,1.836066,0.33921,0.81521,0.15841,0.1288
1696783828710937,-9.639225,1.828066,0.0,0.77421,0.8641,0.1168
1696783828718750,-9.641225,1.830066,0.1921,0.73421,0.10841,0.1628
1696783828726562,-9.648225,1.842066,0.30921,0.80321,0.21641,0.1648
1696783828734375,-9.636225,1.832066,0.37921,0.80821,0.20241,0.1148
1696783828742187,-9.612225,1.818066,0.23921,0.85821,0.15541,0.1298
1696783828750000,-9.603225,1.816066,0.5079,0.78021,0.10641,0.1148
1696783828757812,-9.600225,1.825066,0.30079,0.85121,0.1259,0.1168
1696783828765625,-9.601225,1.847066,0.23079,0.85121,0.1259,0.1328
1696783828773437,-9.628225,1.848066,0.34079,0.91621,0.1059,0.1148
1696783828781250,-9.634225,1.830066,0.9079,0.78121,0.5459,0.1628
1696783828789062,-9.643225,1.819066,0.3921,0.67521,0.4559,0.1998
1696783828796875,-9.672225,1.798066,0.5079,0.69221,0.2959,0.1358
1696783828804687,-9.678225,1.789066,0.14079,0.68121,0.1059,0.1178
1696783828812500,-9.647225,1.777066,0.7079,0.71321,0.859,0.1648
1696783828820312,-9.634225,1.779066,0.5921,0.71521,0.5659,0.1648
1696783828828125,-9.611225,1.785066,0.24921,0.88021,0.3559,0.1118
1696783828835937,-9.577225,1.782066,0.26921,0.79521,0.2459,0.998
1696783828843750,-9.568225,1.789066,0.30921,0.82421,0.4259,0.998
1696783828851562,-9.562225,1.782066,0.48921,0.82821,0.8859,0.988
1696783828859375,-9.591225,1.789066,0.64921,0.93821,0.5659,0.648
1696783828867187,-9.602225,1.787066,0.64921,0.84621,0.6041,0.1288
1696783828875000,-9.613225,1.788066,0.53921,0.87121,0.2559,0.1148
1696783828882812,-9.629225,1.799066,0.30921,0.87121,0.4259,0.1158
1696783828890625,-9.622225,1.797066,0.28921,0.90021,0.9159,0.1958
1696783828898437,-9.623225,1.812066,0.37921,0.81621,0.6259,0.2148
1696783828906250,-9.616225,1.812066,0.26921,0.93321,0.4059,0.2268
1696783828914062,-9.612225,1.821066,0.23921,0.83721,0.5859,0.2288
1696783828921875,-9.619225,1.832066,0.12921,0.73421,0.5459,0.1798
1696783828929687,-9.621225,1.841066,0.8921,0.85521,0.10759,0.1158
1696783828937500,-9.612225,1.841066,0.12921,0.85821,0.12159,0.1468
1696783828945312,-9.607225,1.827066,0.12921,0.74621,0.10559,0.1808
1696783828953125,-9.616225,1.827066,0.5079,0.66421,0.23859,0.1998
1696783828960937,-9.627225,1.821066,0.28079,0.51821,0.32459,0.1068
1696783828968750,-9.618225,1.808066,0.5079,0.42621,0.40259,0.1718
1696783828976562,-9.614225,1.809066,0.3079,0.30721,0.46459,0.1398
1696783828984375,-9.634225,1.801066,0.7079,0.43121,0.48259,0.1228
1696783828992187,-9.632225,1.810066,0.12079,0.31421,0.42159,0.1268
1696783829000000,-9.628225,1.821066,0.16079,0.29721,0.33259,0.72
1696783829007812,-9.623225,1.808066,0.34079,0.44621,0.23959,0.258
1696783829015625,-9.618225,1.763066,0.5921,0.38921,0.12259,0.82
1696783829023437,-9.595225,1.750066,0.91921,0.43021,0.20659,0.738
1696783829031250,-9.588225,1.743066,0.131921,0.49621,0.20459,0.718
1696783829039062,-9.581225,1.745066,0.104921,0.55821,0.13859,0.1188
1696783829046875,-9.581225,1.725066,0.84921,0.55921,0.4059,0.1178
1696783829054687,-9.607225,1.690066,0.93921,0.44621,0.10441,0.1358
1696783829062500,-9.636225,1.682066,0.147921,0.49221,0.2141,0.878
1696783829070312,-9.638225,1.670066,0.165921,0.46221,0.2659,0.888
1696783829078125,-9.654225,1.637066,0.170921,0.45521,0.13459,0.858
1696783829085937,-9.669225,1.624066,0.152921,0.48421,0.3959,0.538
1696783829093750,-9.660225,1.633066,0.127921,0.65521,0.859,0.368
1696783829101562,-9.647225,1.671066,0.120921,0.84721,0.18041,0.1008
1696783829109375,-9.623225,1.699066,0.111921,0.94921,0.23441,0.1288
1696783829117187,-9.585225,1.690066,0.109921,0.97821,0.21741,0.1138
1696783829125000,-9.542225,1.691066,0.113921,0.105621,0.11841,0.1138
1696783829132812,-9.526225,1.660066,0.145921,0.105921,0.8841,0.1288
1696783829140625,-9.531225,1.662066,0.138921,0.117221,0.15541,0.1098
1696783829148437,-9.564225,1.669066,0.170921,0.120321,0.17141,0.1258
1696783829156250,-9.596225,1.694066,0.140921,0.119021,0.31841,0.438
1696783829164062,-9.633225,1.721066,0.111921,0.122121,0.28541,0.438
1696783829171875,-9.644225,1.755066,0.89921,0.126621,0.26841,0.768
1696783829179687,-9.656225,1.786066,0.75921,0.121821,0.23341,0.138
1696783829187500,-9.654225,1.804066,0.37921,0.118521,0.21741,0.788
1696783829195312,-9.641225,1.799066,0.26921,0.96021,0.21041,0.1258
1696783829203125,-9.632225,1.814066,0.55921,0.95521,0.28741,0.1108
1696783829210937,-9.636225,1.821066,0.59921,0.81021,0.48241,0.1928
1696783829218750,-9.648225,1.837066,0.64921,0.71321,0.41541,0.2268
1696783829226562,-9.632225,1.821066,0.50921,0.73321,0.22341,0.2098
1696783829234375,-9.619225,1.836066,0.39921,0.68221,0.17141,0.2288
1696783829242187,-9.594225,1.834066,0.46921,0.70121,0.9241,0.2278
1696783829250000,-9.569225,1.813066,0.71921,0.70221,0.19041,0.2108
1696783829257812,-9.562225,1.822066,0.109921,0.76121,0.23641,0.2268
1696783829265625,-9.585225,1.827066,0.91921,0.71521,0.17141,0.1478
1696783829273437,-9.605225,1.820066,0.62921,0.68921,0.17541,0.1778
1696783829281250,-9.595225,1.794066,0.35921,0.69821,0.7241,0.1488
1696783829289062,-9.599225,1.774066,0.21921,0.72621,0.15041,0.528
1696783829296875,-9.607225,1.796066,0.26921,0.72121,0.15641,0.338
1696783829304687,-9.605225,1.814066,0.50921,0.67021,0.20141,0.442
1696783829312500,-9.607225,1.825066,0.91921,0.74721,0.15241,0.132
1696783829320312,-9.607225,1.834066,0.122921,0.74921,0.20341,0.18
1696783829328125,-9.623225,1.834066,0.93921,0.70121,0.13641,0.442
1696783829335937,-9.621225,1.821066,0.30921,0.58121,0.9341,0.508
1696783829343750,-9.598225,1.799066,0.12079,0.41421,0.10341,0.888
1696783829351562,-9.602225,1.794066,0.7079,0.41621,0.16841,0.238
1696783829359375,-9.602225,1.792066,0.3079,0.38721,0.23541,0.92
1696783829367187,-9.607225,1.783066,0.39079,0.38721,0.15541,0.708
1696783829375000,-9.602225,1.792066,0.75079,0.23121,0.10541,0.88
1696783829382812,-9.591225,1.805066,0.95079,0.21521,0.18641,0.392
1696783829390625,-9.585225,1.820066,0.81079,0.23321,0.18941,0.238
1696783829398437,-9.594225,1.832066,0.70079,0.11721,0.25141,0.748
1696783829406250,-9.605225,1.847066,0.45079,0.1679,0.30441,0.578
1696783829414062,-9.628225,1.845066,0.21079,0.12321,0.35341,0.1038
1696783829421875,-9.633225,1.870066,0.21079,0.20721,0.29041,0.58
1696783829429687,-9.613225,1.881066,0.5079,0.18421,0.20441,0.248
1696783829437500,-9.586225,1.900066,0.9079,0.22821,0.13541,0.62
1696783829445312,-9.593225,1.905066,0.25079,0.27621,0.21741,0.392
1696783829453125,-9.606225,1.903066,0.45079,0.37221,0.25141,0.92
1696783829460937,-9.604225,1.919066,0.46079,0.30521,0.21641,0.88
1696783829468750,-9.620225,1.914066,0.18079,0.30821,0.23541,0.238
1696783829476562,-9.629225,1.914066,0.25079,0.44221,0.24041,0.292
1696783829484375,-9.622225,1.896066,0.52079,0.45221,0.25241,0.112
1696783829492187,-9.610225,1.880066,0.50079,0.40921,0.20641,0.432
1696783829500000,-9.603225,1.872066,0.57079,0.35221,0.19941,0.232
1696783829507812,-9.580225,1.849066,0.52079,0.43321,0.25041,0.412
1696783829515625,-9.551225,1.842066,0.48079,0.27321,0.24741,0.862
1696783829523437,-9.567225,1.842066,0.39079,0.37021,0.20141,0.242
1696783829531250,-9.583225,1.851066,0.38079,0.31821,0.22541,0.122
1696783829539062,-9.587225,1.851066,0.54079,0.21821,0.20541,0.238
1696783829546875,-9.571225,1.833066,0.57079,0.15421,0.20441,0.72
1696783829554687,-9.580225,1.825066,0.72079,0.12521,0.23841,0.242
1696783829562500,-9.573225,1.820066,0.68079,0.5621,0.36541,0.258
1696783829570312,-9.594225,1.814066,0.68079,0.179,0.43341,0.88
1696783829578125,-9.605225,1.816066,0.54079,0.4079,0.47041,0.732
1696783829585937,-9.598225,1.818066,0.45079,0.19421,0.43741,0.592
1696783829593750,-9.580225,1.807066,0.27079,0.20721,0.33741,0.742
1696783829601562,-9.569225,1.804066,0.9079,0.21321,0.34141,0.1092
1696783829609375,-9.573225,1.803066,0.26921,0.28021,0.39841,0.902
1696783829617187,-9.591225,1.809066,0.39921,0.35321,0.45341,0.1742
1696783829625000,-9.603225,1.807066,0.55921,0.41221,0.40441,0.132
1696783829632812,-9.603225,1.807066,0.35921,0.46021,0.38741,0.622
1696783829640625,-9.605225,1.798066,0.15921,0.44621,0.32541,0.18
1696783829648437,-9.600225,1.785066,0.21079,0.51321,0.33341,0.208
1696783829656250,-9.600225,1.776066,0.39079,0.61621,0.45441,0.798
1696783829664062,-9.607225,1.778066,0.41079,0.65821,0.46841,0.1448
1696783829671875,-9.611225,1.765066,0.41079,0.67121,0.48341,0.1778
1696783829679687,-9.613225,1.763066,0.70079,0.68621,0.43441,0.1778
1696783829687500,-9.633225,1.774066,0.70079,0.73021,0.35141,0.2268
1696783829695312,-9.645225,1.770066,0.52079,0.77221,0.34141,0.1908
1696783829703125,-9.653225,1.761066,0.32079,0.84221,0.28741,0.1928
1696783829710937,-9.647225,1.754066,0.18079,0.81921,0.21041,0.1428
1696783829718750,-9.640225,1.774066,0.23079,0.81521,0.15841,0.1448
1696783829726562,-9.640225,1.786066,0.9079,0.95421,0.9141,0.1278
1696783829734375,-9.652225,1.810066,0.14079,0.93521,0.8841,0.658
1696783829742187,-9.636225,1.801066,0.0,0.99121,0.2159,0.12
1696783829750000,-9.627225,1.781066,0.34079,0.98821,0.5559,0.318
1696783829757812,-9.611225,1.763066,0.50079,0.97721,0.5259,0.22
1696783829765625,-9.584225,1.774066,0.52079,0.115421,0.5959,0.638
1696783829773437,-9.597225,1.770066,0.37079,0.119921,0.4459,0.638
1696783829781250,-9.579225,1.760066,0.12079,0.119321,0.3959,0.512
1696783829789062,-9.534225,1.751066,0.10079,0.120021,0.1941,0.322
1696783829796875,-9.564225,1.764066,0.35921,0.119421,0.941,0.512
1696783829804687,-9.603225,1.800066,0.12921,0.119621,0.7641,0.202
1696783829812500,-9.622225,1.774066,0.32079,0.117321,0.17141,0.778
1696783829820312,-9.620225,1.763066,0.54079,0.112721,0.12341,0.778
1696783829828125,-9.642225,1.766066,0.63079,0.110921,0.15541,0.1108
1696783829835937,-9.640225,1.755066,0.77079,0.102621,0.16941,0.1768
1696783829843750,-9.626225,1.735066,0.61079,0.93321,0.21841,0.1458
1696783829851562,-9.621225,1.721066,0.50079,0.89121,0.5841,0.1128
1696783829859375,-9.626225,1.710066,0.50079,0.68321,0.2559,0.1178
1696783829867187,-9.648225,1.728066,0.70079,0.68221,0.5859,0.1338
1696783829875000,-9.644225,1.713066,0.75079,0.69721,0.6159,0.58
1696783829882812,-9.632225,1.695066,0.52079,0.54321,0.10959,0.572
1696783829890625,-9.636225,1.646066,0.41079,0.42721,0.7259,0.2192
1696783829898437,-9.667225,1.633066,0.37079,0.46621,0.12759,0.2482
1696783829906250,-9.710225,1.665066,0.50079,0.48321,0.2759,0.2012
1696783829914062,-9.709225,1.727066,0.90079,0.63221,0.23841,0.1752
1696783829921875,-9.685225,1.760066,0.88079,0.70721,0.13841,0.1422
1696783829929687,-9.667225,1.759066,0.77079,0.69021,0.10441,0.1892
1696783829937500,-9.645225,1.763066,0.75079,0.72521,0.2441,0.2232
1696783829945312,-9.605225,1.696066,0.84079,0.78821,0.7159,0.1752
1696783829953125,-9.578225,1.674066,0.82079,0.72221,0.1059,0.2532
1696783829960937,-9.564225,1.644066,0.72079,0.88621,0.2741,0.2262
1696783829968750,-9.571225,1.638066,0.28079,0.105021,0.18541,0.1622
1696783829976562,-9.578225,1.687066,0.28921,0.125221,0.16741,0.1792
1696783829984375,-9.599225,1.734066,0.46921,0.144621,0.17141,0.1842
1696783829992187,-9.604225,1.776066,0.35921,0.144621,0.18741,0.1682
1696783830000000,-9.587225,1.807066,0.9079,0.145821,0.15241,0.1662
1696783830007812,-9.592225,1.843066,0.50079,0.143221,0.22941,0.352
1696783830015625,-9.606225,1.871066,0.84079,0.145921,0.27041,0.72
1696783830023437,-9.613225,1.883066,0.97079,0.139621,0.31941,0.408
1696783830031250,-9.620225,1.896066,0.72079,0.129821,0.31741,0.598
1696783830039062,-9.617225,1.896066,0.66079,0.118721,0.20241,0.778
1696783830046875,-9.639225,1.881066,0.72079,0.107721,0.18441,0.332
1696783830054687,-9.648225,1.879066,0.91079,0.115221,0.8541,0.158
1696783830062500,-9.655225,1.879066,0.118079,0.100621,0.5041,0.348
1696783830070312,-9.646225,1.863066,0.149079,0.105021,0.759,0.172
1696783830078125,-9.639225,1.854066,0.151079,0.114821,0.5841,0.832
1696783830085937,-9.646225,1.861066,0.153079,0.119121,0.5641,0.832
1696783830093750,-9.646225,1.854066,0.154079,0.101721,0.541,0.1282
1696783830101562,-9.643225,1.839066,0.113079,0.94221,0.4059,0.1122
1696783830109375,-9.636225,1.823066,0.99079,0.92721,0.759,0.1282
1696783830117187,-9.616225,1.783066,0.97079,0.80021,0.7259,0.782
1696783830125000,-9.597225,1.778066,0.86079,0.79721,0.9259,0.1252
1696783830132812,-9.604225,1.772066,0.77079,0.78421,0.7459,0.1412
1696783830140625,-9.589225,1.778066,0.63079,0.88321,0.2259,0.1762
1696783830148437,-9.582225,1.814066,0.34079,0.94221,0.5641,0.1602
1696783830156250,-9.567225,1.802066,0.32079,0.108721,0.8859,0.2102
1696783830164062,-9.553225,1.829066,0.12079,0.107621,0.6259,0.1592
1696783830171875,-9.574225,1.829066,0.27079,0.100421,0.10559,0.802
1696783830179687,-9.591225,1.803066,0.57079,0.112521,0.5541,0.172
1696783830187500,-9.623225,1.810066,0.79079,0.105621,0.13541,0.1458
1696783830195312,-9.640225,1.788066,0.106079,0.106221,0.12241,0.948
1696783830203125,-9.676225,1.784066,0.138079,0.94221,0.1741,0.1328
1696783830210937,-9.669225,1.791066,0.118079,0.77121,0.6059,0.1828
1696783830218750,-9.641225,1.815066,0.104079,0.71021,0.14159,0.1668
1696783830226562,-9.614225,1.816066,0.86079,0.68421,0.12259,0.1178
1696783830234375,-9.594225,1.838066,0.70079,0.75721,0.4459,0.1338
1696783830242187,-9.594225,1.860066,0.75079,0.82421,0.5859,0.1158
1696783830250000,-9.601225,1.862066,0.38079,0.86521,0.5159,0.1118
1696783830257812,-9.617225,1.878066,0.16079,0.89021,0.5559,0.1298
1696783830265625,-9.635225,1.888066,0.14079,0.90221,0.7559,0.988
1696783830273437,-9.642225,1.899066,0.7079,0.95221,0.13959,0.498
1696783830281250,-9.633225,1.879066,0.23079,0.93321,0.17359,0.998
1696783830289062,-9.630225,1.867066,0.45079,0.93721,0.10559,0.1298
1696783830296875,-9.644225,1.872066,0.70079,0.95121,0.859,0.1138
1696783830304687,-9.628225,1.874066,0.113079,0.101621,0.659,0.1278
1696783830312500,-9.628225,1.869066,0.144079,0.95921,0.1341,0.1108
1696783830320312,-9.617225,1.885066,0.129079,0.94921,0.5859,0.1308
1696783830328125,-9.613225,1.891066,0.144079,0.94221,0.3759,0.798
1696783830335937,-9.583225,1.889066,0.142079,0.94621,0.6359,0.122
1696783830343750,-9.554225,1.891066,0.145079,0.85221,0.6159,0.848
1696783830351562,-9.557225,1.888066,0.156079,0.84421,0.8859,0.828
1696783830359375,-9.563225,1.875066,0.156079,0.68521,0.7359,0.1008
1696783830367187,-9.570225,1.871066,0.156079,0.70321,0.3959,0.518
1696783830375000,-9.577225,1.877066,0.180079,0.61621,0.8459,0.188
1696783830382812,-9.574225,1.865066,0.190079,0.44521,0.10859,0.1048
1696783830390625,-9.572225,1.878066,0.156079,0.44921,0.2559,0.718
1696783830398437,-9.588225,1.871066,0.142079,0.32221,0.1059,0.418
1696783830406250,-9.597225,1.878066,0.108079,0.27521,0.5759,0.898
1696783830414062,-9.606225,1.871066,0.84079,0.21821,0.5559,0.88
1696783830421875,-9.610225,1.852066,0.86079,0.17921,0.1159,0.118
1696783830429687,-9.619225,1.836066,0.84079,0.19921,0.5641,0.258
1696783830437500,-9.621225,1.847066,0.111079,0.18821,0.4341,0.242
1696783830445312,-9.614225,1.850066,0.131079,0.20021,0.4041,0.62
1696783830453125,-9.614225,1.843066,0.142079,0.29421,0.5641,0.72
1696783830460937,-9.623225,1.816066,0.122079,0.38021,0.11041,0.112
1696783830468750,-9.603225,1.811066,0.81079,0.44121,0.17541,0.38
1696783830476562,-9.600225,1.805066,0.66079,0.45221,0.7441,0.218
1696783830484375,-9.596225,1.803066,0.48079,0.69021,0.12441,0.142
1696783830492187,-9.605225,1.794066,0.72079,0.70521,0.15541,0.302
1696783830500000,-9.596225,1.807066,0.106079,0.68621,0.16941,0.762
1696783830507812,-9.589225,1.814066,0.111079,0.69021,0.4241,0.292
1696783830515625,-9.582225,1.818066,0.113079,0.68621,0.641,0.442
1696783830523437,-9.578225,1.818066,0.111079,0.70721,0.1041,0.302
1696783830531250,-9.580225,1.811066,0.102079,0.68821,0.2441,0.282
1696783830539062,-9.571225,1.807066,0.91079,0.65121,0.6941,0.422
1696783830546875,-9.566225,1.807066,0.111079,0.52821,0.13641,0.102
1696783830554687,-9.591225,1.829066,0.115079,0.41621,0.20141,0.78
1696783830562500,-9.596225,1.830066,0.95079,0.44221,0.32841,0.568
1696783830570312,-9.603225,1.825066,0.106079,0.45021,0.41541,0.368
1696783830578125,-9.639225,1.841066,0.84079,0.38621,0.33241,0.68
1696783830585937,-9.637225,1.856066,0.84079,0.39421,0.20941,0.1158
1696783830593750,-9.613225,1.883066,0.79079,0.46621,0.20441,0.698
1696783830601562,-9.608225,1.887066,0.72079,0.60421,0.15341,0.1178
1696783830609375,-9.579225,1.893066,0.61079,0.67021,0.18841,0.1148
1696783830617187,-9.575225,1.909066,0.68079,0.68021,0.26541,0.688
1696783830625000,-9.579225,1.922066,0.84079,0.70021,0.26941,0.1148
1696783830632812,-9.577225,1.920066,0.84079,0.69621,0.25041,0.1168
1696783830640625,-9.573225,1.909066,0.90079,0.68421,0.28541,0.1468
1696783830648437,-9.572225,1.900066,0.106079,0.69221,0.23141,0.1338
1696783830656250,-9.581225,1.887066,0.113079,0.61021,0.24341,0.1208
1696783830664062,-9.599225,1.878066,0.120079,0.55921,0.23641,0.1328
1696783830671875,-9.606225,1.892066,0.111079,0.53321,0.21341,0.1528
1696783830679687,-9.604225,1.883066,0.113079,0.62321,0.15641,0.1478
1696783830687500,-9.593225,1.907066,0.122079,0.69021,0.19141,0.1298
1696783830695312,-9.611225,1.900066,0.135079,0.67121,0.20541,0.1148
1696783830703125,-9.624225,1.901066,0.133079,0.67121,0.20541,0.988
1696783830710937,-9.619225,1.878066,0.102079,0.69021,0.20741,0.1298
1696783830718750,-9.621225,1.852066,0.93079,0.69521,0.5341,0.1338
1696783830726562,-9.637225,1.846066,0.79079,0.68121,0.15141,0.848
1696783830734375,-9.630225,1.848066,0.77079,0.69821,0.12041,0.848
1696783830742187,-9.621225,1.861066,0.86079,0.68421,0.8941,0.848
1696783830750000,-9.624225,1.881066,0.84079,0.69621,0.15241,0.1168
1696783830757812,-9.625225,1.859066,0.84079,0.67621,0.8341,0.868
1696783830765625,-9.628225,1.848066,0.86079,0.69721,0.5541,0.1008
1696783830773437,-9.612225,1.859066,0.88079,0.55321,0.441,0.1358
1696783830781250,-9.589225,1.847066,0.91079,0.64321,0.4759,0.1208
1696783830789062,-9.583225,1.858066,0.113079,0.66321,0.3741,0.1348
1696783830796875,-9.581225,1.863066,0.109079,0.67521,0.141,0.1198
1696783830804687,-9.599225,1.865066,0.99079,0.69821,0.4159,0.1178
1696783830812500,-9.612225,1.878066,0.104079,0.68021,0.2659,0.1338
1696783830820312,-9.610225,1.869066,0.99079,0.70021,0.8959,0.1168
1696783830828125,-9.603225,1.872066,0.84079,0.69421,0.9359,0.1028
1696783830835937,-9.608225,1.876066,0.91079,0.67921,0.4459,0.1188
1696783830843750,-9.610225,1.876066,0.88079,0.69521,0.7759,0.708
1696783830851562,-9.621225,1.890066,0.86079,0.67221,0.0,0.888
1696783830859375,-9.622225,1.899066,0.84079,0.73121,0.12141,0.1158
1696783830867187,-9.619225,1.897066,0.109079,0.83421,0.8441,0.1168
1696783830875000,-9.637225,1.906066,0.131079,0.75521,0.5241,0.1658
1696783830882812,-9.642225,1.888066,0.151079,0.68121,0.741,0.1978
1696783830890625,-9.639225,1.872066,0.167079,0.68721,0.5741,0.198
1696783830898437,-9.639225,1.870066,0.174079,0.69721,0.3841,0.1178
1696783830906250,-9.639225,1.868066,0.172079,0.65321,0.741,0.368
1696783830914062,-9.637225,1.852066,0.174079,0.70121,0.2441,0.838
1696783830921875,-9.616225,1.834066,0.176079,0.57121,0.12459,0.1038
1696783830929687,-9.598225,1.822066,0.156079,0.56521,0.10259,0.688
1696783830937500,-9.598225,1.825066,0.124079,0.47921,0.10759,0.718
1696783830945312,-9.611225,1.790066,0.106079,0.42821,0.9459,0.258
1696783830953125,-9.611225,1.796066,0.104079,0.44421,0.7659,0.898
1696783830960937,-9.600225,1.789066,0.122079,0.43121,0.7459,0.1528
1696783830968750,-9.604225,1.779066,0.113079,0.42721,0.10959,0.1548
1696783830976562,-9.611225,1.792066,0.86079,0.44521,0.7559,0.1208
1696783830984375,-9.609225,1.790066,0.79079,0.43121,0.9259,0.568
1696783830992187,-9.600225,1.790066,0.70079,0.44721,0.9259,0.88
1696783831000000,-9.609225,1.788066,0.59079,0.49521,0.7659,0.78
1696783831007812,-9.618225,1.788066,0.52079,0.61421,0.12759,0.1048
1696783831015625,-9.616225,1.788066,0.63079,0.69821,0.7459,0.1338
1696783831023437,-9.607225,1.803066,0.50079,0.72021,0.5459,0.828
1696783831031250,-9.602225,1.807066,0.50079,0.75821,0.15959,0.548
1696783831039062,-9.591225,1.807066,0.61079,0.68321,0.17159,0.1338
1696783831046875,-9.578225,1.803066,0.68079,0.71021,0.19259,0.878
1696783831054687,-9.577225,1.800066,0.73079,0.82021,0.14359,0.858
1696783831062500,-9.596225,1.820066,0.81079,0.82621,0.10659,0.678
1696783831070312,-9.619225,1.834066,0.84079,0.88421,0.5959,0.1158
1696783831078125,-9.635225,1.834066,0.95079,0.81521,0.3659,0.1298
1696783831085937,-9.625225,1.829066,0.120079,0.79821,0.5459,0.1148
1696783831093750,-9.616225,1.810066,0.115079,0.69921,0.13859,0.1498
1696783831101562,-9.600225,1.798066,0.95079,0.68821,0.8659,0.1318
1696783831109375,-9.591225,1.798066,0.70079,0.68421,0.14059,0.218
1696783831117187,-9.598225,1.807066,0.66079,0.69821,0.12359,0.1018
1696783831125000,-9.582225,1.807066,0.61079,0.79421,0.7559,0.38
1696783831132812,-9.565225,1.836066,0.84079,0.93521,0.5541,0.498
1696783831140625,-9.569225,1.836066,0.97079,0.93621,0.13741,0.648
1696783831148437,-9.567225,1.851066,0.106079,0.95721,0.18941,0.148
1696783831156250,-9.585225,1.836066,0.117079,0.89421,0.17241,0.158
1696783831164062,-9.598225,1.823066,0.124079,0.77821,0.17041,0.1308
1696783831171875,-9.610225,1.831066,0.135079,0.68921,0.6041,0.1148
1696783831179687,-9.607225,1.825066,0.115079,0.70021,0.4141,0.1318
1696783831187500,-9.601225,1.834066,0.88079,0.78121,0.7541,0.1308
1696783831195312,-9.609225,1.832066,0.88079,0.69521,0.2241,0.1818
1696783831203125,-9.609225,1.843066,0.82079,0.76921,0.5041,0.1348
1696783831210937,-9.621225,1.847066,0.70079,0.81421,0.4341,0.1138
1696783831218750,-9.617225,1.852066,0.72079,0.77821,0.2441,0.1478
1696783831226562,-9.621225,1.847066,0.61079,0.79621,0.4241,0.1628
1696783831234375,-9.614225,1.854066,0.73079,0.70921,0.1159,0.1988
1696783831242187,-9.605225,1.858066,0.72079,0.68121,0.5641,0.2138
1696783831250000,-9.607225,1.845066,0.77079,0.68121,0.2659,0.1178
1696783831257812,-9.608225,1.842066,0.81079,0.70521,0.2941,0.1948
1696783831265625,-9.616225,1.825066,0.79079,0.67721,0.5441,0.2308
1696783831273437,-9.603225,1.841066,0.84079,0.69921,0.10541,0.1488
1696783831281250,-9.600225,1.832066,0.73079,0.71221,0.12041,0.1488
1696783831289062,-9.585225,1.838066,0.61079,0.76321,0.4141,0.1478
1696783831296875,-9.587225,1.834066,0.30079,0.78921,0.15141,0.1318
1696783831304687,-9.585225,1.831066,0.34079,0.67121,0.12341,0.838
1696783831312500,-9.607225,1.827066,0.45079,0.71221,0.12041,0.1808
1696783831320312,-9.641225,1.812066,0.63079,0.49521,0.15541,0.1338
1696783831328125,-9.638225,1.808066,0.82079,0.42721,0.6941,0.1218
1696783831335937,-9.650225,1.815066,0.86079,0.44721,0.18641,0.1348
1696783831343750,-9.647225,1.806066,0.79079,0.43521,0.18941,0.1178
1696783831351562,-9.638225,1.796066,0.81079,0.45621,0.20941,0.1638
1696783831359375,-9.636225,1.781066,0.88079,0.43521,0.20541,0.1498
1696783831367187,-9.620225,1.777066,0.88079,0.47621,0.21841,0.1518
1696783831375000,-9.607225,1.778066,0.86079,0.62321,0.18841,0.1318
1696783831382812,-9.593225,1.786066,0.71079,0.62521,0.19541,0.1368
1696783831390625,-9.602225,1.787066,0.68079,0.58621,0.13541,0.1028
1696783831398437,-9.602225,1.783066,0.66079,0.57421,0.12241,0.1178
1696783831406250,-9.613225,1.772066,0.70079,0.56121,0.5741,0.688
1696783831414062,-9.618225,1.779066,0.75079,0.48021,0.10541,0.868
1696783831421875,-9.624225,1.792066,0.93079,0.52021,0.5241,0.1368
1696783831429687,-9.613225,1.788066,0.88079,0.50321,0.1459,0.898
1696783831437500,-9.618225,1.779066,0.70079,0.58621,0.1159,0.878
1696783831445312,-9.608225,1.779066,0.64079,0.64221,0.1741,0.1048
1696783831453125,-9.609225,1.774066,0.52079,0.65321,0.741,0.688
1696783831460937,-9.602225,1.770066,0.43079,0.59921,0.1941,0.1038
1696783831468750,-9.609225,1.770066,0.63079,0.63721,0.3941,0.688
1696783831476562,-9.622225,1.770066,0.70079,0.58821,0.7141,0.858
1696783831484375,-9.615225,1.777066,0.93079,0.63321,0.5341,0.708
1696783831492187,-9.624225,1.793066,0.111079,0.64321,0.3341,0.888
1696783831500000,-9.611225,1.785066,0.118079,0.57021,0.6059,0.718
1696783831507812,-9.606225,1.781066,0.133079,0.44621,0.7041,0.238
1696783831515625,-9.602225,1.770066,0.160079,0.46621,0.8941,0.228
1696783831523437,-9.591225,1.778066,0.149079,0.45321,0.10641,0.58
1696783831531250,-9.580225,1.796066,0.151079,0.41321,0.23141,0.72
1696783831539062,-9.593225,1.803066,0.127079,0.49721,0.39741,0.272
1696783831546875,-9.598225,1.810066,0.120079,0.52321,0.44441,0.378
1696783831554687,-9.609225,1.801066,0.131079,0.57021,0.38041,0.1018
1696783831562500,-9.613225,1.799066,0.151079,0.52321,0.33141,0.868
1696783831570312,-9.604225,1.796066,0.176079,0.43321,0.26841,0.868
1696783831578125,-9.600225,1.781066,0.178079,0.48021,0.20441,0.1178
1696783831585937,-9.593225,1.785066,0.158079,0.41421,0.21841,0.1198
1696783831593750,-9.580225,1.794066,0.138079,0.48321,0.20341,0.48
1696783831601562,-9.598225,1.794066,0.124079,0.49721,0.25141,0.272
1696783831609375,-9.600225,1.799066,0.138079,0.56921,0.21441,0.228
1696783831617187,-9.609225,1.814066,0.154079,0.64121,0.23741,0.348
1696783831625000,-9.616225,1.809066,0.149079,0.62821,0.22241,0.142
1696783831632812,-9.600225,1.798066,0.122079,0.71821,0.13741,0.452
1696783831640625,-9.609225,1.790066,0.95079,0.68621,0.21841,0.452
1696783831648437,-9.618225,1.781066,0.106079,0.72121,0.18841,0.622
1696783831656250,-9.631225,1.795066,0.127079,0.60521,0.18441,0.272
1696783831664062,-9.640225,1.788066,0.142079,0.60721,0.16941,0.432
1696783831671875,-9.629225,1.799066,0.154079,0.69621,0.6641,0.902
1696783831679687,-9.630225,1.810066,0.158079,0.69021,0.2541,0.452
1696783831687500,-9.622225,1.808066,0.160079,0.68121,0.3541,0.582
1696783831695312,-9.600225,1.809066,0.158079,0.70621,0.559,0.348
1696783831703125,-9.605225,1.803066,0.144079,0.72021,0.2359,0.188
1696783831710937,-9.609225,1.818066,0.138079,0.68321,0.959,0.1168
1696783831718750,-9.621225,1.828066,0.136079,0.69521,0.11941,0.1338
1696783831726562,-9.616225,1.845066,0.142079,0.68321,0.5641,0.1168
1696783831734375,-9.619225,1.854066,0.149079,0.70121,0.12341,0.1478
1696783831742187,-9.623225,1.858066,0.156079,0.65321,0.841,0.1328
1696783831750000,-9.635225,1.852066,0.171079,0.57721,0.2259,0.1338
1696783831757812,-9.637225,1.839066,0.194079,0.65021,0.859,0.1818
1696783831765625,-9.637225,1.839066,0.165079,0.60721,0.2259,0.1978
1696783831773437,-9.650225,1.844066,0.149079,0.47421,0.5241,0.1048
1696783831781250,-9.648225,1.852066,0.149079,0.55421,0.1059,0.1678
1696783831789062,-9.657225,1.861066,0.178079,0.55721,0.4041,0.1348
1696783831796875,-9.657225,1.848066,0.199079,0.63821,0.841,0.1168
1696783831804687,-9.643225,1.825066,0.190079,0.54321,0.7259,0.1348
1696783831812500,-9.618225,1.798066,0.160079,0.44121,0.6959,0.378
1696783831820312,-9.613225,1.779066,0.161079,0.44221,0.4759,0.62
1696783831828125,-9.618225,1.792066,0.156079,0.40121,0.5959,0.88
1696783831835937,-9.638225,1.813066,0.127079,0.44021,0.3059,0.908
1696783831843750,-9.654225,1.815066,0.106079,0.32521,0.4059,0.568
1696783831851562,-9.656225,1.804066,0.109079,0.22621,0.17359,0.918
1696783831859375,-9.656225,1.768066,0.118079,0.19121,0.29059,0.468
1696783831867187,-9.646225,1.755066,0.118079,0.17521,0.32359,0.148
1696783831875000,-9.619225,1.737066,0.82079,0.21121,0.27259,0.288
1696783831882812,-9.606225,1.739066,0.52079,0.30621,0.20659,0.212
1696783831890625,-9.601225,1.736066,0.48079,0.40321,0.12359,0.402
1696783831898437,-9.599225,1.748066,0.79079,0.43021,0.4459,0.248
1696783831906250,-9.579225,1.758066,0.111079,0.44621,0.6059,0.88
1696783831914062,-9.575225,1.780066,0.102079,0.44321,0.7859,0.418
1696783831921875,-9.573225,1.805066,0.104079,0.46421,0.9259,0.562
1696783831929687,-9.586225,1.812066,0.86079,0.42721,0.9859,0.1492
1696783831937500,-9.609225,1.801066,0.81079,0.45421,0.4059,0.902
1696783831945312,-9.609225,1.781066,0.86079,0.44821,0.4359,0.242
1696783831953125,-9.613225,1.788066,0.84079,0.43321,0.5959,0.242
1696783831960937,-9.613225,1.792066,0.82079,0.36821,0.1159,0.62
1696783831968750,-9.616225,1.812066,0.61079,0.42621,0.8441,0.738
1696783831976562,-9.625225,1.812066,0.75079,0.42721,0.3641,0.738
1696783831984375,-9.621225,1.821066,0.88079,0.47821,0.5541,0.718
1696783831992187,-9.623225,1.841066,0.79079,0.47321,0.341,0.1538
1696783832000000,-9.630225,1.846066,0.70079,0.42921,0.10341,0.1048
1696783832007812,-9.630225,1.854066,0.70079,0.44521,0.7241,0.1678
1696783832015625,-9.631225,1.856066,0.83079,0.41221,0.11441,0.1638
1696783832023437,-9.626225,1.850066,0.90079,0.37121,0.5841,0.1358
1696783832031250,-9.637225,1.836066,0.126079,0.36421,0.6341,0.1008
1696783832039062,-9.619225,1.834066,0.149079,0.32821,0.1041,0.398
1696783832046875,-9.611225,1.810066,0.174079,0.38521,0.10859,0.232
1696783832054687,-9.600225,1.807066,0.187079,0.32021,0.7659,0.428
1696783832062500,-9.598225,1.805066,0.190079,0.37521,0.15359,0.402
1696783832070312,-9.587225,1.807066,0.183079,0.38821,0.14059,0.882
1696783832078125,-9.582225,1.813066,0.154079,0.35721,0.17159,0.232
1696783832085937,-9.591225,1.818066,0.124079,0.33721,0.11059,0.382
1696783832093750,-9.609225,1.821066,0.90079,0.45021,0.5859,0.242
1696783832101562,-9.623225,1.821066,0.84079,0.44021,0.17959,0.202
1696783832109375,-9.616225,1.814066,0.73079,0.38621,0.19059,0.702
1696783832117187,-9.632225,1.826066,0.70079,0.41921,0.4359,0.1362
1696783832125000,-9.620225,1.817066,0.68079,0.46321,0.20859,0.1192
1696783832132812,-9.625225,1.825066,0.70079,0.46721,0.12259,0.252
1696783832140625,-9.628225,1.850066,0.59079,0.57621,0.4259,0.582
1696783832148437,-9.616225,1.843066,0.43079,0.61721,0.6259,0.402
1696783832156250,-9.596225,1.830066,0.48079,0.54021,0.7759,0.242
1696783832164062,-9.580225,1.816066,0.48079,0.65121,0.19159,0.92
1696783832171875,-9.583225,1.816066,0.52079,0.70521,0.18559,0.38
1696783832179687,-9.600225,1.814066,0.39079,0.69121,0.10359,0.452
1696783832187500,-9.616225,1.818066,0.27079,0.68721,0.5759,0.122
1696783832195312,-9.636225,1.832066,0.48079,0.69621,0.4459,0.218
1696783832203125,-9.639225,1.845066,0.48079,0.69321,0.5359,0.142
1696783832210937,-9.645225,1.846066,0.55079,0.68921,0.16559,0.222
1696783832218750,-9.659225,1.848066,0.59079,0.67321,0.21959,0.432
1696783832226562,-9.650225,1.828066,0.50079,0.66621,0.14359,0.412
1696783832234375,-9.654225,1.822066,0.48079,0.55521,0.25759,0.552
1696783832242187,-9.656225,1.806066,0.55079,0.49521,0.24059,0.552
1696783832250000,-9.643225,1.799066,0.72079,0.48121,0.22259,0.402
1696783832257812,-9.638225,1.783066,0.102079,0.44821,0.33859,0.862
1696783832265625,-9.636225,1.777066,0.104079,0.40121,0.24059,0.862
1696783832273437,-9.625225,1.794066,0.90079,0.32721,0.12259,0.552
1696783832281250,-9.609225,1.783066,0.46079,0.32221,0.12659,0.1182
1696783832289062,-9.584225,1.780066,0.16079,0.42421,0.13759,0.892
1696783832296875,-9.562225,1.784066,0.1921,0.43521,0.26959,0.232
1696783832304687,-9.543225,1.762066,0.30921,0.47721,0.27459,0.702
1696783832312500,-9.548225,1.749066,0.37921,0.51221,0.20559,0.242
1696783832320312,-9.552225,1.742066,0.30921,0.39921,0.12659,0.382
1696783832328125,-9.577225,1.743066,0.16921,0.43121,0.2859,0.232
1696783832335937,-9.601225,1.741066,0.21079,0.30821,0.7141,0.392
1696783832343750,-9.606225,1.747066,0.39079,0.28021,0.14141,0.1198
1696783832351562,-9.609225,1.761066,0.52079,0.17021,0.10941,0.1208
1696783832359375,-9.609225,1.760066,0.41079,0.20421,0.12641,0.718
1696783832367187,-9.604225,1.761066,0.0,0.17721,0.13541,0.758
1696783832375000,-9.611225,1.766066,0.19921,0.19221,0.19941,0.268
1696783832382812,-9.616225,1.776066,0.3921,0.21921,0.23941,0.548
1696783832390625,-9.620225,1.779066,0.1921,0.18221,0.20441,0.1378
1696783832398437,-9.609225,1.777066,0.5921,0.32121,0.21841,0.888
1696783832406250,-9.598225,1.778066,0.26921,0.43621,0.22141,0.858
1696783832414062,-9.602225,1.772066,0.34921,0.44421,0.13441,0.408
1696783832421875,-9.602225,1.767066,0.46921,0.48121,0.18641,0.58
1696783832429687,-9.613225,1.777066,0.21921,0.66421,0.26341,0.58
1696783832437500,-9.624225,1.774066,0.5921,0.73621,0.25341,0.152
1696783832445312,-9.636225,1.805066,0.7079,0.89521,0.15641,0.652
1696783832453125,-9.639225,1.810066,0.27079,0.94721,0.12541,0.1152
1696783832460937,-9.623225,1.819066,0.30079,0.100021,0.5541,0.642
1696783832468750,-9.612225,1.838066,0.36079,0.100421,0.841,0.492
1696783832476562,-9.614225,1.841066,0.30079,0.94021,0.5659,0.312
1696783832484375,-9.610225,1.852066,0.41079,0.95021,0.4459,0.462
1696783832492187,-9.601225,1.850066,0.32079,0.91921,0.2759,0.292
1696783832500000,-9.587225,1.852066,0.19079,0.93421,0.13441,0.622
1696783832507812,-9.590225,1.860066,0.16079,0.78221,0.17041,0.622
1696783832515625,-9.617225,1.861066,0.12079,0.71221,0.16641,0.208
1696783832523437,-9.619225,1.857066,0.7079,0.72621,0.21441,0.112
1696783832531250,-9.596225,1.845066,0.12921,0.68121,0.13341,0.102
1696783832539062,-9.587225,1.843066,0.14921,0.69521,0.1941,0.58
1696783832546875,-9.580225,1.840066,0.14921,0.76321,0.2341,0.518
1696783832554687,-9.592225,1.845066,0.5079,0.77521,0.2041,0.208
1696783832562500,-9.605225,1.854066,0.36079,0.85721,0.4259,0.188
1696783832570312,-9.592225,1.851066,0.43079,0.84821,0.559,0.152
1696783832578125,-9.583225,1.853066,0.38079,0.96121,0.2741,0.502
1696783832585937,-9.601225,1.865066,0.41079,0.93921,0.4241,0.478
1696783832593750,-9.614225,1.852066,0.39079,0.98021,0.8741,0.818
1696783832601562,-9.610225,1.843066,0.21079,0.98621,0.2359,0.318
1696783832609375,-9.605225,1.847066,0.1921,0.93721,0.9059,0.338
1696783832617187,-9.612225,1.863066,0.32079,0.103221,0.13859,0.488
1696783832625000,-9.639225,1.872066,0.66079,0.109121,0.9159,0.808
1696783832632812,-9.639225,1.879066,0.106079,0.116521,0.12759,0.658
1696783832640625,-9.637225,1.877066,0.129079,0.110121,0.19459,0.188
1696783832648437,-9.613225,1.883066,0.115079,0.98121,0.17359,0.668
1696783832656250,-9.617225,1.876066,0.102079,0.99721,0.7559,0.818
1696783832664062,-9.612225,1.867066,0.91079,0.93221,0.4359,0.1158
1696783832671875,-9.603225,1.856066,0.81079,0.90321,0.4059,0.1468
1696783832679687,-9.594225,1.847066,0.61079,0.83421,0.6059,0.1978
1696783832687500,-9.567225,1.853066,0.45079,0.79821,0.3659,0.2258
1696783832695312,-9.549225,1.862066,0.45079,0.73021,0.5659,0.2128
1696783832703125,-9.542225,1.855066,0.41079,0.77521,0.2241,0.1488
1696783832710937,-9.536225,1.878066,0.41079,0.83521,0.15041,0.1168
1696783832718750,-9.550225,1.888066,0.72079,0.79521,0.10641,0.1148
1696783832726562,-9.554225,1.898066,0.45079,0.85521,0.12041,0.828
1696783832734375,-9.565225,1.896066,0.37079,0.92421,0.3341,0.1338
1696783832742187,-9.570225,1.900066,0.36079,0.92121,0.10641,0.1128
1696783832750000,-9.581225,1.887066,0.30079,0.89721,0.13441,0.1478
1696783832757812,-9.581225,1.889066,0.34079,0.93721,0.22141,0.1278
1696783832765625,-9.583225,1.889066,0.34079,0.93221,0.20241,0.1778
1696783832773437,-9.588225,1.880066,0.36079,0.95121,0.22141,0.1928
1696783832781250,-9.593225,1.889066,0.34079,0.79421,0.17241,0.1948
1696783832789062,-9.601225,1.883066,0.32079,0.66621,0.16841,0.368
1696783832796875,-9.601225,1.865066,0.32079,0.72721,0.15241,0.1328
1696783832804687,-9.606225,1.872066,0.52079,0.68121,0.17141,0.2448
1696783832812500,-9.626225,1.861066,0.68079,0.69421,0.15241,0.1978
1696783832820312,-9.623225,1.857066,0.73079,0.62821,0.10041,0.1518
1696783832828125,-9.621225,1.852066,0.63079,0.63821,0.9041,0.1488
1696783832835937,-9.616225,1.843066,0.55079,0.52221,0.13641,0.1678
1696783832843750,-9.616225,1.828066,0.68079,0.49121,0.18541,0.1678
1696783832851562,-9.611225,1.812066,0.52079,0.43221,0.21941,0.1188
1696783832859375,-9.609225,1.809066,0.68079,0.45121,0.20541,0.1338
1696783832867187,-9.611225,1.790066,0.50079,0.43521,0.20541,0.1338
1696783832875000,-9.602225,1.799066,0.39079,0.47921,0.21941,0.1028
1696783832882812,-9.623225,1.814066,0.34079,0.58421,0.20941,0.338
1696783832890625,-9.614225,1.812066,0.34079,0.62321,0.23641,0.358
1696783832898437,-9.616225,1.823066,0.41079,0.60721,0.22041,0.518
1696783832906250,-9.625225,1.821066,0.61079,0.65821,0.20641,0.338
1696783832914062,-9.630225,1.812066,0.57079,0.70621,0.22241,0.338
1696783832921875,-9.616225,1.801066,0.57079,0.57421,0.20241,0.528
1696783832929687,-9.602225,1.796066,0.66079,0.46621,0.22041,0.698
1696783832937500,-9.602225,1.787066,0.52079,0.46821,0.20641,0.1328
1696783832945312,-9.607225,1.800066,0.50079,0.43721,0.25641,0.1648
1696783832953125,-9.613225,1.787066,0.34079,0.45421,0.33741,0.998
1696783832960937,-9.634225,1.779066,0.36079,0.43921,0.27341,0.1318
1696783832968750,-9.640225,1.772066,0.43079,0.45621,0.20841,0.838
1696783832976562,-9.645225,1.752066,0.48079,0.44521,0.19441,0.28
1696783832984375,-9.646225,1.746066,0.62079,0.44021,0.14641,0.222
1696783832992187,-9.651225,1.748066,0.82079,0.48121,0.8941,0.548
1696783833000000,-9.642225,1.744066,0.100079,0.46021,0.8541,0.88
1696783833007812,-9.638225,1.761066,0.106079,0.45121,0.12141,0.262
1696783833015625,-9.656225,1.757066,0.122079,0.48021,0.7341,0.868
1696783833023437,-9.644225,1.751066,0.115079,0.41321,0.16741,0.568
1696783833031250,-9.633225,1.741066,0.86079,0.57221,0.5341,0.92
1696783833039062,-9.612225,1.743066,0.48079,0.53721,0.10041,0.82
1696783833046875,-9.599225,1.741066,0.61079,0.60621,0.3841,0.262
1696783833054687,-9.601225,1.734066,0.86079,0.74521,0.5341,0.272
1696783833062500,-9.619225,1.737066,0.113079,0.71321,0.7141,0.848
1696783833070312,-9.622225,1.748066,0.109079,0.75721,0.2959,0.538
1696783833078125,-9.620225,1.775066,0.82079,0.85121,0.3059,0.368
1696783833085937,-9.615225,1.774066,0.84079,0.78021,0.5759,0.518
1696783833093750,-9.615225,1.775066,0.91079,0.78521,0.4759,0.868
1696783833101562,-9.620225,1.783066,0.111079,0.71621,0.5759,0.848
1696783833109375,-9.633225,1.772066,0.149079,0.69721,0.4359,0.858
1696783833117187,-9.640225,1.781066,0.156079,0.71221,0.5959,0.1018
1696783833125000,-9.651225,1.795066,0.154079,0.67721,0.7859,0.1038
1696783833132812,-9.643225,1.790066,0.111079,0.70221,0.7159,0.1318
1696783833140625,-9.638225,1.794066,0.72079,0.68821,0.5459,0.1158
1696783833148437,-9.629225,1.801066,0.48079,0.70121,0.4059,0.848
1696783833156250,-9.622225,1.781066,0.43079,0.66121,0.11159,0.1038
1696783833164062,-9.622225,1.776066,0.75079,0.78021,0.5759,0.358
1696783833171875,-9.622225,1.774066,0.93079,0.85621,0.9159,0.518
1696783833179687,-9.607225,1.783066,0.102079,0.77821,0.7559,0.518
1696783833187500,-9.600225,1.785066,0.113079,0.75921,0.9259,0.858
1696783833195312,-9.584225,1.783066,0.129079,0.80521,0.7759,0.698
1696783833203125,-9.590225,1.772066,0.129079,0.73621,0.14759,0.728
1696783833210937,-9.586225,1.771066,0.124079,0.80821,0.7459,0.1168
1696783833218750,-9.582225,1.778066,0.115079,0.80821,0.4259,0.998
1696783833226562,-9.584225,1.785066,0.113079,0.82421,0.2559,0.1318
1696783833234375,-9.600225,1.787066,0.106079,0.71921,0.5459,0.1318
1696783833242187,-9.596225,1.775066,0.117079,0.72521,0.5059,0.1128
1696783833250000,-9.602225,1.783066,0.140079,0.71021,0.1159,0.1508
1696783833257812,-9.602225,1.781066,0.136079,0.67821,0.4459,0.1348
1696783833265625,-9.602225,1.790066,0.140079,0.69821,0.5441,0.848
1696783833273437,-9.602225,1.810066,0.147079,0.70921,0.5241,0.858
1696783833281250,-9.607225,1.807066,0.149079,0.68421,0.7241,0.848
1696783833289062,-9.623225,1.819066,0.158079,0.60121,0.5341,0.1188
1696783833296875,-9.616225,1.825066,0.174079,0.68121,0.15141,0.848
1696783833304687,-9.607225,1.825066,0.156079,0.69721,0.18441,0.848
1696783833312500,-9.603225,1.827066,0.129079,0.68021,0.5341,0.1018
1696783833320312,-9.600225,1.823066,0.122079,0.70221,0.7341,0.518
1696783833328125,-9.589225,1.794066,0.122079,0.68721,0.7341,0.358
1696783833335937,-9.589225,1.784066,0.111079,0.71121,0.7841,0.0
1696783833343750,-9.580225,1.791066,0.113079,0.78121,0.18641,0.142
1696783833351562,-9.589225,1.780066,0.113079,0.91821,0.16141,0.512
1696783833359375,-9.604225,1.776066,0.97079,0.95321,0.15341,0.322
1696783833367187,-9.609225,1.788066,0.100079,0.93221,0.8441,0.452
1696783833375000,-9.616225,1.797066,0.86079,0.95021,0.6841,0.622
1696783833382812,-9.634225,1.805066,0.90079,0.95821,0.4341,0.332
1696783833390625,-9.629225,1.805066,0.99079,0.94021,0.10541,0.802
1696783833398437,-9.616225,1.817066,0.129079,0.94221,0.6541,0.368
1696783833406250,-9.620225,1.832066,0.149079,0.87721,0.1659,0.1188
1696783833414062,-9.639225,1.828066,0.163079,0.82021,0.3059,0.208
1696783833421875,-9.655225,1.846066,0.181079,0.75721,0.4659,0.378
1696783833429687,-9.672225,1.833066,0.199079,0.81621,0.6559,0.388
1696783833437500,-9.677225,1.820066,0.214079,0.74521,0.19159,0.102
1696783833445312,-9.656225,1.812066,0.217079,0.68421,0.22259,0.102
1696783833453125,-9.654225,1.815066,0.208079,0.69621,0.17559,0.68
1696783833460937,-9.645225,1.812066,0.183079,0.65621,0.5759,0.442
1696783833468750,-9.629225,1.814066,0.140079,0.58721,0.4459,0.68
1696783833476562,-9.613225,1.783066,0.97079,0.66121,0.6359,0.78
1696783833484375,-9.597225,1.781066,0.79079,0.70021,0.2759,0.432
1696783833492187,-9.589225,1.798066,0.61079,0.63321,0.4659,0.252
1696783833500000,-9.576225,1.818066,0.75079,0.70121,0.5859,0.432
1696783833507812,-9.566225,1.811066,0.82079,0.66721,0.1259,0.422
1696783833515625,-9.584225,1.805066,0.70079,0.68421,0.2141,0.272
1696783833523437,-9.604225,1.794066,0.39079,0.70021,0.7659,0.592
1696783833531250,-9.596225,1.805066,0.7079,0.68121,0.2859,0.58
1696783833539062,-9.602225,1.794066,0.27079,0.68321,0.2759,0.58
1696783833546875,-9.618225,1.779066,0.68079,0.69621,0.441,0.698
1696783833554687,-9.624225,1.783066,0.97079,0.79221,0.2759,0.528
1696783833562500,-9.623225,1.792066,0.106079,0.89221,0.941,0.328
1696783833570312,-9.622225,1.796066,0.88079,0.87421,0.5541,0.18
1696783833578125,-9.638225,1.810066,0.81079,0.81021,0.3941,0.508
1696783833585937,-9.638225,1.819066,0.73079,0.84521,0.13041,0.1188
1696783833593750,-9.641225,1.824066,0.46079,0.70921,0.8541,0.1178
1696783833601562,-9.623225,1.828066,0.32079,0.71121,0.20141,0.1328
1696783833609375,-9.634225,1.819066,0.23079,0.81021,0.20341,0.1138
1696783833617187,-9.616225,1.816066,0.12079,0.88821,0.20341,0.1298
1696783833625000,-9.600225,1.819066,0.12079,0.77321,0.21541,0.848
1696783833632812,-9.605225,1.810066,0.34079,0.78921,0.16841,0.1478
1696783833640625,-9.598225,1.814066,0.75079,0.70321,0.17341,0.1308
1696783833648437,-9.602225,1.797066,0.109079,0.69021,0.16441,0.1028
1696783833656250,-9.591225,1.792066,0.122079,0.65121,0.15341,0.848
1696783833664062,-9.582225,1.802066,0.95079,0.68821,0.10641,0.28
1696783833671875,-9.591225,1.818066,0.32079,0.66921,0.15441,0.838
1696783833679687,-9.621225,1.825066,0.12079,0.60521,0.20241,0.848
1696783833687500,-9.648225,1.824066,0.75079,0.60521,0.21841,0.848
1696783833695312,-9.652225,1.817066,0.111079,0.64321,0.12641,0.1148
1696783833703125,-9.652225,1.828066,0.127079,0.67721,0.8541,0.1348
1696783833710937,-9.639225,1.834066,0.120079,0.61121,0.7641,0.1158
1696783833718750,-9.630225,1.821066,0.115079,0.64921,0.8841,0.1978
1696783833726562,-9.629225,1.808066,0.118079,0.68221,0.8741,0.1168
1696783833734375,-9.629225,1.808066,0.120079,0.69621,0.3741,0.858
1696783833742187,-9.629225,1.797066,0.91079,0.68021,0.3741,0.1018
1696783833750000,-9.633225,1.793066,0.91079,0.69121,0.9659,0.1048
1696783833757812,-9.622225,1.797066,0.109079,0.67321,0.11459,0.1058
1696783833765625,-9.613225,1.801066,0.127079,0.69521,0.4459,0.868
1696783833773437,-9.602225,1.809066,0.129079,0.71521,0.2559,0.688
1696783833781250,-9.605225,1.814066,0.136079,0.68021,0.6259,0.252
1696783833789062,-9.630225,1.812066,0.138079,0.70321,0.4159,0.122
1696783833796875,-9.621225,1.814066,0.142079,0.70521,0.5459,0.508
1696783833804687,-9.625225,1.812066,0.142079,0.64721,0.19359,0.78
1696783833812500,-9.611225,1.812066,0.147079,0.54821,0.24359,0.1068
1696783833820312,-9.614225,1.814066,0.156079,0.70121,0.27059,0.58
1696783833828125,-9.598225,1.812066,0.156079,0.66621,0.17659,0.572
1696783833835937,-9.578225,1.814066,0.167079,0.68221,0.12559,0.218
1696783833843750,-9.589225,1.816066,0.181079,0.69421,0.7859,0.388
1696783833851562,-9.600225,1.821066,0.183079,0.70921,0.8059,0.412
1696783833859375,-9.618225,1.812066,0.192079,0.67921,0.17759,0.242
1696783833867187,-9.604225,1.806066,0.197079,0.65721,0.23059,0.382
1696783833875000,-9.604225,1.794066,0.199079,0.52421,0.19259,0.232
1696783833882812,-9.593225,1.803066,0.199079,0.65421,0.15759,0.422
1696783833890625,-9.582225,1.814066,0.174079,0.70221,0.5959,0.922
1696783833898437,-9.594225,1.811066,0.124079,0.69021,0.13859,0.762
1696783833906250,-9.580225,1.822066,0.115079,0.70821,0.18459,0.452
1696783833914062,-9.587225,1.825066,0.100079,0.68221,0.25659,0.68
1696783833921875,-9.585225,1.836066,0.88079,0.68021,0.25759,0.82
1696783833929687,-9.594225,1.831066,0.79079,0.68621,0.17259,0.112
1696783833937500,-9.589225,1.827066,0.79079,0.67921,0.21059,0.242
1696783833945312,-9.576225,1.834066,0.91079,0.67921,0.19359,0.562
1696783833953125,-9.564225,1.829066,0.100079,0.67821,0.11359,0.402
1696783833960937,-9.569225,1.829066,0.106079,0.69321,0.6459,0.252
1696783833968750,-9.580225,1.827066,0.109079,0.68421,0.4359,0.272
1696783833976562,-9.584225,1.825066,0.95079,0.69221,0.6359,0.398
1696783833984375,-9.581225,1.847066,0.84079,0.68221,0.4359,0.378
1696783833992187,-9.578225,1.845066,0.102079,0.72921,0.6159,0.262
1696783834000000,-9.590225,1.847066,0.102079,0.73321,0.2659,0.282
1696783834007812,-9.607225,1.846066,0.111079,0.69021,0.1759,0.72
1696783834015625,-9.612225,1.832066,0.88079,0.71021,0.5041,0.262
1696783834023437,-9.602225,1.834066,0.75079,0.67421,0.159,0.72
1696783834031250,-9.600225,1.825066,0.55079,0.52321,0.14459,0.392
1696783834039062,-9.603225,1.843066,0.57079,0.44121,0.0,0.382
1696783834046875,-9.609225,1.834066,0.61079,0.44821,0.13541,0.572
1696783834054687,-9.620225,1.826066,0.73079,0.45821,0.13141,0.232
1696783834062500,-9.638225,1.830066,0.66079,0.45721,0.6641,0.62
1696783834070312,-9.638225,1.828066,0.64079,0.43921,0.1541,0.108
1696783834078125,-9.641225,1.817066,0.37079,0.46021,0.4559,0.98
1696783834085937,-9.643225,1.815066,0.12079,0.52121,0.4559,0.568
1696783834093750,-9.640225,1.800066,0.21921,0.40821,0.1741,0.428
1696783834101562,-9.652225,1.799066,0.19921,0.44321,0.341,0.578
1696783834109375,-9.638225,1.795066,0.21921,0.44421,0.11841,0.408
1696783834117187,-9.636225,1.790066,0.35921,0.55521,0.5341,0.548
1696783834125000,-9.625225,1.796066,0.46921,0.51521,0.5741,0.218
1696783834132812,-9.629225,1.799066,0.23921,0.57921,0.1959,0.108
1696783834140625,-9.627225,1.804066,0.12921,0.67321,0.59,0.568
1696783834148437,-9.616225,1.821066,0.30079,0.76621,0.3141,0.1198
1696783834156250,-9.620225,1.835066,0.52079,0.79621,0.7059,0.568
1696783834164062,-9.623225,1.841066,0.57079,0.81821,0.4759,0.378
1696783834171875,-9.619225,1.848066,0.48079,0.78921,0.4659,0.218
1696783834179687,-9.616225,1.835066,0.50079,0.66921,0.6959,0.1388
1696783834187500,-9.616225,1.821066,0.50079,0.68921,0.4859,0.1208
1696783834195312,-9.602225,1.808066,0.59079,0.67121,0.6859,0.738
1696783834203125,-9.609225,1.803066,0.68079,0.66121,0.6359,0.398
1696783834210937,-9.623225,1.826066,0.70079,0.69521,0.4659,0.92
1696783834218750,-9.609225,1.832066,0.61079,0.73121,0.6059,0.272
1696783834226562,-9.603225,1.837066,0.59079,0.66121,0.4759,0.238
1696783834234375,-9.603225,1.832066,0.61079,0.68621,0.8959,0.528
1696783834242187,-9.605225,1.819066,0.64079,0.52021,0.9659,0.258
1696783834250000,-9.589225,1.816066,0.79079,0.46421,0.4159,0.558
1696783834257812,-9.591225,1.818066,0.82079,0.52621,0.4359,0.68
1696783834265625,-9.589225,1.816066,0.57079,0.60421,0.2241,0.538
1696783834273437,-9.573225,1.825066,0.18079,0.70221,0.7241,0.282
1696783834281250,-9.558225,1.824066,0.3079,0.68621,0.7241,0.282
1696783834289062,-9.555225,1.811066,0.5921,0.70221,0.959,0.442
1696783834296875,-9.553225,1.800066,0.5079,0.69021,0.4241,0.132
1696783834304687,-9.553225,1.807066,0.30079,0.66421,0.1941,0.252
1696783834312500,-9.566225,1.809066,0.46079,0.63621,0.8541,0.422
1696783834320312,-9.580225,1.809066,0.52079,0.65221,0.15141,0.272
1696783834328125,-9.602225,1.807066,0.63079,0.68821,0.13941,0.132
1696783834335937,-9.603225,1.816066,0.43079,0.56321,0.18841,0.122
1696783834343750,-9.607225,1.832066,0.25079,0.60221,0.16641,0.58
1696783834351562,-9.605225,1.834066,0.12079,0.52521,0.21741,0.538
1696783834359375,-9.607225,1.819066,0.16079,0.57421,0.10341,0.58
1696783834367187,-9.605225,1.817066,0.32079,0.59721,0.6641,0.568
1696783834375000,-9.625225,1.803066,0.46079,0.63521,0.12041,0.848
1696783834382812,-9.618225,1.814066,0.55079,0.64521,0.341,0.1358
1696783834390625,-9.611225,1.812066,0.48079,0.68221,0.541,0.858
1696783834398437,-9.600225,1.818066,0.48079,0.66821,0.959,0.528
1696783834406250,-9.607225,1.841066,0.75079,0.68221,0.2241,0.858
1696783834414062,-9.609225,1.837066,0.84079,0.67921,0.3541,0.388
1696783834421875,-9.623225,1.834066,0.82079,0.74221,0.6841,0.378
1696783834429687,-9.634225,1.823066,0.95079,0.80921,0.8741,0.28
1696783834437500,-9.638225,1.790066,0.104079,0.72721,0.241,0.262
1696783834445312,-9.642225,1.773066,0.106079,0.75821,0.1941,0.58
1696783834453125,-9.627225,1.774066,0.88079,0.68721,0.859,0.198
1696783834460937,-9.611225,1.759066,0.32079,0.68821,0.4159,0.442
1696783834468750,-9.600225,1.767066,0.28921,0.73321,0.2659,0.282
1696783834476562,-9.622225,1.761066,0.50921,0.71921,0.859,0.452
1696783834484375,-9.620225,1.761066,0.39921,0.71721,0.7559,0.272
1696783834492187,-9.626225,1.745066,0.21921,0.73521,0.7359,0.442
1696783834500000,-9.624225,1.745066,0.0,0.70521,0.8859,0.282
1696783834507812,-9.613225,1.743066,0.28079,0.76121,0.7659,0.112
1696783834515625,-9.602225,1.743066,0.32079,0.89521,0.2259,0.322
1696783834523437,-9.604225,1.756066,0.46079,0.86821,0.6941,0.998
1696783834531250,-9.583225,1.763066,0.41079,0.94021,0.4941,0.1008
1696783834539062,-9.606225,1.776066,0.18079,0.93721,0.10441,0.312
1696783834546875,-9.613225,1.761066,0.9079,0.95521,0.13841,0.0
1696783834554687,-9.615225,1.761066,0.25079,0.94221,0.4341,0.158
1696783834562500,-9.611225,1.767066,0.45079,0.93621,0.2241,0.178
1696783834570312,-9.631225,1.772066,0.77079,0.97121,0.4141,0.158
1696783834578125,-9.640225,1.775066,0.79079,0.99621,0.341,0.302
1696783834585937,-9.638225,1.788066,0.86079,0.93421,0.5441,0.178
1696783834593750,-9.640225,1.792066,0.109079,0.92021,0.2241,0.338
1696783834601562,-9.643225,1.801066,0.122079,0.71321,0.2241,0.1008
1696783834609375,-9.645225,1.819066,0.115079,0.68521,0.9041,0.1158
1696783834617187,-9.641225,1.828066,0.104079,0.67921,0.5341,0.1338
1696783834625000,-9.643225,1.826066,0.113079,0.69721,0.3841,0.1178
1696783834632812,-9.632225,1.825066,0.102079,0.68521,0.841,0.1328
1696783834640625,-9.609225,1.825066,0.104079,0.66321,0.6059,0.1028
1696783834648437,-9.603225,1.823066,0.100079,0.70021,0.741,0.688
1696783834656250,-9.608225,1.838066,0.99079,0.68721,0.12441,0.1308
1696783834664062,-9.603225,1.836066,0.127079,0.69921,0.741,0.848
1696783834671875,-9.603225,1.827066,0.147079,0.76321,0.5759,0.998
1696783834679687,-9.603225,1.832066,0.169079,0.73021,0.7459,0.1008
1696783834687500,-9.600225,1.837066,0.183079,0.70221,0.11859,0.748
1696783834695312,-9.596225,1.836066,0.145079,0.67621,0.8059,0.558
1696783834703125,-9.583225,1.840066,0.133079,0.75821,0.1259,0.858
1696783834710937,-9.598225,1.847066,0.158079,0.81921,0.3541,0.1008
1696783834718750,-9.592225,1.845066,0.142079,0.84821,0.6741,0.1338
1696783834726562,-9.596225,1.843066,0.147079,0.90621,0.6141,0.1198
1696783834734375,-9.592225,1.840066,0.156079,0.85521,0.2341,0.1308
1696783834742187,-9.578225,1.847066,0.158079,0.88521,0.3841,0.1318
1696783834750000,-9.569225,1.842066,0.154079,0.81721,0.5241,0.1818
1696783834757812,-9.567225,1.851066,0.124079,0.78621,0.18141,0.1338
1696783834765625,-9.576225,1.849066,0.108079,0.67021,0.18841,0.1148
1696783834773437,-9.569225,1.847066,0.93079,0.69621,0.13741,0.1968
1696783834781250,-9.581225,1.840066,0.88079,0.57821,0.22341,0.1478
1696783834789062,-9.603225,1.827066,0.102079,0.43421,0.17341,0.1668
1696783834796875,-9.614225,1.825066,0.115079,0.42921,0.17041,0.2318
1696783834804687,-9.619225,1.827066,0.120079,0.48021,0.10741,0.2148
1696783834812500,-9.612225,1.829066,0.138079,0.51221,0.20541,0.2138
1696783834820312,-9.601225,1.836066,0.133079,0.41621,0.15541,0.1838
1696783834828125,-9.601225,1.836066,0.133079,0.44921,0.22041,0.1348
1696783834835937,-9.603225,1.825066,0.147079,0.43321,0.20441,0.1188
1696783834843750,-9.612225,1.820066,0.149079,0.45721,0.25841,0.1318
1696783834851562,-9.616225,1.832066,0.169079,0.43721,0.17441,0.1178
1696783834859375,-9.630225,1.828066,0.203079,0.44521,0.21741,0.1198
1696783834867187,-9.639225,1.821066,0.214079,0.43521,0.22141,0.1178
1696783834875000,-9.639225,1.823066,0.203079,0.45221,0.14341,0.2298
1696783834882812,-9.639225,1.821066,0.174079,0.41921,0.14141,0.2148
1696783834890625,-9.636225,1.803066,0.151079,0.39721,0.5541,0.2008
1696783834898437,-9.621225,1.812066,0.122079,0.32721,0.7741,0.1988
1696783834906250,-9.613225,1.792066,0.113079,0.32221,0.15341,0.1048
1696783834914062,-9.609225,1.779066,0.115079,0.22821,0.13941,0.1858
1696783834921875,-9.604225,1.752066,0.124079,0.19621,0.7341,0.1868
1696783834929687,-9.608225,1.738066,0.118079,0.21521,0.7441,0.1208
1696783834937500,-9.599225,1.743066,0.91079,0.23721,0.6841,0.1078
1696783834945312,-9.590225,1.738066,0.97079,0.29521,0.7441,0.238
1696783834953125,-9.583225,1.740066,0.118079,0.41921,0.7441,0.868
1696783834960937,-9.592225,1.747066,0.122079,0.44621,0.11941,0.398
1696783834968750,-9.610225,1.750066,0.140079,0.47521,0.21441,0.78
1696783834976562,-9.620225,1.765066,0.131079,0.36021,0.22141,0.102
1696783834984375,-9.618225,1.779066,0.122079,0.24921,0.22241,0.558
1696783834992187,-9.618225,1.792066,0.104079,0.28721,0.23341,0.1058
1696783835000000,-9.611225,1.788066,0.91079,0.24521,0.43241,0.1358
1696783835007812,-9.607225,1.812066,0.86079,0.29521,0.28741,0.1188
1696783835015625,-9.632225,1.819066,0.68079,0.41521,0.23541,0.1518
1696783835023437,-9.645225,1.828066,0.41079,0.44921,0.28641,0.1338
1696783835031250,-9.645225,1.831066,0.64079,0.47421,0.13341,0.568
1696783835039062,-9.645225,1.826066,0.93079,0.46521,0.10541,0.868
1696783835046875,-9.641225,1.812066,0.111079,0.44721,0.641,0.718
1696783835054687,-9.636225,1.793066,0.142079,0.49021,0.8541,0.1208
1696783835062500,-9.629225,1.786066,0.160079,0.46321,0.7141,0.878
1696783835070312,-9.631225,1.774066,0.142079,0.57221,0.10441,0.1018
1696783835078125,-9.615225,1.779066,0.120079,0.58921,0.12041,0.698
1696783835085937,-9.600225,1.792066,0.86079,0.58921,0.741,0.1018
1696783835093750,-9.596225,1.810066,0.77079,0.63421,0.2859,0.228
1696783835101562,-9.602225,1.805066,0.82079,0.71521,0.6059,0.112
1696783835109375,-9.603225,1.812066,0.102079,0.67121,0.13959,0.272
1696783835117187,-9.603225,1.811066,0.133079,0.59921,0.13559,0.442
1696783835125000,-9.604225,1.810066,0.145079,0.61421,0.9659,0.248
1696783835132812,-9.607225,1.805066,0.133079,0.47221,0.11259,0.748
1696783835140625,-9.620225,1.810066,0.142079,0.54221,0.5859,0.868
1696783835148437,-9.618225,1.801066,0.127079,0.52421,0.7559,0.1038
1696783835156250,-9.606225,1.794066,0.120079,0.56621,0.12959,0.738
1696783835164062,-9.605225,1.791066,0.115079,0.51621,0.5359,0.1178
1696783835171875,-9.606225,1.781066,0.131079,0.40821,0.6359,0.1238
1696783835179687,-9.609225,1.776066,0.97079,0.49621,0.4059,0.1348
1696783835187500,-9.611225,1.776066,0.77079,0.58621,0.5959,0.1198
1696783835195312,-9.616225,1.785066,0.70079,0.48021,0.3959,0.1678
1696783835203125,-9.625225,1.790066,0.73079,0.55421,0.5959,0.1678
1696783835210937,-9.625225,1.799066,0.48079,0.62221,0.10659,0.858
1696783835218750,-9.629225,1.808066,0.46079,0.52121,0.6259,0.888
1696783835226562,-9.620225,1.810066,0.36079,0.47921,0.9059,0.1038
1696783835234375,-9.627225,1.805066,0.25079,0.56121,0.7159,0.858
1696783835242187,-9.624225,1.770066,0.57079,0.50821,0.9259,0.1048
1696783835250000,-9.633225,1.761066,0.61079,0.45421,0.7059,0.858
1696783835257812,-9.622225,1.750066,0.75079,0.49421,0.12359,0.1038
1696783835265625,-9.626225,1.736066,0.86079,0.65521,0.13759,0.688
1696783835273437,-9.640225,1.766066,0.90079,0.70021,0.4059,0.1168
1696783835281250,-9.638225,1.772066,0.93079,0.68021,0.4359,0.1338
1696783835289062,-9.638225,1.772066,0.88079,0.74721,0.7359,0.1168
1696783835296875,-9.638225,1.781066,0.93079,0.69221,0.11159,0.1198
1696783835304687,-9.638225,1.759066,0.93079,0.68421,0.13859,0.1338
1696783835312500,-9.633225,1.741066,0.97079,0.66321,0.27259,0.1198
1696783835320312,-9.640225,1.744066,0.95079,0.69521,0.12559,0.1348
1696783835328125,-9.653225,1.741066,0.84079,0.68621,0.10459,0.1168
1696783835335937,-9.655225,1.744066,0.82079,0.69821,0.5859,0.1338
1696783835343750,-9.649225,1.739066,0.93079,0.68121,0.14159,0.868
1696783835351562,-9.637225,1.733066,0.97079,0.69221,0.16259,0.248
1696783835359375,-9.626225,1.737066,0.113079,0.66321,0.14259,0.878
1696783835367187,-9.617225,1.736066,0.113079,0.63621,0.5859,0.858
1696783835375000,-9.626225,1.748066,0.111079,0.70121,0.759,0.838
1696783835382812,-9.622225,1.754066,0.95079,0.68121,0.2241,0.1338
1696783835390625,-9.606225,1.765066,0.84079,0.69821,0.5859,0.1178
1696783835398437,-9.586225,1.752066,0.79079,0.66721,0.959,0.1178
1696783835406250,-9.577225,1.749066,0.86079,0.52321,0.5959,0.1358
1696783835414062,-9.586225,1.760066,0.81079,0.57921,0.7059,0.848
1696783835421875,-9.588225,1.754066,0.95079,0.52821,0.2359,0.1028
1696783835429687,-9.599225,1.765066,0.86079,0.42921,0.5859,0.1538
1696783835437500,-9.615225,1.754066,0.91079,0.43221,0.7459,0.888
1696783835445312,-9.626225,1.734066,0.84079,0.37021,0.10559,0.1368
1696783835453125,-9.619225,1.728066,0.86079,0.30921,0.7259,0.728
1696783835460937,-9.615225,1.723066,0.75079,0.21021,0.2559,0.1238
1696783835468750,-9.619225,1.723066,0.75079,0.29121,0.2441,0.1058
1696783835476562,-9.621225,1.723066,0.82079,0.33821,0.3941,0.408
1696783835484375,-9.615225,1.723066,0.86079,0.37421,0.7441,0.228
1696783835492187,-9.606225,1.741066,0.84079,0.43321,0.5641,0.708
1696783835500000,-9.604225,1.732066,0.68079,0.45021,0.4041,0.228
1696783835507812,-9.602225,1.743066,0.45079,0.47021,0.2641,0.58
1696783835515625,-9.601225,1.730066,0.75079,0.43521,0.13841,0.228
1696783835523437,-9.614225,1.721066,0.93079,0.38421,0.23441,0.718
1696783835531250,-9.616225,1.708066,0.120079,0.43121,0.28341,0.708
1696783835539062,-9.632225,1.705066,0.135079,0.37721,0.27341,0.1168
1696783835546875,-9.610225,1.721066,0.122079,0.29921,0.35441,0.208
1696783835554687,-9.602225,1.736066,0.86079,0.21021,0.32541,0.688
1696783835562500,-9.597225,1.747066,0.41079,0.20821,0.24441,0.1338
1696783835570312,-9.593225,1.747066,0.12079,0.21421,0.20441,0.1048
1696783835578125,-9.599225,1.741066,0.12079,0.18121,0.23641,0.898
1696783835585937,-9.608225,1.743066,0.14079,0.26621,0.12541,0.388
1696783835593750,-9.613225,1.741066,0.39079,0.28121,0.6141,0.1198
1696783835601562,-9.608225,1.736066,0.34079,0.34621,0.12641,0.698
1696783835609375,-9.604225,1.738066,0.43079,0.40621,0.5741,0.92
1696783835617187,-9.597225,1.732066,0.54079,0.34121,0.4141,0.718
1696783835625000,-9.601225,1.727066,0.66079,0.29621,0.5841,0.78
1696783835632812,-9.599225,1.723066,0.82079,0.41421,0.10141,0.72
1696783835640625,-9.601225,1.703066,0.106079,0.46321,0.13541,0.252
1696783835648437,-9.617225,1.714066,0.135079,0.58721,0.19341,0.472
1696783835656250,-9.617225,1.727066,0.126079,0.69521,0.14341,0.472
1696783835664062,-9.608225,1.738066,0.88079,0.74421,0.20941,0.172
1696783835671875,-9.604225,1.754066,0.93079,0.75321,0.7441,0.302
1696783835679687,-9.584225,1.760066,0.86079,0.72021,0.2441,0.452
1696783835687500,-9.595225,1.767066,0.79079,0.76621,0.2441,0.292
1696783835695312,-9.604225,1.767066,0.70079,0.67021,0.13741,0.198
1696783835703125,-9.606225,1.754066,0.72079,0.70321,0.7341,0.188
1696783835710937,-9.620225,1.763066,0.63079,0.68621,0.4141,0.678
1696783835718750,-9.620225,1.772066,0.52079,0.69421,0.341,0.548
1696783835726562,-9.627225,1.770066,0.48079,0.68921,0.2159,0.1158
1696783835734375,-9.620225,1.761066,0.39079,0.69921,0.12459,0.378
1696783835742187,-9.618225,1.761066,0.14079,0.69321,0.2059,0.18
1696783835750000,-9.620225,1.747066,0.32079,0.67421,0.3859,0.348
1696783835757812,-9.638225,1.745066,0.41079,0.70521,0.2159,0.988
1696783835765625,-9.633225,1.745066,0.66079,0.68821,0.3959,0.518
1696783835773437,-9.640225,1.748066,0.72079,0.70921,0.459,0.18
1696783835781250,-9.637225,1.746066,0.86079,0.68721,0.859,0.38
1696783835789062,-9.624225,1.737066,0.84079,0.79521,0.12259,0.358
1696783835796875,-9.617225,1.728066,0.61079,0.78121,0.12359,0.122
1696783835804687,-9.633225,1.723066,0.68079,0.84721,0.18659,0.462
1696783835812500,-9.651225,1.737066,0.63079,0.89321,0.13859,0.462
1696783835820312,-9.680225,1.737066,0.75079,0.95221,0.7559,0.142
1696783835828125,-9.687225,1.740066,0.86079,0.91621,0.11059,0.38
1696783835835937,-9.673225,1.729066,0.113079,0.92421,0.18059,0.548
1696783835843750,-9.664225,1.706066,0.115079,0.94721,0.20759,0.678
1696783835851562,-9.650225,1.695066,0.95079,0.92921,0.24159,0.848
1696783835859375,-9.617225,1.703066,0.84079,0.98221,0.10659,0.978
1696783835867187,-9.594225,1.712066,0.43079,0.111021,0.4159,0.158
1696783835875000,-9.592225,1.741066,0.39079,0.106821,0.6459,0.358
1696783835882812,-9.568225,1.747066,0.41079,0.109321,0.4359,0.0
1696783835890625,-9.572225,1.749066,0.75079,0.105021,0.5659,0.162
1696783835898437,-9.581225,1.745066,0.77079,0.102221,0.11359,0.282
1696783835906250,-9.579225,1.745066,0.86079,0.91321,0.4859,0.112
1696783835914062,-9.600225,1.758066,0.84079,0.95621,0.5659,0.312
1696783835921875,-9.615225,1.765066,0.88079,0.79921,0.759,0.142
1696783835929687,-9.620225,1.772066,0.109079,0.80921,0.4359,0.282
1696783835937500,-9.631225,1.783066,0.104079,0.75121,0.2459,0.452
1696783835945312,-9.618225,1.790066,0.106079,0.78221,0.4159,0.292
1696783835953125,-9.618225,1.796066,0.97079,0.73721,0.5659,0.452
1696783835960937,-9.609225,1.799066,0.97079,0.69721,0.1259,0.58
1696783835968750,-9.607225,1.796066,0.106079,0.87321,0.5441,0.452
1696783835976562,-9.618225,1.800066,0.106079,0.91221,0.2841,0.148
1696783835984375,-9.633225,1.788066,0.86079,0.82221,0.11059,0.112
1696783835992187,-9.636225,1.801066,0.97079,0.83121,0.759,0.472
1696783836000000,-9.641225,1.801066,0.104079,0.73221,0.14059,0.272
1696783836007812,-9.638225,1.797066,0.88079,0.67921,0.12859,0.412
1696783836015625,-9.629225,1.797066,0.86079,0.73921,0.21159,0.242
1696783836023437,-9.609225,1.790066,0.82079,0.69921,0.17459,0.422
1696783836031250,-9.607225,1.792066,0.84079,0.68421,0.15859,0.902
1696783836039062,-9.613225,1.788066,0.82079,0.68921,0.11559,0.232
1696783836046875,-9.599225,1.774066,0.86079,0.63321,0.4659,0.412
1696783836054687,-9.599225,1.765066,0.86079,0.63321,0.12859,0.562
1696783836062500,-9.608225,1.757066,0.82079,0.66521,0.3059,0.572
1696783836070312,-9.606225,1.754066,0.100079,0.69421,0.5041,0.412
1696783836078125,-9.602225,1.756066,0.120079,0.70121,0.13641,0.442
1696783836085937,-9.608225,1.752066,0.91079,0.66521,0.21541,0.208
1696783836093750,-9.620225,1.765066,0.86079,0.62521,0.15741,0.1158
1696783836101562,-9.615225,1.759066,0.102079,0.69921,0.8741,0.208
1696783836109375,-9.606225,1.756066,0.109079,0.68421,0.7241,0.1008
1696783836117187,-9.617225,1.752066,0.127079,0.69421,0.11741,0.1178
1696783836125000,-9.613225,1.763066,0.124079,0.66521,0.18441,0.1008
1696783836132812,-9.617225,1.766066,0.70079,0.68221,0.20041,0.528
1696783836140625,-9.629225,1.766066,0.39079,0.58721,0.7041,0.548
1696783836148437,-9.627225,1.768066,0.30079,0.48621,0.20441,0.442
1696783836156250,-9.615225,1.768066,0.32079,0.55921,0.10441,0.58
1696783836164062,-9.626225,1.768066,0.46079,0.60321,0.8641,0.378
1696783836171875,-9.683225,1.784066,0.28921,0.62621,0.9141,0.358
1696783836179687,-9.674225,1.791066,0.50079,0.39221,0.37641,0.1218
1696783836187500,-9.364225,1.666066,0.343079,0.44321,0.66759,0.672
1696783836195312,-9.714225,1.893066,0.156921,0.70521,0.3841,0.1892
1696783836203125,-9.615225,1.738066,0.84079,0.85221,0.102441,0.258
1696783836210937,-9.647225,1.786066,0.68079,0.37121,0.63059,0.522
1696783836218750,-9.704225,1.822066,0.189079,0.46721,0.2641,0.1178
1696783836226562,-9.717225,1.791066,0.43079,0.54121,0.7141,0.868
1696783836234375,-9.646225,1.832066,0.14079,0.46521,0.17141,0.858
1696783836242187,-9.557225,1.795066,0.147079,0.40421,0.3859,0.1358
1696783836250000,-9.573225,1.791066,0.217079,0.42921,0.27259,0.908
1696783836257812,-9.579225,1.753066,0.160079,0.47221,0.11659,0.1168
1696783836265625,-9.599225,1.743066,0.66079,0.63621,0.12241,0.1328
1696783836273437,-9.637225,1.744066,0.30079,0.47621,0.15241,0.1198
1696783836281250,-9.631225,1.741066,0.36079,0.47921,0.5641,0.1188
1696783836289062,-9.610225,1.739066,0.37079,0.47521,0.3741,0.1368
1696783836296875,-9.595225,1.751066,0.43079,0.43821,0.459,0.1178
1696783836304687,-9.599225,1.748066,0.41079,0.50421,0.6159,0.1378
1696783836312500,-9.620225,1.745066,0.39079,0.59621,0.4441,0.838
1696783836320312,-9.622225,1.739066,0.30079,0.54421,0.841,0.1018
1696783836328125,-9.626225,1.714066,0.16079,0.62221,0.2459,0.1008
1696783836335937,-9.637225,1.713066,0.3079,0.55621,0.7141,0.1028
1696783836343750,-9.632225,1.717066,0.10921,0.56321,0.1759,0.258
1696783836351562,-9.625225,1.699066,0.19079,0.62621,0.1559,0.1208
1696783836359375,-9.655225,1.720066,0.25921,0.53221,0.14659,0.908
1696783836367187,-9.673225,1.726066,0.7079,0.57221,0.13741,0.1018
1696783836375000,-9.607225,1.679066,0.64079,0.54621,0.18059,0.438
1696783836382812,-9.594225,1.703066,0.71079,0.61121,0.19759,0.372
1696783836390625,-9.562225,1.701066,0.97079,0.70921,0.17859,0.402
1696783836398437,-9.669225,1.751066,0.5079,0.66221,0.4759,0.242
1696783836406250,-9.664225,1.753066,0.9079,0.74521,0.10341,0.678
1696783836414062,-9.646225,1.753066,0.19079,0.75721,0.241,0.218
1696783836421875,-9.622225,1.752066,0.70079,0.67921,0.6059,0.1028
1696783836429687,-9.621225,1.737066,0.88079,0.69321,0.4659,0.708
1696783836437500,-9.637225,1.733066,0.100079,0.67221,0.11559,0.418
1696783836445312,-9.623225,1.706066,0.93079,0.69221,0.19559,0.72
1696783836453125,-9.627225,1.690066,0.68079,0.69421,0.9559,0.68
1696783836460937,-9.638225,1.677066,0.68079,0.72321,0.4759,0.558
1696783836468750,-9.636225,1.682066,0.125079,0.75321,0.4859,0.398
1696783836476562,-9.616225,1.710066,0.161079,0.72421,0.14559,0.78
1696783836484375,-9.619225,1.741066,0.118079,0.84821,0.16259,0.548
1696783836492187,-9.608225,1.768066,0.93079,0.84721,0.8159,0.388
1696783836500000,-9.602225,1.785066,0.64079,0.78921,0.4659,0.102
1696783836507812,-9.600225,1.792066,0.84079,0.71021,0.3441,0.422
1696783836515625,-9.613225,1.777066,0.77079,0.72821,0.5341,0.368
1696783836523437,-9.613225,1.772066,0.66079,0.66621,0.3741,0.218
1696783836531250,-9.602225,1.761066,0.68079,0.66821,0.2141,0.48
1696783836539062,-9.586225,1.752066,0.57079,0.69521,0.8441,0.538
1696783836546875,-9.579225,1.734066,0.43079,0.68621,0.2441,0.518
1696783836554687,-9.585225,1.736066,0.48079,0.68021,0.10241,0.858
1696783836562500,-9.597225,1.739066,0.68079,0.75521,0.16341,0.218
1696783836570312,-9.606225,1.756066,0.66079,0.71921,0.17141,0.178
1696783836578125,-9.606225,1.750066,0.66079,0.70121,0.8841,0.198
1696783836585937,-9.610225,1.745066,0.70079,0.74621,0.3841,0.368
1696783836593750,-9.594225,1.734066,0.86079,0.66121,0.1841,0.398
1696783836601562,-9.646225,1.733066,0.21079,0.66121,0.141,0.398
1696783836609375,-9.703225,1.758066,0.48079,0.69921,0.23541,0.838
1696783836617187,-9.678225,1.731066,0.68079,0.65521,0.4141,0.518
1696783836625000,-9.653225,1.737066,0.106079,0.60721,0.7459,0.102
1696783836632812,-9.630225,1.723066,0.136079,0.64121,0.7359,0.432
1696783836640625,-9.655225,1.714066,0.140079,0.66221,0.8659,0.612
1696783836648437,-9.643225,1.706066,0.100079,0.68221,0.12559,0.218
1696783836656250,-9.637225,1.694066,0.52079,0.71921,0.941,0.828
1696783836664062,-9.643225,1.695066,0.50079,0.74621,0.5441,0.198
1696783836671875,-9.628225,1.695066,0.41079,0.71621,0.13641,0.282
1696783836679687,-9.610225,1.701066,0.41079,0.79621,0.5541,0.292
1696783836687500,-9.585225,1.712066,0.32079,0.82821,0.3941,0.462
1696783836695312,-9.577225,1.725066,0.36079,0.92521,0.5841,0.322
1696783836703125,-9.613225,1.736066,0.23921,0.92121,0.2241,0.142
1696783836710937,-9.637225,1.746066,0.5921,0.85821,0.25041,0.152
1696783836718750,-9.569225,1.705066,0.50079,0.73521,0.3959,0.188
1696783836726562,-9.585225,1.728066,0.120079,0.69221,0.6559,0.722
1696783836734375,-9.601225,1.730066,0.140079,0.80221,0.12959,0.68
1696783836742187,-9.698225,1.764066,0.39079,0.90821,0.7341,0.312
1696783836750000,-9.696225,1.769066,0.27079,0.92221,0.13941,0.648
1696783836757812,-9.674225,1.768066,0.68079,0.75021,0.941,0.988
1696783836765625,-9.656225,1.759066,0.120079,0.68521,0.12259,0.848
1696783836773437,-9.637225,1.753066,0.97079,0.72421,0.6259,0.1028
1696783836781250,-9.640225,1.768066,0.68079,0.75921,0.4359,0.1178
1696783836789062,-9.637225,1.759066,0.52079,0.70721,0.7859,0.1518
1696783836796875,-9.638225,1.750066,0.59079,0.68821,0.10559,0.358
1696783836804687,-9.637225,1.748066,0.91079,0.68321,0.1059,0.48
1696783836812500,-9.631225,1.750066,0.115079,0.63621,0.5859,0.698
1696783836820312,-9.617225,1.757066,0.140079,0.67921,0.4459,0.1028
1696783836828125,-9.615225,1.752066,0.129079,0.69321,0.4559,0.868
1696783836835937,-9.606225,1.743066,0.118079,0.71421,0.7459,0.848
1696783836843750,-9.610225,1.733066,0.77079,0.68721,0.14859,0.738
1696783836851562,-9.637225,1.726066,0.61079,0.66821,0.12559,0.422
1696783836859375,-9.634225,1.715066,0.80079,0.53221,0.8259,0.52
1696783836867187,-9.623225,1.710066,0.91079,0.53721,0.12759,0.248
1696783836875000,-9.646225,1.726066,0.82079,0.54221,0.9259,0.78
1696783836882812,-9.653225,1.742066,0.52079,0.66621,0.4359,0.538
1696783836890625,-9.651225,1.744066,0.25079,0.54121,0.10859,0.78
1696783836898437,-9.655225,1.738066,0.28079,0.46821,0.21359,0.448
1696783836906250,-9.653225,1.722066,0.43079,0.42621,0.24259,0.438
1696783836914062,-9.646225,1.719066,0.66079,0.45021,0.13859,0.398
1696783836921875,-9.635225,1.708066,0.66079,0.43121,0.12459,0.568
1696783836929687,-9.635225,1.722066,0.52079,0.42521,0.7959,0.748
1696783836937500,-9.639225,1.730066,0.39079,0.43021,0.7759,0.88
1696783836945312,-9.635225,1.730066,0.43079,0.43021,0.14259,0.222
1696783836953125,-9.623225,1.726066,0.46079,0.42521,0.16359,0.362
1696783836960937,-9.619225,1.734066,0.50079,0.43521,0.4259,0.412
1696783836968750,-9.621225,1.717066,0.43079,0.45021,0.5859,0.82
1696783836976562,-9.634225,1.704066,0.37079,0.42721,0.4759,0.62
1696783836984375,-9.643225,1.700066,0.32079,0.44421,0.2959,0.72
1696783836992187,-9.648225,1.708066,0.28079,0.43121,0.6159,0.392
1696783837000000,-9.641225,1.706066,0.30079,0.51921,0.8159,0.222
1696783837007812,-9.632225,1.706066,0.35079,0.48621,0.8259,0.212
1696783837015625,-9.632225,1.708066,0.43079,0.52721,0.1059,0.412
1696783837023437,-9.637225,1.693066,0.50079,0.54221,0.1059,0.92
1696783837031250,-9.634225,1.679066,0.52079,0.48521,0.12159,0.262
1696783837039062,-9.634225,1.670066,0.72079,0.45521,0.941,0.422
1696783837046875,-9.634225,1.673066,0.84079,0.46221,0.2041,0.82
1696783837054687,-9.630225,1.686066,0.86079,0.43721,0.841,0.252
1696783837062500,-9.639225,1.684066,0.64079,0.65321,0.1059,0.432
1696783837070312,-9.628225,1.692066,0.48079,0.70221,0.5859,0.762
1696783837078125,-9.614225,1.690066,0.48079,0.68621,0.4259,0.592
1696783837085937,-9.619225,1.705066,0.52079,0.69021,0.5659,0.612
1696783837093750,-9.614225,1.717066,0.59079,0.69621,0.1559,0.1222
1696783837101562,-9.617225,1.719066,0.68079,0.69021,0.5641,0.1252
1696783837109375,-9.614225,1.715066,0.61079,0.70821,0.8141,0.252
1696783837117187,-9.601225,1.714066,0.68079,0.60621,0.12041,0.272
1696783837125000,-9.614225,1.717066,0.48079,0.46021,0.11641,0.392
1696783837132812,-9.630225,1.706066,0.19079,0.47821,0.15041,0.572
1696783837140625,-9.621225,1.686066,0.3079,0.49521,0.13541,0.252
1696783837148437,-9.603225,1.679066,0.14079,0.54421,0.20241,0.272
1696783837156250,-9.607225,1.668066,0.39079,0.49321,0.15041,0.412
1696783837164062,-9.607225,1.665066,0.70079,0.62521,0.21941,0.612
1696783837171875,-9.600225,1.679066,0.73079,0.67821,0.19641,0.422
1696783837179687,-9.601225,1.701066,0.68079,0.86921,0.24641,0.612
1696783837187500,-9.594225,1.712066,0.43079,0.96721,0.24941,0.802
1696783837195312,-9.586225,1.736066,0.36079,0.92721,0.30241,0.1142
1696783837203125,-9.579225,1.751066,0.43079,0.101921,0.23641,0.502
1696783837210937,-9.586225,1.749066,0.50079,0.100521,0.23641,0.1302
1696783837218750,-9.588225,1.739066,0.77079,0.91721,0.21541,0.622
1696783837226562,-9.592225,1.730066,0.118079,0.70221,0.28341,0.452
1696783837234375,-9.608225,1.721066,0.142079,0.46721,0.38241,0.272
1696783837242187,-9.619225,1.710066,0.125079,0.24321,0.42741,0.712
1696783837250000,-9.626225,1.746066,0.88079,0.20421,0.46641,0.742
1696783837257812,-9.642225,1.773066,0.41079,0.12021,0.49641,0.88
1696783837265625,-9.625225,1.804066,0.19921,0.21121,0.47741,0.392
1696783837273437,-9.629225,1.815066,0.64921,0.25921,0.41341,0.248
1696783837281250,-9.618225,1.817066,0.84921,0.31721,0.26441,0.1058
1696783837289062,-9.630225,1.830066,0.62921,0.41721,0.20241,0.548
1696783837296875,-9.632225,1.812066,0.14921,0.41721,0.5641,0.1038
1696783837304687,-9.657225,1.808066,0.41079,0.37621,0.6041,0.858
1696783837312500,-9.672225,1.807066,0.68079,0.37421,0.1641,0.1088
1696783837320312,-9.656225,1.799066,0.68079,0.43121,0.2659,0.568
1696783837328125,-9.645225,1.804066,0.48079,0.31121,0.11659,0.468
1696783837335937,-9.620225,1.821066,0.21079,0.33321,0.4559,0.748
1696783837343750,-9.607225,1.812066,0.0,0.42021,0.6559,0.1088
1696783837351562,-9.607225,1.810066,0.16921,0.43821,0.1559,0.1238
1696783837359375,-9.618225,1.799066,0.10921,0.46121,0.441,0.568
1696783837367187,-9.631225,1.797066,0.19921,0.58121,0.13141,0.558
1696783837375000,-9.640225,1.813066,0.16921,0.67521,0.6541,0.718
1696783837382812,-9.636225,1.790066,0.1921,0.67521,0.1459,0.1198
1696783837390625,-9.640225,1.777066,0.21921,0.72221,0.4759,0.1038
1696783837398437,-9.619225,1.757066,0.28921,0.71921,0.6659,0.728
1696783837406250,-9.615225,1.752066,0.39921,0.67621,0.4759,0.398
1696783837414062,-9.633225,1.752066,0.48921,0.68421,0.2559,0.688
1696783837421875,-9.653225,1.766066,0.16921,0.66221,0.2959,0.718
1696783837429687,-9.649225,1.772066,0.27079,0.66921,0.4059,0.1008
1696783837437500,-9.633225,1.761066,0.37079,0.67921,0.6159,0.868
1696783837445312,-9.626225,1.753066,0.41079,0.50121,0.4859,0.748
1696783837453125,-9.624225,1.739066,0.30079,0.49521,0.4159,0.878
1696783837460937,-9.635225,1.744066,0.12079,0.51921,0.241,0.898
1696783837468750,-9.635225,1.748066,0.19921,0.53821,0.2141,0.1358
1696783837476562,-9.626225,1.746066,0.30921,0.66921,0.3941,0.528
1696783837484375,-9.610225,1.750066,0.32921,0.67621,0.9659,0.398
1696783837492187,-9.592225,1.750066,0.16921,0.69421,0.17759,0.82
1696783837500000,-9.586225,1.761066,0.1921,0.69421,0.11359,0.562
1696783837507812,-9.583225,1.754066,0.16079,0.92521,0.8559,0.892
1696783837515625,-9.599225,1.763066,0.5079,0.93521,0.12659,0.612
1696783837523437,-9.604225,1.779066,0.10079,0.94921,0.1259,0.612
1696783837531250,-9.606225,1.783066,0.3079,0.99721,0.1359,0.1102
1696783837539062,-9.613225,1.768066,0.12079,0.106221,0.2859,0.1112
1696783837546875,-9.611225,1.756066,0.39079,0.96621,0.4459,0.142
1696783837554687,-9.599225,1.752066,0.57079,0.97021,0.1959,0.218
1696783837562500,-9.608225,1.755066,0.84079,0.95621,0.0,0.688
1696783837570312,-9.618225,1.777066,0.79079,0.93321,0.541,0.828
1696783837578125,-9.615225,1.761066,0.70079,0.94621,0.5141,0.358
1696783837585937,-9.611225,1.763066,0.66079,0.91221,0.3541,0.1488
1696783837593750,-9.620225,1.761066,0.50079,0.89721,0.3541,0.1328
1696783837601562,-9.619225,1.746066,0.70079,0.77221,0.5241,0.1178
1696783837609375,-9.617225,1.759066,0.86079,0.75721,0.441,0.1178
1696783837617187,-9.628225,1.755066,0.79079,0.67421,0.6559,0.568
1696783837625000,-9.633225,1.759066,0.86079,0.70421,0.941,0.188
1696783837632812,-9.638225,1.759066,0.86079,0.68621,0.641,0.282
1696783837640625,-9.640225,1.752066,0.81079,0.69021,0.941,0.292
1696783837648437,-9.629225,1.750066,0.70079,0.70121,0.5859,0.432
1696783837656250,-9.619225,1.739066,0.48079,0.67521,0.759,0.772
1696783837664062,-9.626225,1.739066,0.57079,0.68021,0.4659,0.572
1696783837671875,-9.637225,1.737066,0.64079,0.69821,0.7659,0.378
1696783837679687,-9.637225,1.739066,0.79079,0.63221,0.7859,0.78
1696783837687500,-9.642225,1.737066,0.79079,0.67121,0.10659,0.112
1696783837695312,-9.653225,1.739066,0.93079,0.55721,0.9259,0.238
1696783837703125,-9.655225,1.731066,0.88079,0.61421,0.7859,0.1048
1696783837710937,-9.628225,1.723066,0.91079,0.52421,0.12459,0.888
1696783837718750,-9.615225,1.736066,0.79079,0.59121,0.8959,0.858
1696783837726562,-9.605225,1.723066,0.59079,0.66121,0.11159,0.1038
1696783837734375,-9.601225,1.714066,0.39079,0.64621,0.9559,0.878
1696783837742187,-9.601225,1.708066,0.34079,0.68021,0.641,0.1498
1696783837750000,-9.601225,1.712066,0.32079,0.65221,0.3941,0.848
1696783837757812,-9.603225,1.714066,0.48079,0.61821,0.641,0.1188
1696783837765625,-9.605225,1.717066,0.50079,0.67621,0.141,0.1038
1696783837773437,-9.598225,1.710066,0.68079,0.69521,0.4659,0.68
1696783837781250,-9.607225,1.710066,0.79079,0.67621,0.5141,0.1038
1696783837789062,-9.617225,1.721066,0.82079,0.69521,0.3541,0.378
1696783837796875,-9.612225,1.721066,0.68079,0.70521,0.1559,0.1038
1696783837804687,-9.615225,1.734066,0.57079,0.68121,0.541,0.1178
1696783837812500,-9.619225,1.739066,0.66079,0.69121,0.1841,0.1038
1696783837820312,-9.630225,1.728066,0.50079,0.69321,0.16741,0.1658
1696783837828125,-9.619225,1.721066,0.50079,0.68221,0.5541,0.1018
1696783837835937,-9.617225,1.719066,0.48079,0.69621,0.3841,0.1658
1696783837843750,-9.619225,1.710066,0.52079,0.59921,0.10141,0.1518
1696783837851562,-9.623225,1.706066,0.43079,0.68321,0.16941,0.848
1696783837859375,-9.635225,1.708066,0.39079,0.66721,0.18641,0.1008
1696783837867187,-9.628225,1.710066,0.52079,0.68021,0.7041,0.1018
1696783837875000,-9.630225,1.714066,0.48079,0.70221,0.7341,0.518
1696783837882812,-9.617225,1.717066,0.68079,0.69721,0.15141,0.528
1696783837890625,-9.624225,1.721066,0.64079,0.66621,0.3841,0.858
1696783837898437,-9.614225,1.712066,0.70079,0.67821,0.10141,0.1188
1696783837906250,-9.619225,1.710066,0.77079,0.64521,0.341,0.1358
1696783837914062,-9.632225,1.713066,0.82079,0.58521,0.7041,0.1188
1696783837921875,-9.639225,1.706066,0.73079,0.58321,0.1941,0.1358
1696783837929687,-9.641225,1.713066,0.68079,0.67321,0.1559,0.1208
1696783837937500,-9.637225,1.706066,0.52079,0.69421,0.3541,0.868
1696783837945312,-9.637225,1.708066,0.48079,0.67821,0.4459,0.1668
1696783837953125,-9.637225,1.706066,0.39079,0.69421,0.1159,0.1348
1696783837960937,-9.648225,1.706066,0.37079,0.68121,0.641,0.1338
1696783837968750,-9.641225,1.708066,0.57079,0.66321,0.6059,0.1188
1696783837976562,-9.637225,1.699066,0.66079,0.65021,0.13959,0.1508
1696783837984375,-9.632225,1.684066,0.75079,0.64621,0.7759,0.1678
1696783837992187,-9.636225,1.682066,0.66079,0.69321,0.2759,0.1988
1696783838000000,-9.632225,1.677066,0.66079,0.68021,0.1059,0.1498
1696783838007812,-9.614225,1.703066,0.70079,0.69421,0.5341,0.1498
1696783838015625,-9.612225,1.714066,0.52079,0.68521,0.2259,0.2128
1696783838023437,-9.610225,1.728066,0.36079,0.68121,0.741,0.2138
1696783838031250,-9.628225,1.726066,0.52079,0.69521,0.1159,0.1028
1696783838039062,-9.637225,1.715066,0.70079,0.68521,0.8959,0.688
1696783838046875,-9.642225,1.717066,0.66079,0.70221,0.10459,0.1008
1696783838054687,-9.653225,1.722066,0.73079,0.67821,0.9359,0.1518
1696783838062500,-9.659225,1.724066,0.59079,0.72321,0.19359,0.878
1696783838070312,-9.646225,1.737066,0.48079,0.68021,0.12359,0.1988
1696783838078125,-9.637225,1.735066,0.28079,0.66321,0.19059,0.1518
1696783838085937,-9.635225,1.737066,0.30079,0.64321,0.9659,0.1208
1696783838093750,-9.633225,1.741066,0.19079,0.60121,0.4259,0.1998
1696783838101562,-9.637225,1.737066,0.37079,0.65821,0.6359,0.1528
1696783838109375,-9.635225,1.737066,0.64079,0.63021,0.4559,0.1038
1696783838117187,-9.619225,1.719066,0.66079,0.66721,0.5659,0.1818
1696783838125000,-9.599225,1.712066,0.66079,0.58321,0.11159,0.1048
1696783838132812,-9.614225,1.699066,0.70079,0.66421,0.9259,0.1348
1696783838140625,-9.614225,1.703066,0.64079,0.58221,0.6159,0.1688
1696783838148437,-9.619225,1.708066,0.57079,0.64121,0.6359,0.2338
1696783838156250,-9.639225,1.715066,0.55079,0.58121,0.7959,0.1218
1696783838164062,-9.653225,1.722066,0.61079,0.67721,0.4459,0.1998
1696783838171875,-9.671225,1.742066,0.50079,0.62421,0.4859,0.2178
1696783838179687,-9.666225,1.744066,0.43079,0.68621,0.6459,0.2338
1696783838187500,-9.648225,1.726066,0.37079,0.66021,0.7859,0.1518
1696783838195312,-9.634225,1.706066,0.32079,0.64421,0.14359,0.1368
1696783838203125,-9.627225,1.690066,0.39079,0.55421,0.15959,0.408
1696783838210937,-9.626225,1.703066,0.43079,0.57321,0.15659,0.708
1696783838218750,-9.646225,1.713066,0.39079,0.54021,0.5959,0.1038
1696783838226562,-9.655225,1.722066,0.59079,0.53421,0.9659,0.898
1696783838234375,-9.653225,1.715066,0.68079,0.48821,0.12759,0.1058
1696783838242187,-9.643225,1.690066,0.75079,0.43021,0.9159,0.888
1696783838250000,-9.634225,1.668066,0.77079,0.44021,0.22559,0.1238
1696783838257812,-9.640225,1.671066,0.48079,0.46321,0.10359,0.2228
1696783838265625,-9.638225,1.642066,0.10079,0.45621,0.11059,0.1388
1696783838273437,-9.620225,1.639066,0.3921,0.42421,0.9459,0.1868
1696783838281250,-9.613225,1.642066,0.3921,0.49821,0.5159,0.1238
1696783838289062,-9.613225,1.666066,0.14921,0.67421,0.12959,0.1368
1696783838296875,-9.603225,1.690066,0.10921,0.69121,0.4759,0.1198
1696783838304687,-9.594225,1.708066,0.7921,0.67921,0.9359,0.1028
1696783838312500,-9.594225,1.714066,0.14921,0.62921,0.9459,0.1368
1696783838320312,-9.601225,1.697066,0.16921,0.56721,0.4559,0.1208
1696783838328125,-9.618225,1.708066,0.14921,0.48121,0.6959,0.1578
1696783838335937,-9.632225,1.695066,0.16921,0.45421,0.7959,0.1878
1696783838343750,-9.622225,1.675066,0.23921,0.41921,0.5059,0.1578
1696783838351562,-9.620225,1.664066,0.25921,0.47221,0.6159,0.1538
1696783838359375,-9.632225,1.668066,0.25921,0.43921,0.4659,0.1388
1696783838367187,-9.636225,1.655066,0.19921,0.43621,0.6559,0.1248
1696783838375000,-9.640225,1.659066,0.30921,0.45821,0.1159,0.1698
1696783838382812,-9.649225,1.673066,0.32921,0.45021,0.3659,0.1418
1696783838390625,-9.653225,1.649066,0.21921,0.51421,0.2059,0.758
1696783838398437,-9.647225,1.657066,0.3921,0.55821,0.2341,0.1028
1696783838406250,-9.649225,1.653066,0.0,0.56421,0.8159,0.578
1696783838414062,-9.654225,1.648066,0.5921,0.60721,0.7359,0.698
1696783838421875,-9.645225,1.653066,0.5921,0.67121,0.15159,0.428
1696783838429687,-9.636225,1.658066,0.16921,0.68621,0.10459,0.268
1696783838437500,-9.638225,1.669066,0.23921,0.67021,0.9159,0.192
1696783838445312,-9.631225,1.646066,0.19921,0.69321,0.11359,0.402
1696783838453125,-9.611225,1.641066,0.5921,0.67721,0.9659,0.242
1696783838460937,-9.602225,1.655066,0.19921,0.69621,0.4659,0.412
1696783838468750,-9.620225,1.657066,0.23921,0.71921,0.5759,0.282
1696783838476562,-9.627225,1.661066,0.14921,0.68221,0.7759,0.422
1696783838484375,-9.638225,1.664066,0.3921,0.67621,0.4859,0.82
1696783838492187,-9.647225,1.657066,0.26921,0.70321,0.5759,0.122
1696783838500000,-9.665225,1.651066,0.10921,0.66021,0.4859,0.88
1696783838507812,-9.647225,1.637066,0.0,0.62121,0.5959,0.262
1696783838515625,-9.629225,1.632066,0.10079,0.63821,0.2559,0.208
1696783838523437,-9.618225,1.654066,0.10921,0.68721,0.4059,0.198
1696783838531250,-9.615225,1.628066,0.19921,0.69821,0.8641,0.112
1696783838539062,-9.618225,1.628066,0.1921,0.68621,0.3941,0.282
1696783838546875,-9.624225,1.653066,0.0,0.72421,0.4941,0.412
1696783838554687,-9.620225,1.664066,0.21921,0.75721,0.1741,0.262
1696783838562500,-9.636225,1.684066,0.19921,0.67721,0.1641,0.402
1696783838570312,-9.625225,1.679066,0.12921,0.69621,0.1941,0.262
1696783838578125,-9.611225,1.675066,0.3079,0.67821,0.1459,0.252
1696783838585937,-9.625225,1.671066,0.0,0.69021,0.359,0.392
1696783838593750,-9.636225,1.660066,0.7921,0.67721,0.4941,0.252
1696783838601562,-9.629225,1.657066,0.23921,0.67721,0.0,0.402
1696783838609375,-9.620225,1.653066,0.21921,0.68821,0.841,0.692
1696783838617187,-9.620225,1.657066,0.28921,0.67421,0.6859,0.712
1696783838625000,-9.614225,1.663066,0.19921,0.76121,0.1259,0.592
1696783838632812,-9.614225,1.670066,0.21921,0.76721,0.2559,0.932
1696783838640625,-9.618225,1.664066,0.21921,0.72621,0.3159,0.732
1696783838648437,-9.625225,1.663066,0.8921,0.70421,0.2441,0.292
1696783838656250,-9.638225,1.662066,0.5921,0.68421,0.541,0.432
1696783838664062,-9.645225,1.669066,0.1921,0.69321,0.1641,0.732
1696783838671875,-9.647225,1.664066,0.16921,0.71221,0.241,0.582
1696783838679687,-9.648225,1.677066,0.14921,0.69221,0.3859,0.622
1696783838687500,-9.641225,1.671066,0.14921,0.69621,0.4659,0.742
1696783838695312,-9.641225,1.677066,0.19921,0.68121,0.6159,0.58
1696783838703125,-9.640225,1.678066,0.25921,0.67321,0.5259,0.222
1696783838710937,-9.636225,1.670066,0.25921,0.69821,0.6159,0.422
1696783838718750,-9.629225,1.675066,0.23921,0.71321,0.2859,0.422
1696783838726562,-9.625225,1.666066,0.5921,0.68021,0.1941,0.102
1696783838734375,-9.627225,1.666066,0.19921,0.71421,0.3841,0.688
1696783838742187,-9.625225,1.675066,0.16921,0.71221,0.5141,0.422
1696783838750000,-9.637225,1.684066,0.21921,0.78021,0.2441,0.508
1696783838757812,-9.628225,1.697066,0.3079,0.82721,0.841,0.828
1696783838765625,-9.614225,1.692066,0.1921,0.82521,0.541,0.282
1696783838773437,-9.614225,1.706066,0.12921,0.91621,0.3541,0.452
1696783838781250,-9.614225,1.701066,0.3921,0.84121,0.2141,0.132
1696783838789062,-9.621225,1.701066,0.12921,0.80821,0.9459,0.912
1696783838796875,-9.619225,1.703066,0.12921,0.74821,0.5441,0.922
1696783838804687,-9.625225,1.715066,0.10921,0.67721,0.6541,0.572
1696783838812500,-9.639225,1.702066,0.7921,0.69121,0.4741,0.402
1696783838820312,-9.621225,1.704066,0.12079,0.68221,0.8641,0.112
1696783838828125,-9.628225,1.702066,0.21079,0.69521,0.13241,0.262
1696783838835937,-9.634225,1.704066,0.32079,0.68121,0.10041,0.582
1696783838843750,-9.639225,1.706066,0.37079,0.69821,0.16741,0.122
1696783838851562,-9.630225,1.713066,0.34079,0.66521,0.10241,0.858
1696783838859375,-9.635225,1.721066,0.37079,0.65121,0.12041,0.848
1696783838867187,-9.639225,1.710066,0.30079,0.63521,0.3841,0.858
1696783838875000,-9.632225,1.706066,0.25079,0.50821,0.10341,0.718
1696783838882812,-9.634225,1.709066,0.14079,0.59321,0.4841,0.1218
1696783838890625,-9.639225,1.706066,0.3079,0.64321,0.3341,0.728
1696783838898437,-9.632225,1.704066,0.1921,0.62921,0.1841,0.1038
1696783838906250,-9.632225,1.704066,0.5079,0.59421,0.0,0.578
1696783838914062,-9.634225,1.693066,0.19079,0.49221,0.6059,0.568
1696783838921875,-9.618225,1.686066,0.12079,0.56321,0.5159,0.52
1696783838929687,-9.614225,1.683066,0.23921,0.57221,0.1259,0.92
1696783838937500,-9.616225,1.681066,0.21921,0.63221,0.16541,0.68
1696783838945312,-9.632225,1.686066,0.3079,0.55021,0.3341,0.408
1696783838953125,-9.637225,1.706066,0.14079,0.68221,0.11841,0.48
1696783838960937,-9.635225,1.706066,0.14079,0.66821,0.8741,0.208
1696783838968750,-9.628225,1.708066,0.23079,0.68621,0.7441,0.838
1696783838976562,-9.619225,1.701066,0.16079,0.70121,0.2341,0.122
1696783838984375,-9.623225,1.699066,0.12079,0.68621,0.2341,0.122
1696783838992187,-9.634225,1.704066,0.10079,0.68421,0.7041,0.112
1696783839000000,-9.652225,1.715066,0.10079,0.69421,0.13241,0.218
1696783839007812,-9.673225,1.720066,0.28079,0.68321,0.5441,0.208
1696783839015625,-9.677225,1.709066,0.66079,0.69721,0.5341,0.378
1696783839023437,-9.675225,1.700066,0.81079,0.65521,0.841,0.358
1696783839031250,-9.661225,1.662066,0.61079,0.63621,0.12359,0.868
1696783839039062,-9.645225,1.655066,0.41079,0.68221,0.2759,0.538
1696783839046875,-9.622225,1.646066,0.12079,0.66521,0.2041,0.378
1696783839054687,-9.616225,1.668066,0.10079,0.68021,0.5141,0.102
1696783839062500,-9.614225,1.686066,0.14079,0.70021,0.3841,0.272
1696783839070312,-9.601225,1.703066,0.37079,0.68221,0.2759,0.378
1696783839078125,-9.603225,1.705066,0.39079,0.69821,0.4559,0.582
1696783839085937,-9.596225,1.699066,0.32079,0.68521,0.541,0.912
1696783839093750,-9.601225,1.705066,0.21079,0.70421,0.741,0.612
1696783839101562,-9.614225,1.703066,0.10079,0.68421,0.2759,0.272
1696783839109375,-9.634225,1.695066,0.1921,0.71621,0.7041,0.442
1696783839117187,-9.632225,1.684066,0.9079,0.76321,0.2341,0.518
1696783839125000,-9.637225,1.686066,0.5079,0.69121,0.5941,0.18
1696783839132812,-9.641225,1.679066,0.14079,0.70821,0.6141,0.338
1696783839140625,-9.636225,1.670066,0.21079,0.68121,0.3741,0.218
1696783839148437,-9.641225,1.677066,0.39079,0.69521,0.1359,0.92
1696783839156250,-9.639225,1.686066,0.43079,0.67821,0.3541,0.868
1696783839164062,-9.645225,1.704066,0.37079,0.67221,0.4641,0.728
1696783839171875,-9.650225,1.700066,0.28079,0.67921,0.241,0.228
1696783839179687,-9.648225,1.702066,0.30079,0.68121,0.9459,0.68
1696783839187500,-9.648225,1.699066,0.32079,0.68221,0.7759,0.422
1696783839195312,-9.652225,1.687066,0.32079,0.67521,0.11659,0.712
1696783839203125,-9.652225,1.684066,0.41079,0.68521,0.7659,0.912
1696783839210937,-9.634225,1.688066,0.34079,0.68021,0.6259,0.572
1696783839218750,-9.643225,1.693066,0.35079,0.67421,0.5059,0.232
1696783839226562,-9.637225,1.690066,0.39079,0.70021,0.6059,0.432
1696783839234375,-9.625225,1.684066,0.37079,0.68421,0.2759,0.272
1696783839242187,-9.614225,1.688066,0.28079,0.69821,0.341,0.422
1696783839250000,-9.618225,1.699066,0.39079,0.71021,0.1741,0.252
1696783839257812,-9.636225,1.706066,0.35079,0.67421,0.3559,0.712
1696783839265625,-9.637225,1.706066,0.46079,0.66321,0.3159,0.732
1696783839273437,-9.643225,1.709066,0.50079,0.52021,0.6559,0.702
1696783839281250,-9.657225,1.707066,0.66079,0.50221,0.6659,0.532
1696783839289062,-9.648225,1.702066,0.37079,0.53721,0.3159,0.552
1696783839296875,-9.657225,1.700066,0.30079,0.47421,0.4759,0.222
1696783839304687,-9.647225,1.695066,0.10079,0.56421,0.6859,0.372
1696783839312500,-9.628225,1.699066,0.7921,0.69821,0.2859,0.422
1696783839320312,-9.621225,1.708066,0.25921,0.67721,0.4959,0.722
1696783839328125,-9.610225,1.710066,0.7921,0.69321,0.6559,0.882
1696783839335937,-9.623225,1.717066,0.12079,0.68421,0.1259,0.1072
1696783839343750,-9.619225,1.724066,0.46079,0.72221,0.5259,0.1202
1696783839351562,-9.619225,1.737066,0.46079,0.73021,0.9459,0.1072
1696783839359375,-9.635225,1.739066,0.28079,0.67921,0.8059,0.892
1696783839367187,-9.624225,1.737066,0.32079,0.72521,0.8259,0.1532
1696783839375000,-9.633225,1.739066,0.25079,0.70021,0.1941,0.1552
1696783839382812,-9.621225,1.735066,0.16079,0.68321,0.6159,0.1062
1696783839390625,-9.617225,1.721066,0.7079,0.69621,0.7959,0.412
1696783839398437,-9.610225,1.719066,0.30079,0.68421,0.7041,0.112
1696783839406250,-9.621225,1.710066,0.36079,0.68621,0.959,0.272
1696783839414062,-9.614225,1.705066,0.32079,0.68621,0.7241,0.122
1696783839421875,-9.619225,1.714066,0.25079,0.68921,0.7541,0.348
1696783839429687,-9.628225,1.717066,0.23079,0.68321,0.5341,0.432
1696783839437500,-9.617225,1.730066,0.14079,0.68321,0.8541,0.272
1696783839445312,-9.614225,1.717066,0.19079,0.70021,0.541,0.432
1696783839453125,-9.619225,1.723066,0.39079,0.68621,0.3941,0.282
1696783839460937,-9.619225,1.719066,0.12079,0.70221,0.3941,0.442
1696783839468750,-9.617225,1.723066,0.1921,0.68821,0.10641,0.292
1696783839476562,-9.603225,1.716066,0.14921,0.72221,0.5841,0.462
1696783839484375,-9.606225,1.741066,0.23921,0.70921,0.17441,0.632
1696783839492187,-9.617225,1.728066,0.21921,0.68221,0.5341,0.58
1696783839500000,-9.624225,1.735066,0.10921,0.68021,0.6841,0.218
1696783839507812,-9.624225,1.732066,0.3079,0.69721,0.3641,0.58
1696783839515625,-9.624225,1.723066,0.3921,0.68521,0.2559,0.112
1696783839523437,-9.632225,1.719066,0.14921,0.71021,0.6641,0.422
1696783839531250,-9.637225,1.719066,0.0,0.60121,0.4659,0.242
1696783839539062,-9.637225,1.706066,0.1921,0.64721,0.1459,0.242
1696783839546875,-9.625225,1.700066,0.3921,0.59621,0.259,0.382
1696783839554687,-9.621225,1.706066,0.14921,0.52121,0.4759,0.232
1696783839562500,-9.616225,1.699066,0.21921,0.59221,0.4259,0.422
1696783839570312,-9.628225,1.697066,0.23921,0.65421,0.3941,0.48
1696783839578125,-9.628225,1.699066,0.19921,0.58721,0.6841,0.412
1696783839585937,-9.614225,1.708066,0.21921,0.57021,0.5241,0.78
1696783839593750,-9.615225,1.716066,0.23921,0.68921,0.10741,0.348
1696783839601562,-9.619225,1.715066,0.23921,0.68021,0.13341,0.58
1696783839609375,-9.617225,1.712066,0.21921,0.69521,0.19941,0.528
1696783839617187,-9.619225,1.710066,0.23921,0.68621,0.8841,0.38
1696783839625000,-9.637225,1.706066,0.1921,0.70421,0.20441,0.178
1696783839632812,-9.637225,1.710066,0.14079,0.68921,0.12241,0.292
1696783839640625,-9.639225,1.728066,0.3079,0.69621,0.6841,0.102
1696783839648437,-9.633225,1.732066,0.1921,0.77221,0.9341,0.158
1696783839656250,-9.633225,1.737066,0.5079,0.71421,0.10241,0.112
1696783839664062,-9.640225,1.732066,0.14079,0.71721,0.13941,0.1148
1696783839671875,-9.637225,1.722066,0.14079,0.68021,0.10141,0.58
1696783839679687,-9.628225,1.719066,0.7079,0.70621,0.17341,0.18
1696783839687500,-9.619225,1.723066,0.5921,0.69021,0.17541,0.1138
1696783839695312,-9.617225,1.739066,0.16921,0.69321,0.13241,0.708
1696783839703125,-9.601225,1.739066,0.23921,0.68421,0.2341,0.688
1696783839710937,-9.590225,1.727066,0.23921,0.73221,0.8741,0.282
1696783839718750,-9.599225,1.737066,0.28921,0.72621,0.13241,0.262
1696783839726562,-9.603225,1.725066,0.14921,0.68521,0.16941,0.442
1696783839734375,-9.610225,1.728066,0.3079,0.70121,0.7041,0.602
1696783839742187,-9.624225,1.739066,0.7079,0.68921,0.13941,0.292
1696783839750000,-9.633225,1.739066,0.8921,0.70121,0.16941,0.282
1696783839757812,-9.629225,1.741066,0.7079,0.70921,0.14141,0.472
1696783839765625,-9.635225,1.735066,0.19079,0.68021,0.15041,0.218
1696783839773437,-9.637225,1.741066,0.12079,0.70421,0.8941,0.292
1696783839781250,-9.640225,1.741066,0.7079,0.68721,0.5541,0.442
1696783839789062,-9.642225,1.748066,0.14079,0.69521,0.10141,0.378
1696783839796875,-9.642225,1.750066,0.36079,0.63821,0.7241,0.208
1696783839804687,-9.633225,1.753066,0.50079,0.65821,0.159,0.248
1696783839812500,-9.626225,1.746066,0.52079,0.69721,0.5341,0.48
1696783839820312,-9.624225,1.743066,0.61079,0.66521,0.2041,0.378
1696783839828125,-9.623225,1.728066,0.59079,0.66521,0.15041,0.58
1696783839835937,-9.623225,1.708066,0.64079,0.66721,0.20241,0.1008
1696783839843750,-9.610225,1.710066,0.59079,0.69721,0.16841,0.848
1696783839851562,-9.603225,1.715066,0.41079,0.65821,0.13041,0.558
1696783839859375,-9.585225,1.732066,0.37079,0.56921,0.6841,0.718
1696783839867187,-9.592225,1.736066,0.34079,0.61521,0.1941,0.1198
1696783839875000,-9.608225,1.739066,0.10079,0.58421,0.8341,0.82
1696783839882812,-9.608225,1.743066,0.10079,0.47521,0.6741,0.392
1696783839890625,-9.615225,1.739066,0.12921,0.52221,0.6741,0.562
1696783839898437,-9.610225,1.732066,0.23921,0.60421,0.6941,0.422
1696783839906250,-9.615225,1.719066,0.19921,0.51521,0.12341,0.48
1696783839914062,-9.621225,1.719066,0.12921,0.47821,0.10241,0.398
1696783839921875,-9.628225,1.721066,0.14079,0.57821,0.9041,0.208
1696783839929687,-9.623225,1.717066,0.30079,0.45021,0.4041,0.388
1696783839937500,-9.637225,1.710066,0.52079,0.44321,0.11841,0.888
1696783839945312,-9.637225,1.706066,0.48079,0.43121,0.3941,0.1038
1696783839953125,-9.637225,1.701066,0.61079,0.44721,0.2241,0.718
1696783839960937,-9.639225,1.706066,0.59079,0.45421,0.9341,0.1008
1696783839968750,-9.635225,1.708066,0.39079,0.49521,0.2341,0.1028
1696783839976562,-9.628225,1.706066,0.34079,0.54521,0.2541,0.698
1696783839984375,-9.626225,1.713066,0.37079,0.49121,0.1941,0.88
1696783839992187,-9.635225,1.717066,0.52079,0.51221,0.959,0.228
1696783840000000,-9.641225,1.704066,0.61079,0.50721,0.1941,0.82
1696783840007812,-9.637225,1.708066,0.50079,0.43221,0.3741,0.402
1696783840015625,-9.639225,1.706066,0.50079,0.44621,0.441,0.72
1696783840023437,-9.637225,1.712066,0.52079,0.43421,0.2559,0.82
1696783840031250,-9.635225,1.704066,0.52079,0.43621,0.4259,0.732
1696783840039062,-9.616225,1.692066,0.68079,0.44721,0.7759,0.712
1696783840046875,-9.618225,1.686066,0.86079,0.43321,0.1059,0.242
1696783840054687,-9.641225,1.693066,0.109079,0.49021,0.1459,0.62
1696783840062500,-9.637225,1.695066,0.91079,0.58821,0.5341,0.262
1696783840070312,-9.635225,1.719066,0.59079,0.54821,0.18841,0.442
1696783840078125,-9.639225,1.728066,0.43079,0.63821,0.12041,0.432
1696783840085937,-9.628225,1.721066,0.36079,0.65921,0.10741,0.132
1696783840093750,-9.623225,1.714066,0.52079,0.51321,0.8941,0.378
1696783840101562,-9.614225,1.701066,0.68079,0.54521,0.17041,0.48
1696783840109375,-9.619225,1.717066,0.57079,0.60321,0.6941,0.58
1696783840117187,-9.610225,1.721066,0.48079,0.64021,0.18741,0.122
1696783840125000,-9.610225,1.730066,0.48079,0.67121,0.15441,0.122
1696783840132812,-9.635225,1.730066,0.50079,0.59321,0.15441,0.282
1696783840140625,-9.621225,1.733066,0.48079,0.53621,0.8241,0.392
1696783840148437,-9.615225,1.737066,0.46079,0.49221,0.3541,0.242
1696783840156250,-9.626225,1.735066,0.52079,0.49421,0.8641,0.252
1696783840164062,-9.619225,1.737066,0.64079,0.49421,0.2041,0.402
1696783840171875,-9.635225,1.724066,0.64079,0.48121,0.10341,0.582
1696783840179687,-9.626225,1.725066,0.68079,0.49021,0.11041,0.292
1696783840187500,-9.622225,1.727066,0.79079,0.44221,0.14241,0.442
1696783840195312,-9.617225,1.721066,0.81079,0.47021,0.10641,0.592
1696783840203125,-9.626225,1.719066,0.79079,0.46921,0.4141,0.262
1696783840210937,-9.614225,1.721066,0.86079,0.44621,0.13441,0.242
1696783840218750,-9.617225,1.723066,0.84079,0.46821,0.15441,0.422
1696783840226562,-9.630225,1.719066,0.86079,0.52521,0.15041,0.572
1696783840234375,-9.630225,1.715066,0.84079,0.56121,0.20141,0.752
1696783840242187,-9.626225,1.728066,0.90079,0.67521,0.7341,0.1412
1696783840250000,-9.628225,1.744066,0.109079,0.69521,0.9941,0.742
1696783840257812,-9.628225,1.741066,0.118079,0.70121,0.16941,0.612
1696783840265625,-9.629225,1.752066,0.122079,0.71921,0.17041,0.612
1696783840273437,-9.619225,1.750066,0.124079,0.69821,0.6941,0.432
1696783840281250,-9.633225,1.736066,0.111079,0.67721,0.19041,0.312
1696783840289062,-9.628225,1.732066,0.88079,0.64421,0.15641,0.462
1696783840296875,-9.626225,1.730066,0.79079,0.62421,0.12141,0.282
1696783840304687,-9.637225,1.732066,0.61079,0.67121,0.13741,0.282
1696783840312500,-9.633225,1.732066,0.66079,0.62921,0.2741,0.452
1696783840320312,-9.628225,1.741066,0.43079,0.66421,0.241,0.252
1696783840328125,-9.635225,1.730066,0.46079,0.69821,0.5341,0.432
1696783840335937,-9.635225,1.719066,0.46079,0.54221,0.3841,0.68
1696783840343750,-9.626225,1.724066,0.34079,0.54121,0.2859,0.402
1696783840351562,-9.626225,1.739066,0.28079,0.48021,0.2241,0.68
1696783840359375,-9.624225,1.737066,0.37079,0.47821,0.441,0.82
1696783840367187,-9.628225,1.746066,0.43079,0.54221,0.541,0.68
1696783840375000,-9.640225,1.750066,0.39079,0.52321,0.11741,0.398
1696783840382812,-9.630225,1.737066,0.46079,0.44721,0.10441,0.718
1696783840390625,-9.624225,1.739066,0.50079,0.44321,0.6741,0.72
1696783840398437,-9.637225,1.726066,0.48079,0.49821,0.12141,0.58
1696783840406250,-9.637225,1.726066,0.48079,0.56021,0.8841,0.48
1696783840414062,-9.646225,1.721066,0.59079,0.67121,0.4141,0.198
1696783840421875,-9.646225,1.719066,0.63079,0.62921,0.4341,0.28
1696783840429687,-9.653225,1.720066,0.55079,0.69721,0.6159,0.262
1696783840437500,-9.650225,1.722066,0.66079,0.68121,0.4459,0.218
1696783840445312,-9.637225,1.730066,0.59079,0.70221,0.5759,0.358
1696783840453125,-9.644225,1.739066,0.54079,0.75121,0.3959,0.348
1696783840460937,-9.633225,1.730066,0.70079,0.70021,0.5659,0.1168
1696783840468750,-9.619225,1.732066,0.79079,0.75721,0.4459,0.1178
1696783840476562,-9.626225,1.723066,0.57079,0.76021,0.7659,0.368
1696783840484375,-9.630225,1.730066,0.32079,0.71121,0.2859,0.858
1696783840492187,-9.619225,1.730066,0.34079,0.68321,0.2241,0.368
1696783840500000,-9.619225,1.732066,0.41079,0.69821,0.10759,0.1018
1696783840507812,-9.622225,1.732066,0.66079,0.64021,0.7259,0.688
1696783840515625,-9.626225,1.732066,0.63079,0.68921,0.7059,0.838
1696783840523437,-9.631225,1.761066,0.75079,0.72921,0.5441,0.1008
1696783840531250,-9.636225,1.774066,0.57079,0.71921,0.659,0.668
1696783840539062,-9.629225,1.775066,0.43079,0.91521,0.3641,0.678
1696783840546875,-9.644225,1.768066,0.32079,0.82021,0.1941,0.368
1696783840554687,-9.646225,1.750066,0.64079,0.71421,0.1059,0.528
1696783840562500,-9.635225,1.737066,0.84079,0.68521,0.4259,0.48
1696783840570312,-9.640225,1.739066,0.109079,0.69821,0.5959,0.538
1696783840578125,-9.637225,1.739066,0.129079,0.68821,0.3959,0.518
1696783840585937,-9.640225,1.748066,0.140079,0.72521,0.1359,0.548
1696783840593750,-9.642225,1.754066,0.144079,0.84821,0.1041,0.168
1696783840601562,-9.635225,1.752066,0.118079,0.73121,0.4359,0.432
1696783840609375,-9.619225,1.752066,0.102079,0.71421,0.5959,0.218
1696783840617187,-9.599225,1.723066,0.79079,0.73521,0.941,0.348
1696783840625000,-9.610225,1.718066,0.75079,0.78821,0.2841,0.322
1696783840632812,-9.588225,1.722066,0.81079,0.91521,0.7841,0.22
1696783840640625,-9.579225,1.733066,0.50079,0.91221,0.12541,0.172
1696783840648437,-9.574225,1.731066,0.39079,0.87921,0.7441,0.482
1696783840656250,-9.570225,1.743066,0.25079,0.88721,0.11841,0.622
1696783840664062,-9.577225,1.729066,0.18079,0.76621,0.2441,0.292
1696783840671875,-9.584225,1.742066,0.30079,0.72321,0.1041,0.462
1696783840679687,-9.588225,1.742066,0.57079,0.69221,0.4341,0.142
1696783840687500,-9.601225,1.734066,0.77079,0.70021,0.5641,0.518
1696783840695312,-9.601225,1.739066,0.86079,0.68121,0.3741,0.378
1696783840703125,-9.615225,1.745066,0.86079,0.70021,0.8841,0.678
1696783840710937,-9.617225,1.765066,0.79079,0.68421,0.12041,0.122
1696783840718750,-9.615225,1.761066,0.75079,0.68121,0.20041,0.688
1696783840726562,-9.638225,1.777066,0.86079,0.68521,0.22041,0.838
1696783840734375,-9.631225,1.759066,0.86079,0.69121,0.20741,0.488
1696783840742187,-9.633225,1.757066,0.79079,0.70021,0.20341,0.1158
1696783840750000,-9.633225,1.756066,0.75079,0.69221,0.22341,0.328
1696783840757812,-9.638225,1.757066,0.88079,0.70121,0.20341,0.508
1696783840765625,-9.635225,1.752066,0.102079,0.69021,0.20641,0.18
1696783840773437,-9.633225,1.750066,0.115079,0.66821,0.8741,0.112
1696783840781250,-9.637225,1.759066,0.115079,0.71121,0.11741,0.218
1696783840789062,-9.626225,1.753066,0.106079,0.70821,0.8341,0.548
1696783840796875,-9.617225,1.752066,0.104079,0.73221,0.17041,0.668
1696783840804687,-9.612225,1.755066,0.104079,0.67321,0.9741,0.558
1696783840812500,-9.606225,1.756066,0.88079,0.69821,0.7141,0.688
1696783840820312,-9.615225,1.750066,0.72079,0.68821,0.5741,0.292
1696783840828125,-9.601225,1.745066,0.61079,0.68321,0.13541,0.432
1696783840835937,-9.627225,1.759066,0.50079,0.70721,0.14041,0.622
1696783840843750,-9.640225,1.761066,0.61079,0.67921,0.11041,0.312
1696783840851562,-9.638225,1.754066,0.68079,0.67721,0.14141,0.142
1696783840859375,-9.638225,1.750066,0.88079,0.55021,0.9141,0.442
1696783840867187,-9.637225,1.735066,0.102079,0.57621,0.5641,0.112
1696783840875000,-9.637225,1.739066,0.104079,0.60421,0.5541,0.858
1696783840882812,-9.637225,1.730066,0.102079,0.52521,0.3841,0.708
1696783840890625,-9.637225,1.735066,0.102079,0.59121,0.8841,0.208
1696783840898437,-9.637225,1.741066,0.88079,0.59321,0.4241,0.1328
1696783840906250,-9.637225,1.743066,0.88079,0.68521,0.759,0.848
1696783840914062,-9.628225,1.742066,0.82079,0.69021,0.3341,0.558
1696783840921875,-9.628225,1.744066,0.66079,0.71321,0.3641,0.48
1696783840929687,-9.642225,1.753066,0.68079,0.67721,0.6741,0.388
1696783840937500,-9.633225,1.748066,0.66079,0.69621,0.10041,0.262
1696783840945312,-9.633225,1.755066,0.66079,0.68021,0.10241,0.858
1696783840953125,-9.640225,1.750066,0.81079,0.70321,0.941,0.998
1696783840960937,-9.633225,1.745066,0.86079,0.68821,0.9141,0.828
1696783840968750,-9.615225,1.743066,0.86079,0.69921,0.8941,0.1168
1696783840976562,-9.608225,1.745066,0.79079,0.67421,0.14241,0.1308
1696783840984375,-9.595225,1.743066,0.70079,0.67821,0.16741,0.1178
1696783840992187,-9.593225,1.745066,0.75079,0.70121,0.18841,0.1308
1696783841000000,-9.593225,1.747066,0.75079,0.68421,0.22041,0.1158
1696783841007812,-9.597225,1.752066,0.79079,0.70321,0.19041,0.1468
1696783841015625,-9.602225,1.752066,0.75079,0.68221,0.26841,0.1318
1696783841023437,-9.633225,1.744066,0.91079,0.68121,0.26641,0.1168
1696783841031250,-9.626225,1.743066,0.100079,0.68321,0.13641,0.688
1696783841039062,-9.633225,1.746066,0.111079,0.67821,0.19941,0.1178
1696783841046875,-9.637225,1.746066,0.122079,0.69521,0.16641,0.698
1696783841054687,-9.640225,1.748066,0.120079,0.67821,0.11741,0.1188
1696783841062500,-9.633225,1.746066,0.118079,0.69921,0.13641,0.688
1696783841070312,-9.635225,1.755066,0.100079,0.71621,0.17041,0.838
1696783841078125,-9.631225,1.757066,0.95079,0.68321,0.18541,0.678
1696783841085937,-9.622225,1.754066,0.106079,0.70321,0.22141,0.828
1696783841093750,-9.617225,1.752066,0.113079,0.67721,0.18241,0.868
1696783841101562,-9.608225,1.756066,0.118079,0.69821,0.18641,0.1328
1696783841109375,-9.604225,1.756066,0.104079,0.68521,0.17041,0.518
1696783841117187,-9.604225,1.752066,0.104079,0.70121,0.17241,0.1638
1696783841125000,-9.619225,1.739066,0.104079,0.63621,0.17141,0.1488
1696783841132812,-9.628225,1.736066,0.122079,0.68721,0.12441,0.1628
1696783841140625,-9.615225,1.736066,0.120079,0.67121,0.20641,0.1948
1696783841148437,-9.615225,1.741066,0.122079,0.60321,0.15341,0.1658
1696783841156250,-9.615225,1.750066,0.115079,0.65321,0.13841,0.678
1696783841164062,-9.615225,1.758066,0.97079,0.70421,0.19041,0.1138
1696783841171875,-9.608225,1.754066,0.109079,0.63321,0.18441,0.1178
1696783841179687,-9.610225,1.748066,0.93079,0.67921,0.13541,0.1658
1696783841187500,-9.617225,1.741066,0.100079,0.65021,0.21941,0.1488
1696783841195312,-9.617225,1.732066,0.106079,0.65221,0.17141,0.1488
1696783841203125,-9.628225,1.735066,0.113079,0.66521,0.21741,0.1328
1696783841210937,-9.635225,1.735066,0.115079,0.64721,0.15041,0.1188
1696783841218750,-9.640225,1.741066,0.111079,0.68621,0.12341,0.1158
1696783841226562,-9.635225,1.748066,0.120079,0.70321,0.2641,0.998
1696783841234375,-9.635225,1.752066,0.102079,0.68021,0.441,0.698
1696783841242187,-9.631225,1.750066,0.97079,0.69621,0.2041,0.858
1696783841250000,-9.635225,1.757066,0.100079,0.66221,0.5241,0.1028
1696783841257812,-9.635225,1.741066,0.122079,0.52321,0.3741,0.878
1696783841265625,-9.628225,1.735066,0.106079,0.52121,0.5241,0.1048
1696783841273437,-9.619225,1.741066,0.122079,0.41221,0.5441,0.1698
1696783841281250,-9.615225,1.741066,0.122079,0.46621,0.15641,0.1178
1696783841289062,-9.631225,1.734066,0.115079,0.46521,0.22041,0.1338
1696783841296875,-9.617225,1.741066,0.120079,0.52321,0.2141,0.878
1696783841304687,-9.619225,1.728066,0.120079,0.54321,0.5441,0.102
1696783841312500,-9.614225,1.712066,0.104079,0.50721,0.6841,0.78
1696783841320312,-9.621225,1.710066,0.138079,0.63921,0.20341,0.198
1696783841328125,-9.652225,1.709066,0.145079,0.60121,0.21441,0.262
1696783841335937,-9.657225,1.706066,0.140079,0.65421,0.16941,0.442
1696783841343750,-9.644225,1.713066,0.140079,0.51021,0.16941,0.868
1696783841351562,-9.637225,1.722066,0.116079,0.62821,0.4941,0.728
1696783841359375,-9.635225,1.719066,0.84079,0.50321,0.5141,0.1058
1696783841367187,-9.635225,1.722066,0.97079,0.45721,0.241,0.418
1696783841375000,-9.650225,1.717066,0.113079,0.53821,0.6841,0.238
1696783841382812,-9.657225,1.737066,0.138079,0.55221,0.21541,0.1038
1696783841390625,-9.664225,1.742066,0.145079,0.57421,0.12241,0.1178
1696783841398437,-9.669225,1.731066,0.138079,0.46321,0.5641,0.1358
1696783841406250,-9.684225,1.704066,0.140079,0.53821,0.5441,0.1358
1696783841414062,-9.668225,1.686066,0.133079,0.49321,0.2241,0.1198
1696783841421875,-9.661225,1.676066,0.125079,0.54821,0.3341,0.1058
1696783841429687,-9.645225,1.666066,0.111079,0.52721,0.741,0.708
1696783841437500,-9.629225,1.673066,0.136079,0.59721,0.14841,0.878
1696783841445312,-9.614225,1.690066,0.154079,0.69821,0.8741,0.1008
1696783841453125,-9.587225,1.696066,0.163079,0.68021,0.3741,0.858
1696783841460937,-9.585225,1.708066,0.170079,0.67321,0.11341,0.878
1696783841468750,-9.581225,1.719066,0.149079,0.66121,0.14941,0.868
1696783841476562,-9.615225,1.728066,0.154079,0.70021,0.22041,0.1318
1696783841484375,-9.617225,1.726066,0.151079,0.63121,0.19941,0.1178
1696783841492187,-9.614225,1.721066,0.160079,0.66221,0.15041,0.1178
1696783841500000,-9.612225,1.710066,0.149079,0.60121,0.13541,0.1508
1696783841507812,-9.612225,1.701066,0.122079,0.66821,0.12241,0.1328
1696783841515625,-9.610225,1.708066,0.129079,0.66821,0.18741,0.1478
1696783841523437,-9.612225,1.699066,0.122079,0.65421,0.13941,0.1318
1696783841531250,-9.634225,1.690066,0.113079,0.53921,0.16841,0.1188
1696783841539062,-9.639225,1.698066,0.140079,0.46821,0.17841,0.1388
1696783841546875,-9.641225,1.703066,0.127079,0.59221,0.22141,0.1158
1696783841554687,-9.639225,1.703066,0.142079,0.51721,0.19141,0.1478
1696783841562500,-9.628225,1.707066,0.147079,0.44021,0.12741,0.1328
1696783841570312,-9.626225,1.705066,0.149079,0.51921,0.6241,0.1158
1696783841578125,-9.630225,1.708066,0.140079,0.52121,0.11841,0.1358
1696783841585937,-9.641225,1.695066,0.127079,0.56021,0.13941,0.1168
1696783841593750,-9.641225,1.684066,0.118079,0.52421,0.11941,0.708
1696783841601562,-9.650225,1.671066,0.111079,0.44621,0.8641,0.398
1696783841609375,-9.643225,1.664066,0.118079,0.65221,0.7141,0.208
1696783841617187,-9.650225,1.666066,0.115079,0.58621,0.8441,0.68
1696783841625000,-9.634225,1.670066,0.109079,0.68121,0.8641,0.378
1696783841632812,-9.643225,1.691066,0.104079,0.68121,0.5341,0.378
1696783841640625,-9.644225,1.710066,0.102079,0.69821,0.2241,0.368
1696783841648437,-9.635225,1.717066,0.95079,0.64921,0.11741,0.218
1696783841656250,-9.648225,1.713066,0.111079,0.52221,0.10141,0.878
1696783841664062,-9.673225,1.702066,0.142079,0.51121,0.4041,0.1188
1696783841671875,-9.650225,1.684066,0.172079,0.41621,0.4041,0.1358
1696783841679687,-9.641225,1.670066,0.178079,0.44621,0.641,0.1208
1696783841687500,-9.643225,1.673066,0.163079,0.42621,0.5341,0.1538
1696783841695312,-9.629225,1.670066,0.138079,0.47421,0.3841,0.2008
1696783841703125,-9.621225,1.677066,0.115079,0.48021,0.4041,0.1028
1696783841710937,-9.623225,1.686066,0.142079,0.41521,0.5341,0.248
1696783841718750,-9.627225,1.683066,0.151079,0.49621,0.3841,0.92
1696783841726562,-9.625225,1.674066,0.169079,0.53121,0.10641,0.48
1696783841734375,-9.634225,1.670066,0.208079,0.54921,0.4241,0.282
1696783841742187,-9.638225,1.673066,0.214079,0.57421,0.12559,0.412
1696783841750000,-9.621225,1.670066,0.208079,0.54621,0.5759,0.58
1696783841757812,-9.634225,1.670066,0.197079,0.63421,0.2859,0.92
1696783841765625,-9.636225,1.672066,0.205079,0.68821,0.10841,0.988
1696783841773437,-9.639225,1.675066,0.205079,0.73121,0.7041,0.282
1696783841781250,-9.645225,1.670066,0.217079,0.79821,0.941,0.498
1696783841789062,-9.641225,1.666066,0.235079,0.76821,0.2541,0.18
1696783841796875,-9.632225,1.668066,0.237079,0.69521,0.241,0.58
1696783841804687,-9.634225,1.655066,0.239079,0.79121,0.10959,0.688
1696783841812500,-9.638225,1.666066,0.250079,0.76421,0.9059,0.518
1696783841820312,-9.632225,1.666066,0.232079,0.77721,0.7459,0.848
1696783841828125,-9.636225,1.666066,0.232079,0.90621,0.10659,0.178
1696783841835937,-9.639225,1.666066,0.201079,0.81421,0.5659,0.142
1696783841843750,-9.634225,1.679066,0.214079,0.79621,0.5759,0.28
1696783841851562,-9.635225,1.685066,0.189079,0.78921,0.1959,0.0
1696783841859375,-9.614225,1.667066,0.178079,0.73921,0.3659,0.498
1696783841867187,-9.603225,1.696066,0.181079,0.66721,0.5959,0.378
1696783841875000,-9.603225,1.705066,0.187079,0.79921,0.2359,0.142
1696783841882812,-9.610225,1.708066,0.178079,0.74521,0.1059,0.528
1696783841890625,-9.626225,1.705066,0.174079,0.72421,0.3759,0.142
1696783841898437,-9.628225,1.706066,0.185079,0.72621,0.6259,0.92
1696783841906250,-9.628225,1.708066,0.201079,0.68421,0.4359,0.432
1696783841914062,-9.614225,1.704066,0.185079,0.72121,0.4859,0.558
1696783841921875,-9.628225,1.706066,0.183079,0.68221,0.5959,0.378
1696783841929687,-9.637225,1.706066,0.176079,0.69221,0.4559,0.1198
1696783841937500,-9.621225,1.697066,0.167079,0.68421,0.5859,0.368
1696783841945312,-9.619225,1.696066,0.165079,0.70921,0.6959,0.302
1696783841953125,-9.621225,1.692066,0.163079,0.68421,0.5859,0.208
1696783841960937,-9.635225,1.703066,0.156079,0.70621,0.2159,0.188
1696783841968750,-9.634225,1.699066,0.167079,0.68421,0.4259,0.368
1696783841976562,-9.628225,1.695066,0.160079,0.69921,0.6059,0.58
1696783841984375,-9.626225,1.694066,0.163079,0.67121,0.10459,0.848
1696783841992187,-9.619225,1.703066,0.165079,0.68021,0.9359,0.388
1696783842000000,-9.623225,1.697066,0.156079,0.70221,0.7359,0.368
1696783842007812,-9.637225,1.701066,0.158079,0.68321,0.7459,0.858
1696783842015625,-9.637225,1.699066,0.151079,0.70021,0.8959,0.1008
1696783842023437,-9.648225,1.706066,0.142079,0.68621,0.8859,0.1328
1696783842031250,-9.655225,1.704066,0.124079,0.68321,0.12359,0.698
1696783842039062,-9.637225,1.715066,0.120079,0.68421,0.7359,0.1168
1696783842046875,-9.639225,1.721066,0.122079,0.68321,0.14059,0.698
1696783842054687,-9.634225,1.701066,0.115079,0.68021,0.22359,0.1038
1696783842062500,-9.621225,1.705066,0.126079,0.68621,0.18659,0.688
1696783842070312,-9.617225,1.708066,0.140079,0.68121,0.12359,0.1508
1696783842078125,-9.617225,1.710066,0.142079,0.68821,0.10359,0.998
1696783842085937,-9.619225,1.715066,0.145079,0.67921,0.11059,0.1028
1696783842093750,-9.617225,1.717066,0.127079,0.67921,0.4459,0.1188
1696783842101562,-9.612225,1.724066,0.129079,0.67121,0.6859,0.898
1696783842109375,-9.619225,1.734066,0.131079,0.70121,0.4059,0.688
1696783842117187,-9.613225,1.750066,0.131079,0.68021,0.441,0.698
1696783842125000,-9.613225,1.750066,0.138079,0.70121,0.2341,0.198
1696783842132812,-9.619225,1.734066,0.115079,0.68421,0.959,0.528
1696783842140625,-9.599225,1.725066,0.113079,0.70121,0.4059,0.1008
1696783842148437,-9.617225,1.725066,0.117079,0.64121,0.2359,0.358
1696783842156250,-9.637225,1.735066,0.106079,0.64821,0.11059,0.558
1696783842164062,-9.649225,1.737066,0.117079,0.61121,0.559,0.838
1696783842171875,-9.671225,1.742066,0.129079,0.65421,0.759,0.688
1696783842179687,-9.664225,1.726066,0.163079,0.66821,0.12359,0.538
1696783842187500,-9.657225,1.706066,0.176079,0.55821,0.12559,0.252
1696783842195312,-9.647225,1.684066,0.188079,0.53621,0.12959,0.62
1696783842203125,-9.636225,1.680066,0.140079,0.54821,0.9959,0.108
1696783842210937,-9.621225,1.679066,0.113079,0.42921,0.9359,0.258
1696783842218750,-9.598225,1.685066,0.106079,0.45221,0.5659,0.92
1696783842226562,-9.592225,1.698066,0.113079,0.43921,0.3959,0.422
1696783842234375,-9.583225,1.705066,0.122079,0.45621,0.3759,0.112
1696783842242187,-9.569225,1.705066,0.111079,0.46021,0.6259,0.392
1696783842250000,-9.583225,1.712066,0.109079,0.46621,0.4259,0.412
1696783842257812,-9.596225,1.712066,0.106079,0.46221,0.1941,0.712
1696783842265625,-9.601225,1.705066,0.86079,0.60521,0.1059,0.102
1696783842273437,-9.612225,1.708066,0.82079,0.65121,0.1059,0.218
1696783842281250,-9.614225,1.690066,0.70079,0.69521,0.6259,0.68
1696783842289062,-9.614225,1.674066,0.66079,0.71921,0.2459,0.122
1696783842296875,-9.616225,1.672066,0.68079,0.69321,0.459,0.178
1696783842304687,-9.630225,1.670066,0.70079,0.70021,0.641,0.368
1696783842312500,-9.636225,1.677066,0.82079,0.68021,0.4459,0.388
1696783842320312,-9.636225,1.686066,0.82079,0.69621,0.3741,0.858
1696783842328125,-9.641225,1.692066,0.86079,0.68721,0.10641,0.678
1696783842335937,-9.644225,1.706066,0.84079,0.67221,0.5559,0.518
1696783842343750,-9.635225,1.706066,0.86079,0.69921,0.2141,0.208
1696783842351562,-9.639225,1.702066,0.84079,0.69121,0.6359,0.718
1696783842359375,-9.630225,1.704066,0.86079,0.63521,0.7659,0.228
1696783842367187,-9.632225,1.702066,0.66079,0.63021,0.9659,0.72
1696783842375000,-9.626225,1.703066,0.68079,0.59121,0.9159,0.102
1696783842382812,-9.621225,1.699066,0.59079,0.64921,0.7759,0.68
1696783842390625,-9.612225,1.685066,0.61079,0.58021,0.13659,0.48
1696783842398437,-9.600225,1.683066,0.66079,0.49621,0.5959,0.402
1696783842406250,-9.598225,1.681066,0.63079,0.43921,0.3959,0.262
1696783842414062,-9.600225,1.678066,0.68079,0.46821,0.5759,0.412
1696783842421875,-9.616225,1.688066,0.73079,0.46021,0.1359,0.232
1696783842429687,-9.623225,1.694066,0.84079,0.56621,0.559,0.282
1696783842437500,-9.637225,1.695066,0.75079,0.54421,0.2559,0.228
1696783842445312,-9.639225,1.688066,0.57079,0.64621,0.5459,0.932
1696783842453125,-9.645225,1.679066,0.48079,0.63921,0.5759,0.208
1696783842460937,-9.656225,1.668066,0.75079,0.62021,0.4359,0.58
1696783842468750,-9.645225,1.679066,0.72079,0.68621,0.5759,0.528
1696783842476562,-9.634225,1.679066,0.73079,0.69821,0.2759,0.538
1696783842484375,-9.639225,1.675066,0.82079,0.71721,0.2341,0.122
1696783842492187,-9.625225,1.679066,0.73079,0.68721,0.841,0.122
1696783842500000,-9.629225,1.668066,0.79079,0.68421,0.2141,0.272
1696783842507812,-9.628225,1.692066,0.97079,0.70621,0.759,0.452
1696783842515625,-9.626225,1.701066,0.117079,0.64521,0.7441,0.1092
1696783842523437,-9.632225,1.704066,0.118079,0.66821,0.5441,0.48
1696783842531250,-9.637225,1.710066,0.93079,0.69921,0.3841,0.48
1696783842539062,-9.623225,1.701066,0.79079,0.60021,0.141,0.402
1696783842546875,-9.619225,1.699066,0.73079,0.68421,0.7459,0.208
1696783842554687,-9.621225,1.701066,0.84079,0.67221,0.7359,0.272
1696783842562500,-9.614225,1.701066,0.79079,0.58721,0.1259,0.92
1696783842570312,-9.603225,1.688066,0.75079,0.65221,0.2759,0.58
1696783842578125,-9.603225,1.687066,0.93079,0.70021,0.2559,0.368
1696783842585937,-9.596225,1.698066,0.95079,0.68621,0.641,0.442
1696783842593750,-9.610225,1.706066,0.106079,0.68321,0.8541,0.272
1696783842601562,-9.614225,1.708066,0.120079,0.70221,0.959,0.442
1696783842609375,-9.617225,1.705066,0.129079,0.68021,0.1759,0.488
1696783842617187,-9.617225,1.714066,0.138079,0.78121,0.2441,0.348
1696783842625000,-9.612225,1.723066,0.140079,0.76621,0.2359,0.668
1696783842632812,-9.622225,1.727066,0.135079,0.76721,0.5659,0.132
1696783842640625,-9.612225,1.734066,0.129079,0.69521,0.4459,0.868
1696783842648437,-9.613225,1.745066,0.120079,0.68321,0.4359,0.218
1696783842656250,-9.608225,1.741066,0.118079,0.66521,0.5141,0.262
1696783842664062,-9.606225,1.738066,0.93079,0.53121,0.841,0.102
1696783842671875,-9.603225,1.730066,0.86079,0.50521,0.3159,0.232
1696783842679687,-9.605225,1.723066,0.93079,0.58621,0.2959,0.402
1696783842687500,-9.601225,1.723066,0.111079,0.64821,0.3159,0.892
1696783842695312,-9.608225,1.716066,0.106079,0.63821,0.2759,0.742
1696783842703125,-9.605225,1.721066,0.113079,0.59921,0.3441,0.78
1696783842710937,-9.614225,1.721066,0.120079,0.68221,0.3641,0.102
1696783842718750,-9.610225,1.723066,0.99079,0.56621,0.2541,0.922
1696783842726562,-9.617225,1.721066,0.91079,0.60821,0.8841,0.272
1696783842734375,-9.621225,1.719066,0.97079,0.60321,0.3741,0.388
1696783842742187,-9.632225,1.706066,0.91079,0.43521,0.5641,0.92
1696783842750000,-9.637225,1.702066,0.75079,0.47821,0.1159,0.82
1696783842757812,-9.641225,1.704066,0.61079,0.43321,0.2559,0.718
1696783842765625,-9.641225,1.699066,0.61079,0.45321,0.1041,0.378
1696783842773437,-9.651225,1.706066,0.77079,0.44421,0.7741,0.442
1696783842781250,-9.653225,1.708066,0.84079,0.45021,0.8941,0.228
