time,Acceleration X (m/s^2),Acceleration Y (m/s^2),Acceleration Z (m/s^2),Angular Velocity X (rad/s),Angular Velocity Y (rad/s),Angular Velocity Z (rad/s)
1700499608960937,-9.808892,-2.327703,-0.011575,,,
1700499608968750,-9.793892,-2.403703,0.745519,0.23775,0.51872,0.1514
1700499608976562,-9.813892,-2.459703,0.688519,0.14675,0.46072,0.9486
1700499608984375,-9.822892,-2.456703,0.698519,0.3525,0.27972,0.16386
1700499608992187,-9.852892,-2.398703,0.756519,0.11225,0.28372,0.16186
1700499609000000,-9.862892,-2.351703,0.799519,0.5225,0.33172,0.12886
1700499609015625,-9.898892,-2.389703,0.752519,0.29675,0.43872,0.1386
1700499609023437,-9.866892,-2.427703,0.743519,0.22075,0.40572,0.0
1700499609031250,-9.832892,-2.394703,0.752519,0.15875,0.48972,0.4914
1700499609039062,-9.812892,-2.372703,0.775519,0.21975,0.50072,0.11114
1700499609062500,-9.806892,-2.305703,0.829519,0.37075,0.52572,0.23814
1700499609070312,-9.759892,-2.261703,0.827519,0.38375,0.50672,0.31714
1700499609078125,-9.765892,-2.256703,0.816519,0.56775,0.53372,0.31714
1700499609085937,-9.813892,-2.258703,0.772519,0.64275,0.44972,0.33314
1700499609093750,-9.856892,-2.262703,0.774519,0.62775,0.46672,0.31714
1700499609101562,-9.877892,-2.251703,0.799519,0.62875,0.50372,0.27214
1700499609109375,-9.874892,-2.239703,0.827519,0.63175,0.55272,0.20714
1700499609117187,-9.861892,-2.258703,0.818519,0.72075,0.58772,0.24314
1700499609125000,-9.897892,-2.304703,0.795519,0.89075,0.61972,0.16614
1700499609132812,-9.939892,-2.328703,0.777519,0.67775,0.61072,0.10214
1700499609140625,-9.907892,-2.324703,0.852519,0.63375,0.62772,0.5314
1700499609148437,-9.893892,-2.332703,0.912519,0.65275,0.67972,0.5786
1700499609156250,-9.854892,-2.371703,0.898519,0.63775,0.81572,0.5486
1700499609164062,-9.797892,-2.439703,0.846519,0.65175,0.81572,0.3786
1700499609171875,-9.793892,-2.443703,0.827519,0.59075,0.80172,0.3786
1700499609179687,-9.800892,-2.396703,0.848519,0.34475,0.70372,0.614
1700499609187500,-9.805892,-2.357703,0.902519,0.23775,0.68972,0.2114
1700499609195312,-9.812892,-2.320703,0.927519,0.29975,0.70172,0.5114
1700499609203125,-9.803892,-2.307703,0.925519,0.35975,0.75072,0.8614
1700499609210937,-9.803892,-2.305703,0.923519,0.41975,0.71372,0.11614
1700499609218750,-9.808892,-2.269703,0.925519,0.25275,0.68572,0.8314
1700499609226562,-9.818892,-2.242703,0.973519,0.16275,0.62372,0.1386
1700499609234375,-9.816892,-2.212703,1.22519,0.16175,0.60772,0.314
1700499609242187,-9.818892,-2.198703,1.36519,0.31575,0.58872,0.7686
1700499609250000,-9.809892,-2.232703,1.29519,0.56075,0.65472,0.15086
1700499609257812,-9.781892,-2.272703,1.9519,0.65375,0.61972,0.19986
1700499609265625,-9.791892,-2.320703,0.985519,0.65575,0.63672,0.24786
1700499609273437,-9.771892,-2.325703,0.971519,0.54775,0.62172,0.23386
1700499609281250,-9.728892,-2.310703,1.3519,0.54675,0.47172,0.23486
1700499609289062,-9.690892,-2.291703,1.21519,0.48475,0.60572,0.15286
1700499609296875,-9.706892,-2.291703,0.986519,0.55975,0.50272,0.13986
1700499609304687,-9.756892,-2.316703,0.968519,0.66575,0.45372,0.16886
1700499609312500,-9.779892,-2.308703,0.982519,0.62075,0.43572,0.15486
1700499609320312,-9.777892,-2.261703,1.11519,0.43775,0.43972,0.17186
1700499609328125,-9.741892,-2.224703,1.66519,0.59075,0.48572,0.15486
1700499609335937,-9.741892,-2.221703,1.48519,0.66775,0.51372,0.10886
1700499609343750,-9.763892,-2.243703,1.23519,0.81975,0.49772,0.15386
1700499609351562,-9.736892,-2.262703,1.41519,0.84875,0.43172,0.16886
1700499609359375,-9.715892,-2.269703,1.50519,0.78975,0.43372,0.23386
1700499609367187,-9.722892,-2.275703,1.36519,0.91175,0.38272,0.28086
1700499609375000,-9.724892,-2.310703,1.35519,0.91375,0.33272,0.33086
1700499609382812,-9.723892,-2.353703,1.34519,0.102175,0.36872,0.42286
1700499609390625,-9.737892,-2.367703,1.39519,0.95975,0.25472,0.45586
1700499609398437,-9.744892,-2.373703,1.64519,0.95975,0.20372,0.45686
1700499609406250,-9.730892,-2.391703,1.75519,0.86975,0.25872,0.51986
1700499609414062,-9.714892,-2.439703,1.84519,0.100575,0.25672,0.50186
1700499609421875,-9.686892,-2.479703,1.84519,0.91175,0.20372,0.37686
1700499609429687,-9.636892,-2.482703,1.55519,0.88075,0.15172,0.34786
1700499609437500,-9.589892,-2.462703,1.85519,0.72675,0.5072,0.27286
1700499609445312,-9.605892,-2.481703,1.50519,0.80075,0.8328,0.25586
1700499609453125,-9.665892,-2.516703,0.984519,0.78275,0.23628,0.16486
1700499609460937,-9.711892,-2.531703,0.936519,0.59875,0.31528,0.18186
1700499609468750,-9.759892,-2.503703,0.911519,0.36975,0.34628,0.15386
1700499609476562,-9.793892,-2.469703,0.888519,0.30975,0.39528,0.18786
1700499609484375,-9.813892,-2.476703,0.845519,0.21975,0.33628,0.31186
1700499609492187,-9.815892,-2.500703,0.781519,0.22275,0.40128,0.42486
1700499609500000,-9.813892,-2.531703,0.711519,0.17575,0.38128,0.43886
1700499609507812,-9.865892,-2.507703,0.654519,0.6525,0.42628,0.50686
1700499609515625,-9.917892,-2.469703,0.654519,0.32425,0.45328,0.54086
1700499609523437,-9.958892,-2.439703,0.686519,0.33925,0.45528,0.52686
1700499609531250,-9.979892,-2.473703,0.665519,0.21825,0.40028,0.58386
1700499609539062,-9.973892,-2.550703,0.597519,0.6225,0.30428,0.64686
1700499609546875,-9.997892,-2.616703,0.513519,0.10625,0.18728,0.66186
1700499609554687,-10.6892,-2.616703,0.493519,0.35225,0.21528,0.61486
1700499609562500,-9.990892,-2.592703,0.545519,0.51925,0.19528,0.59986
1700499609570312,-9.965892,-2.576703,0.584519,0.42725,0.5128,0.55186
1700499609578125,-9.956892,-2.597703,0.577519,0.39725,0.3428,0.51886
1700499609585937,-9.929892,-2.635703,0.543519,0.33525,0.16772,0.52886
1700499609593750,-9.924892,-2.631703,0.545519,0.50325,0.18972,0.52786
1700499609601562,-9.925892,-2.577703,0.609519,0.70125,0.17472,0.51586
1700499609609375,-9.875892,-2.540703,0.675519,0.65425,0.27472,0.52986
1700499609617187,-9.798892,-2.545703,0.691519,0.44125,0.29972,0.46586
1700499609625000,-9.773892,-2.590703,0.632519,0.30525,0.31472,0.43086
1700499609632812,-9.820892,-2.603703,0.570519,0.38325,0.24272,0.32386
1700499609640625,-9.862892,-2.538703,0.602519,0.70525,0.23172,0.26286
1700499609648437,-9.863892,-2.445703,0.738519,0.75325,0.13172,0.21586
1700499609656250,-9.807892,-2.411703,0.815519,0.43425,0.27572,0.16286
1700499609664062,-9.727892,-2.488703,0.754519,0.8225,0.40372,0.17286
1700499609671875,-9.691892,-2.594703,0.625519,0.1075,0.43072,0.15986
1700499609679687,-9.703892,-2.592703,0.590519,0.16025,0.30072,0.8086
1700499609687500,-9.703892,-2.534703,0.670519,0.32725,0.16972,0.13486
1700499609695312,-9.709892,-2.449703,0.786519,0.34225,0.15372,0.15086
1700499609703125,-9.703892,-2.411703,0.807519,0.11225,0.31772,0.17686
1700499609710937,-9.668892,-2.459703,0.770519,0.17575,0.37672,0.7786
1700499609718750,-9.667892,-2.503703,0.702519,0.34375,0.33672,0.4886
1700499609726562,-9.713892,-2.497703,0.673519,0.29675,0.26672,0.486
1700499609734375,-9.777892,-2.419703,0.745519,0.14375,0.23872,0.2086
1700499609742187,-9.794892,-2.368703,0.823519,0.26575,0.33272,0.7614
1700499609750000,-9.778892,-2.382703,0.831519,0.55475,0.43072,0.6714
1700499609757812,-9.757892,-2.420703,0.790519,0.79875,0.49372,0.5514
1700499609765625,-9.714892,-2.439703,0.761519,0.72175,0.51272,0.7114
1700499609773437,-9.696892,-2.436703,0.781519,0.75275,0.50872,0.10114
1700499609781250,-9.746892,-2.445703,0.779519,0.84275,0.46072,0.7214
1700499609789062,-9.779892,-2.491703,0.761519,0.89175,0.47472,0.2214
1700499609796875,-9.790892,-2.500703,0.756519,0.87575,0.47872,0.686
1700499609804687,-9.840892,-2.479703,0.743519,0.89375,0.56372,0.8586
1700499609812500,-9.894892,-2.503703,0.738519,0.87875,0.56472,0.10086
1700499609820312,-9.916892,-2.553703,0.755519,0.89475,0.62672,0.3886
1700499609828125,-9.911892,-2.591703,0.780519,0.84975,0.64672,0.10186
1700499609835937,-9.890892,-2.629703,0.780519,0.66775,0.77172,0.16286
1700499609843750,-9.894892,-2.654703,0.782519,0.66775,0.73972,0.17886
1700499609851562,-9.880892,-2.674703,0.809519,0.60775,0.75572,0.17986
1700499609859375,-9.871892,-2.684703,0.825519,0.45475,0.74672,0.20986
1700499609867187,-9.917892,-2.645703,0.869519,0.24175,0.78072,0.18186
1700499609875000,-9.874892,-2.628703,0.928519,0.14975,0.78372,0.16586
1700499609882812,-9.797892,-2.659703,0.966519,0.23875,0.79672,0.6786
1700499609890625,-9.753892,-2.728703,0.910519,0.32875,0.75672,0.914
1700499609898437,-9.759892,-2.794703,0.814519,0.29775,0.72172,0.5514
1700499609906250,-9.775892,-2.798703,0.794519,0.8425,0.62772,0.6614
1700499609914062,-9.809892,-2.738703,0.828519,0.34525,0.52972,0.14114
1700499609921875,-9.819892,-2.684703,0.873519,0.37725,0.44372,0.20114
1700499609929687,-9.813892,-2.644703,0.869519,0.36025,0.62472,0.25114
1700499609937500,-9.811892,-2.590703,0.843519,0.46725,0.61172,0.23414
1700499609945312,-9.820892,-2.570703,0.823519,0.48425,0.62572,0.31314
1700499609953125,-9.851892,-2.519703,0.829519,0.57625,0.64472,0.34614
1700499609960937,-9.802892,-2.455703,0.895519,0.69825,0.58072,0.32814
1700499609968750,-9.748892,-2.369703,0.934519,0.57925,0.58772,0.48614
1700499609976562,-9.728892,-2.342703,0.911519,0.35025,0.53072,0.50114
1700499609984375,-9.744892,-2.339703,0.861519,0.27425,0.49572,0.50114
1700499609992187,-9.778892,-2.305703,0.863519,0.27425,0.49572,0.48414
1700499610000000,-9.784892,-2.232703,0.913519,0.32025,0.48072,0.50114
1700499610007812,-9.780892,-2.176703,0.963519,0.16725,0.46072,0.46914
1700499610015625,-9.758892,-2.165703,0.966519,0.12375,0.62272,0.45814
1700499610023437,-9.721892,-2.188703,0.943519,0.35375,0.64072,0.35114
1700499610031250,-9.707892,-2.209703,0.929519,0.52175,0.63772,0.33714
1700499610039062,-9.717892,-2.182703,0.936519,0.49075,0.63872,0.33714
1700499610046875,-9.697892,-2.158703,0.993519,0.52275,0.64072,0.27514
1700499610054687,-9.624892,-2.156703,1.36519,0.75275,0.68572,0.24414
1700499610062500,-9.599892,-2.175703,1.6519,0.101175,0.68472,0.20114
1700499610070312,-9.599892,-2.224703,0.988519,0.113375,0.63172,0.18514
1700499610078125,-9.630892,-2.256703,0.993519,0.113275,0.61872,0.15514
1700499610085937,-9.671892,-2.261703,1.9519,0.110575,0.63572,0.7314
1700499610093750,-9.700892,-2.250703,1.50519,0.108975,0.62372,0.1214
1700499610101562,-9.714892,-2.274703,1.57519,0.125975,0.73772,0.1686
1700499610109375,-9.771892,-2.337703,1.7519,0.145975,0.78572,0.9486
1700499610117187,-9.844892,-2.404703,0.968519,0.138275,0.77672,0.15486
1700499610125000,-9.866892,-2.412703,1.519,0.114175,0.66772,0.28586
1700499610132812,-9.825892,-2.424703,1.68519,0.114275,0.63572,0.36686
1700499610140625,-9.774892,-2.471703,1.89519,0.113075,0.68672,0.44686
1700499610148437,-9.748892,-2.565703,1.46519,0.129775,0.75472,0.47286
1700499610156250,-9.786892,-2.645703,0.989519,0.120675,0.67272,0.50786
1700499610164062,-9.826892,-2.651703,0.982519,0.85475,0.49472,0.49786
1700499610171875,-9.874892,-2.617703,1.55519,0.65675,0.48272,0.51586
1700499610179687,-9.884892,-2.599703,1.114519,0.65675,0.43172,0.49986
1700499610187500,-9.843892,-2.604703,1.133519,0.64175,0.51672,0.51386
1700499610195312,-9.760892,-2.654703,1.124519,0.68775,0.53172,0.49886
1700499610203125,-9.689892,-2.733703,1.67519,0.76375,0.49672,0.51486
1700499610210937,-9.673892,-2.785703,1.3519,0.65475,0.31372,0.47086
1700499610218750,-9.700892,-2.793703,0.996519,0.33175,0.7972,0.36886
1700499610226562,-9.714892,-2.737703,1.42519,0.8675,0.4672,0.26186
1700499610234375,-9.726892,-2.669703,1.54519,0.3975,0.2628,0.15586
1700499610242187,-9.706892,-2.650703,1.42519,0.15975,0.7072,0.5586
1700499610250000,-9.676892,-2.673703,0.978519,0.14175,0.0,0.5314
1700499610257812,-9.667892,-2.663703,0.887519,0.12675,0.5428,0.9614
1700499610265625,-9.715892,-2.635703,0.821519,0.7425,0.10528,0.22014
1700499610273437,-9.773892,-2.591703,0.802519,0.10725,0.27028,0.21914
1700499610281250,-9.810892,-2.535703,0.816519,0.30425,0.13228,0.23614
1700499610289062,-9.842892,-2.491703,0.775519,0.34825,0.3128,0.22114
1700499610296875,-9.831892,-2.445703,0.752519,0.33425,0.1228,0.20714
1700499610304687,-9.840892,-2.404703,0.757519,0.34625,0.3772,0.14214
1700499610312500,-9.855892,-2.360703,0.772519,0.37725,0.9072,0.12914
1700499610320312,-9.824892,-2.316703,0.836519,0.26925,0.17572,0.8514
1700499610328125,-9.817892,-2.294703,0.875519,0.11625,0.27372,0.7314
1700499610335937,-9.824892,-2.291703,0.866519,0.5525,0.25372,0.8714
1700499610343750,-9.749892,-2.285703,0.920519,0.825,0.41972,0.12214
1700499610351562,-9.697892,-2.275703,0.952519,0.9975,0.43572,0.6014
1700499610359375,-9.693892,-2.275703,0.973519,0.17575,0.31972,0.1114
1700499610367187,-9.665892,-2.329703,0.973519,0.34275,0.21572,0.2086
1700499610375000,-9.689892,-2.380703,0.934519,0.43375,0.7772,0.886
1700499610382812,-9.693892,-2.431703,0.928519,0.40575,0.8072,0.10386
1700499610390625,-9.724892,-2.464703,0.909519,0.40575,0.6528,0.18486
1700499610398437,-9.776892,-2.472703,0.884519,0.39075,0.4728,0.21586
1700499610406250,-9.815892,-2.465703,0.878519,0.37675,0.9628,0.28086
1700499610414062,-9.842892,-2.519703,0.864519,0.40575,0.17528,0.30986
1700499610421875,-9.861892,-2.597703,0.804519,0.39175,0.8728,0.40186
1700499610429687,-9.892892,-2.661703,0.732519,0.39275,0.0,0.44586
1700499610437500,-9.930892,-2.687703,0.679519,0.16375,0.4628,0.43386
1700499610445312,-9.976892,-2.675703,0.661519,0.7925,0.2628,0.43586
1700499610453125,-9.994892,-2.675703,0.695519,0.17025,0.5728,0.45386
1700499610460937,-9.957892,-2.730703,0.682519,0.20225,0.12772,0.36886
1700499610468750,-9.933892,-2.798703,0.600519,0.24625,0.30972,0.33686
1700499610476562,-9.871892,-2.866703,0.543519,0.44625,0.31272,0.27286
1700499610484375,-9.851892,-2.867703,0.509519,0.73525,0.41372,0.19686
1700499610492187,-9.937892,-2.829703,0.495519,0.98125,0.35172,0.15186
1700499610500000,-9.972892,-2.746703,0.559519,0.128625,0.45672,0.10386
1700499610507812,-9.903892,-2.660703,0.668519,0.133125,0.47872,0.18186
1700499610515625,-9.809892,-2.606703,0.711519,0.130125,0.66172,0.9786
1700499610523437,-9.725892,-2.585703,0.691519,0.110325,0.66972,0.1886
1700499610531250,-9.694892,-2.583703,0.681519,0.104425,0.61772,0.2914
1700499610539062,-9.769892,-2.529703,0.699519,0.128925,0.55672,0.1114
1700499610546875,-9.802892,-2.435703,0.793519,0.124325,0.48972,0.2186
1700499610554687,-9.778892,-2.348703,0.888519,0.105825,0.58272,0.1014
1700499610562500,-9.781892,-2.333703,0.881519,0.76825,0.68072,0.4686
1700499610570312,-9.830892,-2.357703,0.822519,0.41825,0.67172,0.1814
1700499610578125,-9.825892,-2.365703,0.829519,0.34225,0.66572,0.6314
1700499610585937,-9.807892,-2.375703,0.884519,0.29325,0.73272,0.3186
1700499610593750,-9.820892,-2.403703,0.896519,0.8125,0.74472,0.214
1700499610601562,-9.820892,-2.450703,0.889519,0.3525,0.79772,0.986
1700499610609375,-9.799892,-2.459703,0.893519,0.5675,0.84872,0.6986
1700499610617187,-9.752892,-2.456703,0.913519,0.3975,0.83172,0.2186
1700499610625000,-9.770892,-2.437703,0.925519,0.5775,0.83172,0.8686
1700499610632812,-9.795892,-2.441703,0.953519,0.16475,0.79372,0.8886
1700499610640625,-9.779892,-2.413703,1.30519,0.16375,0.77772,0.5686
1700499610648437,-9.805892,-2.402703,1.39519,0.29975,0.81072,0.5286
1700499610656250,-9.787892,-2.420703,1.64519,0.55875,0.93772,0.1514
1700499610664062,-9.774892,-2.471703,1.62519,0.66575,0.106472,0.7914
1700499610671875,-9.767892,-2.501703,1.46519,0.63275,0.104772,0.15914
1700499610679687,-9.774892,-2.507703,1.62519,0.63175,0.106172,0.23814
1700499610687500,-9.777892,-2.481703,1.98519,0.59975,0.101472,0.22414
1700499610695312,-9.779892,-2.472703,1.146519,0.61675,0.106072,0.25314
1700499610703125,-9.766892,-2.443703,1.184519,0.63075,0.114572,0.27214
1700499610710937,-9.734892,-2.412703,1.219519,0.61575,0.107372,0.34714
1700499610718750,-9.714892,-2.401703,1.217519,0.67675,0.101972,0.36114
1700499610726562,-9.678892,-2.386703,1.255519,0.61575,0.104072,0.31514
1700499610734375,-9.674892,-2.370703,1.262519,0.76775,0.95372,0.29814
1700499610742187,-9.701892,-2.368703,1.253519,0.84275,0.93372,0.34614
1700499610750000,-9.674892,-2.384703,1.259519,0.76675,0.92072,0.33114
1700499610757812,-9.671892,-2.392703,1.237519,0.88975,0.91372,0.34314
1700499610765625,-9.707892,-2.413703,1.184519,0.87175,0.81672,0.36114
1700499610773437,-9.734892,-2.425703,1.162519,0.79675,0.71872,0.31014
1700499610781250,-9.741892,-2.412703,1.180519,0.62975,0.73772,0.30814
1700499610789062,-9.721892,-2.385703,1.182519,0.64475,0.72172,0.29314
1700499610796875,-9.741892,-2.367703,1.178519,0.63075,0.67072,0.25814
1700499610804687,-9.756892,-2.363703,1.159519,0.65775,0.72172,0.34214
1700499610812500,-9.755892,-2.338703,1.180519,0.53975,0.77372,0.26014
1700499610820312,-9.747892,-2.300703,1.207519,0.52275,0.69072,0.27614
1700499610828125,-9.740892,-2.305703,1.221519,0.72375,0.65872,0.10214
1700499610835937,-9.740892,-2.336703,1.200519,0.64775,0.76272,0.12114
1700499610843750,-9.746892,-2.349703,1.205519,0.64875,0.79572,0.8914
1700499610851562,-9.742892,-2.319703,1.251519,0.65075,0.71172,0.614
1700499610859375,-9.729892,-2.292703,1.307519,0.63475,0.63372,0.5586
1700499610867187,-9.693892,-2.286703,1.367519,0.69575,0.64772,0.2386
1700499610875000,-9.667892,-2.321703,1.351519,0.94075,0.65772,0.2286
1700499610882812,-9.676892,-2.359703,1.294519,0.98575,0.61172,0.10086
1700499610890625,-9.685892,-2.377703,1.287519,0.100075,0.50972,0.8686
1700499610898437,-9.628892,-2.387703,1.321519,0.89375,0.49572,0.10486
1700499610906250,-9.569892,-2.405703,1.339519,0.101575,0.39472,0.15186
1700499610914062,-9.568892,-2.468703,1.280519,0.112175,0.32172,0.9086
1700499610921875,-9.608892,-2.525703,1.194519,0.112075,0.25172,0.2986
1700499610929687,-9.692892,-2.528703,1.153519,0.85975,0.8872,0.1886
1700499610937500,-9.722892,-2.494703,1.187519,0.64575,0.9328,0.986
1700499610945312,-9.735892,-2.485703,1.215519,0.63175,0.4128,0.5686
1700499610953125,-9.755892,-2.520703,1.144519,0.75475,0.2528,0.10186
1700499610960937,-9.777892,-2.554703,1.47519,0.67975,0.772,0.12086
1700499610968750,-9.782892,-2.559703,1.5519,0.54275,0.6828,0.19986
1700499610976562,-9.755892,-2.538703,1.21519,0.20675,0.10628,0.26286
1700499610984375,-9.799892,-2.495703,1.30519,0.14675,0.7228,0.27986
1700499610992187,-9.849892,-2.464703,1.29519,0.17575,0.6928,0.27586
1700499611000000,-9.870892,-2.457703,1.25519,0.25475,0.9928,0.41886
1700499611007812,-9.835892,-2.486703,1.32519,0.33275,0.1472,0.43286
1700499611015625,-9.782892,-2.554703,1.14519,0.56175,0.6272,0.47686
1700499611023437,-9.719892,-2.656703,0.955519,0.51775,0.15972,0.41486
1700499611031250,-9.742892,-2.694703,0.903519,0.36375,0.12872,0.38486
1700499611039062,-9.794892,-2.642703,0.923519,0.325,0.10072,0.32486
1700499611046875,-9.793892,-2.570703,1.28519,0.11025,0.6572,0.26486
1700499611054687,-9.741892,-2.542703,1.106519,0.1275,0.9672,0.29586
1700499611062500,-9.707892,-2.588703,1.96519,0.29975,0.17872,0.27186
1700499611070312,-9.702892,-2.627703,1.35519,0.34675,0.7272,0.26086
1700499611078125,-9.724892,-2.629703,1.24519,0.16375,0.2428,0.28086
1700499611085937,-9.773892,-2.596703,1.67519,0.15975,0.19028,0.23386
1700499611093750,-9.805892,-2.574703,1.132519,0.14375,0.15728,0.16886
1700499611101562,-9.816892,-2.575703,1.142519,0.20675,0.4328,0.18386
1700499611109375,-9.802892,-2.620703,1.87519,0.40475,0.6128,0.22886
1700499611117187,-9.772892,-2.667703,1.19519,0.46375,0.8628,0.8886
1700499611125000,-9.776892,-2.678703,0.985519,0.40275,0.10328,0.5886
1700499611132812,-9.771892,-2.680703,0.994519,0.32475,0.15328,0.414
1700499611140625,-9.785892,-2.669703,0.994519,0.15575,0.13428,0.5014
1700499611148437,-9.809892,-2.634703,0.989519,0.12375,0.3028,0.8714
1700499611156250,-9.780892,-2.589703,1.519,0.9375,0.328,0.17914
1700499611164062,-9.752892,-2.587703,0.996519,0.15475,0.1172,0.19514
1700499611171875,-9.727892,-2.585703,0.982519,0.15375,0.972,0.24214
1700499611179687,-9.735892,-2.538703,0.957519,0.6075,0.4128,0.30314
1700499611187500,-9.734892,-2.475703,0.988519,0.7925,0.5228,0.33714
1700499611195312,-9.748892,-2.407703,1.2519,0.3425,0.10828,0.41414
1700499611203125,-9.776892,-2.382703,1.7519,0.11675,0.13128,0.49314
1700499611210937,-9.760892,-2.371703,0.989519,0.21075,0.1828,0.47714
1700499611218750,-9.774892,-2.392703,0.963519,0.32975,0.4928,0.48314
1700499611226562,-9.816892,-2.409703,0.922519,0.26975,0.1728,0.49614
1700499611234375,-9.805892,-2.399703,0.923519,0.16475,0.5172,0.46414
1700499611242187,-9.803892,-2.366703,0.941519,0.13675,0.4372,0.29214
1700499611250000,-9.810892,-2.379703,0.954519,0.15375,0.1272,0.19614
1700499611257812,-9.829892,-2.457703,0.911519,0.35375,0.12872,0.13714
1700499611265625,-9.824892,-2.526703,0.870519,0.26475,0.16972,0.386
1700499611273437,-9.819892,-2.504703,0.879519,0.825,0.21172,0.8386
1700499611281250,-9.858892,-2.470703,0.900519,0.10025,0.11272,0.7086
1700499611289062,-9.833892,-2.475703,0.930519,0.8325,0.23172,0.13186
1700499611296875,-9.794892,-2.502703,0.966519,0.3725,0.26172,0.10086
1700499611304687,-9.744892,-2.536703,0.946519,0.3725,0.39672,0.8086
1700499611312500,-9.717892,-2.541703,0.923519,0.8525,0.32872,0.286
1700499611320312,-9.737892,-2.520703,0.932519,0.13025,0.24272,0.814
1700499611328125,-9.749892,-2.485703,0.964519,0.33025,0.16272,0.3814
1700499611335937,-9.780892,-2.418703,1.16519,0.31625,0.14472,0.8614
1700499611343750,-9.776892,-2.385703,1.32519,0.21125,0.17572,0.13614
1700499611351562,-9.800892,-2.390703,1.9519,0.8625,0.18872,0.8714
1700499611359375,-9.816892,-2.436703,0.957519,0.10425,0.22372,0.13814
1700499611367187,-9.820892,-2.462703,0.950519,0.8825,0.29172,0.12414
1700499611375000,-9.825892,-2.431703,0.970519,0.8725,0.26072,0.4414
1700499611382812,-9.848892,-2.384703,0.993519,0.13225,0.27972,0.1314
1700499611390625,-9.852892,-2.376703,1.41519,0.17525,0.43072,0.1886
1700499611398437,-9.837892,-2.395703,1.70519,0.825,0.38072,0.4686
1700499611406250,-9.821892,-2.409703,1.73519,0.5375,0.47972,0.6086
1700499611414062,-9.771892,-2.387703,1.107519,0.3825,0.51572,0.4486
1700499611421875,-9.726892,-2.366703,1.143519,0.9775,0.47872,0.1186
1700499611429687,-9.688892,-2.364703,1.175519,0.17375,0.32272,0.1514
1700499611437500,-9.685892,-2.386703,1.159519,0.37275,0.33572,0.0
1700499611445312,-9.735892,-2.389703,1.114519,0.37275,0.21772,0.1886
1700499611453125,-9.730892,-2.376703,1.130519,0.38675,0.23072,0.6014
1700499611460937,-9.698892,-2.363703,1.176519,0.56975,0.15772,0.5814
1700499611468750,-9.687892,-2.399703,1.146519,0.62975,0.5972,0.2714
1700499611476562,-9.697892,-2.479703,1.71519,0.81075,0.5172,0.12214
1700499611484375,-9.706892,-2.546703,1.7519,0.78075,0.472,0.7414
1700499611492187,-9.703892,-2.555703,0.989519,0.61175,0.9272,0.12514
1700499611500000,-9.708892,-2.514703,1.5519,0.41575,0.4128,0.8514
1700499611507812,-9.729892,-2.486703,1.9519,0.38475,0.1728,0.914
1700499611515625,-9.763892,-2.491703,0.984519,0.40075,0.2028,0.3914
1700499611523437,-9.778892,-2.524703,0.959519,0.38675,0.5228,0.2486
1700499611531250,-9.810892,-2.526703,0.939519,0.21875,0.3328,0.614
1700499611539062,-9.815892,-2.499703,0.925519,0.15875,0.3972,0.8686
1700499611546875,-9.804892,-2.491703,0.959519,0.14475,0.12772,0.13086
1700499611554687,-9.813892,-2.512703,0.934519,0.21975,0.528,0.16286
1700499611562500,-9.810892,-2.529703,0.920519,0.34175,0.4072,0.12986
1700499611570312,-9.828892,-2.531703,0.905519,0.14575,0.7872,0.19586
1700499611578125,-9.865892,-2.511703,0.916519,0.12875,0.9672,0.16186
1700499611585937,-9.858892,-2.490703,0.939519,0.8175,0.5872,0.6986
1700499611593750,-9.873892,-2.484703,0.957519,0.20675,0.15272,0.5586
1700499611601562,-9.871892,-2.480703,0.953519,0.26775,0.28472,0.2086
1700499611609375,-9.833892,-2.475703,0.950519,0.30875,0.24772,0.12414
1700499611617187,-9.811892,-2.471703,0.957519,0.39975,0.22872,0.14014
1700499611625000,-9.815892,-2.460703,0.954519,0.38375,0.26072,0.20414
1700499611632812,-9.813892,-2.444703,0.961519,0.36775,0.20572,0.26414
1700499611640625,-9.816892,-2.398703,1.7519,0.38075,0.20672,0.31414
1700499611648437,-9.792892,-2.379703,1.38519,0.41075,0.29072,0.33314
1700499611656250,-9.751892,-2.370703,1.54519,0.50375,0.35372,0.34814
1700499611664062,-9.715892,-2.390703,1.50519,0.58075,0.37272,0.27114
1700499611671875,-9.689892,-2.426703,1.20519,0.64075,0.21972,0.28514
1700499611679687,-9.727892,-2.445703,0.998519,0.61175,0.23872,0.20514
1700499611687500,-9.743892,-2.411703,1.7519,0.41475,0.17572,0.16914
1700499611695312,-9.708892,-2.381703,1.75519,0.46075,0.19572,0.10914
1700499611703125,-9.703892,-2.392703,1.64519,0.64175,0.13672,0.21914
1700499611710937,-9.716892,-2.426703,1.13519,0.62775,0.20872,0.12614
1700499611718750,-9.709892,-2.437703,1.7519,0.64275,0.17172,0.17214
1700499611726562,-9.709892,-2.410703,1.519,0.59775,0.15472,0.17014
1700499611734375,-9.757892,-2.400703,0.998519,0.59675,0.5272,0.20014
1700499611742187,-9.834892,-2.426703,0.971519,0.58175,0.3672,0.16714
1700499611750000,-9.859892,-2.396703,0.966519,0.42775,0.1128,0.21314
1700499611757812,-9.819892,-2.359703,1.18519,0.38475,0.14572,0.12214
1700499611765625,-9.787892,-2.352703,1.7519,0.56875,0.17372,0.9014
1700499611773437,-9.822892,-2.426703,0.952519,0.65975,0.17072,0.13914
1700499611781250,-9.867892,-2.472703,0.923519,0.57075,0.20972,0.2814
1700499611789062,-9.891892,-2.425703,0.975519,0.21875,0.8572,0.1014
1700499611796875,-9.857892,-2.383703,1.80519,0.22075,0.25472,0.3486
1700499611804687,-9.798892,-2.393703,1.114519,0.41975,0.27072,0.9486
1700499611812500,-9.759892,-2.456703,1.89519,0.60375,0.36672,0.9386
1700499611820312,-9.735892,-2.544703,1.43519,0.64875,0.23572,0.17286
1700499611828125,-9.741892,-2.583703,1.17519,0.58775,0.8072,0.11586
1700499611835937,-9.732892,-2.554703,1.58519,0.27975,0.1572,0.886
1700499611843750,-9.749892,-2.484703,1.114519,0.12575,0.5228,0.8214
1700499611851562,-9.741892,-2.436703,1.123519,0.23075,0.7428,0.17714
1700499611859375,-9.706892,-2.440703,1.119519,0.51975,0.6672,0.27614
1700499611867187,-9.683892,-2.497703,1.39519,0.60875,0.3072,0.34114
1700499611875000,-9.701892,-2.507703,0.951519,0.60875,0.7728,0.43014
1700499611882812,-9.724892,-2.446703,0.955519,0.27075,0.20628,0.48814
1700499611890625,-9.805892,-2.341703,0.982519,0.13375,0.30328,0.47014
1700499611898437,-9.833892,-2.279703,1.41519,0.17775,0.23528,0.49014
1700499611906250,-9.775892,-2.262703,1.50519,0.40875,0.10228,0.40014
1700499611914062,-9.693892,-2.290703,1.22519,0.56175,0.2128,0.41914
1700499611921875,-9.641892,-2.312703,0.950519,0.60775,0.528,0.40314
1700499611929687,-9.627892,-2.277703,0.954519,0.40975,0.13428,0.36714
1700499611937500,-9.651892,-2.242703,0.999519,0.37575,0.35128,0.39614
1700499611945312,-9.704892,-2.248703,1.30519,0.50175,0.34028,0.32914
1700499611953125,-9.711892,-2.276703,0.984519,0.65275,0.37228,0.31714
1700499611960937,-9.706892,-2.329703,0.902519,0.62375,0.27128,0.28714
1700499611968750,-9.737892,-2.355703,0.832519,0.60975,0.25428,0.27014
1700499611976562,-9.787892,-2.357703,0.806519,0.37975,0.45028,0.25014
1700499611984375,-9.852892,-2.357703,0.802519,0.21275,0.56628,0.22714
1700499611992187,-9.887892,-2.331703,0.820519,0.16775,0.50528,0.10714
1700499612000000,-9.880892,-2.320703,0.838519,0.14075,0.36628,0.3386
1700499612007812,-9.878892,-2.367703,0.783519,0.32375,0.31628,0.7586
1700499612015625,-9.885892,-2.474703,0.718519,0.32575,0.38028,0.18886
1700499612023437,-9.894892,-2.527703,0.686519,0.2275,0.32028,0.28486
1700499612031250,-9.937892,-2.493703,0.700519,0.19025,0.29928,0.28586
1700499612039062,-9.940892,-2.430703,0.732519,0.34225,0.21328,0.26986
1700499612046875,-9.879892,-2.402703,0.784519,0.32625,0.9328,0.29786
1700499612054687,-9.850892,-2.418703,0.779519,0.30925,0.2528,0.35986
1700499612062500,-9.869892,-2.459703,0.720519,0.10925,0.1428,0.37586
1700499612070312,-9.881892,-2.491703,0.691519,0.20325,0.9528,0.32886
1700499612078125,-9.937892,-2.465703,0.730519,0.34025,0.14728,0.28586
1700499612085937,-9.951892,-2.427703,0.780519,0.32425,0.16428,0.31886
1700499612093750,-9.899892,-2.423703,0.816519,0.33925,0.9728,0.31786
1700499612101562,-9.858892,-2.462703,0.796519,0.15725,0.3428,0.26686
1700499612109375,-9.831892,-2.470703,0.741519,0.6825,0.13628,0.21886
1700499612117187,-9.792892,-2.472703,0.734519,0.12925,0.10128,0.21886
1700499612125000,-9.758892,-2.441703,0.755519,0.31325,0.25728,0.8386
1700499612132812,-9.778892,-2.406703,0.740519,0.20925,0.20728,0.1586
1700499612140625,-9.811892,-2.403703,0.718519,0.8825,0.31228,0.186
1700499612148437,-9.794892,-2.404703,0.692519,0.9125,0.23228,0.14214
1700499612156250,-9.773892,-2.408703,0.684519,0.9125,0.22228,0.25114
1700499612164062,-9.775892,-2.402703,0.640519,0.1625,0.18728,0.25414
1700499612171875,-9.776892,-2.388703,0.606519,0.2875,0.18828,0.27114
1700499612179687,-9.828892,-2.347703,0.602519,0.6125,0.29028,0.24914
1700499612187500,-9.886892,-2.282703,0.631519,0.12425,0.27228,0.31414
1700499612195312,-9.864892,-2.252703,0.676519,0.225,0.28728,0.23814
1700499612203125,-9.850892,-2.263703,0.662519,0.28875,0.24228,0.20814
1700499612210937,-9.856892,-2.307703,0.597519,0.38175,0.31128,0.15914
1700499612218750,-9.878892,-2.337703,0.560519,0.38375,0.25828,0.8114
1700499612226562,-9.930892,-2.323703,0.581519,0.23175,0.13628,0.6614
1700499612234375,-9.936892,-2.295703,0.617519,0.27575,0.11828,0.8614
1700499612242187,-9.906892,-2.311703,0.642519,0.36875,0.12228,0.8514
1700499612250000,-9.885892,-2.369703,0.622519,0.56775,0.7572,0.7514
1700499612257812,-9.879892,-2.433703,0.570519,0.58275,0.12472,0.10714
1700499612265625,-9.895892,-2.444703,0.561519,0.33975,0.4772,0.5614
1700499612273437,-9.900892,-2.402703,0.615519,0.18575,0.8072,0.13414
1700499612281250,-9.889892,-2.362703,0.674519,0.15675,0.14672,0.15014
1700499612289062,-9.876892,-2.349703,0.702519,0.14175,0.23372,0.12214
1700499612296875,-9.828892,-2.357703,0.715519,0.21775,0.27072,0.7914
1700499612304687,-9.787892,-2.375703,0.715519,0.18775,0.23772,0.2914
1700499612312500,-9.769892,-2.361703,0.706519,0.12675,0.25272,0.7514
1700499612320312,-9.729892,-2.308703,0.743519,0.3675,0.17472,0.3786
1700499612328125,-9.707892,-2.254703,0.788519,0.6675,0.22472,0.1214
1700499612335937,-9.705892,-2.225703,0.819519,0.17275,0.17372,0.1886
1700499612343750,-9.680892,-2.260703,0.804519,0.37275,0.13672,0.8286
1700499612351562,-9.699892,-2.370703,0.742519,0.61475,0.13272,0.3086
1700499612359375,-9.746892,-2.456703,0.640519,0.55275,0.3528,0.3586
1700499612367187,-9.809892,-2.480703,0.597519,0.35575,0.1128,0.9986
1700499612375000,-9.848892,-2.446703,0.610519,0.9675,0.4128,0.8686
1700499612382812,-9.850892,-2.420703,0.640519,0.9875,0.7428,0.15286
1700499612390625,-9.839892,-2.455703,0.603519,0.14275,0.7128,0.16486
1700499612398437,-9.845892,-2.499703,0.547519,0.14275,0.5828,0.11886
1700499612406250,-9.904892,-2.496703,0.497519,0.4025,0.3828,0.10386
1700499612414062,-9.956892,-2.467703,0.511519,0.13025,0.972,0.5886
1700499612421875,-10.4892,-2.426703,0.565519,0.27025,0.3128,0.8786
1700499612429687,-10.11892,-2.407703,0.608519,0.34225,0.22072,0.13286
1700499612437500,-9.966892,-2.394703,0.629519,0.15725,0.40272,0.15986
1700499612445312,-9.929892,-2.440703,0.604519,0.8225,0.43772,0.17186
1700499612453125,-9.893892,-2.481703,0.572519,0.20425,0.42372,0.15686
1700499612460937,-9.875892,-2.459703,0.599519,0.37325,0.47672,0.10886
1700499612468750,-9.862892,-2.403703,0.656519,0.55425,0.51172,0.12786
1700499612476562,-9.842892,-2.365703,0.729519,0.40325,0.42272,0.9786
1700499612484375,-9.832892,-2.376703,0.727519,0.24825,0.50572,0.17386
1700499612492187,-9.821892,-2.419703,0.702519,0.14325,0.45372,0.14186
1700499612500000,-9.789892,-2.438703,0.703519,0.28325,0.40572,0.6186
1700499612507812,-9.761892,-2.431703,0.706519,0.34225,0.46972,0.4986
1700499612515625,-9.767892,-2.404703,0.706519,0.25325,0.31772,0.1886
1700499612523437,-9.762892,-2.389703,0.708519,0.33025,0.33372,0.4514
1700499612531250,-9.760892,-2.371703,0.720519,0.31625,0.29472,0.12114
1700499612539062,-9.781892,-2.378703,0.699519,0.14825,0.34372,0.12414
1700499612546875,-9.808892,-2.366703,0.692519,0.8825,0.39472,0.11114
1700499612554687,-9.818892,-2.337703,0.710519,0.19525,0.34572,0.12514
1700499612562500,-9.797892,-2.292703,0.736519,0.11625,0.35972,0.7614
1700499612570312,-9.780892,-2.256703,0.735519,0.7225,0.42972,0.8114
1700499612578125,-9.776892,-2.231703,0.717519,0.9675,0.49072,0.9714
1700499612585937,-9.835892,-2.219703,0.678519,0.23275,0.47372,0.8414
1700499612593750,-9.892892,-2.205703,0.703519,0.18675,0.43872,0.11414
1700499612601562,-9.840892,-2.183703,0.788519,0.15875,0.52272,0.8214
1700499612609375,-9.756892,-2.146703,0.845519,0.38875,0.65272,0.5414
1700499612617187,-9.695892,-2.172703,0.803519,0.64775,0.63772,0.3486
1700499612625000,-9.712892,-2.252703,0.735519,0.86175,0.53172,0.5286
1700499612632812,-9.777892,-2.299703,0.706519,0.81775,0.43472,0.16686
1700499612640625,-9.841892,-2.295703,0.742519,0.63375,0.32272,0.18486
1700499612648437,-9.888892,-2.272703,0.792519,0.66575,0.40572,0.19986
1700499612656250,-9.917892,-2.295703,0.824519,0.83475,0.52072,0.24486
1700499612664062,-9.878892,-2.369703,0.788519,0.98875,0.55072,0.29186
1700499612671875,-9.820892,-2.441703,0.759519,0.106575,0.65272,0.31886
1700499612679687,-9.804892,-2.514703,0.726519,0.109475,0.59072,0.34786
1700499612687500,-9.826892,-2.535703,0.706519,0.91175,0.55572,0.30586
1700499612695312,-9.882892,-2.557703,0.713519,0.69775,0.50972,0.27486
1700499612703125,-9.921892,-2.545703,0.754519,0.65075,0.47672,0.26086
1700499612710937,-9.912892,-2.555703,0.774519,0.63575,0.62672,0.20886
1700499612718750,-9.853892,-2.578703,0.781519,0.64975,0.67372,0.12986
1700499612726562,-9.798892,-2.626703,0.761519,0.64975,0.72572,0.12786
1700499612734375,-9.754892,-2.679703,0.729519,0.61775,0.73672,0.1886
1700499612742187,-9.765892,-2.678703,0.711519,0.41975,0.67172,0.814
1700499612750000,-9.814892,-2.613703,0.718519,0.6675,0.54172,0.8314
1700499612757812,-9.812892,-2.545703,0.774519,0.11625,0.56472,0.5114
1700499612765625,-9.838892,-2.481703,0.795519,0.8625,0.49272,0.11114
1700499612773437,-9.838892,-2.439703,0.786519,0.10125,0.57572,0.12814
1700499612781250,-9.787892,-2.436703,0.788519,0.4025,0.66072,0.13214
1700499612789062,-9.755892,-2.454703,0.754519,0.4025,0.56272,0.8414
1700499612796875,-9.750892,-2.471703,0.729519,0.7125,0.49172,0.12614
1700499612804687,-9.773892,-2.456703,0.724519,0.10125,0.46272,0.4814
1700499612812500,-9.818892,-2.403703,0.731519,0.17525,0.47972,0.3014
1700499612820312,-9.826892,-2.370703,0.754519,0.10025,0.48072,0.1714
1700499612828125,-9.771892,-2.395703,0.761519,0.9825,0.51272,0.1586
1700499612835937,-9.778892,-2.435703,0.695519,0.6925,0.51472,0.1286
1700499612843750,-9.839892,-2.411703,0.647519,0.17725,0.46672,0.3414
1700499612851562,-9.864892,-2.340703,0.708519,0.39125,0.49472,0.18714
1700499612859375,-9.841892,-2.274703,0.815519,0.42225,0.55072,0.12714
1700499612867187,-9.846892,-2.254703,0.831519,0.20625,0.64972,0.5214
1700499612875000,-9.823892,-2.268703,0.792519,0.6925,0.78172,0.8814
1700499612882812,-9.800892,-2.276703,0.783519,0.11425,0.71172,0.8314
1700499612890625,-9.823892,-2.259703,0.819519,0.5425,0.59672,0.3614
1700499612898437,-9.882892,-2.252703,0.878519,0.9925,0.61872,0.2586
1700499612906250,-9.918892,-2.238703,0.945519,0.5475,0.65172,0.11886
1700499612914062,-9.879892,-2.240703,0.997519,0.22575,0.79872,0.14786
1700499612921875,-9.864892,-2.261703,0.974519,0.49975,0.79672,0.19186
1700499612929687,-9.840892,-2.349703,0.940519,0.77375,0.77572,0.22086
1700499612937500,-9.821892,-2.424703,0.911519,0.71275,0.80772,0.17486
1700499612945312,-9.846892,-2.438703,0.924519,0.62075,0.76072,0.17486
1700499612953125,-9.847892,-2.448703,0.975519,0.65175,0.75672,0.14586
1700499612960937,-9.849892,-2.472703,0.962519,0.63575,0.73472,0.6986
1700499612968750,-9.853892,-2.519703,0.923519,0.74075,0.74872,0.1986
1700499612976562,-9.846892,-2.533703,0.907519,0.69375,0.69572,0.8914
1700499612984375,-9.812892,-2.531703,0.920519,0.61475,0.67572,0.21414
1700499612992187,-9.787892,-2.497703,0.923519,0.52275,0.68872,0.29014
1700499613000000,-9.833892,-2.464703,0.925519,0.44475,0.64072,0.33814
1700499613007812,-9.850892,-2.442703,0.932519,0.38275,0.69072,0.40214
1700499613015625,-9.846892,-2.415703,0.959519,0.39575,0.65372,0.49714
1700499613023437,-9.851892,-2.367703,0.961519,0.27275,0.75872,0.51614
1700499613031250,-9.828892,-2.337703,0.968519,0.28975,0.72172,0.49614
1700499613039062,-9.790892,-2.333703,0.977519,0.36675,0.73572,0.51214
1700499613046875,-9.787892,-2.351703,0.959519,0.39675,0.71972,0.49714
1700499613054687,-9.817892,-2.353703,0.936519,0.31875,0.63772,0.51114
1700499613062500,-9.819892,-2.340703,0.968519,0.19775,0.62572,0.46314
1700499613070312,-9.829892,-2.281703,0.993519,0.9375,0.64272,0.42814
1700499613078125,-9.800892,-2.228703,1.38519,0.9375,0.54572,0.36414
1700499613085937,-9.778892,-2.210703,1.54519,0.19875,0.55772,0.42814
1700499613093750,-9.778892,-2.231703,1.34519,0.29075,0.61072,0.36914
1700499613101562,-9.773892,-2.234703,1.45519,0.29075,0.59372,0.36914
1700499613109375,-9.780892,-2.211703,1.72519,0.22675,0.52272,0.50814
1700499613117187,-9.774892,-2.165703,1.106519,0.16675,0.49672,0.38414
1700499613125000,-9.750892,-2.136703,1.136519,0.30375,0.57172,0.49414
1700499613132812,-9.725892,-2.137703,1.129519,0.54675,0.45272,0.44814
1700499613140625,-9.760892,-2.175703,1.79519,0.65475,0.39672,0.42814
1700499613148437,-9.780892,-2.179703,1.59519,0.60975,0.38172,0.41214
1700499613156250,-9.778892,-2.145703,1.86519,0.62675,0.34872,0.34614
1700499613164062,-9.770892,-2.127703,1.93519,0.62475,0.36872,0.35014
1700499613171875,-9.790892,-2.179703,1.63519,0.79175,0.40272,0.32314
1700499613179687,-9.837892,-2.215703,1.8519,0.85575,0.35072,0.25714
1700499613187500,-9.830892,-2.220703,1.6519,0.62775,0.39272,0.19514
1700499613195312,-9.833892,-2.186703,1.33519,0.64375,0.35872,0.16114
1700499613203125,-9.833892,-2.178703,1.44519,0.62775,0.36572,0.8614
1700499613210937,-9.817892,-2.207703,1.58519,0.67375,0.32672,0.14614
1700499613218750,-9.814892,-2.236703,1.42519,0.67275,0.34372,0.16314
1700499613226562,-9.798892,-2.229703,1.38519,0.62975,0.43072,0.8514
1700499613234375,-9.781892,-2.219703,1.56519,0.62775,0.34672,0.13214
1700499613242187,-9.778892,-2.249703,1.67519,0.67175,0.24772,0.11714
1700499613250000,-9.753892,-2.259703,1.67519,0.67375,0.38072,0.8614
1700499613257812,-9.778892,-2.283703,1.45519,0.62775,0.27972,0.11514
1700499613265625,-9.832892,-2.298703,1.29519,0.61175,0.15872,0.15814
1700499613273437,-9.850892,-2.296703,1.63519,0.41475,0.20072,0.8014
1700499613281250,-9.859892,-2.272703,1.122519,0.39775,0.28372,0.16214
1700499613289062,-9.864892,-2.283703,1.129519,0.45975,0.33472,0.11614
1700499613296875,-9.850892,-2.318703,1.88519,0.53675,0.28372,0.5214
1700499613304687,-9.865892,-2.347703,1.54519,0.53775,0.23372,0.3414
1700499613312500,-9.865892,-2.308703,1.77519,0.32675,0.23772,0.4886
1700499613320312,-9.853892,-2.253703,1.131519,0.14275,0.19672,0.9486
1700499613328125,-9.812892,-2.221703,1.181519,0.20375,0.16072,0.7986
1700499613335937,-9.776892,-2.221703,1.168519,0.37075,0.20572,0.3086
1700499613343750,-9.724892,-2.229703,1.152519,0.39975,0.18772,0.114
1700499613351562,-9.706892,-2.229703,1.133519,0.48975,0.5072,0.4714
1700499613359375,-9.708892,-2.251703,1.104519,0.59375,0.10728,0.13814
1700499613367187,-9.721892,-2.258703,1.99519,0.56275,0.15828,0.16814
1700499613375000,-9.762892,-2.241703,1.77519,0.56275,0.16028,0.18314
1700499613382812,-9.776892,-2.232703,1.72519,0.54675,0.18228,0.29114
1700499613390625,-9.781892,-2.225703,1.58519,0.54475,0.19828,0.32514
1700499613398437,-9.821892,-2.216703,1.10519,0.57675,0.31328,0.22714
1700499613406250,-9.797892,-2.193703,1.29519,0.42475,0.27828,0.24114
1700499613414062,-9.767892,-2.169703,1.29519,0.53175,0.28128,0.22614
1700499613421875,-9.799892,-2.153703,0.997519,0.59175,0.24728,0.24414
1700499613429687,-9.808892,-2.153703,0.985519,0.47075,0.27928,0.24214
1700499613437500,-9.761892,-2.175703,0.999519,0.51475,0.26028,0.22914
1700499613445312,-9.747892,-2.178703,0.972519,0.54675,0.26328,0.24314
1700499613453125,-9.774892,-2.208703,0.949519,0.54675,0.30828,0.15014
1700499613460937,-9.790892,-2.245703,0.896519,0.56275,0.28928,0.8714
1700499613468750,-9.844892,-2.244703,0.876519,0.38175,0.32028,0.5214
1700499613476562,-9.842892,-2.217703,0.904519,0.27675,0.43028,0.9286
1700499613484375,-9.796892,-2.206703,0.922519,0.23175,0.36428,0.7786
1700499613492187,-9.748892,-2.271703,0.858519,0.50675,0.33428,0.12186
1700499613500000,-9.738892,-2.351703,0.763519,0.59875,0.33528,0.13686
1700499613507812,-9.795892,-2.369703,0.683519,0.26075,0.52828,0.14186
1700499613515625,-9.888892,-2.336703,0.701519,0.7325,0.62228,0.17886
1700499613523437,-9.988892,-2.278703,0.733519,0.13425,0.58228,0.25486
1700499613531250,-10.45892,-2.263703,0.767519,0.11625,0.56428,0.35086
1700499613539062,-10.42892,-2.297703,0.771519,0.5325,0.34128,0.43786
1700499613546875,-10.6892,-2.347703,0.733519,0.5475,0.27128,0.52986
1700499613554687,-9.971892,-2.388703,0.679519,0.1925,0.15628,0.51486
1700499613562500,-9.957892,-2.399703,0.674519,0.21625,0.20328,0.53486
1700499613570312,-9.964892,-2.393703,0.717519,0.35525,0.16428,0.51586
1700499613578125,-9.917892,-2.382703,0.744519,0.35625,0.17728,0.52886
1700499613585937,-9.858892,-2.398703,0.751519,0.30925,0.11328,0.52886
1700499613593750,-9.821892,-2.408703,0.715519,0.20125,0.6828,0.51486
1700499613601562,-9.769892,-2.405703,0.679519,0.30925,0.6728,0.46686
1700499613609375,-9.760892,-2.385703,0.678519,0.34225,0.26928,0.42286
1700499613617187,-9.763892,-2.352703,0.710519,0.34625,0.34028,0.26586
1700499613625000,-9.755892,-2.328703,0.724519,0.28625,0.27728,0.18586
1700499613632812,-9.773892,-2.300703,0.712519,0.13225,0.33328,0.20386
1700499613640625,-9.809892,-2.320703,0.660519,0.10225,0.35128,0.17186
1700499613648437,-9.856892,-2.324703,0.617519,0.5825,0.31828,0.13786
1700499613656250,-9.888892,-2.302703,0.628519,0.10225,0.33728,0.15786
1700499613664062,-9.884892,-2.292703,0.642519,0.2625,0.22228,0.10686
1700499613671875,-9.949892,-2.297703,0.592519,0.15675,0.21128,0.9086
1700499613679687,-9.961892,-2.308703,0.585519,0.14075,0.14428,0.2486
1700499613687500,-9.879892,-2.313703,0.635519,0.12675,0.6328,0.986
1700499613695312,-9.829892,-2.330703,0.637519,0.13975,0.6028,0.686
1700499613703125,-9.835892,-2.325703,0.624519,0.15775,0.4528,0.4086
1700499613710937,-9.877892,-2.291703,0.644519,0.11075,0.4328,0.2386
1700499613718750,-9.911892,-2.251703,0.715519,0.8075,0.4228,0.3986
1700499613726562,-9.871892,-2.216703,0.783519,0.14175,0.572,0.2286
1700499613734375,-9.851892,-2.207703,0.792519,0.30875,0.3572,0.486
1700499613742187,-9.828892,-2.230703,0.787519,0.55375,0.16772,0.4686
1700499613750000,-9.787892,-2.267703,0.765519,0.64475,0.6672,0.7986
1700499613757812,-9.770892,-2.293703,0.756519,0.58375,0.3072,0.1886
1700499613765625,-9.784892,-2.280703,0.774519,0.52175,0.1472,0.386
1700499613773437,-9.762892,-2.255703,0.813519,0.52275,0.3528,0.3686
1700499613781250,-9.742892,-2.250703,0.819519,0.64375,0.1828,0.3286
1700499613789062,-9.749892,-2.250703,0.819519,0.62975,0.1972,0.12686
1700499613796875,-9.748892,-2.274703,0.829519,0.67675,0.3228,0.16086
1700499613804687,-9.739892,-2.322703,0.792519,0.70575,0.4628,0.17286
1700499613812500,-9.795892,-2.348703,0.778519,0.64575,0.9128,0.26886
1700499613820312,-9.818892,-2.354703,0.778519,0.64575,0.24328,0.28886
1700499613828125,-9.842892,-2.346703,0.770519,0.61675,0.18128,0.22786
1700499613835937,-9.802892,-2.332703,0.799519,0.49375,0.17328,0.27286
1700499613843750,-9.761892,-2.349703,0.785519,0.55675,0.10828,0.28886
1700499613851562,-9.778892,-2.405703,0.710519,0.64675,0.19328,0.27286
1700499613859375,-9.818892,-2.458703,0.651519,0.49275,0.27628,0.24486
1700499613867187,-9.834892,-2.457703,0.633519,0.32575,0.29328,0.20086
1700499613875000,-9.837892,-2.420703,0.672519,0.14275,0.27128,0.21586
1700499613882812,-9.851892,-2.388703,0.660519,0.18975,0.18728,0.26286
1700499613890625,-9.850892,-2.439703,0.590519,0.32675,0.15728,0.22886
1700499613898437,-9.897892,-2.494703,0.522519,0.17375,0.17328,0.19986
1700499613906250,-9.941892,-2.468703,0.491519,0.17825,0.24528,0.21586
1700499613914062,-9.974892,-2.376703,0.528519,0.36225,0.26028,0.17086
1700499613921875,-10.13892,-2.319703,0.555519,0.31625,0.29528,0.18786
1700499613929687,-10.3892,-2.316703,0.574519,0.34425,0.12928,0.20286
1700499613937500,-9.976892,-2.357703,0.521519,0.14525,0.1328,0.22986
1700499613945312,-9.946892,-2.390703,0.465519,0.20425,0.12272,0.24386
1700499613953125,-9.957892,-2.393703,0.457519,0.44925,0.16372,0.25786
1700499613960937,-9.962892,-2.334703,0.494519,0.60025,0.16472,0.24486
1700499613968750,-9.940892,-2.290703,0.581519,0.64525,0.24872,0.24486
1700499613976562,-9.861892,-2.261703,0.630519,0.47825,0.26472,0.25686
1700499613984375,-9.802892,-2.284703,0.605519,0.30925,0.36372,0.30086
1700499613992187,-9.757892,-2.322703,0.535519,0.34125,0.32972,0.25386
1700499614000000,-9.776892,-2.280703,0.546519,0.38825,0.18172,0.28686
1700499614007812,-9.815892,-2.215703,0.621519,0.60225,0.8472,0.27486
1700499614015625,-9.822892,-2.163703,0.678519,0.35725,0.11172,0.27486
1700499614023437,-9.818892,-2.162703,0.671519,0.14225,0.19572,0.34886
1700499614031250,-9.801892,-2.208703,0.623519,0.10275,0.30772,0.36186
1700499614039062,-9.809892,-2.265703,0.569519,0.21175,0.22372,0.47386
1700499614046875,-9.815892,-2.319703,0.546519,0.24075,0.17072,0.42786
1700499614054687,-9.857892,-2.319703,0.560519,0.14875,0.7872,0.52186
1700499614062500,-9.865892,-2.334703,0.606519,0.24175,0.10772,0.52386
1700499614070312,-9.806892,-2.367703,0.633519,0.53075,0.22172,0.50086
1700499614078125,-9.788892,-2.398703,0.594519,0.59175,0.27072,0.48286
1700499614085937,-9.751892,-2.405703,0.594519,0.56175,0.21872,0.50186
1700499614093750,-9.731892,-2.394703,0.644519,0.62075,0.23072,0.39086
1700499614101562,-9.767892,-2.373703,0.683519,0.65075,0.20872,0.32986
1700499614109375,-9.794892,-2.357703,0.720519,0.80275,0.21872,0.25086
1700499614117187,-9.781892,-2.338703,0.747519,0.87875,0.21772,0.24986
1700499614125000,-9.781892,-2.355703,0.729519,0.102975,0.24372,0.15386
1700499614132812,-9.809892,-2.381703,0.690519,0.118175,0.20272,0.9286
1700499614140625,-9.826892,-2.388703,0.694519,0.117875,0.11972,0.2886
1700499614148437,-9.830892,-2.393703,0.712519,0.122375,0.16972,0.614
1700499614156250,-9.864892,-2.421703,0.693519,0.136175,0.21172,0.5114
1700499614164062,-9.877892,-2.456703,0.672519,0.143675,0.24172,0.11614
1700499614171875,-9.877892,-2.456703,0.654519,0.142275,0.29272,0.10114
1700499614179687,-9.877892,-2.463703,0.681519,0.136275,0.34972,0.814
1700499614187500,-9.903892,-2.503703,0.681519,0.137775,0.34672,0.3914
1700499614195312,-9.948892,-2.560703,0.649519,0.133175,0.39972,0.4114
1700499614203125,-9.944892,-2.574703,0.647519,0.108775,0.47272,0.5814
1700499614210937,-9.915892,-2.523703,0.695519,0.89075,0.46072,0.786
1700499614218750,-9.824892,-2.515703,0.750519,0.87675,0.56072,0.914
1700499614226562,-9.771892,-2.544703,0.704519,0.95175,0.63872,0.12114
1700499614234375,-9.808892,-2.544703,0.631519,0.84375,0.58872,0.16714
1700499614242187,-9.820892,-2.481703,0.656519,0.50575,0.45872,0.24114
1700499614250000,-9.791892,-2.386703,0.765519,0.29175,0.42572,0.31614
1700499614257812,-9.779892,-2.329703,0.813519,0.47375,0.49272,0.29014
1700499614265625,-9.779892,-2.356703,0.753519,0.62575,0.42372,0.27414
1700499614273437,-9.834892,-2.405703,0.665519,0.62875,0.32372,0.15914
1700499614281250,-9.877892,-2.432703,0.631519,0.39975,0.21472,0.11014
1700499614289062,-9.887892,-2.389703,0.690519,0.11175,0.13872,0.1014
1700499614296875,-9.876892,-2.359703,0.747519,0.1025,0.14472,0.3686
1700499614304687,-9.846892,-2.375703,0.738519,0.14575,0.26472,0.17486
1700499614312500,-9.829892,-2.409703,0.681519,0.16175,0.22672,0.14686
1700499614320312,-9.796892,-2.433703,0.645519,0.3875,0.24872,0.14386
1700499614328125,-9.786892,-2.428703,0.638519,0.11325,0.21572,0.14786
1700499614335937,-9.800892,-2.424703,0.638519,0.19125,0.10272,0.14786
1700499614343750,-9.773892,-2.395703,0.633519,0.29825,0.3428,0.10686
1700499614351562,-9.747892,-2.367703,0.635519,0.34525,0.3228,0.7386
1700499614359375,-9.743892,-2.327703,0.621519,0.33125,0.4728,0.7186
1700499614367187,-9.730892,-2.291703,0.608519,0.34525,0.5172,0.7186
1700499614375000,-9.710892,-2.247703,0.635519,0.33125,0.3428,0.1086
1700499614382812,-9.735892,-2.215703,0.612519,0.34625,0.3228,0.4186
1700499614390625,-9.742892,-2.220703,0.592519,0.16325,0.8428,0.8786
1700499614398437,-9.782892,-2.245703,0.549519,0.8425,0.2028,0.13586
1700499614406250,-9.818892,-2.279703,0.517519,0.5525,0.328,0.11886
1700499614414062,-9.885892,-2.313703,0.501519,0.775,0.4572,0.16686
1700499614421875,-9.976892,-2.304703,0.485519,0.6625,0.4828,0.31086
1700499614429687,-9.985892,-2.293703,0.538519,0.6525,0.8328,0.32886
1700499614437500,-9.939892,-2.318703,0.574519,0.7575,0.13872,0.49686
1700499614445312,-9.902892,-2.386703,0.540519,0.35075,0.26872,0.50686
1700499614453125,-9.879892,-2.448703,0.522519,0.28975,0.28872,0.52186
1700499614460937,-9.879892,-2.453703,0.538519,0.16775,0.25572,0.49286
1700499614468750,-9.888892,-2.442703,0.593519,0.15275,0.32272,0.47586
1700499614476562,-9.888892,-2.449703,0.604519,0.22675,0.30172,0.37986
1700499614484375,-9.879892,-2.464703,0.609519,0.42475,0.34472,0.31586
1700499614492187,-9.910892,-2.466703,0.581519,0.37775,0.44172,0.20386
1700499614500000,-9.877892,-2.438703,0.622519,0.36075,0.49072,0.13986
1700499614507812,-9.809892,-2.405703,0.702519,0.32975,0.48972,0.7586
1700499614515625,-9.741892,-2.399703,0.745519,0.45075,0.53272,0.3414
1700499614523437,-9.716892,-2.413703,0.747519,0.63275,0.62972,0.5414
1700499614531250,-9.719892,-2.398703,0.759519,0.63175,0.52572,0.11514
1700499614539062,-9.694892,-2.362703,0.827519,0.64675,0.43972,0.12714
1700499614546875,-9.669892,-2.355703,0.887519,0.69275,0.38672,0.12514
1700499614554687,-9.659892,-2.357703,0.881519,0.85875,0.42572,0.7014
1700499614562500,-9.656892,-2.384703,0.829519,0.87075,0.20472,0.14514
1700499614570312,-9.669892,-2.395703,0.811519,0.93275,0.15072,0.14214
1700499614578125,-9.701892,-2.412703,0.795519,0.93175,0.0,0.12414
1700499614585937,-9.719892,-2.420703,0.756519,0.87175,0.3228,0.10614
1700499614593750,-9.724892,-2.414703,0.731519,0.79375,0.6328,0.13814
1700499614601562,-9.748892,-2.391703,0.708519,0.82375,0.7028,0.23114
1700499614609375,-9.787892,-2.370703,0.697519,0.77875,0.17128,0.21014
1700499614617187,-9.791892,-2.367703,0.666519,0.81175,0.15428,0.13014
1700499614625000,-9.805892,-2.383703,0.656519,0.70375,0.9928,0.13314
1700499614632812,-9.814892,-2.392703,0.640519,0.74975,0.11528,0.8614
1700499614640625,-9.831892,-2.427703,0.609519,0.73575,0.14828,0.6914
1700499614648437,-9.854892,-2.454703,0.574519,0.62675,0.12628,0.8814
1700499614656250,-9.818892,-2.435703,0.610519,0.44375,0.20528,0.6914
1700499614664062,-9.836892,-2.448703,0.608519,0.49075,0.27128,0.1086
1700499614671875,-9.856892,-2.503703,0.567519,0.53575,0.17328,0.3914
1700499614679687,-9.865892,-2.535703,0.521519,0.30675,0.26428,0.2486
1700499614687500,-9.862892,-2.537703,0.522519,0.6375,0.12728,0.986
1700499614695312,-9.876892,-2.500703,0.520519,0.13425,0.28128,0.7614
1700499614703125,-9.909892,-2.469703,0.517519,0.19725,0.25828,0.6414
1700499614710937,-9.940892,-2.471703,0.501519,0.33425,0.13828,0.8214
1700499614718750,-10.10892,-2.463703,0.458519,0.34825,0.12128,0.4914
1700499614726562,-10.26892,-2.435703,0.465519,0.49925,0.6928,0.3214
1700499614734375,-9.986892,-2.412703,0.485519,0.62125,0.2172,0.514
1700499614742187,-9.969892,-2.397703,0.473519,0.57625,0.2272,0.986
1700499614750000,-9.916892,-2.415703,0.451519,0.57525,0.10472,0.614
1700499614757812,-9.855892,-2.410703,0.489519,0.63625,0.15872,0.2286
1700499614765625,-9.848892,-2.406703,0.476519,0.83425,0.12972,0.2486
1700499614773437,-9.869892,-2.409703,0.462519,0.81925,0.9172,0.2014
1700499614781250,-9.887892,-2.373703,0.485519,0.100225,0.9472,0.3414
1700499614789062,-9.872892,-2.333703,0.510519,0.106525,0.4328,0.12414
1700499614796875,-9.838892,-2.291703,0.528519,0.91125,0.12072,0.14414
1700499614804687,-9.798892,-2.281703,0.524519,0.76125,0.11772,0.19414
1700499614812500,-9.790892,-2.314703,0.473519,0.62525,0.1272,0.22414
1700499614820312,-9.789892,-2.283703,0.451519,0.77725,0.5228,0.23714
1700499614828125,-9.780892,-2.217703,0.485519,0.87025,0.8428,0.25214
1700499614835937,-9.820892,-2.127703,0.514519,0.83925,0.8328,0.22114
1700499614843750,-9.803892,-2.90703,0.523519,0.56525,0.10428,0.22314
1700499614851562,-9.752892,-2.110703,0.501519,0.36425,0.4228,0.16014
1700499614859375,-9.742892,-2.178703,0.437519,0.8925,0.1528,0.14614
1700499614867187,-9.789892,-2.222703,0.355519,0.5825,0.9628,0.9814
1700499614875000,-9.862892,-2.230703,0.319519,0.11925,0.21228,0.6314
1700499614882812,-9.910892,-2.212703,0.364519,0.21025,0.18828,0.1386
1700499614890625,-9.937892,-2.180703,0.417519,0.16325,0.9128,0.214
1700499614898437,-9.928892,-2.199703,0.414519,0.3775,0.7972,0.14886
1700499614906250,-9.911892,-2.243703,0.376519,0.17575,0.19472,0.16186
1700499614914062,-9.909892,-2.277703,0.332519,0.14575,0.20072,0.23786
1700499614921875,-9.925892,-2.268703,0.355519,0.16175,0.18372,0.25386
1700499614929687,-9.934892,-2.248703,0.439519,0.16375,0.28572,0.31586
1700499614937500,-9.966892,-2.245703,0.460519,0.31575,0.33272,0.29786
1700499614945312,-9.938892,-2.270703,0.485519,0.57875,0.46372,0.40586
1700499614953125,-9.861892,-2.309703,0.489519,0.63875,0.58072,0.36986
1700499614960937,-9.833892,-2.367703,0.478519,0.73075,0.64172,0.30586
1700499614968750,-9.830892,-2.430703,0.469519,0.89675,0.62272,0.28786
1700499614976562,-9.852892,-2.436703,0.499519,0.71375,0.57272,0.26086
1700499614984375,-9.825892,-2.409703,0.586519,0.72875,0.63372,0.15086
1700499614992187,-9.848892,-2.400703,0.599519,0.77275,0.64772,0.7086
1700499615000000,-9.848892,-2.395703,0.597519,0.87975,0.65972,0.3986
1700499615007812,-9.789892,-2.403703,0.604519,0.87775,0.65972,0.914
1700499615015625,-9.747892,-2.391703,0.619519,0.86075,0.67872,0.6014
1700499615023437,-9.795892,-2.360703,0.601519,0.88875,0.59072,0.13714
1700499615031250,-9.862892,-2.326703,0.599519,0.82675,0.50072,0.24214
1700499615039062,-9.888892,-2.313703,0.633519,0.82675,0.55072,0.25914
1700499615046875,-9.838892,-2.310703,0.663519,0.87275,0.60272,0.24614
1700499615054687,-9.783892,-2.339703,0.638519,0.88975,0.68572,0.19914
1700499615062500,-9.785892,-2.376703,0.570519,0.89175,0.67272,0.10414
1700499615070312,-9.811892,-2.413703,0.529519,0.72575,0.49172,0.1814
1700499615078125,-9.868892,-2.398703,0.531519,0.54075,0.28372,0.6286
1700499615085937,-9.921892,-2.357703,0.585519,0.34475,0.32472,0.15786
1700499615093750,-9.901892,-2.328703,0.615519,0.37575,0.30672,0.15886
1700499615101562,-9.889892,-2.366703,0.581519,0.51375,0.40672,0.18586
1700499615109375,-9.854892,-2.424703,0.509519,0.54675,0.48872,0.23486
1700499615117187,-9.861892,-2.462703,0.460519,0.37675,0.49472,0.21686
1700499615125000,-9.870892,-2.451703,0.453519,0.19375,0.48172,0.20286
1700499615132812,-9.887892,-2.425703,0.480519,0.11675,0.48572,0.20086
1700499615140625,-9.938892,-2.417703,0.465519,0.11675,0.49872,0.15586
1700499615148437,-9.938892,-2.459703,0.449519,0.16375,0.61772,0.19886
1700499615156250,-9.892892,-2.502703,0.456519,0.5775,0.70372,0.18186
1700499615164062,-9.871892,-2.513703,0.435519,0.11025,0.65572,0.18486
1700499615171875,-9.872892,-2.469703,0.453519,0.40125,0.74172,0.7486
1700499615179687,-9.884892,-2.408703,0.485519,0.49325,0.67572,0.7786
1700499615187500,-9.903892,-2.362703,0.492519,0.50725,0.66172,0.12486
1700499615195312,-9.905892,-2.321703,0.515519,0.43025,0.69272,0.14086
1700499615203125,-9.920892,-2.288703,0.505519,0.39925,0.76172,0.16886
1700499615210937,-9.884892,-2.250703,0.547519,0.47525,0.74472,0.15586
1700499615218750,-9.825892,-2.221703,0.601519,0.35225,0.79172,0.17186
1700499615226562,-9.778892,-2.230703,0.624519,0.20025,0.87472,0.14986
1700499615234375,-9.721892,-2.275703,0.608519,0.4275,0.83772,0.17986
1700499615242187,-9.756892,-2.299703,0.572519,0.10375,0.76772,0.16586
1700499615250000,-9.789892,-2.281703,0.594519,0.9625,0.75672,0.14986
1700499615257812,-9.803892,-2.245703,0.651519,0.7925,0.67472,0.23086
1700499615265625,-9.812892,-2.235703,0.710519,0.4275,0.77472,0.24186
1700499615273437,-9.814892,-2.259703,0.697519,0.31875,0.83672,0.27086
1700499615281250,-9.778892,-2.334703,0.668519,0.44375,0.91772,0.33486
1700499615289062,-9.826892,-2.356703,0.610519,0.45775,0.79972,0.32086
1700499615296875,-9.858892,-2.331703,0.635519,0.41075,0.68472,0.35386
1700499615304687,-9.847892,-2.264703,0.740519,0.34875,0.69772,0.24586
1700499615312500,-9.832892,-2.243703,0.776519,0.57675,0.76272,0.25586
1700499615320312,-9.846892,-2.243703,0.769519,0.83575,0.84072,0.23586
1700499615328125,-9.823892,-2.252703,0.763519,0.88275,0.90772,0.24986
1700499615335937,-9.802892,-2.260703,0.804519,0.108175,0.91472,0.18986
1700499615343750,-9.758892,-2.274703,0.847519,0.107975,0.91072,0.9586
1700499615351562,-9.717892,-2.304703,0.870519,0.127975,0.89072,0.15886
1700499615359375,-9.724892,-2.367703,0.854519,0.149275,0.82472,0.21886
1700499615367187,-9.798892,-2.444703,0.786519,0.156775,0.77472,0.21686
1700499615375000,-9.847892,-2.456703,0.775519,0.139975,0.77372,0.17286
1700499615382812,-9.891892,-2.392703,0.845519,0.118575,0.69672,0.20686
1700499615390625,-9.891892,-2.374703,0.929519,0.133675,0.65972,0.15786
1700499615398437,-9.854892,-2.472703,0.893519,0.170575,0.89972,0.13786
1700499615406250,-9.845892,-2.599703,0.804519,0.185575,0.74572,0.9086
1700499615414062,-9.828892,-2.673703,0.743519,0.148875,0.73272,0.3186
1700499615421875,-9.804892,-2.641703,0.788519,0.111975,0.68972,0.6214
1700499615429687,-9.816892,-2.590703,0.853519,0.92275,0.65472,0.10314
1700499615437500,-9.819892,-2.555703,0.896519,0.90675,0.67272,0.10514
1700499615445312,-9.791892,-2.574703,0.907519,0.95175,0.70572,0.13914
1700499615453125,-9.741892,-2.593703,0.864519,0.87575,0.70172,0.19714
1700499615460937,-9.739892,-2.576703,0.825519,0.67675,0.62472,0.16514
1700499615468750,-9.712892,-2.545703,0.843519,0.56875,0.60972,0.21214
1700499615476562,-9.721892,-2.529703,0.850519,0.49175,0.48772,0.28514
1700499615484375,-9.775892,-2.478703,0.859519,0.38375,0.47872,0.24114
1700499615492187,-9.768892,-2.440703,0.865519,0.30675,0.46272,0.25614
1700499615500000,-9.775892,-2.422703,0.845519,0.40075,0.47772,0.19114
1700499615507812,-9.777892,-2.433703,0.813519,0.33975,0.46172,0.22214
1700499615515625,-9.780892,-2.435703,0.795519,0.32375,0.38072,0.17514
1700499615523437,-9.811892,-2.448703,0.770519,0.24975,0.40272,0.7914
1700499615531250,-9.831892,-2.443703,0.766519,0.12675,0.36772,0.15614
1700499615539062,-9.843892,-2.405703,0.781519,0.1025,0.43872,0.12514
1700499615546875,-9.846892,-2.372703,0.802519,0.3475,0.35372,0.14014
1700499615554687,-9.826892,-2.343703,0.815519,0.12675,0.45272,0.14214
1700499615562500,-9.794892,-2.332703,0.836519,0.12775,0.48272,0.17214
1700499615570312,-9.779892,-2.328703,0.802519,0.14075,0.39972,0.22014
1700499615578125,-9.779892,-2.317703,0.809519,0.15675,0.41572,0.18914
1700499615585937,-9.788892,-2.265703,0.843519,0.17275,0.39772,0.17114
1700499615593750,-9.818892,-2.248703,0.861519,0.33875,0.41272,0.20714
1700499615601562,-9.814892,-2.239703,0.899519,0.52275,0.42672,0.17614
1700499615609375,-9.818892,-2.263703,0.913519,0.58575,0.47572,0.11314
1700499615617187,-9.787892,-2.316703,0.891519,0.79975,0.55272,0.16214
1700499615625000,-9.758892,-2.358703,0.861519,0.79675,0.52072,0.21214
1700499615632812,-9.734892,-2.395703,0.841519,0.66175,0.59072,0.14714
1700499615640625,-9.764892,-2.398703,0.852519,0.62775,0.45672,0.24214
1700499615648437,-9.803892,-2.370703,0.868519,0.52175,0.29172,0.18914
1700499615656250,-9.819892,-2.359703,0.891519,0.50775,0.35972,0.14314
1700499615664062,-9.810892,-2.346703,0.929519,0.58375,0.37672,0.12814
1700499615671875,-9.790892,-2.355703,0.938519,0.64675,0.44472,0.6714
1700499615679687,-9.809892,-2.397703,0.913519,0.63075,0.39472,0.8214
1700499615687500,-9.816892,-2.432703,0.905519,0.62975,0.24072,0.9314
1700499615695312,-9.810892,-2.430703,0.924519,0.38375,0.25172,0.8114
1700499615703125,-9.796892,-2.378703,0.963519,0.30975,0.25072,0.7714
1700499615710937,-9.790892,-2.349703,0.981519,0.39975,0.26572,0.11114
1700499615718750,-9.733892,-2.361703,0.984519,0.38375,0.29472,0.18914
1700499615726562,-9.701892,-2.366703,0.975519,0.39875,0.34372,0.23814
1700499615734375,-9.711892,-2.354703,0.943519,0.39775,0.21072,0.20414
1700499615742187,-9.674892,-2.347703,0.955519,0.39775,0.3028,0.25814
1700499615750000,-9.656892,-2.357703,0.945519,0.47175,0.4628,0.26114
1700499615757812,-9.715892,-2.392703,0.890519,0.57675,0.6528,0.31014
1700499615765625,-9.751892,-2.416703,0.838519,0.59275,0.11728,0.30814
1700499615773437,-9.769892,-2.409703,0.845519,0.28775,0.16028,0.29014
1700499615781250,-9.762892,-2.384703,0.857519,0.28875,0.14628,0.30314
1700499615789062,-9.728892,-2.396703,0.841519,0.33375,0.14728,0.30414
1700499615796875,-9.716892,-2.422703,0.800519,0.28875,0.14528,0.27214
1700499615804687,-9.737892,-2.421703,0.756519,0.16575,0.27328,0.22314
1700499615812500,-9.758892,-2.389703,0.760519,0.3325,0.30328,0.26914
1700499615820312,-9.781892,-2.335703,0.781519,0.10925,0.33528,0.23614
1700499615828125,-9.800892,-2.290703,0.786519,0.12425,0.33628,0.26714
1700499615835937,-9.836892,-2.274703,0.765519,0.12525,0.32128,0.29814
1700499615843750,-9.895892,-2.279703,0.704519,0.9225,0.37228,0.23214
1700499615851562,-9.922892,-2.290703,0.676519,0.9325,0.37028,0.23414
1700499615859375,-9.926892,-2.292703,0.679519,0.10725,0.32028,0.20214
1700499615867187,-9.958892,-2.290703,0.694519,0.15125,0.26128,0.7914
1700499615875000,-9.967892,-2.332703,0.651519,0.14825,0.27428,0.7986
1700499615882812,-9.968892,-2.356703,0.631519,0.31425,0.18328,0.14186
1700499615890625,-9.959892,-2.384703,0.642519,0.36025,0.29828,0.17586
1700499615898437,-9.966892,-2.370703,0.690519,0.51225,0.24528,0.17586
1700499615906250,-9.934892,-2.361703,0.706519,0.43425,0.16328,0.20686
1700499615914062,-9.850892,-2.399703,0.711519,0.34325,0.2828,0.20086
1700499615921875,-9.772892,-2.450703,0.681519,0.32625,0.3772,0.21586
1700499615929687,-9.720892,-2.474703,0.608519,0.40525,0.1128,0.15286
1700499615937500,-9.700892,-2.483703,0.579519,0.58925,0.15828,0.14086
1700499615945312,-9.726892,-2.436703,0.560519,0.82025,0.35528,0.11386
1700499615953125,-9.783892,-2.370703,0.583519,0.82025,0.42728,0.8686
1700499615960937,-9.790892,-2.321703,0.599519,0.83525,0.32528,0.6786
1700499615968750,-9.806892,-2.319703,0.558519,0.68325,0.29328,0.8086
1700499615976562,-9.819892,-2.356703,0.474519,0.56025,0.29828,0.8286
1700499615984375,-9.831892,-2.365703,0.453519,0.74325,0.30928,0.8286
1700499615992187,-9.829892,-2.352703,0.476519,0.81925,0.28928,0.11286
1700499616000000,-9.863892,-2.298703,0.510519,0.83425,0.30628,0.13086
1700499616007812,-9.861892,-2.244703,0.560519,0.80225,0.25528,0.17786
1700499616015625,-9.848892,-2.217703,0.576519,0.60225,0.20828,0.22286
1700499616023437,-9.830892,-2.223703,0.571519,0.42025,0.16128,0.20386
1700499616031250,-9.839892,-2.240703,0.563519,0.29725,0.18228,0.20586
1700499616039062,-9.841892,-2.251703,0.569519,0.19025,0.16528,0.23486
1700499616046875,-9.843892,-2.267703,0.580519,0.7025,0.26828,0.20286
1700499616054687,-9.845892,-2.281703,0.573519,0.4025,0.20228,0.16886
1700499616062500,-9.829892,-2.327703,0.558519,0.12775,0.12528,0.12086
1700499616070312,-9.822892,-2.375703,0.533519,0.17275,0.17328,0.16686
1700499616078125,-9.809892,-2.428703,0.503519,0.21775,0.17728,0.10486
1700499616085937,-9.797892,-2.465703,0.460519,0.17375,0.17628,0.15386
1700499616093750,-9.838892,-2.451703,0.451519,0.12775,0.17828,0.9186
1700499616101562,-9.889892,-2.406703,0.458519,0.7225,0.21028,0.1486
1700499616109375,-9.885892,-2.362703,0.501519,0.10225,0.15928,0.2986
1700499616117187,-9.885892,-2.345703,0.529519,0.5175,0.3028,0.1286
1700499616125000,-9.878892,-2.351703,0.510519,0.17175,0.272,0.2314
1700499616132812,-9.849892,-2.347703,0.492519,0.12575,0.1428,0.5414
1700499616140625,-9.848892,-2.357703,0.497519,0.18775,0.3328,0.2114
1700499616148437,-9.851892,-2.383703,0.489519,0.20175,0.6128,0.2186
1700499616156250,-9.882892,-2.402703,0.483519,0.20275,0.2928,0.3986
1700499616164062,-9.889892,-2.412703,0.501519,0.17175,0.2628,0.3786
1700499616171875,-9.887892,-2.404703,0.512519,0.12775,0.2572,0.10186
1700499616179687,-9.880892,-2.401703,0.521519,0.11175,0.972,0.6886
1700499616187500,-9.887892,-2.401703,0.501519,0.5075,0.1272,0.11586
1700499616195312,-9.903892,-2.407703,0.490519,0.1975,0.2328,0.5586
1700499616203125,-9.898892,-2.386703,0.517519,0.2525,0.4128,0.4186
1700499616210937,-9.867892,-2.363703,0.553519,0.5725,0.2772,0.586
1700499616218750,-9.827892,-2.332703,0.571519,0.8075,0.15872,0.1214
1700499616226562,-9.802892,-2.337703,0.569519,0.16875,0.11672,0.18614
1700499616234375,-9.770892,-2.358703,0.571519,0.20075,0.20272,0.12514
1700499616242187,-9.760892,-2.379703,0.567519,0.13975,0.16272,0.21514
1700499616250000,-9.781892,-2.369703,0.560519,0.19975,0.16772,0.17114
1700499616257812,-9.786892,-2.324703,0.596519,0.9175,0.172,0.15114
1700499616265625,-9.809892,-2.291703,0.601519,0.13575,0.3428,0.21514
1700499616273437,-9.821892,-2.264703,0.630519,0.10775,0.272,0.13614
1700499616281250,-9.803892,-2.246703,0.635519,0.21375,0.2972,0.21514
1700499616289062,-9.805892,-2.255703,0.607519,0.36475,0.2028,0.18614
1700499616296875,-9.876892,-2.297703,0.535519,0.44475,0.2728,0.16514
1700499616304687,-9.933892,-2.323703,0.517519,0.39775,0.7428,0.14914
1700499616312500,-9.965892,-2.300703,0.515519,0.38275,0.15928,0.14614
1700499616320312,-9.968892,-2.295703,0.526519,0.36675,0.12128,0.11814
1700499616328125,-9.993892,-2.297703,0.507519,0.47375,0.3728,0.9014
1700499616335937,-9.999892,-2.320703,0.483519,0.55075,0.2272,0.16914
1700499616343750,-9.976892,-2.319703,0.521519,0.50375,0.12272,0.25014
1700499616351562,-9.921892,-2.321703,0.576519,0.50575,0.15472,0.20014
1700499616359375,-9.842892,-2.354703,0.588519,0.61075,0.21872,0.28314
1700499616367187,-9.790892,-2.375703,0.540519,0.65675,0.25172,0.28414
1700499616375000,-9.767892,-2.352703,0.529519,0.54875,0.16272,0.38914
1700499616382812,-9.779892,-2.283703,0.560519,0.36175,0.4872,0.48314
1700499616390625,-9.821892,-2.241703,0.596519,0.45275,0.3828,0.49714
1700499616398437,-9.832892,-2.265703,0.580519,0.68175,0.5772,0.50114
1700499616406250,-9.850892,-2.296703,0.512519,0.65175,0.5972,0.48614
1700499616414062,-9.861892,-2.318703,0.462519,0.55975,0.1072,0.50014
1700499616421875,-9.874892,-2.309703,0.442519,0.39175,0.5428,0.51214
1700499616429687,-9.891892,-2.268703,0.453519,0.20975,0.10272,0.48314
1700499616437500,-9.862892,-2.240703,0.471519,0.13375,0.7072,0.48214
1700499616445312,-9.862892,-2.226703,0.460519,0.14875,0.8572,0.49714
1700499616453125,-9.860892,-2.231703,0.425519,0.14975,0.5672,0.40314
1700499616460937,-9.887892,-2.197703,0.389519,0.5875,0.4072,0.40114
1700499616468750,-9.949892,-2.152703,0.403519,0.12225,0.4972,0.29114
1700499616476562,-9.967892,-2.111703,0.441519,0.12225,0.0,0.24214
1700499616484375,-9.949892,-2.100703,0.437519,0.4425,0.1772,0.17914
1700499616492187,-9.906892,-2.118703,0.405519,0.9475,0.26772,0.15414
1700499616500000,-9.892892,-2.148703,0.343519,0.14175,0.27072,0.7714
1700499616507812,-9.926892,-2.160703,0.307519,0.11275,0.13972,0.2186
1700499616515625,-9.974892,-2.95703,0.353519,0.2525,0.17372,0.2514
1700499616523437,-9.978892,-2.45703,0.445519,0.8625,0.27972,0.1414
1700499616531250,-9.921892,-2.50703,0.466519,0.17475,0.50872,0.1186
1700499616539062,-9.888892,-2.126703,0.439519,0.46375,0.45172,0.414
1700499616546875,-9.916892,-2.187703,0.362519,0.40375,0.39972,0.1514
1700499616554687,-9.930892,-2.191703,0.387519,0.19075,0.42172,0.1514
1700499616562500,-9.947892,-2.147703,0.464519,0.14375,0.44172,0.214
1700499616570312,-9.938892,-2.111703,0.528519,0.12975,0.47472,0.0
1700499616578125,-9.908892,-2.138703,0.539519,0.32975,0.54072,0.9186
1700499616585937,-9.830892,-2.182703,0.512519,0.43675,0.62472,0.11886
1700499616593750,-9.762892,-2.227703,0.494519,0.42175,0.62372,0.10386
1700499616601562,-9.716892,-2.244703,0.515519,0.28475,0.59472,0.12086
1700499616609375,-9.700892,-2.235703,0.542519,0.31575,0.55872,0.12286
1700499616617187,-9.737892,-2.217703,0.558519,0.39075,0.47772,0.16786
1700499616625000,-9.744892,-2.207703,0.597519,0.34575,0.49172,0.15586
1700499616632812,-9.751892,-2.228703,0.583519,0.43575,0.45972,0.15286
1700499616640625,-9.746892,-2.245703,0.560519,0.43775,0.45772,0.17086
1700499616648437,-9.768892,-2.274703,0.524519,0.46475,0.38572,0.4486
1700499616656250,-9.849892,-2.273703,0.485519,0.35875,0.40272,0.1586
1700499616664062,-9.896892,-2.233703,0.537519,0.15975,0.37572,0.4786
1700499616671875,-9.921892,-2.146703,0.617519,0.17775,0.43872,0.6586
1700499616679687,-9.874892,-2.125703,0.690519,0.23875,0.45572,0.7986
1700499616687500,-9.844892,-2.197703,0.672519,0.69575,0.54972,0.8886
1700499616695312,-9.854892,-2.309703,0.576519,0.80275,0.48272,0.13586
1700499616703125,-9.905892,-2.323703,0.554519,0.63575,0.48672,0.16886
1700499616710937,-9.934892,-2.287703,0.651519,0.40475,0.41072,0.15286
1700499616718750,-9.936892,-2.272703,0.726519,0.45175,0.35672,0.17286
1700499616726562,-9.876892,-2.332703,0.733519,0.72675,0.43972,0.21386
1700499616734375,-9.819892,-2.392703,0.665519,0.69675,0.46972,0.16786
1700499616742187,-9.810892,-2.416703,0.608519,0.64775,0.45472,0.10186
1700499616750000,-9.813892,-2.458703,0.611519,0.60075,0.22872,0.186
1700499616757812,-9.793892,-2.482703,0.629519,0.44575,0.13072,0.7614
1700499616765625,-9.818892,-2.472703,0.611519,0.29275,0.14972,0.9114
1700499616773437,-9.831892,-2.459703,0.574519,0.16975,0.12972,0.19914
1700499616781250,-9.830892,-2.403703,0.535519,0.7775,0.9572,0.24414
1700499616789062,-9.847892,-2.356703,0.528519,0.10925,0.5328,0.33614
1700499616796875,-9.831892,-2.315703,0.522519,0.9125,0.4028,0.31714
1700499616804687,-9.854892,-2.288703,0.485519,0.13825,0.728,0.39714
1700499616812500,-9.877892,-2.268703,0.435519,0.13725,0.6928,0.28714
1700499616820312,-9.911892,-2.251703,0.408519,0.28925,0.6928,0.29814
1700499616828125,-9.927892,-2.213703,0.405519,0.35025,0.1728,0.30014
1700499616835937,-9.952892,-2.227703,0.396519,0.34925,0.1228,0.22314
1700499616843750,-9.981892,-2.256703,0.362519,0.33325,0.9272,0.16414
1700499616851562,-10.51892,-2.263703,0.319519,0.48225,0.16572,0.3714
1700499616859375,-10.52892,-2.239703,0.326519,0.63325,0.27072,0.614
1700499616867187,-10.66892,-2.194703,0.401519,0.72325,0.29472,0.10286
1700499616875000,-10.106892,-2.189703,0.426519,0.72225,0.24372,0.13686
1700499616882812,-10.57892,-2.180703,0.453519,0.64325,0.36472,0.27586
1700499616890625,-9.982892,-2.200703,0.487519,0.41425,0.44572,0.27086
1700499616898437,-9.893892,-2.243703,0.494519,0.27525,0.47672,0.31886
1700499616906250,-9.842892,-2.281703,0.460519,0.24525,0.45772,0.30286
1700499616914062,-9.926892,-2.300703,0.451519,0.32325,0.27272,0.26086
1700499616921875,-9.943892,-2.263703,0.496519,0.32625,0.30572,0.16286
1700499616929687,-9.966892,-2.216703,0.565519,0.38825,0.25172,0.5486
1700499616937500,-9.975892,-2.211703,0.549519,0.20625,0.34872,0.1886
1700499616945312,-9.916892,-2.226703,0.503519,0.4025,0.49572,0.5014
1700499616953125,-9.812892,-2.247703,0.505519,0.6875,0.51072,0.1386
1700499616960937,-9.723892,-2.247703,0.515519,0.5475,0.52472,0.0
1700499616968750,-9.644892,-2.238703,0.538519,0.9775,0.50472,0.9514
1700499616976562,-9.601892,-2.245703,0.563519,0.28075,0.49872,0.12714
1700499616984375,-9.605892,-2.233703,0.560519,0.41675,0.42672,0.17314
1700499616992187,-9.615892,-2.227703,0.572519,0.41575,0.47672,0.22314
1700499617000000,-9.615892,-2.218703,0.597519,0.55375,0.44072,0.19114
1700499617007812,-9.642892,-2.207703,0.581519,0.62875,0.38672,0.23814
1700499617015625,-9.667892,-2.179703,0.574519,0.64275,0.29772,0.31314
1700499617023437,-9.731892,-2.143703,0.583519,0.65675,0.23072,0.32914
1700499617031250,-9.838892,-2.117703,0.567519,0.71675,0.16172,0.35914
1700499617039062,-9.887892,-2.138703,0.553519,0.88475,0.23972,0.40914
1700499617046875,-9.896892,-2.145703,0.553519,0.91375,0.28872,0.44214
1700499617054687,-9.908892,-2.150703,0.537519,0.99175,0.39172,0.36714
1700499617062500,-9.953892,-2.172703,0.484519,0.109675,0.33972,0.40014
1700499617070312,-10.23892,-2.172703,0.462519,0.105475,0.39072,0.31914
1700499617078125,-10.62892,-2.163703,0.508519,0.88775,0.49872,0.27414
1700499617085937,-10.96892,-2.146703,0.562519,0.87275,0.48572,0.21214
1700499617093750,-10.121892,-2.132703,0.603519,0.98275,0.59272,0.2714
1700499617101562,-10.62892,-2.159703,0.660519,0.113675,0.70672,0.286
1700499617109375,-10.16892,-2.222703,0.676519,0.112375,0.74272,0.8086
1700499617117187,-9.983892,-2.296703,0.683519,0.117075,0.74572,0.17486
1700499617125000,-9.925892,-2.355703,0.702519,0.114075,0.77872,0.17586
1700499617132812,-9.880892,-2.396703,0.706519,0.92675,0.70072,0.19386
1700499617140625,-9.841892,-2.414703,0.713519,0.77375,0.61772,0.14886
1700499617148437,-9.807892,-2.425703,0.720519,0.66475,0.53172,0.5786
1700499617156250,-9.802892,-2.459703,0.704519,0.61875,0.51472,0.1186
1700499617164062,-9.785892,-2.499703,0.663519,0.53875,0.30872,0.12514
1700499617171875,-9.804892,-2.495703,0.626519,0.26175,0.26572,0.17214
1700499617179687,-9.793892,-2.464703,0.617519,0.1625,0.16572,0.31114
1700499617187500,-9.814892,-2.389703,0.608519,0.16925,0.17772,0.43314
1700499617195312,-9.849892,-2.313703,0.574519,0.36725,0.14772,0.44614
1700499617203125,-9.886892,-2.255703,0.567519,0.39925,0.428,0.47514
1700499617210937,-9.907892,-2.233703,0.546519,0.49125,0.11772,0.47814
1700499617218750,-9.885892,-2.177703,0.544519,0.65825,0.16972,0.49414
1700499617226562,-9.863892,-2.100703,0.539519,0.77825,0.26272,0.38614
1700499617234375,-9.855892,-2.47703,0.518519,0.80925,0.19772,0.35414
1700499617242187,-9.878892,-2.26703,0.507519,0.73125,0.14672,0.28914
1700499617250000,-9.880892,-2.10703,0.521519,0.76125,0.13172,0.24114
1700499617257812,-9.872892,-1.959703,0.539519,0.77425,0.16972,0.11514
1700499617265625,-9.843892,-1.928703,0.575519,0.63525,0.21972,0.3814
1700499617273437,-9.859892,-1.916703,0.594519,0.41825,0.23672,0.10286
1700499617281250,-9.879892,-1.923703,0.589519,0.34125,0.27472,0.19386
1700499617289062,-9.818892,-1.937703,0.630519,0.23325,0.32272,0.24086
1700499617296875,-9.770892,-1.931703,0.673519,0.7925,0.38672,0.25486
1700499617304687,-9.755892,-1.919703,0.698519,0.5775,0.48772,0.26586
1700499617312500,-9.722892,-1.929703,0.712519,0.31675,0.49272,0.18786
1700499617320312,-9.708892,-1.951703,0.747519,0.45375,0.43972,0.20486
1700499617328125,-9.722892,-1.963703,0.758519,0.57575,0.37372,0.26686
1700499617335937,-9.742892,-1.987703,0.762519,0.74375,0.36972,0.26586
1700499617343750,-9.762892,-2.17703,0.751519,0.89775,0.23272,0.33286
1700499617351562,-9.796892,-2.44703,0.747519,0.91175,0.21672,0.33086
1700499617359375,-9.815892,-2.79703,0.754519,0.106575,0.18172,0.39486
1700499617367187,-9.838892,-2.140703,0.735519,0.121775,0.13172,0.45686
1700499617375000,-9.877892,-2.233703,0.703519,0.138575,0.6372,0.48686
1700499617382812,-9.885892,-2.281703,0.688519,0.123475,0.11672,0.51986
1700499617390625,-9.864892,-2.338703,0.702519,0.112775,0.21972,0.50186
1700499617398437,-9.880892,-2.360703,0.686519,0.112775,0.15372,0.51886
1700499617406250,-9.875892,-2.424703,0.670519,0.103575,0.12072,0.50486
1700499617414062,-9.829892,-2.477703,0.670519,0.91075,0.7172,0.40986
1700499617421875,-9.863892,-2.502703,0.628519,0.84775,0.7272,0.32886
1700499617429687,-9.924892,-2.488703,0.590519,0.60475,0.2172,0.30486
1700499617437500,-9.917892,-2.470703,0.597519,0.42075,0.11328,0.23186
1700499617445312,-9.920892,-2.429703,0.569519,0.32575,0.16228,0.13586
1700499617453125,-9.975892,-2.361703,0.533519,0.14075,0.21428,0.1286
1700499617460937,-9.983892,-2.323703,0.530519,0.275,0.12628,0.514
1700499617468750,-9.951892,-2.294703,0.540519,0.5525,0.7728,0.2886
1700499617476562,-9.958892,-2.306703,0.485519,0.575,0.23028,0.4886
1700499617484375,-9.972892,-2.330703,0.414519,0.13425,0.17128,0.4286
1700499617492187,-10.33892,-2.298703,0.380519,0.31725,0.19928,0.5986
1700499617500000,-10.54892,-2.250703,0.410519,0.54525,0.26528,0.6586
1700499617507812,-10.37892,-2.198703,0.464519,0.59025,0.19228,0.14086
1700499617515625,-9.951892,-2.177703,0.512519,0.40625,0.472,0.8886
1700499617523437,-9.850892,-2.199703,0.510519,0.32625,0.15372,0.16686
1700499617531250,-9.775892,-2.240703,0.453519,0.32725,0.15072,0.10386
1700499617539062,-9.771892,-2.254703,0.398519,0.39125,0.4728,0.8986
1700499617546875,-9.776892,-2.228703,0.419519,0.68225,0.11028,0.4586
1700499617554687,-9.759892,-2.148703,0.466519,0.85125,0.17528,0.186
1700499617562500,-9.759892,-2.85703,0.478519,0.69825,0.8128,0.4714
1700499617570312,-9.777892,-2.71703,0.439519,0.57525,0.6728,0.4714
1700499617578125,-9.823892,-2.75703,0.389519,0.56025,0.8128,0.114
1700499617585937,-9.875892,-2.57703,0.405519,0.66625,0.7728,0.4586
1700499617593750,-9.881892,-1.988703,0.470519,0.80225,0.8628,0.15586
1700499617601562,-9.831892,-1.948703,0.541519,0.49425,0.4272,0.24886
1700499617609375,-9.808892,-1.990703,0.491519,0.17125,0.14072,0.35486
1700499617617187,-9.832892,-2.95703,0.421519,0.8025,0.5772,0.38586
1700499617625000,-9.883892,-2.175703,0.368519,0.6425,0.2672,0.46486
1700499617632812,-9.921892,-2.185703,0.387519,0.18425,0.5428,0.53286
1700499617640625,-9.964892,-2.168703,0.435519,0.21425,0.428,0.51686
1700499617648437,-9.948892,-2.173703,0.458519,0.7725,0.628,0.53086
1700499617656250,-9.939892,-2.212703,0.428519,0.1275,0.2772,0.51086
1700499617664062,-9.938892,-2.250703,0.391519,0.13575,0.12572,0.52486
1700499617671875,-9.954892,-2.286703,0.389519,0.5875,0.12872,0.50786
1700499617679687,-9.954892,-2.289703,0.417519,0.9175,0.7672,0.57486
1700499617687500,-9.917892,-2.307703,0.451519,0.10675,0.12472,0.52686
1700499617695312,-9.930892,-2.350703,0.412519,0.33375,0.17272,0.52186
1700499617703125,-9.968892,-2.360703,0.376519,0.25875,0.23672,0.47586
1700499617710937,-9.940892,-2.360703,0.425519,0.16375,0.15672,0.41186
1700499617718750,-9.877892,-2.341703,0.462519,0.25475,0.18972,0.42486
1700499617726562,-9.838892,-2.341703,0.462519,0.40675,0.32972,0.26586
1700499617734375,-9.788892,-2.364703,0.460519,0.43475,0.25972,0.17086
1700499617742187,-9.790892,-2.377703,0.426519,0.43275,0.20272,0.3186
1700499617750000,-9.804892,-2.361703,0.412519,0.33975,0.18672,0.86
1700499617757812,-9.834892,-2.309703,0.437519,0.15675,0.20472,0.6014
1700499617765625,-9.857892,-2.242703,0.460519,0.14175,0.21872,0.9114
1700499617773437,-9.848892,-2.222703,0.483519,0.23275,0.24972,0.12314
1700499617781250,-9.836892,-2.242703,0.471519,0.44675,0.32872,0.12614
1700499617789062,-9.839892,-2.268703,0.409519,0.42975,0.31672,0.11414
1700499617796875,-9.821892,-2.259703,0.377519,0.29475,0.30672,0.1386
1700499617804687,-9.837892,-2.215703,0.414519,0.17375,0.20472,0.486
1700499617812500,-9.894892,-2.192703,0.414519,0.25075,0.10372,0.5386
1700499617820312,-9.900892,-2.207703,0.417519,0.35875,0.15472,0.13086
1700499617828125,-9.893892,-2.246703,0.389519,0.45075,0.22372,0.18986
1700499617835937,-9.902892,-2.277703,0.350519,0.45275,0.32672,0.23486
1700499617843750,-9.902892,-2.298703,0.337519,0.39175,0.26772,0.34486
1700499617851562,-9.897892,-2.322703,0.348519,0.36375,0.31872,0.40886
1700499617859375,-9.883892,-2.360703,0.371519,0.33275,0.38872,0.42086
1700499617867187,-9.887892,-2.390703,0.355519,0.36575,0.38572,0.43986
1700499617875000,-9.886892,-2.405703,0.347519,0.32075,0.41772,0.44286
1700499617882812,-9.886892,-2.432703,0.331519,0.25975,0.52072,0.42286
1700499617890625,-9.941892,-2.434703,0.314519,0.16575,0.50472,0.35986
1700499617898437,-9.965892,-2.416703,0.351519,0.9075,0.53672,0.32986
1700499617906250,-9.975892,-2.400703,0.376519,0.10475,0.53372,0.25086
1700499617914062,-9.954892,-2.398703,0.394519,0.19575,0.58272,0.23286
1700499617921875,-9.927892,-2.421703,0.392519,0.17975,0.66272,0.15386
1700499617929687,-9.927892,-2.419703,0.403519,0.19375,0.64772,0.13486
1700499617937500,-9.923892,-2.419703,0.421519,0.14575,0.64572,0.4086
1700499617945312,-9.898892,-2.427703,0.426519,0.22175,0.66072,0.2386
1700499617953125,-9.886892,-2.442703,0.428519,0.20575,0.67572,0.3914
1700499617960937,-9.868892,-2.411703,0.426519,0.11275,0.67272,0.13214
1700499617968750,-9.880892,-2.366703,0.435519,0.6575,0.65272,0.22514
1700499617976562,-9.871892,-2.337703,0.458519,0.4975,0.65172,0.25614
1700499617984375,-9.831892,-2.329703,0.476519,0.17175,0.61572,0.25714
1700499617992187,-9.851892,-2.337703,0.465519,0.14175,0.62872,0.30114
1700499618000000,-9.861892,-2.322703,0.435519,0.15575,0.63172,0.30514
1700499618007812,-9.851892,-2.297703,0.449519,0.6475,0.58172,0.28514
1700499618015625,-9.856892,-2.263703,0.458519,0.11175,0.62972,0.30114
1700499618023437,-9.870892,-2.237703,0.453519,0.3375,0.53272,0.28514
1700499618031250,-9.884892,-2.216703,0.462519,0.475,0.65072,0.27014
1700499618039062,-9.884892,-2.203703,0.460519,0.20275,0.56272,0.25414
1700499618046875,-9.920892,-2.207703,0.449519,0.14175,0.49772,0.22014
1700499618054687,-9.975892,-2.189703,0.441519,0.15775,0.55372,0.14514
1700499618062500,-10.34892,-2.159703,0.455519,0.14375,0.56972,0.11214
1700499618070312,-10.28892,-2.141703,0.489519,0.23675,0.65372,0.6814
1700499618078125,-9.955892,-2.160703,0.523519,0.43575,0.76972,0.4114
1700499618085937,-9.899892,-2.195703,0.498519,0.63475,0.90472,0.1486
1700499618093750,-9.866892,-2.244703,0.485519,0.66775,0.97072,0.6386
1700499618101562,-9.853892,-2.252703,0.519519,0.64975,0.93872,0.1486
1700499618109375,-9.845892,-2.235703,0.581519,0.63575,0.83372,0.1986
1700499618117187,-9.804892,-2.240703,0.649519,0.71375,0.100072,0.4786
1700499618125000,-9.784892,-2.274703,0.685519,0.91175,0.109872,0.2786
1700499618132812,-9.804892,-2.328703,0.640519,0.94075,0.101472,0.1186
1700499618140625,-9.798892,-2.351703,0.649519,0.91075,0.99472,0.0
1700499618148437,-9.763892,-2.315703,0.733519,0.77175,0.96372,0.4714
1700499618156250,-9.713892,-2.307703,0.758519,0.79875,0.89072,0.22014
1700499618164062,-9.677892,-2.357703,0.733519,0.105675,0.86772,0.26914
1700499618171875,-9.669892,-2.401703,0.670519,0.108675,0.83172,0.30014
1700499618179687,-9.726892,-2.378703,0.624519,0.82575,0.74772,0.40614
1700499618187500,-9.777892,-2.308703,0.661519,0.64175,0.61572,0.41714
1700499618195312,-9.816892,-2.238703,0.706519,0.62675,0.60172,0.37014
1700499618203125,-9.816892,-2.213703,0.708519,0.73275,0.59172,0.49314
1700499618210937,-9.828892,-2.182703,0.681519,0.77975,0.66372,0.38614
1700499618218750,-9.916892,-2.172703,0.622519,0.79675,0.73272,0.34114
1700499618226562,-10.10892,-2.135703,0.651519,0.62975,0.70272,0.32214
1700499618234375,-9.990892,-2.91703,0.753519,0.61575,0.70672,0.22914
1700499618242187,-9.960892,-2.94703,0.829519,0.64775,0.90972,0.18614
1700499618250000,-9.962892,-2.140703,0.801519,0.86375,0.100972,0.9414
1700499618257812,-9.975892,-2.229703,0.742519,0.92575,0.101172,0.1714
1700499618265625,-9.987892,-2.296703,0.742519,0.81875,0.88072,0.1786
1700499618273437,-10.12892,-2.307703,0.770519,0.63475,0.76672,0.486
1700499618281250,-10.31892,-2.270703,0.838519,0.49775,0.81072,0.11286
1700499618289062,-9.963892,-2.245703,0.913519,0.48475,0.93972,0.6586
1700499618296875,-9.850892,-2.234703,0.931519,0.57675,0.102372,0.7886
1700499618304687,-9.789892,-2.250703,0.897519,0.65075,0.100172,0.1614
1700499618312500,-9.736892,-2.282703,0.874519,0.63275,0.94872,0.11014
1700499618320312,-9.689892,-2.256703,0.897519,0.43175,0.76272,0.24614
1700499618328125,-9.628892,-2.222703,0.954519,0.35475,0.62972,0.25914
1700499618335937,-9.626892,-2.187703,0.954519,0.39975,0.57472,0.28714
1700499618343750,-9.672892,-2.158703,0.922519,0.38275,0.53772,0.39714
1700499618351562,-9.654892,-2.157703,0.911519,0.36675,0.48972,0.38214
1700499618359375,-9.675892,-2.133703,0.865519,0.41275,0.37072,0.36314
1700499618367187,-9.700892,-2.108703,0.838519,0.33775,0.25872,0.23314
1700499618375000,-9.704892,-2.95703,0.804519,0.27675,0.22472,0.24714
1700499618382812,-9.723892,-2.93703,0.774519,0.36775,0.2872,0.12014
1700499618390625,-9.784892,-2.100703,0.733519,0.35475,0.7872,0.7214
1700499618398437,-9.813892,-2.132703,0.694519,0.23175,0.172,0.5614
1700499618406250,-9.872892,-2.135703,0.669519,0.17275,0.4528,0.5686
1700499618414062,-9.929892,-2.128703,0.669519,0.11275,0.5528,0.14986
1700499618421875,-9.969892,-2.141703,0.669519,0.12975,0.328,0.22786
1700499618429687,-9.980892,-2.145703,0.671519,0.13375,0.8472,0.36986
1700499618437500,-9.972892,-2.130703,0.669519,0.2675,0.15772,0.39786
1700499618445312,-9.915892,-2.138703,0.694519,0.8875,0.26072,0.44086
1700499618453125,-9.939892,-2.145703,0.685519,0.21275,0.18872,0.50886
1700499618460937,-9.921892,-2.172703,0.692519,0.18275,0.19072,0.52386
1700499618468750,-9.857892,-2.205703,0.735519,0.27375,0.23972,0.52186
1700499618476562,-9.855892,-2.214703,0.706519,0.41075,0.20372,0.50586
1700499618484375,-9.816892,-2.235703,0.708519,0.39575,0.21372,0.41386
1700499618492187,-9.757892,-2.268703,0.719519,0.42375,0.8272,0.42886
1700499618500000,-9.759892,-2.317703,0.667519,0.42075,0.2572,0.27286
1700499618507812,-9.744892,-2.355703,0.624519,0.36075,0.4028,0.30786
1700499618515625,-9.771892,-2.388703,0.599519,0.35975,0.9128,0.27686
1700499618523437,-9.814892,-2.398703,0.563519,0.25275,0.17228,0.31086
1700499618531250,-9.845892,-2.425703,0.549519,0.14575,0.12128,0.26386
1700499618539062,-9.888892,-2.433703,0.524519,0.2225,0.8328,0.26286
1700499618546875,-9.902892,-2.417703,0.490519,0.8325,0.13428,0.24986
1700499618554687,-9.909892,-2.429703,0.465519,0.9825,0.8028,0.27786
1700499618562500,-9.949892,-2.441703,0.415519,0.15925,0.13328,0.23386
1700499618570312,-10.892,-2.414703,0.394519,0.32825,0.12928,0.20286
1700499618578125,-10.18892,-2.393703,0.419519,0.43325,0.2428,0.26486
1700499618585937,-10.14892,-2.354703,0.449519,0.41825,0.2428,0.26386
1700499618593750,-9.989892,-2.336703,0.453519,0.46325,0.9372,0.26186
1700499618601562,-9.971892,-2.348703,0.451519,0.40125,0.24572,0.27386
1700499618609375,-9.949892,-2.353703,0.453519,0.34225,0.22972,0.25486
1700499618617187,-9.948892,-2.365703,0.471519,0.32425,0.25972,0.27386
1700499618625000,-9.937892,-2.357703,0.503519,0.34125,0.27572,0.22586
1700499618632812,-9.894892,-2.345703,0.535519,0.32625,0.36272,0.23686
1700499618640625,-9.885892,-2.327703,0.537519,0.34025,0.39372,0.23886
1700499618648437,-9.853892,-2.333703,0.551519,0.23425,0.42072,0.14386
1700499618656250,-9.817892,-2.347703,0.579519,0.20325,0.40272,0.14486
1700499618664062,-9.779892,-2.351703,0.590519,0.25125,0.42172,0.11086
1700499618671875,-9.755892,-2.357703,0.595519,0.26625,0.33272,0.5286
1700499618679687,-9.774892,-2.366703,0.579519,0.8525,0.31072,0.2814
1700499618687500,-9.763892,-2.382703,0.594519,0.10325,0.31172,0.9414
1700499618695312,-9.776892,-2.379703,0.578519,0.8625,0.32772,0.4514
1700499618703125,-9.805892,-2.367703,0.565519,0.9925,0.31172,0.1986
1700499618710937,-9.817892,-2.360703,0.586519,0.8425,0.26072,0.3686
1700499618718750,-9.815892,-2.341703,0.601519,0.9825,0.36672,0.9586
1700499618726562,-9.817892,-2.354703,0.620519,0.2225,0.34772,0.9686
1700499618734375,-9.808892,-2.388703,0.583519,0.9775,0.29472,0.4786
1700499618742187,-9.809892,-2.396703,0.567519,0.625,0.39772,0.11186
1700499618750000,-9.830892,-2.367703,0.578519,0.6925,0.36472,0.4886
1700499618757812,-9.833892,-2.349703,0.604519,0.9775,0.32172,0.4514
1700499618765625,-9.842892,-2.349703,0.610519,0.18975,0.32272,0.86
1700499618773437,-9.844892,-2.358703,0.606519,0.32675,0.45272,0.3314
1700499618781250,-9.822892,-2.373703,0.590519,0.40175,0.48672,0.5314
1700499618789062,-9.862892,-2.375703,0.565519,0.44775,0.46372,0.11314
1700499618796875,-9.894892,-2.382703,0.579519,0.38575,0.41372,0.14414
1700499618804687,-9.901892,-2.366703,0.608519,0.39975,0.47672,0.23914
1700499618812500,-9.882892,-2.364703,0.645519,0.56775,0.59172,0.24314
1700499618820312,-9.858892,-2.365703,0.642519,0.64375,0.65672,0.27714
1700499618828125,-9.821892,-2.392703,0.617519,0.64275,0.62072,0.32314
1700499618835937,-9.862892,-2.397703,0.619519,0.60975,0.63672,0.42014
1700499618843750,-9.951892,-2.373703,0.628519,0.50375,0.60572,0.40214
1700499618851562,-9.992892,-2.330703,0.690519,0.39675,0.62172,0.43214
1700499618859375,-9.940892,-2.313703,0.747519,0.38275,0.71172,0.34114
1700499618867187,-9.896892,-2.352703,0.749519,0.54975,0.71972,0.45214
1700499618875000,-9.885892,-2.383703,0.692519,0.51875,0.77172,0.45314
1700499618882812,-9.891892,-2.414703,0.658519,0.38175,0.70572,0.46614
1700499618890625,-9.907892,-2.384703,0.699519,0.13875,0.62572,0.42914
1700499618898437,-9.910892,-2.346703,0.740519,0.3075,0.60972,0.49214
1700499618906250,-9.887892,-2.349703,0.745519,0.10675,0.62472,0.49214
1700499618914062,-9.875892,-2.384703,0.681519,0.14075,0.70872,0.41314
1700499618921875,-9.855892,-2.401703,0.624519,0.9125,0.66472,0.46114
1700499618929687,-9.805892,-2.356703,0.636519,0.33325,0.63572,0.42514
1700499618937500,-9.813892,-2.290703,0.637519,0.48925,0.55472,0.48914
1700499618945312,-9.827892,-2.272703,0.635519,0.38225,0.48372,0.48614
1700499618953125,-9.875892,-2.260703,0.608519,0.33725,0.46672,0.50314
1700499618960937,-9.907892,-2.197703,0.601519,0.61125,0.54072,0.48714
1700499618968750,-9.927892,-2.108703,0.660519,0.67125,0.57472,0.48714
1700499618976562,-9.932892,-2.43703,0.685519,0.58025,0.62372,0.50514
1700499618984375,-9.955892,-2.15703,0.690519,0.56325,0.72172,0.48914
1700499618992187,-10.892,-1.988703,0.667519,0.39525,0.66672,0.50414
1700499619000000,-9.985892,-1.960703,0.723519,0.33525,0.71972,0.47714
1700499619007812,-9.943892,-1.923703,0.807519,0.38025,0.70572,0.42914
1700499619015625,-9.927892,-1.924703,0.864519,0.16425,0.77372,0.32214
1700499619023437,-9.963892,-1.959703,0.844519,0.9375,0.76972,0.31014
1700499619031250,-9.968892,-2.4703,0.817519,0.18875,0.73272,0.22614
1700499619039062,-9.980892,-2.7703,0.851519,0.29575,0.75072,0.18214
1700499619046875,-9.971892,-1.985703,0.910519,0.26575,0.71772,0.16414
1700499619054687,-9.964892,-1.995703,0.958519,0.46375,0.76772,0.12214
1700499619062500,-9.928892,-2.31703,0.967519,0.69275,0.81372,0.12514
1700499619070312,-9.848892,-2.69703,0.974519,0.81575,0.94272,0.14114
1700499619078125,-9.784892,-2.72703,0.961519,0.86075,0.100572,0.22214
1700499619085937,-9.721892,-2.83703,0.988519,0.88675,0.88572,0.34814
1700499619093750,-9.685892,-2.81703,1.8519,0.89975,0.81072,0.51914
1700499619101562,-9.689892,-2.42703,1.18519,0.100675,0.70572,0.50014
1700499619109375,-9.705892,-2.19703,1.24519,0.105175,0.58372,0.55914
1700499619117187,-9.737892,-1.990703,0.995519,0.112775,0.51372,0.55714
1700499619125000,-9.810892,-1.953703,0.992519,0.112775,0.51672,0.51114
1700499619132812,-9.829892,-1.926703,1.1519,0.111275,0.50072,0.51114
1700499619140625,-9.808892,-1.949703,1.20519,0.123575,0.48172,0.46314
1700499619148437,-9.796892,-1.996703,0.956519,0.145075,0.43172,0.35414
1700499619156250,-9.828892,-2.9703,0.894519,0.134275,0.43872,0.30914
1700499619164062,-9.871892,-1.986703,0.892519,0.117675,0.27472,0.24014
1700499619171875,-9.903892,-1.979703,0.921519,0.114575,0.36072,0.24314
1700499619179687,-9.937892,-1.976703,0.935519,0.110275,0.37772,0.19314
1700499619187500,-9.921892,-1.997703,0.903519,0.122275,0.37772,0.19614
1700499619195312,-9.880892,-2.40703,0.880519,0.131575,0.49672,0.15314
1700499619203125,-9.890892,-2.103703,0.810519,0.127175,0.49472,0.13414
1700499619210937,-9.921892,-2.145703,0.776519,0.108975,0.41872,0.3714
1700499619218750,-9.927892,-2.124703,0.840519,0.85975,0.46272,0.786
1700499619226562,-9.904892,-2.91703,0.906519,0.75675,0.43472,0.15286
1700499619234375,-9.841892,-2.76703,0.933519,0.71175,0.55472,0.16486
1700499619242187,-9.802892,-2.85703,0.926519,0.86475,0.53372,0.18086
1700499619250000,-9.782892,-2.104703,0.897519,0.86475,0.55272,0.19486
1700499619257812,-9.766892,-2.84703,0.910519,0.74275,0.44072,0.26086
1700499619265625,-9.780892,-2.50703,0.949519,0.61975,0.28872,0.21886
1700499619273437,-9.796892,-2.46703,0.990519,0.75575,0.35272,0.16886
1700499619281250,-9.802892,-2.77703,0.992519,0.92275,0.32872,0.10586
1700499619289062,-9.822892,-2.107703,0.938519,0.90875,0.34372,0.12386
1700499619296875,-9.830892,-2.163703,0.924519,0.89275,0.24472,0.12486
1700499619304687,-9.814892,-2.187703,0.925519,0.87975,0.24672,0.22086
1700499619312500,-9.867892,-2.212703,0.901519,0.79875,0.14872,0.12386
1700499619320312,-9.909892,-2.231703,0.860519,0.63375,0.13672,0.20586
1700499619328125,-9.927892,-2.243703,0.847519,0.65075,0.21872,0.22186
1700499619335937,-9.909892,-2.246703,0.840519,0.61975,0.18672,0.23886
1700499619343750,-9.911892,-2.252703,0.824519,0.52675,0.14272,0.25186
1700499619351562,-9.911892,-2.249703,0.817519,0.40475,0.14372,0.23786
1700499619359375,-9.886892,-2.226703,0.852519,0.22275,0.19472,0.20886
1700499619367187,-9.857892,-2.202703,0.893519,0.16275,0.21372,0.22486
1700499619375000,-9.830892,-2.185703,0.913519,0.25475,0.26272,0.23886
1700499619382812,-9.828892,-2.182703,0.918519,0.31675,0.32672,0.23886
1700499619390625,-9.796892,-2.174703,0.945519,0.29975,0.30972,0.18986
1700499619398437,-9.812892,-2.186703,0.960519,0.35875,0.25972,0.15686
1700499619406250,-9.819892,-2.199703,0.938519,0.43475,0.17072,0.11286
1700499619414062,-9.857892,-2.194703,0.922519,0.38975,0.10772,0.19286
1700499619421875,-9.862892,-2.199703,0.933519,0.37275,0.4072,0.17786
1700499619429687,-9.853892,-2.174703,0.945519,0.40075,0.3372,0.2086
1700499619437500,-9.837892,-2.179703,0.936519,0.41675,0.10072,0.1986
1700499619445312,-9.810892,-2.219703,0.929519,0.58375,0.1272,0.386
1700499619453125,-9.818892,-2.242703,0.901519,0.61375,0.2028,0.1986
1700499619460937,-9.809892,-2.248703,0.881519,0.39875,0.328,0.8914
1700499619468750,-9.803892,-2.233703,0.906519,0.39675,0.4128,0.18214
1700499619476562,-9.791892,-2.224703,0.893519,0.38375,0.7228,0.10214
1700499619484375,-9.769892,-2.235703,0.886519,0.39675,0.17328,0.13314
1700499619492187,-9.782892,-2.225703,0.852519,0.38375,0.17628,0.12914
1700499619500000,-9.798892,-2.212703,0.824519,0.28975,0.24028,0.16114
1700499619507812,-9.810892,-2.183703,0.829519,0.22975,0.29128,0.14214
1700499619515625,-9.820892,-2.170703,0.815519,0.27375,0.35428,0.9714
1700499619523437,-9.849892,-2.153703,0.815519,0.16675,0.32628,0.21914
1700499619531250,-9.838892,-2.139703,0.792519,0.22575,0.37628,0.23714
1700499619539062,-9.815892,-2.165703,0.758519,0.31875,0.41128,0.20514
1700499619546875,-9.834892,-2.202703,0.710519,0.24375,0.34528,0.21914
1700499619554687,-9.912892,-2.213703,0.633519,0.22675,0.44428,0.23414
1700499619562500,-10.7892,-2.182703,0.608519,0.9425,0.48828,0.24814
1700499619570312,-10.62892,-2.119703,0.646519,0.12325,0.48728,0.21514
1700499619578125,-10.56892,-2.68703,0.696519,0.13825,0.38528,0.20214
1700499619585937,-10.33892,-2.87703,0.667519,0.3175,0.32328,0.18614
1700499619593750,-10.15892,-2.126703,0.617519,0.10575,0.30828,0.23614
1700499619601562,-10.21892,-2.148703,0.580519,0.1425,0.23528,0.15814
1700499619609375,-9.985892,-2.123703,0.623519,0.15125,0.27728,0.7914
1700499619617187,-9.936892,-2.101703,0.667519,0.15125,0.24428,0.8014
1700499619625000,-9.922892,-2.92703,0.623519,0.9025,0.26328,0.9514
1700499619632812,-9.902892,-2.95703,0.594519,0.16725,0.25928,0.6514
1700499619640625,-9.839892,-2.85703,0.600519,0.12125,0.26028,0.8114
1700499619648437,-9.809892,-2.110703,0.596519,0.10625,0.26128,0.9714
1700499619656250,-9.816892,-2.125703,0.546519,0.7625,0.21528,0.17614
1700499619664062,-9.831892,-2.150703,0.485519,0.9125,0.33628,0.17014
1700499619671875,-9.860892,-2.168703,0.457519,0.10825,0.40328,0.21714
1700499619679687,-9.885892,-2.150703,0.439519,0.30625,0.34928,0.23314
1700499619687500,-9.924892,-2.98703,0.407519,0.35225,0.38228,0.23114
1700499619695312,-9.966892,-2.40703,0.411519,0.38225,0.29528,0.20314
1700499619703125,-9.998892,-2.10703,0.416519,0.39625,0.32728,0.13814
1700499619710937,-10.16892,-1.990703,0.414519,0.33325,0.24328,0.9314
1700499619718750,-10.21892,-1.971703,0.418519,0.34525,0.7128,0.1486
1700499619726562,-10.14892,-1.980703,0.426519,0.32825,0.3828,0.6286
1700499619734375,-10.9892,-1.998703,0.441519,0.31325,0.5228,0.9386
1700499619742187,-10.3892,-1.996703,0.453519,0.31125,0.1872,0.18586
1700499619750000,-10.12892,-1.961703,0.498519,0.35625,0.8872,0.21586
1700499619757812,-9.946892,-1.962703,0.560519,0.21625,0.14272,0.38686
1700499619765625,-9.892892,-1.999703,0.562519,0.2025,0.12172,0.32086
1700499619773437,-9.907892,-2.35703,0.532519,0.3425,0.19272,0.38086
1700499619781250,-9.927892,-2.54703,0.534519,0.9525,0.7572,0.41686
1700499619789062,-9.871892,-2.53703,0.610519,0.4925,0.9272,0.43186
1700499619796875,-9.827892,-2.86703,0.624519,0.10475,0.3872,0.48186
1700499619804687,-9.822892,-2.110703,0.597519,0.15075,0.13572,0.43286
1700499619812500,-9.817892,-2.161703,0.557519,0.16475,0.12272,0.44486
1700499619820312,-9.858892,-2.186703,0.526519,0.17875,0.3128,0.41786
1700499619828125,-9.867892,-2.198703,0.535519,0.11775,0.5928,0.47986
1700499619835937,-9.875892,-2.186703,0.562519,0.5675,0.8228,0.38986
1700499619843750,-9.887892,-2.190703,0.544519,0.14875,0.172,0.40286
1700499619851562,-9.882892,-2.190703,0.523519,0.16175,0.128,0.30786
1700499619859375,-9.894892,-2.208703,0.494519,0.28275,0.2128,0.27486
1700499619867187,-9.933892,-2.191703,0.480519,0.20675,0.10172,0.28586
1700499619875000,-9.960892,-2.165703,0.494519,0.16075,0.1272,0.24386
1700499619882812,-9.958892,-2.150703,0.530519,0.31475,0.9572,0.27186
1700499619890625,-9.955892,-2.164703,0.535519,0.46775,0.15672,0.25586
1700499619898437,-9.939892,-2.203703,0.528519,0.52875,0.20872,0.26786
1700499619906250,-9.928892,-2.201703,0.526519,0.43675,0.24072,0.22286
1700499619914062,-9.894892,-2.175703,0.580519,0.40475,0.25672,0.14186
1700499619921875,-9.847892,-2.155703,0.640519,0.58775,0.23572,0.14186
1700499619929687,-9.817892,-2.164703,0.665519,0.63375,0.34872,0.7786
1700499619937500,-9.796892,-2.178703,0.656519,0.72375,0.32572,0.0
1700499619945312,-9.776892,-2.187703,0.647519,0.82875,0.22072,0.6214
1700499619953125,-9.740892,-2.186703,0.658519,0.81175,0.18772,0.9414
1700499619960937,-9.724892,-2.188703,0.640519,0.90275,0.19972,0.17414
1700499619968750,-9.753892,-2.213703,0.612519,0.87075,0.18172,0.23714
1700499619976562,-9.830892,-2.238703,0.548519,0.88575,0.6672,0.18814
1700499619984375,-9.885892,-2.234703,0.521519,0.70175,0.8872,0.18914
1700499619992187,-9.899892,-2.214703,0.550519,0.60975,0.5728,0.12314
1700499620000000,-9.921892,-2.210703,0.542519,0.61375,0.4272,0.4314
1700499620007812,-9.934892,-2.235703,0.510519,0.64375,0.11072,0.4614
1700499620015625,-9.963892,-2.296703,0.462519,0.56975,0.11472,0.4986
1700499620023437,-9.965892,-2.346703,0.430519,0.43175,0.16972,0.4786
1700499620031250,-9.996892,-2.349703,0.426519,0.14375,0.15472,0.3786
1700499620039062,-10.67892,-2.277703,0.412519,0.11425,0.24772,0.8386
1700499620046875,-10.57892,-2.192703,0.478519,0.28325,0.16372,0.2486
1700499620054687,-10.32892,-2.168703,0.551519,0.14525,0.27672,0.686
1700499620062500,-10.54892,-2.226703,0.480519,0.925,0.29472,0.186
1700499620070312,-10.45892,-2.243703,0.451519,0.6725,0.36372,0.9786
1700499620078125,-10.16892,-2.224703,0.483519,0.29625,0.36972,0.9886
1700499620085937,-10.12892,-2.196703,0.521519,0.29625,0.35572,0.12786
1700499620093750,-10.892,-2.209703,0.544519,0.23525,0.37372,0.17486
1700499620101562,-9.993892,-2.230703,0.555519,0.29825,0.30372,0.4986
1700499620109375,-9.975892,-2.223703,0.537519,0.32725,0.38872,0.9686
1700499620117187,-9.948892,-2.225703,0.551519,0.32825,0.31772,0.3586
1700499620125000,-9.896892,-2.215703,0.560519,0.34425,0.31572,0.2614
1700499620132812,-9.846892,-2.200703,0.583519,0.36025,0.38072,0.9114
1700499620140625,-9.835892,-2.165703,0.573519,0.33225,0.39472,0.18614
1700499620148437,-9.824892,-2.133703,0.539519,0.34825,0.22372,0.22814
1700499620156250,-9.820892,-2.111703,0.573519,0.37825,0.27672,0.19914
1700499620164062,-9.821892,-2.71703,0.596519,0.36425,0.24172,0.24614
1700499620171875,-9.851892,-2.17703,0.594519,0.33225,0.31072,0.18514
1700499620179687,-9.833892,-1.993703,0.603519,0.31825,0.20872,0.19814
1700499620187500,-9.813892,-1.973703,0.612519,0.14925,0.20772,0.12114
1700499620195312,-9.802892,-1.963703,0.600519,0.8725,0.22872,0.4514
1700499620203125,-9.811892,-1.976703,0.598519,0.9575,0.19072,0.4514
1700499620210937,-9.813892,-1.971703,0.596519,0.12575,0.22072,0.9214
1700499620218750,-9.803892,-1.923703,0.643519,0.4975,0.19372,0.1414
1700499620226562,-9.742892,-1.886703,0.707519,0.23275,0.25672,0.1614
1700499620234375,-9.739892,-1.910703,0.684519,0.58375,0.22872,0.6414
1700499620242187,-9.788892,-1.987703,0.605519,0.85875,0.12572,0.1486
1700499620250000,-9.850892,-2.59703,0.539519,0.88975,0.9072,0.3286
1700499620257812,-9.894892,-2.43703,0.544519,0.76975,0.11372,0.12686
1700499620265625,-9.935892,-2.7703,0.584519,0.83075,0.11372,0.14286
1700499620273437,-9.961892,-2.17703,0.603519,0.102975,0.20572,0.9486
1700499620281250,-9.956892,-2.80703,0.573519,0.118175,0.22072,0.10786
1700499620289062,-9.960892,-2.138703,0.510519,0.115175,0.29272,0.16786
1700499620296875,-9.985892,-2.162703,0.475519,0.115175,0.30772,0.12086
1700499620304687,-10.31892,-2.140703,0.505519,0.102975,0.31272,0.16786
1700499620312500,-10.42892,-2.128703,0.576519,0.101575,0.38072,0.19886
1700499620320312,-10.46892,-2.187703,0.601519,0.113775,0.41272,0.21186
1700499620328125,-9.988892,-2.260703,0.585519,0.112575,0.52972,0.25986
1700499620335937,-9.910892,-2.324703,0.560519,0.115575,0.64972,0.25486
1700499620343750,-9.919892,-2.355703,0.537519,0.104975,0.63572,0.28686
1700499620351562,-9.957892,-2.361703,0.551519,0.81875,0.48672,0.22886
1700499620359375,-9.967892,-2.330703,0.615519,0.63575,0.43772,0.20086
1700499620367187,-9.956892,-2.306703,0.676519,0.58775,0.40572,0.13686
1700499620375000,-9.883892,-2.314703,0.692519,0.66375,0.50272,0.7086
1700499620382812,-9.826892,-2.337703,0.644519,0.60175,0.58272,0.4014
1700499620390625,-9.784892,-2.329703,0.615519,0.43175,0.50072,0.10114
1700499620398437,-9.763892,-2.299703,0.619519,0.32375,0.46372,0.22414
1700499620406250,-9.784892,-2.263703,0.629519,0.13975,0.24472,0.26314
1700499620414062,-9.814892,-2.228703,0.630519,0.7575,0.24872,0.29814
1700499620421875,-9.851892,-2.191703,0.621519,0.3075,0.17972,0.31014
1700499620429687,-9.863892,-2.172703,0.578519,0.1475,0.21672,0.29714
1700499620437500,-9.851892,-2.169703,0.544519,0.7525,0.31972,0.28214
1700499620445312,-9.867892,-2.173703,0.517519,0.9025,0.16872,0.23014
1700499620453125,-9.892892,-2.141703,0.496519,0.18125,0.16972,0.24514
1700499620460937,-9.873892,-2.89703,0.532519,0.39625,0.24372,0.24814
1700499620468750,-9.850892,-2.27703,0.560519,0.36125,0.22472,0.14814
1700499620476562,-9.821892,-1.981703,0.567519,0.34525,0.17572,0.8414
1700499620484375,-9.833892,-1.949703,0.558519,0.35925,0.21072,0.3614
1700499620492187,-9.867892,-1.929703,0.551519,0.32725,0.19772,0.5786
1700499620500000,-9.912892,-1.921703,0.574519,0.34025,0.21672,0.15386
1700499620507812,-9.913892,-1.903703,0.599519,0.21725,0.25072,0.21386
1700499620515625,-9.865892,-1.900703,0.635519,0.7925,0.33672,0.28786
1700499620523437,-9.829892,-1.927703,0.628519,0.8975,0.34972,0.30386
1700499620531250,-9.818892,-2.14703,0.592519,0.31775,0.32672,0.28686
1700499620539062,-9.815892,-2.95703,0.572519,0.31875,0.37972,0.31686
1700499620546875,-9.835892,-2.137703,0.528519,0.18175,0.33772,0.42786
1700499620554687,-9.890892,-2.126703,0.526519,0.2675,0.28972,0.34886
1700499620562500,-9.954892,-2.102703,0.537519,0.9325,0.27572,0.41486
1700499620570312,-10.4892,-2.70703,0.564519,0.9325,0.25872,0.41486
1700499620578125,-10.20892,-2.75703,0.603519,0.4375,0.27372,0.41286
1700499620585937,-10.26892,-2.101703,0.612519,0.18175,0.36872,0.37986
1700499620593750,-10.25892,-2.154703,0.594519,0.16775,0.43572,0.39486
1700499620601562,-9.968892,-2.170703,0.622519,0.15375,0.57172,0.42486
1700499620609375,-9.898892,-2.201703,0.672519,0.275,0.49472,0.52086
1700499620617187,-9.899892,-2.252703,0.649519,0.7775,0.47672,0.50486
1700499620625000,-9.962892,-2.304703,0.620519,0.18475,0.38972,0.52286
1700499620632812,-9.984892,-2.336703,0.615519,0.3075,0.24272,0.50986
1700499620640625,-9.973892,-2.349703,0.661519,0.9125,0.22872,0.50986
1700499620648437,-9.914892,-2.377703,0.679519,0.7525,0.31172,0.50886
1700499620656250,-9.852892,-2.400703,0.631519,0.7625,0.29372,0.46186
1700499620664062,-9.827892,-2.398703,0.584519,0.10725,0.25672,0.40086
1700499620671875,-9.819892,-2.392703,0.588519,0.30925,0.17672,0.30686
1700499620679687,-9.812892,-2.360703,0.602519,0.31325,0.1372,0.7586
1700499620687500,-9.828892,-2.338703,0.592519,0.32925,0.12972,0.1086
1700499620695312,-9.845892,-2.271703,0.558519,0.34625,0.14372,0.8414
1700499620703125,-9.841892,-2.226703,0.553519,0.33225,0.7372,0.14514
1700499620710937,-9.857892,-2.190703,0.533519,0.33125,0.13972,0.14614
1700499620718750,-9.897892,-2.139703,0.535519,0.34725,0.14372,0.11614
1700499620726562,-9.901892,-2.84703,0.578519,0.36025,0.19272,0.8314
1700499620734375,-9.918892,-2.17703,0.603519,0.32825,0.22772,0.3714
1700499620742187,-9.887892,-1.982703,0.633519,0.15925,0.22872,0.7086
1700499620750000,-9.878892,-1.985703,0.651519,0.3875,0.26072,0.8286
1700499620757812,-9.889892,-2.8703,0.632519,0.19175,0.21072,0.16086
1700499620765625,-9.864892,-2.33703,0.642519,0.36075,0.39272,0.17186
1700499620773437,-9.834892,-2.74703,0.660519,0.49675,0.34172,0.18586
1700499620781250,-9.773892,-2.119703,0.653519,0.66275,0.40472,0.11986
1700499620789062,-9.754892,-2.172703,0.624519,0.66475,0.45272,0.13686
1700499620796875,-9.798892,-2.209703,0.574519,0.75575,0.31572,0.13886
1700499620804687,-9.869892,-2.193703,0.592519,0.66275,0.26772,0.10786
1700499620812500,-9.908892,-2.157703,0.655519,0.61875,0.30172,0.12486
1700499620820312,-9.885892,-2.166703,0.710519,0.72575,0.33272,0.13986
1700499620828125,-9.828892,-2.248703,0.676519,0.87775,0.38172,0.13586
1700499620835937,-9.856892,-2.312703,0.571519,0.98475,0.42972,0.13386
1700499620843750,-9.892892,-2.333703,0.524519,0.74075,0.36572,0.12286
1700499620851562,-9.886892,-2.271703,0.587519,0.47975,0.25372,0.10986
1700499620859375,-9.896892,-2.222703,0.683519,0.37275,0.22072,0.6486
1700499620867187,-9.904892,-2.250703,0.699519,0.57375,0.31972,0.15686
1700499620875000,-9.919892,-2.322703,0.647519,0.65075,0.33772,0.20286
1700499620882812,-9.919892,-2.387703,0.599519,0.61875,0.29072,0.23286
1700499620890625,-9.891892,-2.422703,0.601519,0.42175,0.22672,0.25386
1700499620898437,-9.904892,-2.429703,0.611519,0.14775,0.21572,0.25586
1700499620906250,-9.896892,-2.398703,0.638519,0.6975,0.25072,0.22286
1700499620914062,-9.854892,-2.420703,0.647519,0.5575,0.23272,0.22486
1700499620921875,-9.825892,-2.456703,0.592519,0.10175,0.21572,0.23986
1700499620929687,-9.791892,-2.464703,0.563519,0.5325,0.16672,0.16186
1700499620937500,-9.775892,-2.431703,0.563519,0.29925,0.4872,0.4086
1700499620945312,-9.785892,-2.398703,0.560519,0.34825,0.6772,0.2514
1700499620953125,-9.785892,-2.357703,0.562519,0.33225,0.12872,0.10314
1700499620960937,-9.825892,-2.319703,0.535519,0.33525,0.2672,0.19714
1700499620968750,-9.886892,-2.275703,0.501519,0.35025,0.3972,0.22614
1700499620976562,-9.921892,-2.221703,0.501519,0.39625,0.572,0.24014
1700499620984375,-9.910892,-2.168703,0.530519,0.36825,0.1228,0.32114
1700499620992187,-9.918892,-2.140703,0.509519,0.18325,0.8972,0.23114
1700499621000000,-9.926892,-2.150703,0.482519,0.3025,0.11772,0.23014
1700499621007812,-9.958892,-2.149703,0.448519,0.10525,0.15072,0.24514
1700499621015625,-9.974892,-2.136703,0.475519,0.10425,0.8772,0.15014
1700499621023437,-9.976892,-2.136703,0.491519,0.1775,0.16872,0.16814
1700499621031250,-9.998892,-2.144703,0.494519,0.12575,0.23372,0.13714
1700499621039062,-9.982892,-2.167703,0.492519,0.15575,0.31572,0.20314
1700499621046875,-9.953892,-2.178703,0.517519,0.23375,0.34972,0.12514
1700499621054687,-9.948892,-2.190703,0.539519,0.33975,0.31472,0.11014
1700499621062500,-9.936892,-2.211703,0.542519,0.36975,0.27672,0.17014
1700499621070312,-9.918892,-2.211703,0.563519,0.40075,0.42372,0.25114
1700499621078125,-9.900892,-2.181703,0.597519,0.32475,0.45972,0.23714
1700499621085937,-9.862892,-2.157703,0.610519,0.39975,0.47472,0.25414
1700499621093750,-9.836892,-2.140703,0.635519,0.50475,0.45472,0.33414
1700499621101562,-9.831892,-2.144703,0.624519,0.64075,0.46572,0.39814
1700499621109375,-9.811892,-2.134703,0.658519,0.47375,0.42072,0.36514
1700499621117187,-9.815892,-2.118703,0.680519,0.57975,0.31772,0.34714
1700499621125000,-9.826892,-2.131703,0.669519,0.62575,0.26372,0.36014
1700499621132812,-9.871892,-2.164703,0.649519,0.61275,0.27172,0.22114
1700499621140625,-9.946892,-2.145703,0.624519,0.61075,0.18472,0.28214
1700499621148437,-9.962892,-2.122703,0.653519,0.47775,0.32672,0.14114
1700499621156250,-9.958892,-2.125703,0.685519,0.58575,0.40972,0.9614
1700499621164062,-9.939892,-2.169703,0.674519,0.64775,0.52772,0.5114
1700499621171875,-9.916892,-2.179703,0.640519,0.63075,0.55772,0.16314
1700499621179687,-9.905892,-2.170703,0.669519,0.58575,0.50972,0.11314
1700499621187500,-9.878892,-2.153703,0.710519,0.49275,0.44472,0.14414
1700499621195312,-9.879892,-2.101703,0.733519,0.59975,0.37472,0.12714
1700499621203125,-9.850892,-2.79703,0.776519,0.64375,0.38572,0.23714
1700499621210937,-9.832892,-2.73703,0.772519,0.78075,0.45072,0.27214
1700499621218750,-9.822892,-2.73703,0.749519,0.88775,0.44572,0.30314
1700499621226562,-9.818892,-2.67703,0.755519,0.83975,0.39772,0.32014
1700499621234375,-9.821892,-2.20703,0.776519,0.80975,0.34972,0.27114
1700499621242187,-9.850892,-2.37703,0.754519,0.96475,0.37772,0.23814
1700499621250000,-9.902892,-2.87703,0.722519,0.111575,0.25772,0.23714
1700499621257812,-9.951892,-2.145703,0.688519,0.113175,0.17572,0.18914
1700499621265625,-9.952892,-2.150703,0.681519,0.96675,0.31272,0.14114
1700499621273437,-9.937892,-2.147703,0.706519,0.93375,0.29872,0.17514
1700499621281250,-9.944892,-2.169703,0.692519,0.99575,0.41472,0.19314
1700499621289062,-9.941892,-2.199703,0.699519,0.91875,0.38272,0.19314
1700499621296875,-9.927892,-2.222703,0.683519,0.88675,0.38272,0.25714
1700499621304687,-9.875892,-2.211703,0.708519,0.64275,0.45172,0.31914
1700499621312500,-9.830892,-2.198703,0.710519,0.48975,0.47172,0.33414
1700499621320312,-9.814892,-2.182703,0.708519,0.38175,0.43772,0.38014
1700499621328125,-9.808892,-2.194703,0.703519,0.39575,0.28872,0.37914
1700499621335937,-9.812892,-2.178703,0.701519,0.9175,0.27572,0.37414
1700499621343750,-9.821892,-2.101703,0.735519,0.10725,0.28572,0.31414
1700499621351562,-9.835892,-2.29703,0.781519,0.10525,0.33372,0.29514
1700499621359375,-9.823892,-2.30703,0.810519,0.3475,0.24772,0.19814
1700499621367187,-9.816892,-2.74703,0.776519,0.11075,0.33672,0.12414
1700499621375000,-9.868892,-2.82703,0.721519,0.5075,0.31972,0.12314
1700499621382812,-9.886892,-2.34703,0.738519,0.16125,0.27272,0.8614
1700499621390625,-9.829892,-1.976703,0.835519,0.23925,0.22972,0.4214
1700499621398437,-9.811892,-1.958703,0.858519,0.925,0.22572,0.1114
1700499621406250,-9.792892,-2.14703,0.792519,0.14275,0.14072,0.3586
1700499621414062,-9.782892,-2.67703,0.719519,0.20475,0.5472,0.7086
1700499621421875,-9.821892,-2.46703,0.692519,0.1025,0.9328,0.2786
1700499621429687,-9.858892,-1.986703,0.730519,0.4025,0.12628,0.6086
1700499621437500,-9.904892,-1.927703,0.778519,0.17275,0.9728,0.4286
1700499621445312,-9.922892,-1.957703,0.753519,0.33975,0.8228,0.3986
1700499621453125,-9.900892,-2.23703,0.699519,0.58475,0.3928,0.3886
1700499621460937,-9.886892,-2.94703,0.612519,0.62975,0.5828,0.786
1700499621468750,-9.903892,-2.143703,0.562519,0.52275,0.10528,0.2486
1700499621476562,-9.908892,-2.146703,0.569519,0.38475,0.10128,0.786
1700499621484375,-9.919892,-2.107703,0.606519,0.24975,0.4928,0.4186
1700499621492187,-9.922892,-2.76703,0.633519,0.24875,0.6528,0.2486
1700499621500000,-9.933892,-2.89703,0.633519,0.35575,0.0,0.3886
1700499621507812,-9.896892,-2.134703,0.633519,0.38875,0.14872,0.5386
1700499621515625,-9.894892,-2.163703,0.603519,0.32675,0.20172,0.3586
1700499621523437,-9.882892,-2.172703,0.612519,0.14475,0.15672,0.6986
1700499621531250,-9.873892,-2.163703,0.642519,0.16075,0.12072,0.8786
1700499621539062,-9.908892,-2.166703,0.658519,0.15875,0.9172,0.8486
1700499621546875,-9.887892,-2.170703,0.678519,0.12975,0.10972,0.13286
1700499621554687,-9.875892,-2.177703,0.669519,0.14475,0.15672,0.8586
1700499621562500,-9.864892,-2.164703,0.656519,0.725,0.1172,0.15186
1700499621570312,-9.858892,-2.144703,0.667519,0.11325,0.3172,0.18386
1700499621578125,-9.878892,-2.148703,0.665519,0.825,0.7228,0.15286
1700499621585937,-9.896892,-2.155703,0.672519,0.9875,0.10728,0.16886
1700499621593750,-9.912892,-2.170703,0.658519,0.8375,0.5528,0.18286
1700499621601562,-9.914892,-2.182703,0.639519,0.11275,0.10628,0.16786
1700499621609375,-9.873892,-2.207703,0.624519,0.15675,0.27728,0.12386
1700499621617187,-9.878892,-2.229703,0.594519,0.14175,0.27528,0.13886
1700499621625000,-9.938892,-2.227703,0.544519,0.14175,0.25228,0.1514
1700499621632812,-9.989892,-2.191703,0.546519,0.9025,0.33328,0.9214
1700499621640625,-9.976892,-2.143703,0.594519,0.10825,0.31528,0.19014
1700499621648437,-9.920892,-2.112703,0.605519,0.125,0.20428,0.27014
1700499621656250,-9.858892,-2.131703,0.553519,0.13475,0.10928,0.33614
1700499621664062,-9.879892,-2.155703,0.462519,0.15075,0.10928,0.32014
1700499621671875,-9.906892,-2.139703,0.437519,0.3325,0.23928,0.33314
1700499621679687,-9.921892,-2.63703,0.473519,0.14125,0.34028,0.36114
1700499621687500,-9.951892,-1.990703,0.520519,0.14125,0.28628,0.34814
1700499621695312,-9.924892,-1.958703,0.543519,0.1725,0.15728,0.34914
1700499621703125,-9.862892,-2.5703,0.505519,0.27175,0.13328,0.41414
1700499621710937,-9.848892,-2.66703,0.427519,0.31775,0.14728,0.35214
1700499621718750,-9.829892,-2.92703,0.405519,0.14875,0.16728,0.47514
1700499621726562,-9.862892,-2.30703,0.418519,0.12625,0.21128,0.45714
1700499621734375,-9.876892,-1.952703,0.478519,0.23325,0.27628,0.47014
1700499621742187,-9.881892,-1.911703,0.512519,0.9625,0.28028,0.48614
1700499621750000,-9.900892,-1.909703,0.464519,0.4825,0.14428,0.42614
1700499621757812,-9.929892,-1.917703,0.402519,0.7725,0.20728,0.31514
1700499621765625,-9.945892,-1.927703,0.375519,0.14025,0.23528,0.30214
1700499621773437,-9.965892,-1.922703,0.386519,0.21425,0.31328,0.15614
1700499621781250,-10.6892,-1.926703,0.386519,0.19725,0.31028,0.6214
1700499621789062,-10.29892,-1.939703,0.352519,0.19525,0.23928,0.1486
1700499621796875,-10.40892,-1.959703,0.341519,0.22225,0.21528,0.21986
1700499621804687,-10.37892,-1.988703,0.341519,0.25125,0.12828,0.28086
1700499621812500,-10.41892,-2.16703,0.325519,0.24725,0.3928,0.42086
1700499621820312,-10.50892,-2.61703,0.325519,0.32225,0.8372,0.49686
1700499621828125,-10.20892,-2.90703,0.341519,0.32225,0.6872,0.52886
1700499621835937,-10.10892,-2.117703,0.348519,0.33625,0.11672,0.51386
1700499621843750,-9.992892,-2.180703,0.341519,0.35225,0.22072,0.50986
1700499621851562,-9.962892,-2.204703,0.348519,0.44225,0.28772,0.52586
1700499621859375,-9.960892,-2.187703,0.350519,0.59525,0.27572,0.50986
1700499621867187,-9.942892,-2.147703,0.412519,0.68725,0.26172,0.52686
1700499621875000,-9.936892,-2.120703,0.453519,0.64225,0.23872,0.43386
1700499621882812,-9.927892,-2.117703,0.457519,0.55225,0.18672,0.40086
1700499621890625,-9.940892,-2.120703,0.460519,0.41525,0.26372,0.32086
1700499621898437,-9.936892,-2.121703,0.480519,0.31125,0.25772,0.20986
1700499621906250,-9.963892,-2.115703,0.482519,0.35625,0.23772,0.14986
1700499621914062,-9.945892,-2.109703,0.498519,0.20825,0.18072,0.2186
1700499621921875,-9.924892,-2.134703,0.503519,0.5525,0.11072,0.3786
1700499621929687,-9.942892,-2.157703,0.475519,0.7225,0.16072,0.2614
1700499621937500,-9.935892,-2.140703,0.480519,0.8625,0.14172,0.2414
1700499621945312,-9.915892,-2.100703,0.498519,0.5725,0.10472,0.10214
1700499621953125,-9.929892,-2.76703,0.530519,0.3375,0.6872,0.11814
1700499621960937,-9.879892,-2.61703,0.562519,0.24675,0.12672,0.19714
1700499621968750,-9.800892,-2.61703,0.560519,0.39975,0.22172,0.24714
1700499621976562,-9.785892,-2.38703,0.528519,0.48775,0.18372,0.37514
1700499621984375,-9.778892,-2.25703,0.505519,0.56175,0.18172,0.44014
1700499621992187,-9.788892,-2.1703,0.534519,0.62175,0.9772,0.40814
1700499622000000,-9.799892,-1.973703,0.539519,0.60675,0.2528,0.48114
1700499622007812,-9.802892,-1.913703,0.564519,0.63575,0.5628,0.45114
1700499622015625,-9.801892,-1.860703,0.566519,0.65175,0.8528,0.37414
1700499622023437,-9.806892,-1.871703,0.557519,0.80475,0.3828,0.37614
1700499622031250,-9.823892,-1.902703,0.507519,0.106475,0.12728,0.32814
1700499622039062,-9.854892,-1.921703,0.457519,0.109575,0.16128,0.29414
1700499622046875,-9.879892,-1.952703,0.425519,0.108175,0.17428,0.21614
1700499622054687,-9.922892,-1.981703,0.382519,0.105175,0.13728,0.17014
1700499622062500,-9.942892,-2.13703,0.361519,0.96175,0.20228,0.10314
1700499622070312,-9.948892,-2.17703,0.348519,0.88875,0.11228,0.3786
1700499622078125,-9.936892,-2.35703,0.343519,0.89075,0.7628,0.11686
1700499622085937,-9.927892,-2.86703,0.328519,0.86075,0.872,0.11486
1700499622093750,-9.952892,-2.102703,0.305519,0.66375,0.8272,0.17686
1700499622101562,-9.933892,-2.86703,0.341519,0.58975,0.18672,0.23986
1700499622109375,-9.920892,-2.53703,0.391519,0.49775,0.12172,0.22486
1700499622117187,-9.963892,-2.75703,0.364519,0.63475,0.2928,0.30586
1700499622125000,-9.999892,-2.124703,0.325519,0.64975,0.3772,0.27086
1700499622132812,-10.1892,-2.153703,0.289519,0.46775,0.11072,0.31786
1700499622140625,-10.53892,-2.152703,0.264519,0.37575,0.12672,0.27186
1700499622148437,-10.89892,-2.133703,0.264519,0.17875,0.14872,0.30486
1700499622156250,-10.69892,-2.118703,0.307519,0.14775,0.20072,0.30286
1700499622164062,-10.33892,-2.117703,0.343519,0.16275,0.25272,0.31586
1700499622171875,-10.21892,-2.153703,0.307519,0.14775,0.31872,0.26786
1700499622179687,-9.969892,-2.200703,0.277519,0.17975,0.30572,0.39386
1700499622187500,-9.968892,-2.217703,0.266519,0.7375,0.25572,0.39786
1700499622195312,-10.1892,-2.207703,0.268519,0.6525,0.12772,0.41386
1700499622203125,-10.48892,-2.171703,0.307519,0.18625,0.14772,0.43086
1700499622210937,-10.53892,-2.145703,0.357519,0.17025,0.21072,0.39986
1700499622218750,-9.981892,-2.179703,0.382519,0.6625,0.24372,0.34786
1700499622226562,-9.932892,-2.243703,0.332519,0.1075,0.30272,0.25486
1700499622234375,-9.898892,-2.255703,0.282519,0.6625,0.27172,0.27086
1700499622242187,-9.918892,-2.232703,0.284519,0.25025,0.13972,0.22786
1700499622250000,-9.962892,-2.162703,0.337519,0.32725,0.12272,0.19786
1700499622257812,-9.981892,-2.88703,0.389519,0.34025,0.11972,0.20086
1700499622265625,-9.984892,-2.37703,0.423519,0.22025,0.16972,0.18086
1700499622273437,-9.982892,-2.6703,0.400519,0.2125,0.36372,0.12886
1700499622281250,-9.950892,-2.17703,0.380519,0.11575,0.35672,0.5086
1700499622289062,-9.864892,-2.34703,0.398519,0.28275,0.37272,0.6286
1700499622296875,-9.748892,-2.42703,0.437519,0.43575,0.51972,0.5986
1700499622304687,-9.671892,-2.34703,0.446519,0.57275,0.51572,0.2786
1700499622312500,-9.608892,-2.52703,0.453519,0.70875,0.49072,0.6614
1700499622320312,-9.610892,-2.77703,0.448519,0.85975,0.35372,0.9714
1700499622328125,-9.644892,-2.73703,0.464519,0.88775,0.21672,0.15814
1700499622335937,-9.683892,-2.39703,0.494519,0.88775,0.21872,0.12714
1700499622343750,-9.709892,-2.6703,0.518519,0.90175,0.11872,0.14314
1700499622351562,-9.762892,-1.995703,0.507519,0.107075,0.1272,0.10714
1700499622359375,-9.840892,-2.22703,0.461519,0.111475,0.5128,0.9314
1700499622367187,-9.905892,-2.38703,0.427519,0.117675,0.8828,0.7514
1700499622375000,-9.952892,-2.57703,0.414519,0.116475,0.3728,0.2086
1700499622382812,-9.974892,-2.88703,0.394519,0.130175,0.528,0.1886
1700499622390625,-9.962892,-2.131703,0.348519,0.139475,0.8272,0.14086
1700499622398437,-10.12892,-2.159703,0.287519,0.118075,0.16872,0.6186
1700499622406250,-10.85892,-2.129703,0.293519,0.112075,0.19072,0.13986
1700499622414062,-10.28892,-2.117703,0.394519,0.113775,0.32472,0.16886
1700499622421875,-9.951892,-2.152703,0.419519,0.115275,0.49372,0.14786
1700499622429687,-9.955892,-2.191703,0.362519,0.113675,0.48672,0.2486
1700499622437500,-9.943892,-2.205703,0.332519,0.109175,0.45872,0.11886
1700499622445312,-9.925892,-2.184703,0.364519,0.87875,0.35872,0.7786
1700499622453125,-9.928892,-2.187703,0.421519,0.86175,0.34172,0.4586
1700499622460937,-9.941892,-2.196703,0.414519,0.87675,0.37672,0.4386
1700499622468750,-9.957892,-2.213703,0.373519,0.78675,0.37872,0.7586
1700499622476562,-9.961892,-2.233703,0.328519,0.66375,0.44572,0.1286
1700499622484375,-9.979892,-2.226703,0.294519,0.51075,0.26772,0.7986
1700499622492187,-10.22892,-2.223703,0.273519,0.39075,0.32072,0.12886
1700499622500000,-10.35892,-2.226703,0.267519,0.34575,0.36872,0.8186
