time,Acceleration X (m/s^2),Acceleration Y (m/s^2),Acceleration Z (m/s^2),Angular Velocity X (rad/s),Angular Velocity Y (rad/s),Angular Velocity Z (rad/s)
1700499730968750,-9.318102,-1.868865,-0.484189,,,
1700499730976562,-9.715102,-1.730865,0.439189,0.3959,0.44291,0.23232
1700499730984375,-9.994102,-1.660865,0.251189,0.3629,0.46791,0.21362
1700499730992187,-10.204102,-1.593865,0.151189,0.3559,0.48391,0.17282
1700499731000000,-10.256102,-1.588865,0.119189,0.1959,0.54691,0.12892
1700499731007812,-10.167102,-1.750865,0.119189,0.2081,0.47191,0.8492
1700499731023437,-10.28102,-2.190865,0.382189,0.3671,0.13009,0.2082
1700499731031250,-10.35102,-2.339865,0.468189,0.1591,0.38009,0.1608
1700499731039062,-10.152102,-2.426865,0.573189,0.999,0.77209,0.3438
1700499731046875,-10.250102,-2.480865,0.647189,0.3249,0.89909,0.4928
1700499731070312,-10.265102,-2.453865,0.784189,0.7779,0.80809,0.8068
1700499731078125,-10.324102,-2.455865,0.839189,0.7319,0.80609,0.8528
1700499731085937,-10.273102,-2.500865,0.830189,0.5939,0.65909,0.8168
1700499731093750,-10.126102,-2.509865,0.807189,0.6849,0.23609,0.7598
1700499731101562,-9.954102,-2.489865,0.764189,0.6849,0.17591,0.5788
1700499731109375,-9.944102,-2.366865,0.709189,0.6099,0.36891,0.4178
1700499731117187,-10.52102,-2.262865,0.648189,0.5679,0.47591,0.1638
1700499731125000,-10.10102,-2.190865,0.462189,0.5689,0.82491,0.138
1700499731132812,-9.930102,-2.85865,0.326189,0.4329,0.120591,0.1562
1700499731140625,-9.863102,-2.5865,0.277189,0.1429,0.127591,0.2502
1700499731148437,-9.841102,-1.958865,0.273189,0.1161,0.128691,0.2512
1700499731156250,-9.832102,-1.970865,0.248189,0.1921,0.130191,0.2692
1700499731164062,-9.786102,-1.982865,0.234189,0.3001,0.130691,0.1302
1700499731171875,-9.766102,-1.971865,0.205189,0.3321,0.130891,0.672
1700499731179687,-9.787102,-1.920865,0.194189,0.3181,0.121491,0.918
1700499731187500,-9.856102,-1.870865,0.153189,0.3521,0.103591,0.2858
1700499731195312,-9.947102,-1.876865,0.121189,0.5811,0.93791,0.4418
1700499731203125,-9.957102,-1.932865,0.132189,0.8881,0.73791,0.6478
1700499731210937,-9.867102,-2.48865,0.180189,0.11341,0.68491,0.7588
1700499731218750,-9.718102,-2.190865,0.227189,0.12291,0.63691,0.9178
1700499731226562,-9.553102,-2.310865,0.295189,0.13521,0.48591,0.10158
1700499731234375,-9.461102,-2.441865,0.356189,0.14561,0.19791,0.9718
1700499731242187,-9.467102,-2.554865,0.463189,0.14351,0.19509,0.8078
1700499731250000,-9.549102,-2.637865,0.568189,0.12461,0.43909,0.5158
1700499731257812,-9.594102,-2.667865,0.626189,0.10611,0.46309,0.2998
1700499731265625,-9.643102,-2.596865,0.668189,0.7481,0.38509,0.1122
1700499731273437,-9.735102,-2.440865,0.698189,0.5121,0.31709,0.6132
1700499731281250,-9.843102,-2.299865,0.700189,0.3051,0.37909,0.10682
1700499731289062,-9.866102,-2.176865,0.692189,0.1771,0.15609,0.14832
1700499731296875,-9.780102,-2.72865,0.678189,0.359,0.23991,0.17072
1700499731304687,-9.650102,-1.982865,0.662189,0.1299,0.52191,0.19032
1700499731312500,-9.676102,-1.915865,0.701189,0.1169,0.53291,0.20442
1700499731320312,-9.802102,-1.799865,0.731189,0.4199,0.60591,0.20262
1700499731328125,-9.904102,-1.622865,0.617189,0.8319,0.79991,0.20452
1700499731335937,-10.34102,-1.416865,0.422189,0.9639,0.108091,0.18302
1700499731343750,-10.174102,-1.238865,0.311189,0.9289,0.101991,0.16072
1700499731351562,-10.292102,-1.169865,0.213189,0.6179,0.119091,0.13442
1700499731359375,-10.402102,-1.102865,0.136189,0.5199,0.124191,0.9082
1700499731367187,-10.430102,-1.98865,0.75189,0.3459,0.122291,0.4532
1700499731375000,-10.417102,-1.178865,0.11811,0.19,0.98091,0.708
1700499731382812,-10.459102,-1.285865,0.4189,0.3071,0.63991,0.4678
1700499731390625,-10.446102,-1.405865,0.35189,0.5241,0.69191,0.6708
1700499731398437,-10.356102,-1.554865,0.19189,0.6961,0.54991,0.9868
1700499731406250,-10.220102,-1.722865,0.32189,0.8241,0.54091,0.13028
1700499731414062,-10.107102,-1.914865,0.112189,0.10671,0.25591,0.13988
1700499731421875,-10.123102,-2.24865,0.239189,0.11611,0.591,0.15628
1700499731429687,-10.231102,-2.58865,0.316189,0.11141,0.5391,0.14828
1700499731437500,-10.279102,-2.62865,0.262189,0.8981,0.591,0.13898
1700499731445312,-10.240102,-2.51865,0.220189,0.10651,0.11391,0.12788
1700499731453125,-10.191102,-2.35865,0.221189,0.11531,0.49291,0.10308
1700499731460937,-10.123102,-2.4865,0.237189,0.13171,0.52691,0.7468
1700499731468750,-10.33102,-2.4865,0.210189,0.14191,0.61991,0.5058
1700499731476562,-9.949102,-2.11865,0.191189,0.15541,0.57291,0.3198
1700499731484375,-9.820102,-2.29865,0.180189,0.16251,0.61591,0.948
1700499731492187,-9.622102,-2.58865,0.170189,0.16091,0.70891,0.622
1700499731500000,-9.518102,-2.48865,0.195189,0.16231,0.67191,0.1562
1700499731507812,-9.632102,-2.4865,0.259189,0.16201,0.44991,0.2462
1700499731515625,-9.765102,-2.20865,0.307189,0.16041,0.24691,0.2402
1700499731523437,-9.790102,-2.39865,0.304189,0.13771,0.36891,0.2242
1700499731531250,-9.775102,-1.993865,0.302189,0.12251,0.52491,0.2272
1700499731539062,-9.782102,-1.986865,0.373189,0.11801,0.39891,0.682
1700499731546875,-9.813102,-2.42865,0.407189,0.11801,0.31591,0.522
1700499731554687,-9.792102,-2.104865,0.444189,0.10141,0.40491,0.108
1700499731562500,-9.671102,-2.175865,0.409189,0.8161,0.54591,0.238
1700499731570312,-9.610102,-2.189865,0.448189,0.6661,0.63591,0.1018
1700499731578125,-9.576102,-2.158865,0.425189,0.4991,0.66991,0.728
1700499731585937,-9.581102,-2.94865,0.366189,0.3291,0.67291,0.88
1700499731593750,-9.609102,-2.32865,0.294189,0.1461,0.74491,0.78
1700499731601562,-9.678102,-1.970865,0.271189,0.2991,0.62191,0.108
1700499731609375,-9.739102,-1.974865,0.294189,0.4521,0.55491,0.738
1700499731617187,-9.786102,-2.20865,0.335189,0.4681,0.45791,0.2018
1700499731625000,-9.820102,-2.57865,0.373189,0.4401,0.36491,0.3768
1700499731632812,-9.803102,-2.115865,0.389189,0.4121,0.31691,0.4908
1700499731640625,-9.809102,-2.196865,0.398189,0.5181,0.25091,0.5048
1700499731648437,-9.887102,-2.244865,0.437189,0.5321,0.9991,0.5228
1700499731656250,-9.986102,-2.291865,0.462189,0.4411,0.18491,0.5068
1700499731664062,-10.88102,-2.319865,0.498189,0.4111,0.20291,0.5218
1700499731671875,-10.147102,-2.314865,0.507189,0.1671,0.20691,0.5078
1700499731679687,-10.138102,-2.310865,0.480189,0.1521,0.36191,0.5348
1700499731687500,-10.181102,-2.273865,0.487189,0.1371,0.47391,0.4238
1700499731695312,-10.229102,-2.234865,0.509189,0.1651,0.49591,0.2058
1700499731703125,-10.189102,-2.186865,0.439189,0.1451,0.60791,0.192
1700499731710937,-10.165102,-2.139865,0.405189,0.1581,0.66691,0.2252
1700499731718750,-10.79102,-2.103865,0.407189,0.2321,0.67791,0.3362
1700499731726562,-10.5102,-2.97865,0.407189,0.3671,0.65191,0.4772
1700499731734375,-9.977102,-2.83865,0.446189,0.3681,0.61491,0.5062
1700499731742187,-9.923102,-2.68865,0.443189,0.1971,0.69591,0.6802
1700499731750000,-9.837102,-2.43865,0.391189,0.1341,0.64391,0.7572
1700499731757812,-9.790102,-2.17865,0.384189,0.1351,0.62891,0.7252
1700499731765625,-9.788102,-1.992865,0.398189,0.179,0.59691,0.7392
1700499731773437,-9.830102,-1.947865,0.391189,0.969,0.62791,0.8822
1700499731781250,-9.912102,-1.855865,0.360189,0.3099,0.58191,0.8792
1700499731789062,-9.932102,-1.779865,0.294189,0.3399,0.66791,0.8502
1700499731796875,-9.875102,-1.753865,0.235189,0.3539,0.80491,0.8052
1700499731804687,-9.791102,-1.741865,0.203189,0.1699,0.88491,0.7922
1700499731812500,-9.700102,-1.784865,0.198189,0.1209,0.100491,0.6842
1700499731820312,-9.694102,-1.789865,0.171189,0.769,0.100591,0.7022
1700499731828125,-9.791102,-1.752865,0.125189,0.2269,0.111191,0.6402
1700499731835937,-9.935102,-1.659865,0.41189,0.2409,0.103091,0.5592
1700499731843750,-10.161102,-1.529865,0.51811,0.1639,0.101491,0.4802
1700499731851562,-10.251102,-1.430865,0.155811,0.1309,0.100391,0.3232
1700499731859375,-10.46102,-1.489865,0.308811,0.2101,0.117391,0.762
1700499731867187,-9.861102,-1.594865,0.311811,0.6241,0.85591,0.1948
1700499731875000,-9.822102,-1.706865,0.119811,0.9441,0.51991,0.3398
1700499731882812,-9.849102,-1.834865,0.15811,0.10981,0.23091,0.4428
1700499731890625,-9.991102,-1.881865,0.23189,0.9291,0.2909,0.5258
1700499731898437,-10.130102,-1.860865,0.27189,0.8671,0.17909,0.5128
1700499731906250,-10.175102,-1.879865,0.34189,0.10221,0.16109,0.6388
1700499731914062,-10.156102,-1.908865,0.82189,0.11611,0.17909,0.7178
1700499731921875,-10.124102,-1.970865,0.160189,0.12941,0.31309,0.6838
1700499731929687,-10.139102,-2.41865,0.260189,0.15531,0.38609,0.6678
1700499731937500,-10.149102,-2.111865,0.359189,0.14001,0.37509,0.5298
1700499731945312,-10.106102,-2.121865,0.366189,0.12471,0.16809,0.5088
1700499731953125,-10.84102,-2.101865,0.371189,0.11531,0.13909,0.3508
1700499731960937,-10.77102,-2.96865,0.380189,0.11681,0.5491,0.1918
1700499731968750,-10.79102,-2.75865,0.384189,0.11051,0.11391,0.38
1700499731976562,-10.46102,-2.31865,0.353189,0.10111,0.31391,0.1432
1700499731984375,-10.35102,-1.975865,0.316189,0.8751,0.46191,0.2372
1700499731992187,-10.6102,-1.928865,0.289189,0.8911,0.52691,0.2532
1700499732000000,-9.947102,-1.904865,0.238189,0.7691,0.65891,0.3322
1700499732007812,-9.893102,-1.872865,0.202189,0.6921,0.74691,0.3352
1700499732015625,-9.861102,-1.805865,0.166189,0.6481,0.93991,0.2482
1700499732023437,-9.834102,-1.774865,0.82189,0.6321,0.88791,0.2612
1700499732031250,-9.795102,-1.788865,0.30189,0.6501,0.79391,0.712
1700499732039062,-9.772102,-1.817865,0.11189,0.6361,0.69591,0.98
1700499732046875,-9.770102,-1.815865,0.18189,0.6681,0.63591,0.1828
1700499732054687,-9.785102,-1.835865,0.2811,0.6701,0.65291,0.2308
1700499732062500,-9.837102,-1.875865,0.0,0.7631,0.41691,0.3488
1700499732070312,-9.914102,-1.920865,0.45189,0.7771,0.17191,0.4448
1700499732078125,-9.974102,-1.960865,0.86189,0.7181,0.2091,0.5148
1700499732085937,-9.969102,-2.31865,0.141189,0.7461,0.809,0.5108
1700499732093750,-9.936102,-2.90865,0.206189,0.7341,0.9109,0.6418
1700499732101562,-9.880102,-2.173865,0.277189,0.6431,0.7309,0.6428
1700499732109375,-9.821102,-2.245865,0.329189,0.6121,0.13809,0.6588
1700499732117187,-9.820102,-2.299865,0.391189,0.5171,0.27309,0.5348
1700499732125000,-9.900102,-2.321865,0.464189,0.3481,0.28609,0.5188
1700499732132812,-9.979102,-2.311865,0.482189,0.1051,0.24809,0.5208
1700499732140625,-10.7102,-2.279865,0.459189,0.789,0.7909,0.4238
1700499732148437,-9.960102,-2.238865,0.446189,0.2939,0.17391,0.2928
1700499732156250,-9.890102,-2.198865,0.418189,0.3239,0.28491,0.1668
1700499732164062,-9.852102,-2.132865,0.418189,0.3729,0.38191,0.68
1700499732171875,-9.857102,-2.78865,0.409189,0.5279,0.35791,0.2262
1700499732179687,-9.917102,-1.990865,0.391189,0.5619,0.40491,0.3542
1700499732187500,-9.957102,-1.925865,0.314189,0.5929,0.51991,0.4512
1700499732195312,-9.955102,-1.870865,0.273189,0.4869,0.58391,0.5012
1700499732203125,-9.910102,-1.819865,0.248189,0.4089,0.73191,0.4862
1700499732210937,-9.876102,-1.812865,0.225189,0.3309,0.71391,0.4382
1700499732218750,-9.893102,-1.784865,0.232189,0.3309,0.66991,0.3452
1700499732226562,-9.895102,-1.792865,0.191189,0.2839,0.58391,0.2942
1700499732234375,-9.904102,-1.793865,0.166189,0.1619,0.48691,0.2012
1700499732242187,-9.956102,-1.807865,0.159189,0.679,0.40491,0.572
1700499732250000,-9.980102,-1.861865,0.191189,0.369,0.29491,0.998
1700499732257812,-9.920102,-1.934865,0.202189,0.261,0.24091,0.1358
1700499732265625,-9.922102,-1.966865,0.255189,0.581,0.23091,0.2748
1700499732273437,-9.970102,-1.970865,0.294189,0.111,0.16691,0.2908
1700499732281250,-9.978102,-1.987865,0.291189,0.799,0.309,0.2828
1700499732289062,-9.928102,-2.15865,0.263189,0.959,0.2009,0.2668
1700499732296875,-9.921102,-2.30865,0.298189,0.639,0.9791,0.2798
1700499732304687,-9.942102,-2.42865,0.355189,0.509,0.5109,0.2648
1700499732312500,-9.976102,-2.25865,0.373189,0.799,0.1591,0.2808
1700499732320312,-9.989102,-2.5865,0.345189,0.959,0.2991,0.2348
1700499732328125,-9.953102,-2.8865,0.311189,0.1119,0.4491,0.1868
1700499732335937,-9.960102,-1.994865,0.334189,0.809,0.2391,0.1418
1700499732343750,-9.968102,-1.952865,0.350189,0.839,0.8891,0.278
1700499732351562,-9.948102,-1.919865,0.312189,0.1009,0.20091,0.1322
1700499732359375,-9.943102,-1.880865,0.284189,0.269,0.15991,0.2562
1700499732367187,-9.960102,-1.843865,0.296189,0.1391,0.12291,0.3212
1700499732375000,-9.969102,-1.821865,0.314189,0.1991,0.27091,0.3882
1700499732382812,-9.974102,-1.789865,0.312189,0.3051,0.18191,0.4342
1700499732390625,-9.893102,-1.796865,0.296189,0.3501,0.28291,0.4542
1700499732398437,-9.854102,-1.800865,0.262189,0.3221,0.19991,0.3702
1700499732406250,-9.943102,-1.801865,0.323189,0.5351,0.9891,0.3082
1700499732414062,-10.17102,-1.817865,0.366189,0.5221,0.6691,0.2112
1700499732421875,-10.1102,-1.824865,0.323189,0.3851,0.15491,0.1972
1700499732429687,-9.951102,-1.816865,0.287189,0.3871,0.17491,0.1032
1700499732437500,-9.876102,-1.857865,0.300189,0.4641,0.10991,0.72
1700499732445312,-9.832102,-1.949865,0.334189,0.6011,0.7509,0.418
1700499732453125,-9.867102,-2.22865,0.393189,0.5561,0.14409,0.298
1700499732460937,-9.869102,-2.44865,0.391189,0.3561,0.5609,0.192
1700499732468750,-9.878102,-2.23865,0.377189,0.2191,0.6109,0.1252
1700499732476562,-9.931102,-1.968865,0.368189,0.1551,0.4409,0.2222
1700499732484375,-9.959102,-1.934865,0.355189,0.1531,0.3791,0.3352
1700499732492187,-10.102,-1.923865,0.360189,0.1511,0.1609,0.4452
1700499732500000,-10.52102,-1.895865,0.416189,0.1511,0.209,0.4752
1700499732507812,-10.53102,-1.869865,0.410189,0.1521,0.28591,0.4672
1700499732515625,-10.45102,-1.804865,0.367189,0.761,0.33791,0.4682
1700499732523437,-10.36102,-1.746865,0.296189,0.471,0.35491,0.4352
1700499732531250,-10.13102,-1.726865,0.241189,0.1261,0.43791,0.3562
1700499732539062,-9.957102,-1.705865,0.214189,0.1721,0.45991,0.2652
1700499732546875,-9.925102,-1.717865,0.173189,0.3121,0.43791,0.2152
1700499732554687,-9.966102,-1.738865,0.193189,0.4181,0.25591,0.1502
1700499732562500,-9.983102,-1.781865,0.234189,0.4321,0.11791,0.1782
1700499732570312,-10.1102,-1.813865,0.239189,0.4651,0.14091,0.382
1700499732578125,-10.21102,-1.817865,0.269189,0.5261,0.4291,0.248
1700499732585937,-10.44102,-1.826865,0.282189,0.5721,0.1091,0.718
1700499732593750,-10.30102,-1.843865,0.277189,0.5271,0.3991,0.438
1700499732601562,-10.14102,-1.829865,0.300189,0.4041,0.1391,0.738
1700499732609375,-10.33102,-1.824865,0.337189,0.4971,0.2991,0.1198
1700499732617187,-10.12102,-1.847865,0.348189,0.6481,0.7409,0.888
1700499732625000,-9.980102,-1.887865,0.382189,0.6341,0.2309,0.1368
1700499732632812,-9.986102,-1.893865,0.418189,0.6501,0.4209,0.1228
1700499732640625,-9.957102,-1.876865,0.400189,0.5291,0.11291,0.1508
1700499732648437,-9.910102,-1.849865,0.314189,0.4071,0.23091,0.868
1700499732656250,-9.869102,-1.850865,0.305189,0.5601,0.14691,0.1818
1700499732664062,-9.846102,-1.906865,0.336189,0.7111,0.791,0.1528
1700499732671875,-9.834102,-1.959865,0.393189,0.6961,0.2509,0.1528
1700499732679687,-9.813102,-1.987865,0.423189,0.5581,0.4691,0.1508
1700499732687500,-9.816102,-1.951865,0.407189,0.3451,0.14991,0.1028
1700499732695312,-9.853102,-1.895865,0.373189,0.3741,0.9591,0.258
1700499732703125,-9.898102,-1.875865,0.350189,0.4031,0.4491,0.98
1700499732710937,-9.927102,-1.873865,0.368189,0.5441,0.7391,0.748
1700499732718750,-9.881102,-1.918865,0.386189,0.4381,0.19391,0.898
1700499732726562,-9.809102,-1.954865,0.398189,0.4971,0.24791,0.838
1700499732734375,-9.833102,-1.950865,0.418189,0.3931,0.16391,0.1528
1700499732742187,-9.920102,-1.934865,0.419189,0.3901,0.3191,0.1208
1700499732750000,-9.950102,-1.939865,0.355189,0.2081,0.12291,0.1658
1700499732757812,-9.913102,-1.952865,0.305189,0.2881,0.15991,0.3238
1700499732765625,-9.851102,-1.998865,0.302189,0.4431,0.17991,0.4948
1700499732773437,-9.852102,-2.75865,0.366189,0.4731,0.10609,0.5338
1700499732781250,-9.888102,-2.155865,0.445189,0.4271,0.22309,0.5368
1700499732789062,-9.891102,-2.229865,0.482189,0.3191,0.27109,0.5218
1700499732796875,-9.853102,-2.242865,0.472189,0.1071,0.18309,0.5378
1700499732804687,-9.851102,-2.222865,0.475189,0.309,0.21309,0.5228
1700499732812500,-9.917102,-2.172865,0.498189,0.469,0.21509,0.4918
1700499732820312,-9.942102,-2.152865,0.491189,0.939,0.10009,0.3638
1700499732828125,-9.963102,-2.109865,0.495189,0.349,0.1091,0.2358
1700499732835937,-9.934102,-2.74865,0.518189,0.59,0.5791,0.1228
1700499732843750,-9.885102,-2.68865,0.534189,0.531,0.21991,0.72
1700499732851562,-9.862102,-2.35865,0.557189,0.61,0.24891,0.1172
1700499732859375,-9.904102,-1.981865,0.550189,0.859,0.34891,0.2132
1700499732867187,-9.902102,-1.910865,0.485189,0.549,0.34891,0.1972
1700499732875000,-9.894102,-1.857865,0.410189,0.381,0.46591,0.1532
1700499732882812,-9.899102,-1.824865,0.385189,0.1731,0.39791,0.1552
1700499732890625,-9.921102,-1.868865,0.396189,0.3271,0.37991,0.762
1700499732898437,-9.941102,-1.932865,0.418189,0.5261,0.27491,0.422
1700499732906250,-9.938102,-1.953865,0.425189,0.4211,0.36191,0.48
1700499732914062,-9.965102,-1.976865,0.416189,0.4071,0.29791,0.688
1700499732921875,-9.964102,-1.982865,0.398189,0.3931,0.23291,0.1508
1700499732929687,-10.10102,-1.967865,0.384189,0.3171,0.24791,0.1208
1700499732937500,-10.17102,-1.955865,0.350189,0.4071,0.24891,0.1168
1700499732945312,-9.995102,-1.958865,0.339189,0.4211,0.19691,0.698
1700499732953125,-9.988102,-1.956865,0.341189,0.5571,0.21091,0.368
1700499732960937,-9.990102,-1.964865,0.359189,0.5881,0.17491,0.388
1700499732968750,-9.949102,-2.21865,0.359189,0.6011,0.12291,0.242
1700499732976562,-9.871102,-2.35865,0.389189,0.6161,0.16891,0.1192
1700499732984375,-9.865102,-2.14865,0.460189,0.4591,0.11991,0.2462
1700499732992187,-9.896102,-1.921865,0.476189,0.3351,0.9591,0.4472
1700499733000000,-9.879102,-1.842865,0.399189,0.1201,0.10091,0.4792
1700499733007812,-9.909102,-1.759865,0.367189,0.2421,0.5509,0.4902
1700499733015625,-9.936102,-1.740865,0.435189,0.4101,0.7609,0.4752
1700499733023437,-9.927102,-1.766865,0.462189,0.4411,0.9509,0.4892
1700499733031250,-9.911102,-1.769865,0.521189,0.4121,0.7209,0.3652
1700499733039062,-9.932102,-1.760865,0.560189,0.3981,0.8409,0.2702
1700499733046875,-9.963102,-1.777865,0.569189,0.4001,0.11309,0.1442
1700499733054687,-9.951102,-1.813865,0.553189,0.4021,0.19309,0.152
1700499733062500,-9.906102,-1.848865,0.560189,0.3121,0.1709,0.578
1700499733070312,-9.883102,-1.861865,0.592189,0.3601,0.8309,0.1708
1700499733078125,-9.914102,-1.882865,0.646189,0.2681,0.19909,0.1738
1700499733085937,-9.962102,-1.909865,0.674189,0.1601,0.14609,0.1568
1700499733093750,-9.989102,-1.918865,0.690189,0.381,0.9409,0.1248
1700499733101562,-9.930102,-1.905865,0.717189,0.829,0.709,0.1238
1700499733109375,-9.846102,-1.912865,0.710189,0.829,0.5791,0.758
1700499733117187,-9.793102,-1.933865,0.730189,0.999,0.1891,0.332
1700499733125000,-9.782102,-1.968865,0.796189,0.859,0.16591,0.1292
1700499733132812,-9.786102,-1.984865,0.828189,0.2379,0.26991,0.1632
1700499733140625,-9.780102,-1.970865,0.824189,0.4089,0.27391,0.2442
1700499733148437,-9.796102,-1.915865,0.799189,0.6219,0.48891,0.3862
1700499733156250,-9.834102,-1.803865,0.735189,0.8049,0.67391,0.4672
1700499733164062,-9.874102,-1.672865,0.649189,0.8059,0.87491,0.5362
1700499733171875,-10.102,-1.550865,0.567189,0.7759,0.91991,0.6302
1700499733179687,-10.151102,-1.450865,0.520189,0.5939,0.93391,0.6332
1700499733187500,-10.224102,-1.418865,0.461189,0.4259,0.106491,0.6692
1700499733195312,-10.247102,-1.400865,0.424189,0.3309,0.118291,0.5602
1700499733203125,-10.288102,-1.355865,0.404189,0.3459,0.118491,0.5292
1700499733210937,-10.254102,-1.372865,0.327189,0.1609,0.122491,0.3302
1700499733218750,-10.213102,-1.381865,0.231189,0.1249,0.123191,0.602
1700499733226562,-10.283102,-1.384865,0.201189,0.161,0.103491,0.1968
1700499733234375,-10.309102,-1.451865,0.197189,0.3241,0.87091,0.4338
1700499733242187,-10.264102,-1.559865,0.201189,0.3731,0.78891,0.5948
1700499733250000,-10.211102,-1.666865,0.244189,0.5131,0.73091,0.8448
1700499733257812,-10.174102,-1.759865,0.305189,0.6551,0.65191,0.10988
1700499733265625,-10.124102,-1.866865,0.325189,0.5341,0.53691,0.11498
1700499733273437,-10.68102,-1.922865,0.303189,0.4251,0.57691,0.11308
1700499733281250,-10.10102,-1.932865,0.288189,0.3971,0.62191,0.11028
1700499733289062,-9.940102,-1.950865,0.277189,0.4981,0.56291,0.8648
1700499733296875,-9.881102,-1.986865,0.270189,0.6171,0.61791,0.6598
1700499733304687,-9.843102,-1.960865,0.266189,0.4921,0.66391,0.4708
1700499733312500,-9.848102,-1.908865,0.257189,0.4721,0.75591,0.1998
1700499733320312,-9.816102,-1.878865,0.214189,0.4691,0.74791,0.202
1700499733328125,-9.840102,-1.833865,0.177189,0.6041,0.78891,0.1622
1700499733335937,-9.883102,-1.806865,0.191189,0.5251,0.77191,0.2572
1700499733343750,-9.892102,-1.772865,0.150189,0.5281,0.92291,0.2122
1700499733351562,-9.909102,-1.715865,0.120189,0.4841,0.95791,0.1472
1700499733359375,-9.930102,-1.694865,0.77189,0.4701,0.94991,0.82
1700499733367187,-9.925102,-1.680865,0.31189,0.5811,0.75191,0.2178
1700499733375000,-9.907102,-1.719865,0.32189,0.6741,0.67691,0.4358
1700499733382812,-9.922102,-1.757865,0.59189,0.6461,0.63491,0.6098
1700499733390625,-9.942102,-1.802865,0.90189,0.7401,0.48191,0.7258
1700499733398437,-9.884102,-1.886865,0.91189,0.7881,0.39091,0.9458
1700499733406250,-9.824102,-1.999865,0.125189,0.9091,0.20791,0.10258
1700499733414062,-9.877102,-2.97865,0.245189,0.8961,0.5809,0.11768
1700499733421875,-9.985102,-2.190865,0.345189,0.8941,0.19309,0.11138
1700499733429687,-10.18102,-2.240865,0.406189,0.6631,0.14509,0.9748
1700499733437500,-9.893102,-2.305865,0.363189,0.4791,0.7691,0.8898
1700499733445312,-9.872102,-2.327865,0.393189,0.4171,0.8991,0.7808
1700499733453125,-9.958102,-2.362865,0.513189,0.4271,0.5309,0.5318
1700499733460937,-10.25102,-2.419865,0.568189,0.1961,0.5109,0.4378
1700499733468750,-10.20102,-2.393865,0.563189,0.1559,0.25891,0.1068
1700499733476562,-10.1102,-2.301865,0.517189,0.3999,0.65891,0.872
1700499733484375,-10.36102,-2.199865,0.481189,0.5269,0.65591,0.2772
1700499733492187,-10.117102,-2.98865,0.445189,0.6049,0.80291,0.4532
1700499733500000,-10.172102,-2.1865,0.374189,0.8169,0.90391,0.4822
1700499733507812,-10.210102,-1.856865,0.288189,0.8159,0.119091,0.4902
1700499733515625,-10.76102,-1.778865,0.113189,0.8449,0.144291,0.5112
1700499733523437,-9.893102,-1.750865,0.36811,0.6609,0.144591,0.3882
1700499733531250,-9.831102,-1.787865,0.34811,0.3269,0.118991,0.3232
1700499733539062,-9.889102,-1.879865,0.31189,0.1259,0.89191,0.812
1700499733546875,-9.961102,-1.908865,0.91189,0.2029,0.69691,0.162
1700499733554687,-9.973102,-1.874865,0.38189,0.4589,0.74091,0.1428
1700499733562500,-9.983102,-1.817865,0.29811,0.4279,0.69291,0.2058
1700499733570312,-9.992102,-1.839865,0.31811,0.2269,0.49491,0.4298
1700499733578125,-10.2102,-1.916865,0.13189,0.791,0.42091,0.4938
1700499733585937,-9.935102,-1.977865,0.97189,0.1711,0.43691,0.5248
1700499733593750,-9.846102,-2.49865,0.120189,0.1851,0.43691,0.4758
1700499733601562,-9.880102,-2.56865,0.186189,0.1671,0.41391,0.3028
1700499733609375,-9.928102,-2.42865,0.200189,0.1661,0.41091,0.2408
1700499733617187,-9.907102,-2.30865,0.163189,0.1471,0.53491,0.282
1700499733625000,-9.863102,-1.999865,0.161189,0.1591,0.61691,0.1762
1700499733632812,-9.813102,-1.969865,0.134189,0.1751,0.67591,0.2672
1700499733640625,-9.841102,-1.950865,0.146189,0.2921,0.65591,0.4142
1700499733648437,-9.853102,-1.903865,0.123189,0.1241,0.83991,0.5102
1700499733656250,-9.808102,-1.837865,0.11189,0.501,0.107691,0.4982
1700499733664062,-9.782102,-1.750865,0.56811,0.1111,0.107291,0.5132
1700499733671875,-9.787102,-1.683865,0.104811,0.2791,0.102291,0.4512
1700499733679687,-9.797102,-1.662865,0.144811,0.3861,0.100691,0.4062
1700499733687500,-9.806102,-1.661865,0.193811,0.4951,0.88791,0.3072
1700499733695312,-9.828102,-1.681865,0.188811,0.6351,0.72691,0.692
1700499733703125,-9.791102,-1.743865,0.186811,0.7921,0.71391,0.1678
1700499733710937,-9.786102,-1.777865,0.181811,0.8231,0.65291,0.2928
1700499733718750,-9.783102,-1.815865,0.195811,0.8101,0.54191,0.4688
1700499733726562,-9.844102,-1.874865,0.177811,0.10091,0.38691,0.5198
1700499733734375,-9.907102,-1.920865,0.122811,0.9801,0.30891,0.6618
1700499733742187,-10.4102,-1.925865,0.93811,0.9051,0.22591,0.6818
1700499733750000,-10.55102,-1.946865,0.95811,0.10121,0.22591,0.7438
1700499733757812,-9.933102,-2.50865,0.138811,0.11171,0.17991,0.7708
1700499733765625,-9.884102,-2.148865,0.73811,0.11931,0.2491,0.7588
1700499733773437,-9.870102,-2.286865,0.40189,0.13161,0.5809,0.8548
1700499733781250,-9.907102,-2.408865,0.142189,0.12081,0.24209,0.8438
1700499733789062,-10.20102,-2.431865,0.206189,0.7831,0.23009,0.9258
1700499733796875,-10.59102,-2.384865,0.163189,0.5861,0.8909,0.9868
1700499733804687,-10.33102,-2.358865,0.90189,0.4471,0.5109,0.9368
1700499733812500,-10.12102,-2.382865,0.113189,0.6011,0.5809,0.9228
1700499733820312,-9.966102,-2.445865,0.229189,0.6601,0.15909,0.9238
1700499733828125,-9.947102,-2.470865,0.320189,0.6131,0.9709,0.7818
1700499733835937,-9.921102,-2.453865,0.345189,0.4271,0.3591,0.5898
1700499733843750,-9.826102,-2.411865,0.267189,0.1831,0.23491,0.4478
1700499733851562,-9.779102,-2.350865,0.231189,0.2091,0.19491,0.2578
1700499733859375,-9.789102,-2.277865,0.288189,0.3441,0.19691,0.238
1700499733867187,-9.783102,-2.210865,0.331189,0.3391,0.18591,0.2592
1700499733875000,-9.757102,-2.133865,0.318189,0.1531,0.33391,0.4822
1700499733882812,-9.693102,-2.20865,0.277189,0.1681,0.33291,0.4982
1700499733890625,-9.674102,-1.916865,0.259189,0.3481,0.14091,0.5902
1700499733898437,-9.728102,-1.890865,0.307189,0.5771,0.4709,0.5082
1700499733906250,-9.776102,-1.900865,0.382189,0.6391,0.4809,0.4922
1700499733914062,-9.756102,-1.908865,0.412189,0.6251,0.1191,0.3392
1700499733921875,-9.758102,-1.899865,0.416189,0.6451,0.6791,0.1342
1700499733929687,-9.821102,-1.900865,0.435189,0.6301,0.4709,0.522
1700499733937500,-9.841102,-1.931865,0.421189,0.6501,0.2109,0.1828
1700499733945312,-9.831102,-1.978865,0.430189,0.6381,0.10191,0.3218
1700499733953125,-9.805102,-2.74865,0.448189,0.6551,0.9091,0.4638
1700499733960937,-9.811102,-2.161865,0.491189,0.6561,0.809,0.5288
1700499733968750,-9.860102,-2.206865,0.527189,0.4431,0.2209,0.5318
1700499733976562,-9.871102,-2.223865,0.489189,0.2441,0.10191,0.5128
1700499733984375,-9.908102,-2.189865,0.446189,0.1531,0.15591,0.5428
1700499733992187,-9.953102,-2.175865,0.427189,0.9,0.8691,0.4198
1700499734000000,-9.969102,-2.186865,0.446189,0.1501,0.13491,0.4008
1700499734007812,-9.978102,-2.199865,0.468189,0.131,0.15091,0.3558
1700499734015625,-9.972102,-2.179865,0.482189,0.789,0.24991,0.2598
1700499734023437,-9.945102,-2.148865,0.457189,0.1099,0.25191,0.2758
1700499734031250,-9.957102,-2.125865,0.432189,0.979,0.20191,0.1948
1700499734039062,-10.6102,-2.109865,0.478189,0.819,0.16191,0.1358
1700499734046875,-9.997102,-2.112865,0.464189,0.969,0.29591,0.1008
1700499734054687,-9.930102,-2.91865,0.455189,0.819,0.33191,0.1298
1700499734062500,-9.886102,-2.109865,0.434189,0.969,0.31191,0.1008
1700499734070312,-9.934102,-2.110865,0.503189,0.819,0.14391,0.1208
1700499734078125,-9.961102,-2.110865,0.523189,0.1299,0.19091,0.98
1700499734085937,-9.939102,-2.104865,0.455189,0.2359,0.34591,0.68
1700499734093750,-9.916102,-2.86865,0.432189,0.2209,0.37391,0.872
1700499734101562,-9.942102,-2.46865,0.437189,0.2229,0.35491,0.1662
1700499734109375,-9.997102,-2.5865,0.455189,0.1789,0.40391,0.2162
1700499734117187,-9.984102,-1.955865,0.405189,0.3619,0.54091,0.2822
1700499734125000,-10.17102,-1.874865,0.353189,0.3019,0.57091,0.3462
1700499734132812,-10.101102,-1.803865,0.351189,0.1479,0.59791,0.3442
1700499734140625,-10.67102,-1.788865,0.314189,0.1019,0.66691,0.3002
1700499734148437,-10.102,-1.765865,0.271189,0.859,0.73791,0.2402
1700499734156250,-10.4102,-1.756865,0.253189,0.1591,0.66791,0.1772
1700499734164062,-9.970102,-1.799865,0.248189,0.1611,0.63791,0.502
1700499734171875,-9.919102,-1.856865,0.250189,0.2251,0.63691,0.468
1700499734179687,-9.923102,-1.850865,0.271189,0.3021,0.53891,0.1428
1700499734187500,-9.952102,-1.871865,0.250189,0.3201,0.47591,0.3028
1700499734195312,-9.982102,-1.916865,0.259189,0.4131,0.49791,0.4248
1700499734203125,-9.954102,-1.950865,0.266189,0.4141,0.49991,0.4728
1700499734210937,-9.899102,-2.4865,0.284189,0.4151,0.55291,0.5178
1700499734218750,-9.927102,-2.77865,0.339189,0.5821,0.48091,0.5028
1700499734226562,-9.968102,-2.97865,0.359189,0.5371,0.51591,0.5188
1700499734234375,-9.986102,-2.90865,0.300189,0.3541,0.65491,0.4998
1700499734242187,-9.998102,-2.67865,0.259189,0.3861,0.66991,0.5168
1700499734250000,-9.982102,-2.59865,0.239189,0.3851,0.78891,0.4968
1700499734257812,-9.998102,-2.75865,0.275189,0.4291,0.70491,0.4648
1700499734265625,-10.23102,-2.74865,0.291189,0.4141,0.71791,0.4188
1700499734273437,-9.935102,-2.62865,0.218189,0.3361,0.81791,0.3228
1700499734281250,-9.867102,-2.9865,0.161189,0.3381,0.100091,0.3358
1700499734289062,-9.856102,-2.21865,0.147189,0.5971,0.74691,0.4018
1700499734296875,-9.905102,-2.89865,0.211189,0.7011,0.54191,0.3738
1700499734304687,-9.956102,-2.159865,0.281189,0.7021,0.50591,0.3598
1700499734312500,-9.919102,-2.184865,0.318189,0.6261,0.54291,0.4068
1700499734320312,-9.842102,-2.172865,0.279189,0.4441,0.59791,0.4068
1700499734328125,-9.786102,-2.168865,0.234189,0.4131,0.61291,0.3598
1700499734335937,-9.765102,-2.175865,0.229189,0.5501,0.52691,0.3768
1700499734343750,-9.796102,-2.233865,0.277189,0.6711,0.38791,0.3478
1700499734351562,-9.793102,-2.272865,0.320189,0.5791,0.42091,0.3008
1700499734359375,-9.782102,-2.275865,0.333189,0.3801,0.49091,0.2528
1700499734367187,-9.810102,-2.250865,0.313189,0.2421,0.57691,0.2038
1700499734375000,-9.869102,-2.221865,0.306189,0.3021,0.65791,0.1228
1700499734382812,-9.858102,-2.228865,0.270189,0.1961,0.76091,0.1208
1700499734390625,-9.801102,-2.223865,0.257189,0.1471,0.76091,0.248
1700499734398437,-9.751102,-2.211865,0.247189,0.1481,0.85791,0.62
1700499734406250,-9.697102,-2.216865,0.183189,0.1351,0.100991,0.68
1700499734414062,-9.720102,-2.181865,0.168189,0.499,0.99791,0.252
1700499734421875,-9.839102,-2.103865,0.129189,0.809,0.95891,0.1002
1700499734429687,-9.998102,-2.24865,0.93189,0.959,0.97991,0.392
1700499734437500,-10.92102,-1.954865,0.23189,0.19,0.106591,0.528
1700499734445312,-10.163102,-1.903865,0.38811,0.921,0.106791,0.1948
1700499734453125,-10.152102,-1.897865,0.70811,0.2921,0.120291,0.2678
1700499734460937,-10.67102,-1.920865,0.139811,0.4341,0.131991,0.4248
1700499734468750,-10.22102,-1.968865,0.136811,0.6011,0.116991,0.5038
1700499734476562,-9.972102,-2.50865,0.134811,0.7261,0.105191,0.6348
1700499734484375,-9.885102,-2.138865,0.139811,0.8341,0.98491,0.6978
1700499734492187,-9.846102,-2.201865,0.128811,0.9701,0.71691,0.7648
1700499734500000,-9.939102,-2.216865,0.50811,0.10281,0.53191,0.7498
1700499734507812,-9.977102,-2.240865,0.41811,0.9831,0.53191,0.7508
1700499734515625,-9.922102,-2.283865,0.89811,0.10441,0.61291,0.7028
1700499734523437,-9.859102,-2.296865,0.89811,0.10871,0.59391,0.6058
1700499734531250,-9.845102,-2.305865,0.34811,0.11751,0.45291,0.4978
1700499734539062,-9.851102,-2.340865,0.5811,0.11421,0.19491,0.3798
1700499734546875,-9.888102,-2.353865,0.22189,0.10941,0.34091,0.1868
1700499734554687,-9.863102,-2.349865,0.35189,0.8931,0.48991,0.42
1700499734562500,-9.859102,-2.311865,0.40189,0.8461,0.48791,0.832
1700499734570312,-9.871102,-2.252865,0.35189,0.7251,0.47191,0.802
1700499734578125,-9.857102,-2.228865,0.13189,0.6481,0.50691,0.972
1700499734585937,-9.824102,-2.209865,0.14811,0.6471,0.48891,0.1282
1700499734593750,-9.774102,-2.189865,0.25811,0.6171,0.54091,0.1292
1700499734601562,-9.742102,-2.185865,0.12811,0.5591,0.57791,0.332
1700499734609375,-9.747102,-2.184865,0.811,0.4381,0.43191,0.658
1700499734617187,-9.774102,-2.190865,0.6189,0.4051,0.28491,0.818
1700499734625000,-9.790102,-2.192865,0.29189,0.3901,0.16991,0.1468
1700499734632812,-9.779102,-2.182865,0.19189,0.4081,0.17091,0.2438
1700499734640625,-9.792102,-2.191865,0.47189,0.3941,0.20491,0.2588
1700499734648437,-9.819102,-2.215865,0.86189,0.4071,0.4509,0.2948
1700499734656250,-9.801102,-2.249865,0.95189,0.3761,0.691,0.2768
1700499734664062,-9.787102,-2.276865,0.106189,0.2691,0.2509,0.2628
1700499734671875,-9.804102,-2.293865,0.119189,0.2551,0.7391,0.2618
1700499734679687,-9.845102,-2.306865,0.142189,0.1791,0.991,0.2788
1700499734687500,-9.892102,-2.312865,0.160189,0.571,0.4291,0.2338
1700499734695312,-9.925102,-2.294865,0.163189,0.659,0.12891,0.1678
1700499734703125,-9.934102,-2.287865,0.147189,0.949,0.29691,0.1808
1700499734710937,-9.925102,-2.289865,0.135189,0.799,0.24691,0.1818
1700499734718750,-9.892102,-2.298865,0.135189,0.799,0.24191,0.1378
1700499734726562,-9.907102,-2.281865,0.138189,0.1269,0.34791,0.1158
1700499734734375,-9.905102,-2.275865,0.120189,0.2499,0.23491,0.1488
1700499734742187,-9.921102,-2.272865,0.95189,0.2649,0.23491,0.1498
1700499734750000,-9.923102,-2.270865,0.99189,0.3109,0.28291,0.1038
1700499734757812,-9.944102,-2.250865,0.99189,0.3429,0.26591,0.548
1700499734765625,-9.969102,-2.212865,0.97189,0.3289,0.28091,0.252
1700499734773437,-9.930102,-2.196865,0.31189,0.3589,0.37691,0.1032
1700499734781250,-9.927102,-2.179865,0.20189,0.2379,0.32791,0.742
1700499734789062,-9.945102,-2.173865,0.63189,0.889,0.26891,0.2322
1700499734796875,-9.924102,-2.190865,0.90189,0.1039,0.24791,0.2762
1700499734804687,-9.929102,-2.152865,0.93189,0.1069,0.22791,0.3872
1700499734812500,-9.909102,-2.121865,0.81189,0.749,0.25991,0.3702
1700499734820312,-9.896102,-2.110865,0.61189,0.909,0.21091,0.3702
1700499734828125,-9.912102,-2.69865,0.84189,0.439,0.14491,0.3052
1700499734835937,-9.918102,-2.87865,0.88189,0.1091,0.12591,0.2592
1700499734843750,-9.927102,-2.100865,0.109189,0.1251,0.7891,0.1792
1700499734851562,-9.927102,-2.107865,0.134189,0.801,0.309,0.1302
1700499734859375,-9.902102,-2.121865,0.132189,0.1111,0.1409,0.222
1700499734867187,-9.889102,-2.115865,0.143189,0.1731,0.2091,0.398
1700499734875000,-9.891102,-2.124865,0.145189,0.1591,0.4209,0.1358
1700499734882812,-9.859102,-2.173865,0.150189,0.2671,0.591,0.1498
1700499734890625,-9.854102,-2.181865,0.181189,0.3901,0.6891,0.1658
1700499734898437,-9.863102,-2.179865,0.200189,0.3881,0.11791,0.688
1700499734906250,-9.878102,-2.187865,0.204189,0.4041,0.9691,0.238
1700499734914062,-9.878102,-2.210865,0.188189,0.3871,0.11291,0.82
1700499734921875,-9.855102,-2.237865,0.188189,0.4031,0.17991,0.262
1700499734929687,-9.843102,-2.261865,0.215189,0.4031,0.20991,0.722
1700499734937500,-9.834102,-2.293865,0.225189,0.4311,0.21091,0.1072
1700499734945312,-9.855102,-2.307865,0.231189,0.3231,0.27591,0.2172
1700499734953125,-9.827102,-2.324865,0.206189,0.3111,0.36091,0.1542
1700499734960937,-9.791102,-2.327865,0.201189,0.1891,0.46391,0.1562
1700499734968750,-9.802102,-2.307865,0.206189,0.1571,0.47991,0.2192
1700499734976562,-9.809102,-2.303865,0.195189,0.249,0.53591,0.2042
1700499734984375,-9.823102,-2.293865,0.186189,0.1009,0.41991,0.1682
1700499734992187,-9.846102,-2.257865,0.177189,0.859,0.32091,0.1202
1700499735000000,-9.828102,-2.242865,0.149189,0.1449,0.39191,0.422
1700499735007812,-9.820102,-2.216865,0.115189,0.1759,0.39491,0.442
1700499735015625,-9.867102,-2.208865,0.111189,0.1309,0.24091,0.562
1700499735023437,-9.878102,-2.222865,0.113189,0.849,0.34091,0.582
1700499735031250,-9.855102,-2.235865,0.92189,0.989,0.42191,0.892
1700499735039062,-9.833102,-2.241865,0.95189,0.61,0.40591,0.932
1700499735046875,-9.852102,-2.286865,0.115189,0.1111,0.21391,0.1662
1700499735054687,-9.886102,-2.338865,0.165189,0.1241,0.12991,0.2142
1700499735062500,-9.949102,-2.325865,0.213189,0.899,0.12691,0.3352
1700499735070312,-9.959102,-2.274865,0.183189,0.1819,0.24491,0.3852
1700499735078125,-9.960102,-2.228865,0.127189,0.3539,0.34891,0.5322
1700499735085937,-9.963102,-2.170865,0.97189,0.1539,0.45991,0.5342
1700499735093750,-9.957102,-2.127865,0.93189,0.929,0.50791,0.5502
1700499735101562,-9.982102,-2.102865,0.95189,0.1079,0.50691,0.5822
1700499735109375,-10.41102,-2.66865,0.93189,0.929,0.45691,0.5482
1700499735117187,-10.21102,-2.40865,0.68189,0.1699,0.47491,0.5812
1700499735125000,-9.967102,-1.984865,0.6811,0.2279,0.62691,0.5342
1700499735132812,-9.954102,-1.944865,0.36811,0.1049,0.64391,0.4732
1700499735140625,-9.943102,-1.938865,0.56811,0.729,0.61391,0.3782
1700499735148437,-9.898102,-1.948865,0.74811,0.661,0.55191,0.2072
1700499735156250,-9.873102,-1.950865,0.90811,0.1261,0.53191,0.2532
1700499735164062,-9.857102,-1.944865,0.101811,0.2781,0.41491,0.1742
1700499735171875,-9.839102,-1.953865,0.92811,0.3551,0.34591,0.1572
1700499735179687,-9.819102,-1.956865,0.110811,0.4791,0.34991,0.182
1700499735187500,-9.827102,-1.969865,0.72811,0.6621,0.20891,0.132
1700499735195312,-9.856102,-2.17865,0.24811,0.6151,0.5891,0.102
1700499735203125,-9.865102,-2.62865,0.2189,0.8271,0.7809,0.112
1700499735210937,-9.901102,-2.72865,0.50189,0.7981,0.4609,0.82
1700499735218750,-9.914102,-2.52865,0.59189,0.6441,0.3791,0.1042
1700499735226562,-9.871102,-2.75865,0.23189,0.6301,0.7591,0.272
1700499735234375,-9.839102,-2.102865,0.38189,0.7521,0.2609,0.58
1700499735242187,-9.864102,-2.126865,0.95189,0.9041,0.7909,0.368
1700499735250000,-9.859102,-2.175865,0.148189,0.8441,0.2709,0.368
1700499735257812,-9.879102,-2.179865,0.156189,0.6481,0.2109,0.1178
1700499735265625,-9.913102,-2.136865,0.143189,0.6031,0.6809,0.1818
1700499735273437,-9.923102,-2.105865,0.107189,0.4511,0.291,0.1968
1700499735281250,-9.887102,-2.79865,0.73189,0.5581,0.10391,0.2248
1700499735289062,-9.864102,-2.80865,0.73189,0.6021,0.1691,0.1788
1700499735296875,-9.860102,-2.99865,0.113189,0.6791,0.5209,0.1958
1700499735304687,-9.877102,-2.135865,0.170189,0.6931,0.13709,0.1498
1700499735312500,-9.872102,-2.168865,0.174189,0.6931,0.12609,0.738
1700499735320312,-9.872102,-2.208865,0.204189,0.6471,0.15609,0.1048
1700499735328125,-9.894102,-2.231865,0.252189,0.6441,0.19009,0.408
1700499735335937,-9.912102,-2.243865,0.302189,0.5981,0.24709,0.652
1700499735343750,-9.920102,-2.287865,0.325189,0.5071,0.2709,0.852
1700499735351562,-9.931102,-2.303865,0.372189,0.3541,0.2709,0.1632
1700499735359375,-9.942102,-2.322865,0.388189,0.1551,0.2709,0.2392
1700499735367187,-9.918102,-2.330865,0.404189,0.631,0.7891,0.2272
1700499735375000,-9.904102,-2.300865,0.420189,0.1029,0.23191,0.2272
1700499735382812,-9.903102,-2.237865,0.387189,0.3329,0.32191,0.2782
1700499735390625,-9.956102,-2.151865,0.332189,0.5469,0.38791,0.3692
1700499735398437,-9.963102,-2.95865,0.261189,0.5919,0.42291,0.3542
1700499735406250,-9.939102,-2.38865,0.211189,0.5759,0.57491,0.3422
1700499735414062,-9.924102,-1.999865,0.204189,0.5899,0.59091,0.3262
1700499735421875,-9.945102,-1.935865,0.214189,0.5759,0.59191,0.3272
1700499735429687,-9.964102,-1.893865,0.150189,0.6209,0.62691,0.3272
1700499735437500,-9.944102,-1.849865,0.75189,0.4979,0.66191,0.2352
1700499735445312,-9.915102,-1.840865,0.18189,0.3289,0.64391,0.1892
1700499735453125,-9.930102,-1.864865,0.46189,0.1459,0.50891,0.932
1700499735460937,-9.982102,-1.917865,0.86189,0.519,0.44291,0.188
1700499735468750,-9.997102,-1.952865,0.95189,0.271,0.47891,0.1608
1700499735476562,-9.993102,-1.944865,0.75189,0.799,0.54791,0.1108
1700499735484375,-9.963102,-1.944865,0.34189,0.489,0.50091,0.2068
1700499735492187,-9.954102,-1.973865,0.7189,0.1351,0.44991,0.2838
1700499735500000,-9.915102,-2.30865,0.36189,0.4101,0.44591,0.3138
1700499735507812,-9.887102,-2.93865,0.57189,0.3931,0.39491,0.2828
1700499735515625,-9.880102,-2.110865,0.88189,0.3781,0.36091,0.2848
1700499735523437,-9.889102,-2.97865,0.77189,0.2241,0.27891,0.2398
1700499735531250,-9.916102,-2.95865,0.16189,0.2831,0.35691,0.948
1700499735539062,-9.948102,-2.81865,0.4189,0.3121,0.25391,0.498
1700499735546875,-9.923102,-2.78865,0.13811,0.3601,0.36891,0.648
1700499735554687,-9.875102,-2.98865,0.11811,0.3731,0.26991,0.648
1700499735562500,-9.846102,-2.100865,0.4189,0.4951,0.23491,0.638
1700499735570312,-9.846102,-2.138865,0.52189,0.6631,0.19791,0.1118
1700499735578125,-9.849102,-2.178865,0.84189,0.5861,0.9591,0.518
1700499735585937,-9.856102,-2.180865,0.104189,0.5261,0.0,0.1328
1700499735593750,-9.853102,-2.206865,0.120189,0.6491,0.409,0.1658
1700499735601562,-9.853102,-2.244865,0.159189,0.6031,0.4891,0.1628
1700499735609375,-9.857102,-2.311865,0.191189,0.6621,0.7109,0.1178
1700499735617187,-9.897102,-2.325865,0.240189,0.6031,0.5609,0.1208
1700499735625000,-9.913102,-2.348865,0.277189,0.3861,0.1391,0.78
1700499735632812,-9.901102,-2.356865,0.245189,0.2211,0.19991,0.82
1700499735640625,-9.929102,-2.323865,0.238189,0.1441,0.24991,0.722
1700499735648437,-9.936102,-2.293865,0.240189,0.849,0.33391,0.1502
1700499735656250,-9.889102,-2.283865,0.188189,0.859,0.48391,0.2332
1700499735664062,-9.861102,-2.286865,0.172189,0.869,0.46491,0.2802
1700499735671875,-9.857102,-2.295865,0.200189,0.1049,0.44891,0.3442
1700499735679687,-9.848102,-2.284865,0.175189,0.3329,0.47091,0.3272
1700499735687500,-9.828102,-2.251865,0.138189,0.3319,0.55391,0.3282
1700499735695312,-9.817102,-2.220865,0.93189,0.3329,0.50291,0.3432
1700499735703125,-9.874102,-2.168865,0.90189,0.3469,0.48691,0.3262
1700499735710937,-9.925102,-2.139865,0.75189,0.3039,0.51791,0.4072
1700499735718750,-9.927102,-2.116865,0.70189,0.2729,0.52991,0.4692
1700499735726562,-9.941102,-2.94865,0.63189,0.3349,0.53191,0.4852
1700499735734375,-9.939102,-2.58865,0.54189,0.3499,0.47891,0.4992
1700499735742187,-9.978102,-2.865,0.41189,0.1679,0.49291,0.5172
1700499735750000,-9.931102,-1.983865,0.4189,0.1059,0.55991,0.4882
1700499735757812,-9.888102,-1.974865,0.8811,0.919,0.49091,0.5332
1700499735765625,-9.948102,-1.926865,0.54189,0.319,0.41991,0.5632
1700499735773437,-10.9102,-1.923865,0.48189,0.29,0.24991,0.5912
1700499735781250,-10.12102,-1.897865,0.1811,0.929,0.40791,0.5172
1700499735789062,-9.976102,-1.873865,0.51811,0.461,0.47291,0.4872
1700499735796875,-9.948102,-1.887865,0.67811,0.2141,0.43591,0.4712
1700499735804687,-9.955102,-1.916865,0.56811,0.3201,0.25491,0.3592
1700499735812500,-10.16102,-1.958865,0.19189,0.4111,0.9091,0.2642
1700499735820312,-9.997102,-2.865,0.34189,0.3081,0.10991,0.1822
1700499735828125,-9.938102,-1.998865,0.18189,0.1711,0.16291,0.1662
1700499735835937,-9.895102,-1.985865,0.4811,0.1721,0.23091,0.1522
1700499735843750,-9.863102,-1.999865,0.11811,0.3851,0.15691,0.1822
1700499735851562,-9.860102,-2.48865,0.6189,0.4761,0.8691,0.1812
1700499735859375,-9.884102,-2.88865,0.68189,0.4751,0.1309,0.1962
1700499735867187,-9.900102,-2.90865,0.91189,0.3671,0.5391,0.2752
1700499735875000,-9.892102,-2.66865,0.66189,0.2901,0.20391,0.3572
1700499735882812,-9.867102,-2.50865,0.50189,0.3201,0.18391,0.4042
1700499735890625,-9.844102,-2.44865,0.48189,0.2571,0.20191,0.4522
1700499735898437,-9.877102,-2.17865,0.59189,0.2571,0.26791,0.5012
1700499735906250,-9.915102,-1.971865,0.45189,0.1521,0.28491,0.4832
1700499735914062,-9.902102,-1.943865,0.0,0.1521,0.35391,0.4702
1700499735921875,-9.871102,-1.921865,0.31811,0.1381,0.35791,0.3752
1700499735929687,-9.850102,-1.921865,0.45811,0.1841,0.28891,0.3572
1700499735937500,-9.857102,-1.921865,0.13811,0.2001,0.19191,0.2772
1700499735945312,-9.857102,-1.930865,0.4811,0.2481,0.20991,0.1832
1700499735953125,-9.863102,-1.949865,0.11811,0.2961,0.16191,0.702
1700499735960937,-9.872102,-1.974865,0.9189,0.3251,0.4291,0.842
1700499735968750,-9.890102,-2.10865,0.20189,0.4161,0.4109,0.682
1700499735976562,-9.924102,-2.21865,0.47189,0.3411,0.5309,0.108
1700499735984375,-9.939102,-2.20865,0.63189,0.3271,0.2009,0.268
1700499735992187,-9.939102,-2.60865,0.61189,0.3411,0.6809,0.418
1700499736000000,-9.893102,-2.87865,0.86189,0.3721,0.5909,0.332
1700499736007812,-9.859102,-2.132865,0.127189,0.4011,0.10809,0.502
1700499736015625,-9.891102,-2.130865,0.209189,0.3531,0.27509,0.792
1700499736023437,-9.973102,-2.93865,0.241189,0.1381,0.14309,0.2372
1700499736031250,-9.973102,-2.48865,0.163189,0.11,0.2491,0.3022
1700499736039062,-9.952102,-1.987865,0.125189,0.459,0.12791,0.3382
1700499736046875,-9.914102,-1.947865,0.107189,0.449,0.17891,0.3232
1700499736054687,-9.905102,-1.952865,0.123189,0.1531,0.12391,0.3392
1700499736062500,-9.938102,-1.960865,0.162189,0.1381,0.4109,0.2572
1700499736070312,-9.967102,-1.977865,0.171189,0.1551,0.7209,0.1452
1700499736078125,-9.961102,-1.967865,0.171189,0.1401,0.6609,0.692
1700499736085937,-9.986102,-1.955865,0.168189,0.1881,0.3209,0.98
1700499736093750,-10.17102,-1.976865,0.180189,0.1571,0.20109,0.158
1700499736101562,-10.14102,-2.45865,0.225189,0.3101,0.28709,0.638
1700499736109375,-10.20102,-2.94865,0.289189,0.2791,0.28709,0.318
1700499736117187,-10.20102,-2.110865,0.343189,0.3091,0.21909,0.288
1700499736125000,-10.15102,-2.136865,0.348189,0.2031,0.12109,0.642
1700499736132812,-10.27102,-2.119865,0.348189,0.1081,0.2109,0.2102
1700499736140625,-10.31102,-2.107865,0.350189,0.941,0.891,0.2402
1700499736148437,-9.987102,-2.104865,0.344189,0.921,0.14291,0.3242
1700499736156250,-9.959102,-2.93865,0.344189,0.1081,0.24191,0.3412
1700499736164062,-9.967102,-2.60865,0.371189,0.629,0.20891,0.4672
1700499736171875,-9.983102,-2.2865,0.335189,0.1559,0.34091,0.5952
1700499736179687,-9.957102,-1.928865,0.261189,0.1689,0.40491,0.5762
1700499736187500,-9.906102,-1.862865,0.200189,0.1839,0.54191,0.5652
1700499736195312,-9.895102,-1.822865,0.178189,0.441,0.41691,0.5942
1700499736203125,-9.919102,-1.840865,0.200189,0.1511,0.34991,0.5472
1700499736210937,-9.885102,-1.882865,0.202189,0.1081,0.41891,0.4842
1700499736218750,-9.826102,-1.896865,0.191189,0.781,0.43991,0.4062
1700499736226562,-9.819102,-1.897865,0.205189,0.331,0.44391,0.3592
1700499736234375,-9.867102,-1.873865,0.198189,0.889,0.36191,0.3402
1700499736242187,-9.896102,-1.882865,0.177189,0.269,0.39791,0.2642
1700499736250000,-9.894102,-1.895865,0.166189,0.99,0.46591,0.2332
1700499736257812,-9.905102,-1.915865,0.198189,0.409,0.46691,0.2332
1700499736265625,-9.897102,-1.916865,0.202189,0.239,0.47891,0.2452
1700499736273437,-9.912102,-1.897865,0.175189,0.709,0.53291,0.2332
1700499736281250,-9.969102,-1.855865,0.157189,0.2089,0.63791,0.2852
1700499736289062,-9.963102,-1.806865,0.98189,0.1629,0.63691,0.2682
1700499736296875,-9.943102,-1.781865,0.32189,0.1299,0.75491,0.2232
1700499736304687,-9.930102,-1.729865,0.10811,0.859,0.78591,0.2882
1700499736312500,-9.982102,-1.688865,0.28811,0.549,0.71891,0.2552
1700499736320312,-9.976102,-1.684865,0.67811,0.1131,0.66891,0.1772
1700499736328125,-9.919102,-1.689865,0.131811,0.2381,0.72291,0.382
1700499736335937,-9.949102,-1.679865,0.140811,0.3301,0.55291,0.138
1700499736343750,-10.4102,-1.720865,0.104811,0.5751,0.28291,0.1608
1700499736351562,-10.1102,-1.794865,0.88811,0.6821,0.19691,0.1938
1700499736359375,-9.955102,-1.864865,0.61811,0.6691,0.21991,0.3348
1700499736367187,-9.938102,-1.917865,0.25811,0.8371,0.8191,0.3858
1700499736375000,-9.967102,-1.975865,0.50189,0.8511,0.9909,0.4348
1700499736382812,-9.998102,-2.30865,0.98189,0.6531,0.16109,0.4518
1700499736390625,-9.995102,-2.61865,0.93189,0.5931,0.7909,0.4058
1700499736398437,-9.998102,-2.53865,0.102189,0.6071,0.4409,0.4028
1700499736406250,-10.3102,-2.62865,0.123189,0.5581,0.4809,0.2448
1700499736414062,-9.973102,-2.94865,0.120189,0.4051,0.1109,0.2288
1700499736421875,-9.945102,-2.127865,0.154189,0.4211,0.5391,0.2128
1700499736429687,-9.913102,-2.163865,0.193189,0.3751,0.191,0.1668
1700499736437500,-9.908102,-2.167865,0.220189,0.1771,0.9091,0.1658
1700499736445312,-9.929102,-2.126865,0.211189,0.219,0.12291,0.578
1700499736453125,-9.941102,-2.66865,0.168189,0.2199,0.24391,0.258
1700499736460937,-9.933102,-2.20865,0.122189,0.2369,0.39091,0.872
1700499736468750,-9.913102,-1.969865,0.89189,0.1619,0.37391,0.1212
1700499736476562,-9.911102,-1.950865,0.96189,0.859,0.40591,0.1392
1700499736484375,-9.913102,-1.949865,0.93189,0.409,0.38191,0.2312
1700499736492187,-9.927102,-1.949865,0.93189,0.719,0.38391,0.2322
1700499736500000,-9.936102,-1.908865,0.59189,0.999,0.51991,0.1702
1700499736507812,-9.935102,-1.864865,0.41189,0.849,0.38691,0.1362
1700499736515625,-9.903102,-1.862865,0.17811,0.841,0.41891,0.752
1700499736523437,-9.883102,-1.847865,0.42811,0.1441,0.45191,0.932
1700499736531250,-9.915102,-1.849865,0.29811,0.2361,0.25091,0.102
1700499736539062,-9.989102,-1.873865,0.13811,0.3731,0.23391,0.348
1700499736546875,-9.989102,-1.890865,0.20811,0.4051,0.20191,0.1158
1700499736554687,-9.909102,-1.930865,0.40811,0.4051,0.20491,0.1608
1700499736562500,-9.820102,-1.971865,0.27811,0.4821,0.21891,0.1618
1700499736570312,-9.851102,-2.28865,0.34189,0.6631,0.8909,0.1358
1700499736578125,-9.939102,-2.62865,0.115189,0.5411,0.35409,0.2068
1700499736585937,-9.948102,-2.75865,0.134189,0.3731,0.22109,0.948
1700499736593750,-9.974102,-2.6865,0.125189,0.2331,0.11909,0.352
1700499736601562,-10.2102,-1.935865,0.95189,0.2631,0.5509,0.832
1700499736609375,-10.2102,-1.926865,0.84189,0.3841,0.7709,0.1302
1700499736617187,-10.102,-1.922865,0.128189,0.5361,0.6009,0.1022
1700499736625000,-9.974102,-1.962865,0.162189,0.4911,0.7291,0.1352
1700499736632812,-9.965102,-2.13865,0.189189,0.6441,0.7291,0.1062
1700499736640625,-10.1102,-2.24865,0.230189,0.5381,0.12491,0.902
1700499736648437,-9.990102,-1.999865,0.186189,0.3711,0.22791,0.1062
1700499736656250,-9.925102,-1.976865,0.123189,0.3701,0.41091,0.1892
1700499736664062,-9.922102,-1.937865,0.114189,0.4781,0.32391,0.1542
1700499736671875,-9.972102,-1.950865,0.127189,0.4311,0.23991,0.1852
1700499736679687,-9.981102,-1.987865,0.132189,0.5051,0.22091,0.2502
1700499736687500,-9.920102,-1.980865,0.118189,0.4151,0.33991,0.2342
1700499736695312,-9.873102,-1.941865,0.93189,0.3841,0.22191,0.2312
1700499736703125,-9.879102,-1.929865,0.91189,0.4001,0.15191,0.2592
1700499736710937,-9.904102,-1.940865,0.88189,0.4901,0.4791,0.2902
1700499736718750,-9.936102,-1.955865,0.109189,0.4121,0.1609,0.2892
1700499736726562,-9.909102,-1.961865,0.132189,0.3661,0.1891,0.3222
1700499736734375,-9.916102,-1.927865,0.134189,0.3501,0.1609,0.3372
1700499736742187,-9.966102,-1.924865,0.148189,0.3661,0.6609,0.3202
1700499736750000,-9.963102,-1.932865,0.170189,0.3201,0.11809,0.3322
1700499736757812,-9.932102,-1.949865,0.198189,0.2441,0.11209,0.2712
1700499736765625,-9.898102,-1.954865,0.228189,0.1831,0.4309,0.2732
1700499736773437,-9.954102,-1.951865,0.280189,0.1361,0.12709,0.3022
1700499736781250,-10.59102,-1.927865,0.319189,0.609,0.12409,0.2842
1700499736789062,-10.41102,-1.896865,0.273189,0.1669,0.1091,0.3332
1700499736796875,-10.10102,-1.840865,0.248189,0.2289,0.9491,0.3822
1700499736804687,-9.976102,-1.811865,0.266189,0.3169,0.16691,0.2712
1700499736812500,-9.963102,-1.809865,0.283189,0.3049,0.16891,0.3232
1700499736820312,-9.968102,-1.790865,0.312189,0.2109,0.13291,0.2572
1700499736828125,-9.970102,-1.777865,0.308189,0.2879,0.18491,0.2902
1700499736835937,-9.950102,-1.750865,0.271189,0.2869,0.28391,0.3072
1700499736843750,-9.952102,-1.745865,0.244189,0.1949,0.24791,0.2742
1700499736851562,-9.973102,-1.747865,0.244189,0.889,0.23091,0.2602
1700499736859375,-9.986102,-1.749865,0.244189,0.1039,0.26191,0.3062
1700499736867187,-10.50102,-1.721865,0.244189,0.889,0.24391,0.3212
1700499736875000,-10.93102,-1.719865,0.239189,0.729,0.26491,0.2452
1700499736882812,-10.75102,-1.713865,0.194189,0.129,0.27891,0.2932
1700499736890625,-10.62102,-1.684865,0.167189,0.781,0.25791,0.3242
1700499736898437,-9.994102,-1.691865,0.155189,0.1551,0.27491,0.2932
1700499736906250,-9.944102,-1.703865,0.162189,0.2161,0.17191,0.2752
1700499736914062,-9.964102,-1.716865,0.207189,0.3991,0.4891,0.2882
1700499736921875,-9.995102,-1.743865,0.239189,0.3821,0.3009,0.2582
1700499736929687,-10.7102,-1.728865,0.257189,0.3971,0.6909,0.3172
1700499736937500,-10.5102,-1.691865,0.249189,0.3821,0.1609,0.3052
1700499736945312,-10.5102,-1.689865,0.240189,0.5631,0.7009,0.3382
1700499736953125,-10.4102,-1.729865,0.285189,0.6411,0.7309,0.3042
1700499736960937,-10.6102,-1.771865,0.358189,0.6541,0.7509,0.3842
1700499736968750,-9.999102,-1.804865,0.408189,0.5631,0.7291,0.4792
1700499736976562,-9.984102,-1.789865,0.419189,0.3791,0.16291,0.4982
1700499736984375,-9.968102,-1.790865,0.383189,0.3791,0.19791,0.4852
1700499736992187,-9.943102,-1.783865,0.376189,0.2881,0.19791,0.4982
1700499737000000,-10.16102,-1.756865,0.410189,0.2121,0.18391,0.4822
1700499737007812,-10.82102,-1.740865,0.422189,0.1651,0.28691,0.5012
1700499737015625,-10.71102,-1.716865,0.358189,0.19,0.37291,0.5342
1700499737023437,-10.42102,-1.678865,0.299189,0.1219,0.62691,0.5212
1700499737031250,-10.15102,-1.647865,0.283189,0.729,0.68091,0.3962
1700499737039062,-10.47102,-1.617865,0.249189,0.739,0.61391,0.3952
1700499737046875,-10.102102,-1.579865,0.240189,0.1009,0.58591,0.2362
1700499737054687,-10.129102,-1.580865,0.201189,0.689,0.56891,0.1552
1700499737062500,-10.95102,-1.599865,0.164189,0.241,0.60591,0.632
1700499737070312,-10.76102,-1.605865,0.160189,0.1351,0.57791,0.1578
1700499737078125,-10.76102,-1.635865,0.192189,0.1651,0.59891,0.2018
1700499737085937,-10.16102,-1.693865,0.166189,0.1671,0.49891,0.2998
1700499737093750,-9.957102,-1.732865,0.159189,0.1691,0.50291,0.4108
1700499737101562,-9.930102,-1.780865,0.180189,0.2431,0.47191,0.4238
1700499737109375,-9.954102,-1.815865,0.228189,0.3781,0.41391,0.2978
1700499737117187,-9.969102,-1.835865,0.251189,0.3161,0.29491,0.2538
1700499737125000,-9.963102,-1.828865,0.244189,0.1651,0.44991,0.2678
1700499737132812,-9.947102,-1.819865,0.234189,0.1511,0.56491,0.2518
1700499737140625,-9.913102,-1.812865,0.223189,0.1791,0.49191,0.1278
1700499737148437,-9.924102,-1.810865,0.235189,0.2081,0.50591,0.468
1700499737156250,-9.908102,-1.820865,0.223189,0.1771,0.62391,0.128
1700499737164062,-9.881102,-1.826865,0.193189,0.1781,0.65391,0.332
1700499737171875,-9.872102,-1.806865,0.173189,0.1491,0.72491,0.448
1700499737179687,-9.865102,-1.789865,0.152189,0.1631,0.68891,0.138
1700499737187500,-9.886102,-1.780865,0.132189,0.1471,0.63891,0.22
1700499737195312,-9.949102,-1.792865,0.136189,0.1941,0.53891,0.648
1700499737203125,-10.6102,-1.802865,0.162189,0.2871,0.54091,0.1578
1700499737210937,-10.15102,-1.810865,0.155189,0.1491,0.52991,0.1878
1700499737218750,-10.21102,-1.831865,0.118189,0.2121,0.56191,0.2368
1700499737226562,-10.21102,-1.845865,0.127189,0.2121,0.53091,0.2678
1700499737234375,-9.982102,-1.883865,0.145189,0.2431,0.59691,0.2668
1700499737242187,-9.975102,-1.917865,0.152189,0.1961,0.53091,0.2358
1700499737250000,-9.968102,-1.914865,0.159189,0.1361,0.64691,0.2188
1700499737257812,-9.969102,-1.893865,0.118189,0.891,0.64891,0.1858
1700499737265625,-9.946102,-1.866865,0.89189,0.1511,0.56191,0.2048
1700499737273437,-9.924102,-1.860865,0.59189,0.1191,0.66391,0.1708
1700499737281250,-9.990102,-1.820865,0.73189,0.1781,0.56191,0.1068
1700499737289062,-10.67102,-1.823865,0.78189,0.1941,0.51191,0.1398
1700499737296875,-10.44102,-1.845865,0.14189,0.2551,0.69391,0.1048
1700499737304687,-9.967102,-1.826865,0.26811,0.2421,0.76291,0.1828
1700499737312500,-9.896102,-1.863865,0.47811,0.3801,0.59391,0.2488
1700499737320312,-9.889102,-1.939865,0.6811,0.6071,0.43991,0.2488
1700499737328125,-9.954102,-1.984865,0.73189,0.6081,0.37291,0.2988
1700499737335937,-9.958102,-2.5865,0.54189,0.4691,0.42591,0.2508
1700499737343750,-9.942102,-1.987865,0.29189,0.3951,0.44491,0.3148
1700499737351562,-9.942102,-1.984865,0.29189,0.5031,0.27391,0.3678
1700499737359375,-9.956102,-2.3865,0.68189,0.6691,0.24291,0.4098
1700499737367187,-9.967102,-2.31865,0.122189,0.6401,0.27391,0.3958
1700499737375000,-9.964102,-2.40865,0.134189,0.6371,0.38691,0.2518
1700499737382812,-9.967102,-2.31865,0.154189,0.5451,0.42091,0.2038
1700499737390625,-9.956102,-2.13865,0.141189,0.5601,0.48691,0.1548
1700499737398437,-9.901102,-2.32865,0.120189,0.6361,0.51791,0.1378
1700499737406250,-9.899102,-2.43865,0.120189,0.6061,0.56691,0.1058
1700499737414062,-9.921102,-2.56865,0.131189,0.6511,0.52991,0.598
1700499737421875,-9.910102,-2.42865,0.113189,0.4231,0.56691,0.618
1700499737429687,-9.924102,-2.4865,0.54189,0.3751,0.63191,0.492
1700499737437500,-9.929102,-1.971865,0.13189,0.4041,0.64791,0.992
1700499737445312,-9.936102,-1.940865,0.11811,0.4201,0.63091,0.832
1700499737453125,-9.911102,-1.940865,0.13811,0.4211,0.64791,0.672
1700499737460937,-9.889102,-1.930865,0.15811,0.4351,0.57991,0.972
1700499737468750,-9.877102,-1.909865,0.18811,0.3891,0.59591,0.1122
1700499737476562,-9.851102,-1.915865,0.26811,0.5081,0.45991,0.1762
1700499737484375,-9.846102,-1.920865,0.51811,0.5531,0.35591,0.2052
1700499737492187,-9.889102,-1.923865,0.13811,0.5681,0.20491,0.1702
1700499737500000,-9.907102,-1.934865,0.16189,0.5691,0.20591,0.1222
1700499737507812,-9.932102,-1.928865,0.59189,0.4911,0.15191,0.2292
1700499737515625,-10.27102,-1.884865,0.91189,0.4001,0.10291,0.2112
1700499737523437,-10.37102,-1.860865,0.57189,0.3851,0.15591,0.1972
1700499737531250,-10.12102,-1.856865,0.29189,0.4011,0.19091,0.1512
1700499737539062,-9.962102,-1.858865,0.47189,0.3571,0.25591,0.1662
1700499737546875,-9.944102,-1.861865,0.86189,0.3251,0.20691,0.1652
1700499737554687,-9.967102,-1.855865,0.96189,0.3541,0.23991,0.2312
1700499737562500,-9.999102,-1.820865,0.98189,0.2021,0.23891,0.2752
1700499737570312,-10.36102,-1.783865,0.91189,0.1691,0.18891,0.3392
1700499737578125,-10.41102,-1.758865,0.69189,0.2461,0.20791,0.2782
1700499737585937,-10.102,-1.761865,0.55189,0.2921,0.32191,0.3272
1700499737593750,-9.996102,-1.739865,0.69189,0.3661,0.38591,0.4092
1700499737601562,-10.61102,-1.718865,0.96189,0.3821,0.31891,0.3752
1700499737609375,-10.66102,-1.718865,0.66189,0.3971,0.31791,0.3912
1700499737617187,-10.11102,-1.718865,0.37189,0.3681,0.45291,0.3782
1700499737625000,-9.967102,-1.706865,0.44189,0.4891,0.40091,0.3942
1700499737632812,-9.967102,-1.710865,0.64189,0.5951,0.26391,0.3762
1700499737640625,-10.9102,-1.716865,0.89189,0.5811,0.26591,0.3282
1700499737648437,-10.41102,-1.714865,0.96189,0.4741,0.28391,0.3442
1700499737656250,-10.32102,-1.694865,0.76189,0.4141,0.33891,0.2982
1700499737664062,-10.46102,-1.680865,0.87189,0.4151,0.37391,0.2352
1700499737671875,-10.57102,-1.705865,0.87189,0.4301,0.30891,0.2042
1700499737679687,-10.32102,-1.729865,0.89189,0.4321,0.19291,0.1062
1700499737687500,-10.18102,-1.746865,0.105189,0.4011,0.19591,0.912
1700499737695312,-10.9102,-1.759865,0.112189,0.3721,0.19791,0.272
1700499737703125,-9.999102,-1.774865,0.112189,0.2811,0.23091,0.572
1700499737710937,-10.36102,-1.763865,0.139189,0.2961,0.16591,0.102
1700499737718750,-10.47102,-1.767865,0.162189,0.1741,0.23391,0.572
1700499737726562,-10.13102,-1.740865,0.128189,0.1591,0.18091,0.702
1700499737734375,-9.987102,-1.728865,0.123189,0.1431,0.18691,0.252
1700499737742187,-10.7102,-1.719865,0.153189,0.1881,0.16791,0.572
1700499737750000,-10.35102,-1.711865,0.187189,0.2171,0.17991,0.1522
1700499737757812,-10.66102,-1.684865,0.192189,0.1581,0.29791,0.1362
1700499737765625,-10.52102,-1.668865,0.146189,0.1601,0.39691,0.1202
1700499737773437,-10.24102,-1.642865,0.110189,0.1751,0.39891,0.902
1700499737781250,-9.983102,-1.640865,0.96189,0.2811,0.49691,0.1412
1700499737789062,-9.960102,-1.650865,0.91189,0.4031,0.42691,0.1252
1700499737796875,-9.987102,-1.672865,0.110189,0.3861,0.29291,0.1382
1700499737804687,-9.985102,-1.687865,0.91189,0.4011,0.32391,0.2012
1700499737812500,-9.960102,-1.654865,0.66189,0.3871,0.40991,0.1562
1700499737820312,-9.942102,-1.650865,0.62189,0.5391,0.40491,0.2042
1700499737828125,-9.933102,-1.649865,0.71189,0.5981,0.28891,0.2052
1700499737835937,-9.974102,-1.639865,0.89189,0.5821,0.21791,0.2492
1700499737843750,-10.8102,-1.633865,0.91189,0.6141,0.30091,0.2342
1700499737851562,-10.11102,-1.607865,0.67189,0.5981,0.36991,0.2532
1700499737859375,-10.47102,-1.585865,0.53189,0.6121,0.23591,0.2342
1700499737867187,-10.43102,-1.591865,0.55189,0.6451,0.22191,0.1082
1700499737875000,-9.990102,-1.618865,0.44189,0.6331,0.28991,0.442
1700499737882812,-9.963102,-1.638865,0.78189,0.6481,0.24291,0.188
1700499737890625,-9.960102,-1.690865,0.101189,0.6341,0.18291,0.1608
1700499737898437,-9.973102,-1.732865,0.130189,0.6671,0.6691,0.2748
1700499737906250,-10.8102,-1.762865,0.159189,0.5911,0.4909,0.3258
1700499737914062,-10.13102,-1.784865,0.182189,0.4701,0.691,0.3728
1700499737921875,-10.35102,-1.809865,0.218189,0.4401,0.9209,0.4218
1700499737929687,-10.78102,-1.828865,0.271189,0.4091,0.15509,0.4688
1700499737937500,-10.67102,-1.835865,0.280189,0.2891,0.1491,0.4668
1700499737945312,-10.21102,-1.831865,0.301189,0.1351,0.8491,0.4188
1700499737953125,-9.960102,-1.854865,0.298189,0.1641,0.9591,0.3078
1700499737960937,-9.933102,-1.884865,0.321189,0.1621,0.2591,0.2148
1700499737968750,-9.964102,-1.865865,0.382189,0.391,0.15591,0.568
1700499737976562,-9.967102,-1.839865,0.387189,0.1009,0.20991,0.58
1700499737984375,-9.968102,-1.778865,0.348189,0.849,0.43791,0.1222
1700499737992187,-9.968102,-1.707865,0.312189,0.1139,0.52191,0.1232
1700499738000000,-9.974102,-1.644865,0.257189,0.979,0.62091,0.1082
1700499738007812,-9.985102,-1.631865,0.230189,0.979,0.72591,0.812
1700499738015625,-9.915102,-1.657865,0.176189,0.519,0.79091,0.1142
1700499738023437,-9.831102,-1.669865,0.125189,0.111,0.96091,0.392
1700499738031250,-9.829102,-1.657865,0.96189,0.261,0.93191,0.218
1700499738039062,-9.922102,-1.641865,0.82189,0.281,0.71391,0.1078
1700499738046875,-10.24102,-1.631865,0.46189,0.329,0.64691,0.1258
1700499738054687,-10.22102,-1.628865,0.10811,0.111,0.63491,0.1698
1700499738062500,-9.993102,-1.592865,0.46811,0.1051,0.70291,0.2468
1700499738070312,-9.970102,-1.610865,0.87811,0.3531,0.67091,0.4838
1700499738078125,-9.958102,-1.667865,0.83811,0.5801,0.51791,0.4988
1700499738085937,-9.937102,-1.744865,0.44811,0.6421,0.44891,0.5168
1700499738093750,-9.954102,-1.778865,0.17811,0.6411,0.43191,0.5008
1700499738101562,-9.990102,-1.795865,0.17811,0.6721,0.46691,0.5308
1700499738109375,-10.33102,-1.791865,0.40811,0.5671,0.38091,0.5528
1700499738117187,-10.40102,-1.796865,0.81811,0.5511,0.39891,0.5198
1700499738125000,-10.40102,-1.784865,0.103811,0.6411,0.49991,0.4988
1700499738132812,-10.42102,-1.772865,0.117811,0.6131,0.49791,0.5178
1700499738140625,-10.54102,-1.772865,0.140811,0.6581,0.54791,0.4998
1700499738148437,-10.25102,-1.779865,0.172811,0.6421,0.51691,0.5138
1700499738156250,-9.972102,-1.800865,0.211811,0.7641,0.56291,0.4978
1700499738164062,-9.938102,-1.811865,0.209811,0.8711,0.35791,0.5188
1700499738171875,-9.867102,-1.855865,0.195811,0.8681,0.33991,0.4228
1700499738179687,-9.819102,-1.880865,0.184811,0.8991,0.18691,0.4428
1700499738187500,-9.865102,-1.868865,0.133811,0.8991,0.3791,0.4938
1700499738195312,-9.887102,-1.861865,0.145811,0.8531,0.6109,0.5268
1700499738203125,-9.942102,-1.822865,0.142811,0.8371,0.9409,0.5118
1700499738210937,-9.956102,-1.815865,0.145811,0.8991,0.7909,0.5278
1700499738218750,-9.910102,-1.845865,0.131811,0.10501,0.28409,0.5148
1700499738226562,-9.873102,-1.905865,0.81811,0.11721,0.31809,0.5778
1700499738234375,-9.947102,-1.964865,0.29189,0.11401,0.53809,0.5518
1700499738242187,-9.959102,-2.44865,0.88189,0.11261,0.44009,0.5198
1700499738250000,-9.893102,-2.105865,0.92189,0.9131,0.40109,0.5358
1700499738257812,-9.888102,-2.125865,0.129189,0.9131,0.29909,0.5338
1700499738265625,-9.951102,-2.141865,0.199189,0.7301,0.38109,0.5208
1700499738273437,-10.6102,-2.150865,0.225189,0.6221,0.44409,0.5058
1700499738281250,-10.38102,-2.143865,0.213189,0.3941,0.37209,0.5378
1700499738289062,-10.54102,-2.147865,0.227189,0.3481,0.42109,0.5228
1700499738296875,-10.24102,-2.164865,0.277189,0.3171,0.33409,0.5348
1700499738304687,-9.967102,-2.209865,0.307189,0.1801,0.29909,0.5208
1700499738312500,-10.1102,-2.190865,0.361189,0.1811,0.31609,0.5368
1700499738320312,-10.19102,-2.175865,0.352189,0.209,0.28409,0.3638
1700499738328125,-9.961102,-2.162865,0.284189,0.979,0.13409,0.2668
1700499738335937,-9.929102,-2.122865,0.270189,0.1009,0.12709,0.468
1700499738343750,-9.872102,-2.147865,0.293189,0.1189,0.11809,0.1402
1700499738351562,-9.868102,-2.161865,0.329189,0.1039,0.1709,0.1602
1700499738359375,-9.913102,-2.126865,0.354189,0.3339,0.11709,0.2332
1700499738367187,-9.905102,-2.55865,0.327189,0.4249,0.3409,0.2972
1700499738375000,-9.863102,-1.973865,0.259189,0.5939,0.3291,0.3762
1700499738382812,-9.853102,-1.927865,0.234189,0.4119,0.8309,0.3302
1700499738390625,-9.869102,-1.929865,0.280189,0.2899,0.15309,0.3142
1700499738398437,-9.879102,-1.981865,0.344189,0.3059,0.18509,0.2982
1700499738406250,-9.886102,-1.964865,0.380189,0.3679,0.12209,0.4082
1700499738414062,-9.905102,-1.926865,0.387189,0.5659,0.8609,0.4542
1700499738421875,-9.935102,-1.893865,0.357189,0.6439,0.6809,0.4862
1700499738429687,-9.958102,-1.855865,0.344189,0.6899,0.8109,0.4882
1700499738437500,-9.970102,-1.821865,0.351189,0.5679,0.10309,0.5032
1700499738445312,-9.972102,-1.783865,0.362189,0.5809,0.2009,0.4712
1700499738453125,-9.982102,-1.772865,0.358189,0.5819,0.1909,0.4882
1700499738460937,-10.14102,-1.747865,0.319189,0.5519,0.1491,0.4892
1700499738468750,-10.39102,-1.716865,0.306189,0.4139,0.309,0.4582
1700499738476562,-10.79102,-1.735865,0.280189,0.3359,0.1591,0.3332
1700499738484375,-10.170102,-1.740865,0.337189,0.2439,0.3709,0.3322
1700499738492187,-10.160102,-1.769865,0.346189,0.3029,0.13291,0.3032
1700499738500000,-10.90102,-1.748865,0.308189,0.3629,0.25291,0.2582
1700499738507812,-10.59102,-1.735865,0.285189,0.2409,0.20191,0.2422
1700499738515625,-10.77102,-1.748865,0.299189,0.1199,0.11491,0.2582
1700499738523437,-10.70102,-1.777865,0.294189,0.879,0.24891,0.2292
1700499738531250,-10.27102,-1.789865,0.303189,0.1039,0.26691,0.2452
1700499738539062,-9.995102,-1.774865,0.305189,0.279,0.34591,0.3102
1700499738546875,-9.993102,-1.767865,0.283189,0.149,0.25991,0.3722
1700499738554687,-10.6102,-1.778865,0.269189,0.631,0.29091,0.3562
1700499738562500,-10.17102,-1.791865,0.294189,0.1691,0.25291,0.4022
1700499738570312,-10.38102,-1.782865,0.328189,0.1691,0.23791,0.3712
1700499738578125,-10.4102,-1.774865,0.324189,0.1091,0.39291,0.3272
1700499738585937,-9.970102,-1.777865,0.276189,0.1091,0.49391,0.3622
1700499738593750,-9.948102,-1.777865,0.271189,0.1691,0.42491,0.3772
1700499738601562,-9.947102,-1.809865,0.280189,0.2781,0.41991,0.3432
1700499738609375,-9.933102,-1.850865,0.305189,0.2921,0.47191,0.3462
1700499738617187,-9.944102,-1.857865,0.314189,0.1861,0.45991,0.2982
1700499738625000,-10.10102,-1.818865,0.310189,0.1421,0.51391,0.2362
1700499738632812,-10.17102,-1.806865,0.244189,0.971,0.56291,0.2512
1700499738640625,-10.34102,-1.785865,0.221189,0.1101,0.59691,0.3022
1700499738648437,-9.988102,-1.784865,0.201189,0.1551,0.64591,0.3352
1700499738656250,-9.977102,-1.806865,0.223189,0.1411,0.62891,0.3182
1700499738664062,-9.999102,-1.820865,0.234189,0.1571,0.64091,0.3632
1700499738671875,-10.26102,-1.814865,0.228189,0.31,0.62991,0.3642
1700499738679687,-10.15102,-1.807865,0.189189,0.1039,0.68091,0.3952
1700499738687500,-10.2102,-1.779865,0.141189,0.879,0.71491,0.3812
1700499738695312,-10.57102,-1.722865,0.121189,0.1049,0.61391,0.4102
1700499738703125,-10.89102,-1.702865,0.101189,0.419,0.65091,0.3022
1700499738710937,-10.50102,-1.740865,0.82189,0.409,0.61891,0.2542
1700499738718750,-9.968102,-1.754865,0.68189,0.539,0.70391,0.1912
1700499738726562,-9.902102,-1.775865,0.75189,0.1451,0.61691,0.1262
1700499738734375,-9.908102,-1.802865,0.100189,0.1141,0.51891,0.1102
1700499738742187,-9.933102,-1.827865,0.121189,0.1121,0.43591,0.1412
1700499738750000,-9.945102,-1.803865,0.109189,0.61,0.38491,0.1372
1700499738757812,-9.966102,-1.777865,0.121189,0.409,0.41791,0.2022
1700499738765625,-9.979102,-1.751865,0.118189,0.971,0.44191,0.2622
1700499738773437,-9.973102,-1.749865,0.108189,0.1541,0.43191,0.2702
1700499738781250,-9.950102,-1.751865,0.132189,0.1401,0.47891,0.2992
1700499738789062,-9.948102,-1.738865,0.157189,0.1571,0.49291,0.2812
1700499738796875,-9.944102,-1.728865,0.167189,0.2001,0.47491,0.3622
1700499738804687,-9.973102,-1.723865,0.166189,0.1551,0.50691,0.3932
1700499738812500,-9.980102,-1.694865,0.169189,0.1111,0.61291,0.2852
1700499738820312,-9.960102,-1.671865,0.160189,0.1131,0.64691,0.2372
1700499738828125,-9.913102,-1.664865,0.126189,0.1591,0.65091,0.1602
1700499738835937,-9.872102,-1.649865,0.117189,0.1601,0.56991,0.802
1700499738843750,-9.871102,-1.679865,0.121189,0.1761,0.49991,0.932
1700499738851562,-9.896102,-1.681865,0.132189,0.1911,0.46791,0.452
1700499738859375,-9.941102,-1.691865,0.139189,0.2691,0.38391,0.368
1700499738867187,-9.971102,-1.678865,0.148189,0.1781,0.33491,0.378
1700499738875000,-10.3102,-1.680865,0.139189,0.2381,0.33491,0.208
1700499738882812,-10.7102,-1.702865,0.141189,0.3751,0.23191,0.538
1700499738890625,-10.46102,-1.745865,0.192189,0.3741,0.30391,0.798
1700499738898437,-10.43102,-1.774865,0.221189,0.3281,0.35591,0.788
1700499738906250,-10.26102,-1.796865,0.237189,0.1771,0.43991,0.648
1700499738914062,-9.961102,-1.810865,0.230189,0.1631,0.57591,0.778
1700499738921875,-9.935102,-1.810865,0.225189,0.721,0.49191,0.808
1700499738929687,-9.993102,-1.787865,0.242189,0.669,0.44391,0.188
1700499738937500,-10.16102,-1.756865,0.210189,0.819,0.59491,0.158
1700499738945312,-9.994102,-1.709865,0.153189,0.969,0.66091,0.332
1700499738953125,-9.935102,-1.649865,0.100189,0.349,0.72391,0.482
1700499738960937,-9.925102,-1.624865,0.85189,0.531,0.72191,0.1302
1700499738968750,-9.972102,-1.605865,0.82189,0.1911,0.65191,0.972
1700499738976562,-9.995102,-1.593865,0.71189,0.1931,0.73391,0.812
1700499738984375,-10.32102,-1.544865,0.21189,0.2671,0.69891,0.1452
1700499738992187,-10.82102,-1.508865,0.5811,0.4801,0.62991,0.1152
1700499739000000,-10.52102,-1.540865,0.35811,0.6331,0.64291,0.1002
1700499739007812,-10.45102,-1.562865,0.28811,0.7401,0.64291,0.712
1700499739015625,-10.93102,-1.561865,0.12189,0.8941,0.62491,0.88
1700499739023437,-10.33102,-1.618865,0.5811,0.9851,0.64091,0.228
1700499739031250,-10.8102,-1.669865,0.24811,0.10011,0.55691,0.408
1700499739039062,-10.28102,-1.654865,0.10189,0.9701,0.48891,0.268
1700499739046875,-10.5102,-1.692865,0.10811,0.10471,0.47291,0.898
1700499739054687,-10.34102,-1.732865,0.3189,0.10921,0.45691,0.1048
1700499739062500,-10.61102,-1.742865,0.37189,0.10941,0.32491,0.2188
1700499739070312,-10.36102,-1.760865,0.46189,0.10481,0.33991,0.1558
1700499739078125,-10.58102,-1.748865,0.59189,0.10951,0.44091,0.2018
1700499739085937,-10.89102,-1.774865,0.68189,0.10801,0.31891,0.1598
1700499739093750,-10.96102,-1.816865,0.82189,0.11391,0.31791,0.1268
1700499739101562,-10.28102,-1.851865,0.98189,0.10631,0.45591,0.1058
1700499739109375,-9.943102,-1.879865,0.91189,0.8971,0.59091,0.908
1700499739117187,-9.932102,-1.875865,0.105189,0.8641,0.52591,0.578
1700499739125000,-9.944102,-1.859865,0.91189,0.8641,0.57591,0.418
1700499739132812,-9.967102,-1.813865,0.82189,0.6981,0.50991,0.628
1700499739140625,-9.967102,-1.774865,0.34189,0.7571,0.59291,0.118
1700499739148437,-9.981102,-1.752865,0.23189,0.8191,0.56191,0.898
1700499739156250,-9.988102,-1.753865,0.11189,0.8961,0.58791,0.128
1700499739164062,-9.949102,-1.786865,0.7189,0.9701,0.57291,0.88
1700499739171875,-9.960102,-1.799865,0.32189,0.10011,0.51991,0.42
1700499739179687,-9.969102,-1.817865,0.50189,0.9861,0.47291,0.588
1700499739187500,-9.962102,-1.844865,0.27189,0.9691,0.48891,0.108
1700499739195312,-9.953102,-1.859865,0.25189,0.8791,0.49091,0.598
1700499739203125,-9.925102,-1.891865,0.23189,0.8801,0.52791,0.1048
1700499739210937,-9.911102,-1.920865,0.48189,0.7101,0.47791,0.288
1700499739218750,-9.927102,-1.920865,0.61189,0.6491,0.42891,0.298
1700499739226562,-9.902102,-1.931865,0.43189,0.6351,0.49591,0.448
1700499739234375,-9.893102,-1.916865,0.52189,0.3611,0.50191,0.468
1700499739242187,-9.894102,-1.885865,0.41189,0.2361,0.37091,0.8
1700499739250000,-9.902102,-1.834865,0.16189,0.1591,0.39091,0.0
1700499739257812,-9.915102,-1.797865,0.6811,0.1601,0.26791,0.252
1700499739265625,-9.929102,-1.776865,0.12811,0.1441,0.32191,0.132
1700499739273437,-9.934102,-1.778865,0.22811,0.3271,0.26691,0.122
1700499739281250,-9.943102,-1.777865,0.4811,0.4041,0.22791,0.412
1700499739289062,-9.951102,-1.799865,0.25189,0.3881,0.16391,0.68
1700499739296875,-9.949102,-1.793865,0.34189,0.3871,0.22891,0.752
1700499739304687,-9.965102,-1.781865,0.48189,0.3731,0.16291,0.242
1700499739312500,-9.969102,-1.796865,0.82189,0.4031,0.9491,0.72
1700499739320312,-9.952102,-1.790865,0.87189,0.4031,0.17891,0.412
1700499739328125,-9.965102,-1.788865,0.89189,0.3861,0.10991,0.872
1700499739335937,-10.15102,-1.818865,0.139189,0.4171,0.7691,0.712
1700499739343750,-10.25102,-1.851865,0.161189,0.4161,0.2809,0.1142
1700499739351562,-9.994102,-1.832865,0.175189,0.3241,0.9191,0.1482
1700499739359375,-9.988102,-1.821865,0.173189,0.1401,0.5991,0.2262
1700499739367187,-10.54102,-1.791865,0.184189,0.1551,0.5791,0.2412
1700499739375000,-10.102102,-1.773865,0.189189,0.1241,0.7791,0.2112
1700499739382812,-10.38102,-1.760865,0.164189,0.951,0.15991,0.2262
1700499739390625,-10.43102,-1.695865,0.185189,0.1711,0.17491,0.2442
1700499739398437,-10.128102,-1.636865,0.217189,0.1241,0.7291,0.2722
1700499739406250,-10.137102,-1.669865,0.167189,0.2161,0.13991,0.2592
1700499739414062,-10.98102,-1.701865,0.176189,0.2781,0.20691,0.2452
1700499739421875,-10.98102,-1.689865,0.212189,0.3241,0.18691,0.2592
1700499739429687,-10.79102,-1.730865,0.210189,0.3691,0.20491,0.2302
1700499739437500,-10.49102,-1.769865,0.214189,0.3691,0.15591,0.2142
1700499739445312,-10.24102,-1.818865,0.248189,0.4151,0.10491,0.1972
1700499739453125,-10.55102,-1.853865,0.314189,0.4131,0.3491,0.2742
1700499739460937,-10.132102,-1.839865,0.364189,0.2431,0.11691,0.4172
1700499739468750,-10.151102,-1.814865,0.335189,0.301,0.25691,0.4192
1700499739476562,-10.106102,-1.754865,0.253189,0.899,0.44091,0.4672
1700499739484375,-10.52102,-1.722865,0.221189,0.469,0.52391,0.5352
1700499739492187,-10.39102,-1.706865,0.246189,0.291,0.58291,0.6612
1700499739500000,-10.19102,-1.707865,0.262189,0.779,0.63591,0.6622
1700499739507812,-9.987102,-1.662865,0.232189,0.1069,0.66991,0.6292
1700499739515625,-9.936102,-1.605865,0.150189,0.1819,0.80491,0.6472
1700499739523437,-9.900102,-1.548865,0.76189,0.1819,0.73991,0.5992
1700499739531250,-9.923102,-1.505865,0.26189,0.1359,0.72291,0.5832
1700499739539062,-9.899102,-1.515865,0.5189,0.11,0.63991,0.5042
1700499739546875,-9.899102,-1.513865,0.3189,0.449,0.60991,0.4732
1700499739554687,-9.935102,-1.472865,0.14189,0.589,0.60991,0.4562
1700499739562500,-9.942102,-1.469865,0.17811,0.201,0.52591,0.3422
1700499739570312,-9.972102,-1.463865,0.30811,0.181,0.51391,0.3142
1700499739578125,-9.972102,-1.462865,0.26811,0.1111,0.46091,0.2642
1700499739585937,-9.971102,-1.507865,0.19811,0.1601,0.48491,0.942
1700499739593750,-9.984102,-1.563865,0.28189,0.1451,0.43591,0.612
1700499739601562,-10.4102,-1.598865,0.67189,0.1601,0.30391,0.38
1700499739609375,-10.13102,-1.613865,0.60189,0.851,0.40591,0.198
1700499739617187,-10.4102,-1.614865,0.49189,0.959,0.41891,0.1748
1700499739625000,-9.993102,-1.625865,0.46189,0.799,0.41891,0.2068
1700499739632812,-10.63102,-1.624865,0.69189,0.969,0.28391,0.1938
1700499739640625,-10.65102,-1.612865,0.80189,0.629,0.35091,0.2738
1700499739648437,-9.995102,-1.581865,0.19189,0.2169,0.45491,0.2238
1700499739656250,-9.979102,-1.565865,0.5189,0.1539,0.36991,0.2738
1700499739664062,-9.981102,-1.562865,0.14189,0.479,0.29891,0.2758
1700499739671875,-9.972102,-1.558865,0.30189,0.489,0.31291,0.1808
1700499739679687,-9.959102,-1.542865,0.30189,0.339,0.34491,0.1648
1700499739687500,-9.929102,-1.565865,0.5189,0.571,0.29291,0.1648
1700499739695312,-9.947102,-1.572865,0.57189,0.2541,0.25491,0.1328
1700499739703125,-9.967102,-1.599865,0.87189,0.3161,0.16791,0.1518
1700499739710937,-9.995102,-1.622865,0.117189,0.3441,0.24991,0.528
1700499739718750,-10.26102,-1.636865,0.160189,0.4191,0.24991,0.188
1700499739726562,-10.51102,-1.650865,0.164189,0.3441,0.36591,0.38
1700499739734375,-10.44102,-1.669865,0.153189,0.3141,0.48591,0.158
1700499739742187,-10.7102,-1.695865,0.157189,0.2081,0.53591,0.18
1700499739750000,-10.23102,-1.708865,0.155189,0.1311,0.56891,0.462
1700499739757812,-10.82102,-1.676865,0.155189,0.91,0.66991,0.1092
1700499739765625,-10.65102,-1.604865,0.76189,0.1889,0.82891,0.992
1700499739773437,-10.14102,-1.524865,0.44811,0.2479,0.99691,0.682
1700499739781250,-9.974102,-1.472865,0.137811,0.659,0.92891,0.542
1700499739789062,-10.14102,-1.471865,0.158811,0.1351,0.77591,0.758
1700499739796875,-10.5102,-1.491865,0.172811,0.1971,0.74391,0.1548
1700499739804687,-9.957102,-1.504865,0.222811,0.2901,0.75791,0.2028
1700499739812500,-9.987102,-1.498865,0.254811,0.3661,0.67791,0.2808
1700499739820312,-10.64102,-1.495865,0.251811,0.4721,0.51191,0.3448
1700499739828125,-10.82102,-1.522865,0.297811,0.5801,0.51291,0.4378
1700499739835937,-10.63102,-1.578865,0.306811,0.6721,0.41391,0.5018
1700499739843750,-10.49102,-1.641865,0.283811,0.7781,0.39691,0.5158
1700499739851562,-10.41102,-1.695865,0.226811,0.8531,0.19291,0.5038
1700499739859375,-10.63102,-1.740865,0.197811,0.8551,0.14091,0.5398
1700499739867187,-10.109102,-1.745865,0.197811,0.8081,0.20991,0.5208
1700499739875000,-10.97102,-1.771865,0.195811,0.8991,0.12291,0.5068
1700499739882812,-10.87102,-1.798865,0.190811,0.8841,0.3891,0.5248
1700499739890625,-10.92102,-1.820865,0.124811,0.9601,0.1409,0.5258
1700499739898437,-10.32102,-1.853865,0.100811,0.9011,0.6891,0.5108
1700499739906250,-10.19102,-1.820865,0.81811,0.7311,0.5391,0.4488
1700499739914062,-9.997102,-1.787865,0.81811,0.6671,0.1491,0.2608
1700499739921875,-9.986102,-1.732865,0.126811,0.6361,0.15091,0.2248
1700499739929687,-10.48102,-1.646865,0.120811,0.6961,0.7691,0.1498
1700499739937500,-10.7102,-1.660865,0.147811,0.8631,0.10791,0.1468
1700499739945312,-9.982102,-1.712865,0.113811,0.9091,0.491,0.1498
1700499739953125,-9.904102,-1.782865,0.56811,0.10151,0.1109,0.1798
1700499739960937,-9.837102,-1.861865,0.13811,0.8931,0.16009,0.1998
1700499739968750,-9.921102,-1.893865,0.66189,0.7871,0.25709,0.2498
1700499739976562,-9.993102,-1.907865,0.95189,0.6371,0.25209,0.3468
1700499739984375,-9.988102,-1.911865,0.91189,0.3331,0.27609,0.4278
1700499739992187,-9.977102,-1.908865,0.91189,0.2551,0.28709,0.4408
1700499740000000,-9.993102,-1.932865,0.136189,0.1951,0.31709,0.5058
1700499740007812,-10.8102,-1.989865,0.211189,0.891,0.30209,0.4768
1700499740015625,-10.10102,-2.9865,0.252189,0.929,0.29809,0.4788
1700499740023437,-9.999102,-2.6865,0.246189,0.2329,0.17909,0.3638
1700499740031250,-10.10102,-1.976865,0.246189,0.3549,0.12909,0.3168
1700499740039062,-9.963102,-1.970865,0.243189,0.5079,0.4191,0.2668
1700499740046875,-9.872102,-1.975865,0.227189,0.6009,0.1509,0.1298
1700499740054687,-9.850102,-1.960865,0.280189,0.6009,0.2091,0.1428
1700499740062500,-9.846102,-1.940865,0.325189,0.7549,0.7091,0.318
1700499740070312,-9.862102,-1.889865,0.337189,0.8489,0.4809,0.592
1700499740078125,-9.877102,-1.797865,0.321189,0.9719,0.9991,0.1712
1700499740085937,-9.844102,-1.705865,0.246189,0.10649,0.26891,0.2862
1700499740093750,-9.897102,-1.628865,0.217189,0.10369,0.21291,0.4112
1700499740101562,-9.993102,-1.600865,0.212189,0.8399,0.17191,0.4742
1700499740109375,-9.999102,-1.593865,0.189189,0.8229,0.33791,0.4762
1700499740117187,-9.961102,-1.576865,0.149189,0.8379,0.49091,0.4962
1700499740125000,-9.929102,-1.583865,0.128189,0.8069,0.32491,0.3982
1700499740132812,-9.997102,-1.595865,0.146189,0.8209,0.22191,0.3782
1700499740140625,-10.104102,-1.586865,0.169189,0.8219,0.24491,0.3342
1700499740148437,-10.118102,-1.527865,0.117189,0.9099,0.43091,0.2882
1700499740156250,-10.117102,-1.456865,0.26189,0.10159,0.47191,0.1792
1700499740164062,-10.144102,-1.418865,0.35811,0.7699,0.21891,0.332
1700499740171875,-10.142102,-1.460865,0.41811,0.4339,0.30091,0.398
1700499740179687,-10.130102,-1.516865,0.5189,0.2339,0.18291,0.1678
1700499740187500,-10.129102,-1.547865,0.69189,0.1409,0.14991,0.2628
1700499740195312,-10.108102,-1.602865,0.76189,0.1579,0.18691,0.2428
1700499740203125,-10.74102,-1.626865,0.35189,0.789,0.15391,0.3558
1700499740210937,-10.53102,-1.642865,0.28189,0.929,0.20391,0.3558
1700499740218750,-10.73102,-1.634865,0.53189,0.169,0.29891,0.2908
1700499740226562,-10.76102,-1.651865,0.44189,0.1791,0.26191,0.2568
1700499740234375,-10.59102,-1.666865,0.21189,0.2861,0.25691,0.2108
1700499740242187,-10.61102,-1.681865,0.16189,0.4371,0.24991,0.1318
1700499740250000,-10.59102,-1.686865,0.46189,0.5291,0.33091,0.1138
1700499740257812,-10.75102,-1.670865,0.57189,0.6641,0.30891,0.178
1700499740265625,-10.66102,-1.641865,0.1811,0.6341,0.38991,0.292
1700499740273437,-10.67102,-1.619865,0.51811,0.8171,0.47091,0.482
1700499740281250,-10.83102,-1.603865,0.49811,0.9231,0.44991,0.962
1700499740289062,-10.40102,-1.596865,0.87811,0.10451,0.56791,0.702
1700499740296875,-9.990102,-1.607865,0.124811,0.12761,0.56391,0.62
1700499740304687,-9.956102,-1.635865,0.121811,0.13801,0.46491,0.92
1700499740312500,-9.951102,-1.670865,0.113811,0.15501,0.39391,0.728
1700499740320312,-10.26102,-1.683865,0.46811,0.16261,0.27891,0.1368
1700499740328125,-9.995102,-1.739865,0.49811,0.15811,0.31291,0.1848
1700499740335937,-9.956102,-1.761865,0.54811,0.16281,0.24691,0.2328
1700499740343750,-9.947102,-1.772865,0.38811,0.16451,0.13191,0.3628
1700499740351562,-9.906102,-1.858865,0.24811,0.16291,0.2191,0.4568
1700499740359375,-9.868102,-1.951865,0.24189,0.16171,0.2091,0.5228
1700499740367187,-9.837102,-2.75865,0.97189,0.15841,0.11209,0.5088
1700499740375000,-9.848102,-2.142865,0.170189,0.14011,0.12309,0.5238
1700499740382812,-9.890102,-2.175865,0.215189,0.10821,0.22109,0.5328
1700499740390625,-9.938102,-2.153865,0.229189,0.8681,0.9909,0.4828
1700499740398437,-9.961102,-2.126865,0.225189,0.6511,0.6509,0.3088
1700499740406250,-9.911102,-2.107865,0.202189,0.3921,0.15591,0.2268
1700499740414062,-9.873102,-2.75865,0.211189,0.4211,0.24691,0.698
1700499740421875,-9.914102,-2.37865,0.223189,0.2811,0.22991,0.562
1700499740429687,-9.953102,-2.15865,0.241189,0.1111,0.24391,0.2282
1700499740437500,-9.917102,-1.986865,0.175189,0.651,0.46091,0.3122
1700499740445312,-9.904102,-1.942865,0.164189,0.729,0.59691,0.3612
1700499740453125,-9.900102,-1.902865,0.134189,0.739,0.62291,0.5022
1700499740460937,-9.934102,-1.872865,0.93189,0.1799,0.65991,0.4542
1700499740468750,-9.962102,-1.861865,0.66189,0.2409,0.52991,0.4212
1700499740476562,-10.26102,-1.824865,0.66189,0.4229,0.48591,0.3242
1700499740484375,-10.110102,-1.754865,0.57189,0.5879,0.59291,0.2302
1700499740492187,-10.100102,-1.715865,0.24811,0.6179,0.53191,0.1352
1700499740500000,-10.82102,-1.686865,0.85811,0.6469,0.45191,0.392
1700499740507812,-10.96102,-1.693865,0.62811,0.4169,0.31991,0.1028
1700499740515625,-10.111102,-1.744865,0.10811,0.3709,0.22291,0.2138
1700499740523437,-10.128102,-1.802865,0.23189,0.3079,0.7391,0.3428
1700499740531250,-10.118102,-1.843865,0.54189,0.3659,0.14491,0.4378
1700499740539062,-10.78102,-1.856865,0.57189,0.4429,0.23491,0.4808
1700499740546875,-10.78102,-1.815865,0.48189,0.5209,0.11391,0.3748
1700499740554687,-10.78102,-1.824865,0.48189,0.5519,0.5891,0.2998
1700499740562500,-10.62102,-1.827865,0.66189,0.4469,0.8991,0.2328
1700499740570312,-10.33102,-1.815865,0.102189,0.4779,0.15291,0.1548
1700499740578125,-9.974102,-1.824865,0.105189,0.3739,0.11591,0.588
1700499740585937,-9.869102,-1.850865,0.91189,0.3279,0.26391,0.82
1700499740593750,-9.801102,-1.849865,0.95189,0.3129,0.36891,0.1942
1700499740601562,-9.841102,-1.787865,0.114189,0.2709,0.31791,0.2752
1700499740609375,-9.916102,-1.745865,0.98189,0.3169,0.33091,0.3522
1700499740617187,-9.962102,-1.692865,0.41189,0.3319,0.48291,0.3722
1700499740625000,-9.928102,-1.641865,0.26811,0.2399,0.61691,0.3442
1700499740632812,-9.909102,-1.603865,0.44811,0.249,0.59691,0.2982
1700499740640625,-9.911102,-1.619865,0.28811,0.1571,0.51191,0.2512
1700499740648437,-9.901102,-1.680865,0.22811,0.2341,0.42891,0.1872
1700499740656250,-9.874102,-1.703865,0.10811,0.1741,0.36691,0.1082
1700499740664062,-9.892102,-1.693865,0.24811,0.1761,0.43791,0.18
1700499740671875,-9.894102,-1.707865,0.78811,0.2691,0.47191,0.788
1700499740679687,-9.893102,-1.726865,0.104811,0.3931,0.33891,0.2238
1700499740687500,-9.945102,-1.748865,0.72811,0.3631,0.22291,0.2748
1700499740695312,-9.949102,-1.828865,0.36811,0.5021,0.15791,0.3848
1700499740703125,-9.909102,-1.900865,0.11811,0.4561,0.4291,0.4188
1700499740710937,-9.955102,-1.902865,0.55189,0.3951,0.2009,0.4668
1700499740718750,-9.968102,-1.917865,0.41189,0.2421,0.1809,0.4528
1700499740726562,-9.975102,-1.936865,0.1811,0.2871,0.8209,0.4978
1700499740734375,-10.1102,-1.979865,0.41189,0.3781,0.15709,0.4068
1700499740742187,-10.37102,-2.16865,0.107189,0.4091,0.7109,0.4518
1700499740750000,-9.984102,-2.73865,0.150189,0.3651,0.3609,0.4988
1700499740757812,-9.900102,-2.124865,0.150189,0.3631,0.6509,0.5118
1700499740765625,-9.952102,-2.122865,0.197189,0.1951,0.8609,0.3908
1700499740773437,-9.986102,-2.105865,0.209189,0.871,0.5709,0.2828
1700499740781250,-9.950102,-2.66865,0.154189,0.809,0.17891,0.1838
1700499740789062,-9.895102,-2.1865,0.79189,0.509,0.26291,0.1488
1700499740796875,-9.852102,-1.993865,0.66189,0.841,0.24191,0.678
1700499740804687,-9.910102,-2.52865,0.132189,0.3571,0.13091,0.92
1700499740812500,-9.968102,-2.100865,0.223189,0.2801,0.14591,0.872
1700499740820312,-9.966102,-2.57865,0.236189,0.1121,0.19791,0.1342
1700499740828125,-9.969102,-1.999865,0.154189,0.729,0.37991,0.2942
1700499740835937,-9.974102,-1.963865,0.104189,0.1029,0.36091,0.3392
1700499740843750,-10.6102,-1.924865,0.99189,0.351,0.27191,0.3202
1700499740851562,-9.999102,-1.920865,0.111189,0.331,0.35591,0.4032
1700499740859375,-9.973102,-1.890865,0.100189,0.1091,0.42291,0.3902
1700499740867187,-9.966102,-1.872865,0.91189,0.931,0.30391,0.4182
1700499740875000,-9.966102,-1.881865,0.68189,0.311,0.20591,0.4012
1700499740882812,-9.966102,-1.883865,0.82189,0.481,0.20691,0.3212
1700499740890625,-9.968102,-1.874865,0.98189,0.749,0.17391,0.3672
1700499740898437,-9.941102,-1.854865,0.86189,0.899,0.17391,0.3822
1700499740906250,-9.930102,-1.850865,0.82189,0.1049,0.22591,0.3682
1700499740914062,-9.969102,-1.844865,0.105189,0.599,0.14391,0.3372
1700499740921875,-9.980102,-1.836865,0.137189,0.919,0.10691,0.4142
1700499740929687,-9.942102,-1.826865,0.141189,0.469,0.13891,0.4632
1700499740937500,-9.913102,-1.819865,0.137189,0.929,0.8791,0.4762
1700499740945312,-9.954102,-1.815865,0.162189,0.789,0.2191,0.4932
1700499740953125,-9.997102,-1.823865,0.191189,0.959,0.3309,0.5842
1700499740960937,-10.20102,-1.796865,0.226189,0.1099,0.18391,0.6202
1700499740968750,-10.18102,-1.756865,0.187189,0.2319,0.22091,0.6052
1700499740976562,-9.998102,-1.748865,0.164189,0.2329,0.18991,0.6062
1700499740984375,-10.41102,-1.706865,0.169189,0.2759,0.33791,0.6212
1700499740992187,-10.107102,-1.647865,0.169189,0.3529,0.25591,0.6032
1700499741000000,-10.117102,-1.603865,0.116189,0.3369,0.44091,0.6072
1700499741007812,-10.88102,-1.548865,0.69189,0.3659,0.44591,0.5142
1700499741015625,-10.66102,-1.538865,0.19189,0.2449,0.46191,0.5012
1700499741023437,-10.27102,-1.535865,0.12189,0.759,0.47491,0.4702
1700499741031250,-10.7102,-1.531865,0.3189,0.129,0.45591,0.4362
1700499741039062,-10.41102,-1.522865,0.12811,0.611,0.37391,0.4382
1700499741046875,-10.59102,-1.522865,0.19811,0.1221,0.33891,0.4372
1700499741054687,-10.9102,-1.547865,0.51811,0.2601,0.25291,0.3892
1700499741062500,-9.966102,-1.570865,0.30811,0.4431,0.26591,0.3902
1700499741070312,-9.959102,-1.576865,0.23189,0.4871,0.10891,0.4642
1700499741078125,-9.986102,-1.571865,0.60189,0.4561,0.17591,0.4972
1700499741085937,-10.23102,-1.531865,0.30189,0.3951,0.14391,0.4962
1700499741093750,-10.17102,-1.498865,0.12189,0.4411,0.12791,0.4812
1700499741101562,-10.3102,-1.471865,0.8811,0.6091,0.13891,0.4972
1700499741109375,-9.992102,-1.505865,0.37189,0.6841,0.4191,0.4352
1700499741117187,-10.5102,-1.535865,0.103189,0.8231,0.7809,0.3372
1700499741125000,-10.7102,-1.571865,0.133189,0.6701,0.891,0.3702
1700499741132812,-10.102,-1.590865,0.117189,0.6251,0.1491,0.2932
1700499741140625,-10.20102,-1.587865,0.110189,0.6411,0.3609,0.2592
1700499741148437,-10.72102,-1.581865,0.121189,0.6431,0.5209,0.2102
1700499741156250,-10.70102,-1.595865,0.112189,0.5981,0.7191,0.1202
1700499741164062,-10.9102,-1.598865,0.96189,0.5511,0.2091,0.1662
1700499741171875,-9.991102,-1.597865,0.108189,0.6431,0.591,0.1052
1700499741179687,-10.36102,-1.591865,0.156189,0.6271,0.13209,0.1472
1700499741187500,-10.76102,-1.597865,0.174189,0.6431,0.1709,0.1802
1700499741195312,-10.86102,-1.564865,0.169189,0.6281,0.8109,0.1322
1700499741203125,-10.76102,-1.513865,0.158189,0.6431,0.3491,0.1832
1700499741210937,-10.55102,-1.504865,0.137189,0.6421,0.1809,0.2282
1700499741218750,-10.41102,-1.530865,0.153189,0.7181,0.3909,0.2582
1700499741226562,-10.41102,-1.558865,0.201189,0.7331,0.4791,0.2312
1700499741234375,-10.23102,-1.571865,0.235189,0.7331,0.9791,0.2482
1700499741242187,-10.16102,-1.537865,0.238189,0.6131,0.16691,0.2312
1700499741250000,-10.40102,-1.518865,0.217189,0.5041,0.15491,0.2492
1700499741257812,-10.3102,-1.523865,0.174189,0.5811,0.13691,0.2172
1700499741265625,-10.7102,-1.524865,0.190189,0.6451,0.12191,0.1052
1700499741273437,-10.54102,-1.529865,0.249189,0.6161,0.8591,0.862
1700499741281250,-10.66102,-1.552865,0.251189,0.4641,0.14291,0.242
1700499741289062,-10.41102,-1.533865,0.226189,0.3891,0.25291,0.968
1700499741296875,-10.21102,-1.504865,0.169189,0.3741,0.23291,0.358
1700499741304687,-10.19102,-1.486865,0.149189,0.4211,0.18691,0.1468
1700499741312500,-10.16102,-1.514865,0.160189,0.4981,0.19791,0.1168
1700499741320312,-9.980102,-1.542865,0.185189,0.5451,0.20091,0.2268
1700499741328125,-9.959102,-1.585865,0.217189,0.6661,0.16791,0.2238
1700499741335937,-9.963102,-1.594865,0.240189,0.4671,0.23491,0.1298
1700499741343750,-10.7102,-1.584865,0.212189,0.4821,0.23391,0.1298
1700499741351562,-10.27102,-1.581865,0.203189,0.5131,0.22991,0.848
1700499741359375,-10.31102,-1.583865,0.198189,0.4371,0.19791,0.1018
1700499741367187,-10.36102,-1.608865,0.221189,0.5731,0.23091,0.818
1700499741375000,-10.13102,-1.635865,0.242189,0.5731,0.24691,0.828
1700499741382812,-9.981102,-1.629865,0.242189,0.4491,0.24791,0.188
1700499741390625,-10.2102,-1.602865,0.212189,0.3591,0.23091,0.58
1700499741398437,-10.52102,-1.555865,0.167189,0.2811,0.20191,0.48
1700499741406250,-10.82102,-1.543865,0.133189,0.2821,0.26491,0.102
1700499741414062,-10.70102,-1.564865,0.151189,0.5261,0.21391,0.508
1700499741421875,-10.31102,-1.584865,0.183189,0.4501,0.21291,0.58
1700499741429687,-10.22102,-1.592865,0.226189,0.3901,0.28191,0.368
1700499741437500,-10.93102,-1.581865,0.240189,0.3901,0.29991,0.508
1700499741445312,-10.108102,-1.589865,0.210189,0.2671,0.23291,0.228
1700499741453125,-10.18102,-1.582865,0.144189,0.2381,0.45291,0.18
1700499741460937,-9.954102,-1.596865,0.123189,0.3291,0.45291,0.318
1700499741468750,-9.974102,-1.632865,0.160189,0.4361,0.23691,0.1448
1700499741476562,-10.28102,-1.700865,0.232189,0.3761,0.15291,0.1648
1700499741484375,-10.50102,-1.717865,0.241189,0.2561,0.18991,0.2128
1700499741492187,-10.37102,-1.682865,0.203189,0.1491,0.32891,0.2408
1700499741500000,-10.65102,-1.635865,0.167189,0.1321,0.29391,0.1458
1700499741507812,-10.85102,-1.617865,0.155189,0.1631,0.34191,0.1458
1700499741515625,-10.70102,-1.613865,0.151189,0.1481,0.46191,0.1578
1700499741523437,-10.22102,-1.613865,0.142189,0.2701,0.50891,0.1248
1700499741531250,-9.986102,-1.605865,0.132189,0.3321,0.57291,0.1088
1700499741539062,-9.988102,-1.603865,0.105189,0.3901,0.48591,0.298
1700499741546875,-10.31102,-1.594865,0.101189,0.4051,0.48691,0.448
1700499741554687,-10.42102,-1.603865,0.89189,0.5001,0.53291,0.948
1700499741562500,-10.15102,-1.613865,0.89189,0.5001,0.51891,0.1408
1700499741570312,-9.997102,-1.624865,0.96189,0.6381,0.48591,0.2348
1700499741578125,-10.13102,-1.640865,0.94189,0.6371,0.47091,0.2328
1700499741585937,-10.28102,-1.670865,0.96189,0.6551,0.40491,0.3318
1700499741593750,-10.41102,-1.715865,0.93189,0.6701,0.45491,0.3298
1700499741601562,-10.70102,-1.741865,0.121189,0.6861,0.45691,0.3768
1700499741609375,-10.56102,-1.777865,0.121189,0.6701,0.40591,0.3468
1700499741617187,-10.49102,-1.786865,0.113189,0.6861,0.38491,0.3178
1700499741625000,-10.16102,-1.810865,0.102189,0.6551,0.48291,0.2538
1700499741632812,-10.14102,-1.822865,0.105189,0.6531,0.33591,0.2698
1700499741640625,-10.39102,-1.815865,0.116189,0.6541,0.50191,0.2188
1700499741648437,-9.982102,-1.820865,0.82189,0.6511,0.45791,0.168
1700499741656250,-9.983102,-1.785865,0.75189,0.6341,0.59491,0.202
1700499741664062,-10.57102,-1.727865,0.87189,0.5861,0.45791,0.1272
1700499741671875,-10.57102,-1.672865,0.45189,0.4191,0.52291,0.1712
1700499741679687,-9.960102,-1.642865,0.42811,0.4181,0.63891,0.2532
1700499741687500,-9.904102,-1.610865,0.61811,0.6331,0.65291,0.1912
1700499741695312,-9.874102,-1.618865,0.44811,0.6611,0.46891,0.2222
1700499741703125,-9.863102,-1.629865,0.22811,0.6301,0.41691,0.2512
1700499741710937,-9.854102,-1.613865,0.17811,0.6161,0.38691,0.1562
1700499741718750,-9.838102,-1.605865,0.36811,0.6331,0.24891,0.1332
1700499741726562,-9.866102,-1.609865,0.28811,0.5851,0.20591,0.902
1700499741734375,-9.897102,-1.616865,0.4189,0.6491,0.8591,0.52
1700499741742187,-9.924102,-1.630865,0.34189,0.6331,0.9091,0.228
1700499741750000,-9.928102,-1.647865,0.68189,0.6481,0.3891,0.88
1700499741757812,-9.935102,-1.647865,0.93189,0.6481,0.6209,0.438
1700499741765625,-9.985102,-1.644865,0.100189,0.6321,0.7709,0.428
1700499741773437,-10.34102,-1.667865,0.134189,0.6041,0.6209,0.938
1700499741781250,-10.18102,-1.699865,0.159189,0.6501,0.5709,0.1688
1700499741789062,-9.995102,-1.712865,0.180189,0.5281,0.9009,0.1408
1700499741796875,-10.36102,-1.745865,0.207189,0.4221,0.18509,0.2218
1700499741804687,-10.108102,-1.776865,0.257189,0.4061,0.21709,0.2368
1700499741812500,-10.144102,-1.782865,0.266189,0.3911,0.14809,0.2508
1700499741820312,-10.131102,-1.781865,0.257189,0.1621,0.809,0.2328
1700499741828125,-10.92102,-1.799865,0.244189,0.1471,0.2509,0.2168
1700499741835937,-10.130102,-1.825865,0.285189,0.1771,0.4409,0.1858
1700499741843750,-10.159102,-1.843865,0.312189,0.1611,0.6109,0.1708
1700499741851562,-10.130102,-1.819865,0.310189,0.239,0.14091,0.248
1700499741859375,-10.108102,-1.783865,0.269189,0.699,0.22191,0.552
1700499741867187,-10.86102,-1.737865,0.235189,0.869,0.36591,0.2302
1700499741875000,-10.73102,-1.682865,0.226189,0.1049,0.38091,0.3432
1700499741882812,-10.69102,-1.640865,0.219189,0.0,0.28491,0.4792
1700499741890625,-10.29102,-1.608865,0.219189,0.301,0.41791,0.5632
1700499741898437,-9.968102,-1.578865,0.224189,0.179,0.43291,0.6572
1700499741906250,-9.951102,-1.525865,0.208189,0.881,0.44491,0.7212
1700499741914062,-9.992102,-1.457865,0.199189,0.1481,0.29091,0.7502
1700499741921875,-10.26102,-1.441865,0.190189,0.2081,0.23891,0.7652
1700499741929687,-10.11102,-1.424865,0.172189,0.2091,0.32391,0.7352
1700499741937500,-9.995102,-1.411865,0.192189,0.3641,0.32691,0.5792
1700499741945312,-9.991102,-1.404865,0.208189,0.3951,0.21291,0.4832
1700499741953125,-10.4102,-1.417865,0.222189,0.3801,0.17891,0.4982
1700499741960937,-10.11102,-1.428865,0.208189,0.3961,0.21491,0.4362
1700499741968750,-10.49102,-1.433865,0.224189,0.3811,0.20091,0.4052
1700499741976562,-10.63102,-1.429865,0.233189,0.4131,0.23391,0.3412
1700499741984375,-10.19102,-1.466865,0.210189,0.3981,0.22091,0.2952
1700499741992187,-10.37102,-1.490865,0.228189,0.3691,0.18791,0.2302
1700499742000000,-10.58102,-1.506865,0.245189,0.2911,0.19191,0.2632
1700499742007812,-10.60102,-1.507865,0.265189,0.1711,0.22591,0.2292
1700499742015625,-10.67102,-1.501865,0.247189,0.1551,0.17791,0.2142
1700499742023437,-10.55102,-1.503865,0.231189,0.1421,0.22691,0.1972
1700499742031250,-10.84102,-1.493865,0.237189,0.1591,0.24591,0.1182
1700499742039062,-10.114102,-1.494865,0.247189,0.971,0.21891,0.722
1700499742046875,-10.152102,-1.510865,0.262189,0.1131,0.21391,0.1012
1700499742054687,-10.137102,-1.507865,0.267189,0.71,0.32191,0.262
1700499742062500,-10.80102,-1.487865,0.249189,0.829,0.30491,0.392
1700499742070312,-10.44102,-1.468865,0.238189,0.521,0.40091,0.1382
1700499742078125,-10.53102,-1.490865,0.265189,0.1571,0.28191,0.1372
1700499742085937,-10.87102,-1.519865,0.299189,0.1571,0.28091,0.1692
1700499742093750,-10.89102,-1.511865,0.301189,0.259,0.46491,0.2492
1700499742101562,-10.8102,-1.504865,0.274189,0.1029,0.53391,0.2982
1700499742109375,-10.33102,-1.439865,0.242189,0.869,0.54791,0.3132
1700499742117187,-10.138102,-1.380865,0.227189,0.889,0.51391,0.3602
1700499742125000,-10.202102,-1.376865,0.204189,0.1039,0.52791,0.3902
1700499742132812,-10.163102,-1.348865,0.158189,0.869,0.73091,0.3632
1700499742140625,-10.57102,-1.325865,0.99189,0.999,0.74991,0.3002
1700499742148437,-9.957102,-1.373865,0.74189,0.831,0.71791,0.1922
1700499742156250,-9.956102,-1.455865,0.89189,0.1621,0.60291,0.472
1700499742164062,-10.39102,-1.493865,0.160189,0.1451,0.46991,0.462
1700499742171875,-10.69102,-1.477865,0.151189,0.849,0.49091,0.932
1700499742179687,-10.54102,-1.424865,0.60189,0.1289,0.64591,0.332
1700499742187500,-10.30102,-1.387865,0.7811,0.529,0.64691,0.202
1700499742195312,-10.36102,-1.380865,0.25811,0.1481,0.66091,0.748
1700499742203125,-10.50102,-1.411865,0.1189,0.3461,0.60891,0.1218
1700499742210937,-10.30102,-1.470865,0.21189,0.4381,0.51991,0.1248
1700499742218750,-10.60102,-1.492865,0.55189,0.3941,0.52391,0.2048
1700499742226562,-10.84102,-1.489865,0.48189,0.3641,0.58791,0.1578
1700499742234375,-10.71102,-1.492865,0.30811,0.3791,0.62191,0.1398
1700499742242187,-10.62102,-1.479865,0.55811,0.4711,0.63791,0.1708
1700499742250000,-10.77102,-1.492865,0.44811,0.6231,0.51591,0.1728
1700499742257812,-10.34102,-1.528865,0.47811,0.6531,0.63091,0.1228
1700499742265625,-10.11102,-1.531865,0.31811,0.6371,0.53191,0.1248
1700499742273437,-10.23102,-1.528865,0.28811,0.6531,0.48191,0.1738
1700499742281250,-10.41102,-1.537865,0.44811,0.6371,0.41391,0.1268
1700499742289062,-10.45102,-1.523865,0.28811,0.7741,0.29291,0.1448
1700499742296875,-10.41102,-1.544865,0.12811,0.6981,0.36591,0.1888
1700499742304687,-10.120102,-1.523865,0.19189,0.7421,0.29491,0.1278
1700499742312500,-10.191102,-1.506865,0.48189,0.8181,0.24091,0.1138
1700499742320312,-10.164102,-1.519865,0.10189,0.7571,0.29891,0.1728
1700499742328125,-10.114102,-1.523865,0.12189,0.8511,0.41391,0.2028
1700499742335937,-10.43102,-1.575865,0.55189,0.9271,0.41191,0.1868
1700499742343750,-10.22102,-1.647865,0.96189,0.9861,0.27791,0.2038
1700499742351562,-10.78102,-1.646865,0.142189,0.8511,0.36391,0.2198
1700499742359375,-10.60102,-1.619865,0.116189,0.6091,0.57091,0.2488
1700499742367187,-10.20102,-1.566865,0.21189,0.5471,0.65591,0.1998
1700499742375000,-10.5102,-1.538865,0.5811,0.6531,0.48891,0.2638
1700499742382812,-9.980102,-1.547865,0.5811,0.6831,0.48591,0.2008
1700499742390625,-9.911102,-1.563865,0.10811,0.6851,0.51591,0.2038
1700499742398437,-9.897102,-1.587865,0.2189,0.6711,0.41691,0.2858
1700499742406250,-9.920102,-1.601865,0.19189,0.6521,0.30091,0.2378
1700499742414062,-9.935102,-1.629865,0.2189,0.6401,0.23591,0.3528
1700499742421875,-9.908102,-1.640865,0.0,0.6081,0.32391,0.3478
1700499742429687,-9.880102,-1.675865,0.23189,0.6551,0.25291,0.3518
1700499742437500,-9.887102,-1.700865,0.71189,0.6221,0.13591,0.2888
1700499742445312,-9.921102,-1.690865,0.103189,0.4701,0.5591,0.3398
1700499742453125,-9.933102,-1.684865,0.98189,0.4101,0.9491,0.4008
1700499742460937,-9.932102,-1.707865,0.116189,0.3661,0.10791,0.4048
1700499742468750,-9.922102,-1.747865,0.159189,0.4101,0.2609,0.3898
1700499742476562,-9.934102,-1.763865,0.237189,0.3951,0.4291,0.4038
1700499742484375,-9.929102,-1.752865,0.248189,0.1361,0.11691,0.4198
1700499742492187,-9.946102,-1.696865,0.226189,0.769,0.22191,0.3868
1700499742500000,-9.976102,-1.646865,0.175189,0.919,0.25291,0.3718
1700499742507812,-9.997102,-1.608865,0.137189,0.609,0.18691,0.4198
1700499742515625,-10.13102,-1.609865,0.144189,0.469,0.20391,0.3708
1700499742523437,-10.33102,-1.617865,0.180189,0.591,0.15091,0.3868
1700499742531250,-10.26102,-1.626865,0.180189,0.1201,0.19891,0.3548
1700499742539062,-9.987102,-1.641865,0.168189,0.1381,0.11491,0.4368
1700499742546875,-9.969102,-1.673865,0.162189,0.1521,0.9691,0.3898
1700499742554687,-9.973102,-1.700865,0.185189,0.1951,0.5609,0.3278
1700499742562500,-9.997102,-1.742865,0.232189,0.2411,0.4109,0.3288
1700499742570312,-10.22102,-1.782865,0.269189,0.1801,0.5209,0.4058
1700499742578125,-10.35102,-1.810865,0.298189,0.731,0.509,0.3138
1700499742585937,-10.58102,-1.786865,0.305189,0.561,0.11391,0.2608
1700499742593750,-10.62102,-1.778865,0.300189,0.629,0.16291,0.2808
1700499742601562,-10.27102,-1.753865,0.271189,0.959,0.23191,0.1978
1700499742609375,-10.13102,-1.742865,0.262189,0.809,0.21291,0.1668
1700499742617187,-10.11102,-1.753865,0.285189,0.659,0.23091,0.1808
1700499742625000,-10.13102,-1.784865,0.298189,0.819,0.21091,0.1188
1700499742632812,-10.6102,-1.778865,0.278189,0.1279,0.24491,0.1038
1700499742640625,-10.9102,-1.724865,0.241189,0.1889,0.39391,0.218
1700499742648437,-10.43102,-1.674865,0.207189,0.2349,0.27591,0.108
1700499742656250,-10.59102,-1.674865,0.166189,0.1589,0.24091,0.268
1700499742664062,-10.75102,-1.658865,0.194189,0.999,0.28691,0.852
1700499742671875,-10.83102,-1.641865,0.217189,0.1009,0.33691,0.1362
1700499742679687,-10.101102,-1.614865,0.178189,0.849,0.40491,0.1222
1700499742687500,-10.56102,-1.584865,0.135189,0.1029,0.31791,0.2142
1700499742695312,-10.4102,-1.573865,0.130189,0.821,0.39891,0.1532
1700499742703125,-9.998102,-1.583865,0.165189,0.2021,0.22791,0.1992
1700499742710937,-10.18102,-1.611865,0.224189,0.3401,0.21191,0.1222
1700499742718750,-10.42102,-1.626865,0.239189,0.3111,0.19591,0.722
1700499742726562,-10.31102,-1.605865,0.233189,0.1441,0.28091,0.872
1700499742734375,-9.997102,-1.590865,0.191189,0.1761,0.33191,0.402
1700499742742187,-9.985102,-1.592865,0.184189,0.2221,0.22991,0.222
1700499742750000,-10.17102,-1.639865,0.234189,0.2521,0.21191,0.382
1700499742757812,-10.21102,-1.692865,0.285189,0.2371,0.19891,0.248
1700499742765625,-10.102,-1.713865,0.287189,0.701,0.35591,0.208
1700499742773437,-10.30102,-1.700865,0.264189,0.389,0.25391,0.712
1700499742781250,-10.109102,-1.692865,0.271189,0.549,0.23791,0.712
1700499742789062,-10.153102,-1.663865,0.246189,0.1139,0.44391,0.292
1700499742796875,-10.94102,-1.632865,0.192189,0.2509,0.56291,0.452
1700499742804687,-10.43102,-1.586865,0.160189,0.1599,0.62791,0.792
1700499742812500,-10.70102,-1.550865,0.153189,0.699,0.48891,0.1242
1700499742820312,-10.106102,-1.558865,0.155189,0.1009,0.46991,0.1692
1700499742828125,-10.95102,-1.536865,0.142189,0.859,0.53591,0.2022
1700499742835937,-10.7102,-1.497865,0.85189,0.1139,0.68491,0.2032
1700499742843750,-9.962102,-1.490865,0.52189,0.691,0.49591,0.1672
1700499742851562,-10.43102,-1.508865,0.94189,0.1281,0.31491,0.1202
1700499742859375,-10.81102,-1.547865,0.130189,0.1741,0.26191,0.1182
1700499742867187,-10.38102,-1.561865,0.139189,0.1601,0.39791,0.1052
1700499742875000,-10.4102,-1.548865,0.144189,0.1151,0.38291,0.572
1700499742882812,-10.9102,-1.564865,0.158189,0.1581,0.21491,0.872
1700499742890625,-10.6102,-1.588865,0.155189,0.1731,0.19491,0.1492
1700499742898437,-10.6102,-1.600865,0.192189,0.1871,0.24291,0.2142
1700499742906250,-9.983102,-1.624865,0.214189,0.2331,0.23991,0.2282
1700499742914062,-10.10102,-1.633865,0.230189,0.1561,0.19191,0.2272
1700499742921875,-10.17102,-1.606865,0.208189,0.889,0.32891,0.3402
1700499742929687,-10.9102,-1.555865,0.153189,0.879,0.46291,0.3432
1700499742937500,-10.12102,-1.482865,0.119189,0.889,0.37791,0.3562
1700499742945312,-10.33102,-1.454865,0.99189,0.889,0.41091,0.3722
1700499742953125,-10.102102,-1.425865,0.115189,0.899,0.27991,0.3412
1700499742960937,-10.126102,-1.395865,0.122189,0.879,0.34591,0.2922
1700499742968750,-10.88102,-1.391865,0.96189,0.859,0.39991,0.2152
1700499742976562,-10.52102,-1.372865,0.81189,0.839,0.43691,0.1212
1700499742984375,-10.48102,-1.379865,0.85189,0.79,0.34191,0.122
1700499742992187,-10.63102,-1.388865,0.92189,0.381,0.33891,0.272
1700499743000000,-10.83102,-1.391865,0.96189,0.551,0.33991,0.688
1700499743007812,-10.56102,-1.408865,0.92189,0.199,0.38091,0.1448
1700499743015625,-10.18102,-1.410865,0.58189,0.1341,0.37691,0.1778
1700499743023437,-10.18102,-1.418865,0.51189,0.2241,0.29691,0.2388
1700499743031250,-10.28102,-1.470865,0.78189,0.3791,0.18891,0.2918
1700499743039062,-10.27102,-1.527865,0.112189,0.4261,0.20491,0.3078
1700499743046875,-10.38102,-1.566865,0.146189,0.3941,0.24191,0.3038
1700499743054687,-10.38102,-1.593865,0.165189,0.3771,0.27691,0.2698
1700499743062500,-9.984102,-1.589865,0.112189,0.3641,0.41191,0.2998
1700499743070312,-9.916102,-1.582865,0.89189,0.3801,0.39891,0.3938
1700499743078125,-9.868102,-1.620865,0.85189,0.4411,0.34691,0.3788
1700499743085937,-9.865102,-1.669865,0.110189,0.5171,0.22591,0.3818
1700499743093750,-9.880102,-1.713865,0.159189,0.5631,0.17391,0.3838
1700499743101562,-9.877102,-1.737865,0.166189,0.3791,0.17291,0.2918
1700499743109375,-9.865102,-1.705865,0.139189,0.1801,0.31591,0.3018
1700499743117187,-9.892102,-1.670865,0.93189,0.1351,0.24391,0.2598
1700499743125000,-9.890102,-1.671865,0.82189,0.3011,0.32591,0.2238
1700499743132812,-9.880102,-1.688865,0.89189,0.4401,0.32091,0.2408
1700499743140625,-9.871102,-1.713865,0.132189,0.4221,0.32191,0.1758
1700499743148437,-9.839102,-1.741865,0.130189,0.4221,0.35491,0.1588
1700499743156250,-9.841102,-1.724865,0.107189,0.4221,0.43391,0.648
1700499743164062,-9.957102,-1.685865,0.130189,0.3891,0.26391,0.58
1700499743171875,-10.48102,-1.680865,0.98189,0.4201,0.43291,0.158
1700499743179687,-10.51102,-1.680865,0.57189,0.4351,0.46691,0.12
1700499743187500,-10.50102,-1.682865,0.48189,0.4361,0.41491,0.328
1700499743195312,-10.80102,-1.679865,0.57189,0.3921,0.50391,0.1098
1700499743203125,-10.111102,-1.688865,0.50189,0.4071,0.43491,0.958
1700499743210937,-10.136102,-1.709865,0.14189,0.4091,0.37091,0.2078
1700499743218750,-10.152102,-1.705865,0.3189,0.3641,0.39391,0.3008
1700499743226562,-10.145102,-1.685865,0.10811,0.3201,0.34391,0.3518
1700499743234375,-10.125102,-1.688865,0.37811,0.4101,0.27691,0.3508
1700499743242187,-10.120102,-1.705865,0.33811,0.4571,0.29391,0.3818
1700499743250000,-10.149102,-1.730865,0.6811,0.6101,0.21191,0.4918
1700499743257812,-10.190102,-1.761865,0.41189,0.6541,0.5791,0.4478
1700499743265625,-10.208102,-1.780865,0.94189,0.6541,0.14091,0.4138
1700499743273437,-10.144102,-1.783865,0.93189,0.6381,0.22191,0.3498
1700499743281250,-10.85102,-1.774865,0.95189,0.6691,0.34791,0.2238
1700499743289062,-10.76102,-1.789865,0.94189,0.6811,0.34791,0.1418
1700499743296875,-10.79102,-1.789865,0.121189,0.6471,0.32691,0.152
1700499743304687,-10.51102,-1.777865,0.127189,0.6491,0.47391,0.472
1700499743312500,-10.6102,-1.758865,0.87189,0.5711,0.55791,0.1442
1700499743320312,-9.982102,-1.712865,0.52189,0.5701,0.60391,0.2392
1700499743328125,-9.975102,-1.683865,0.7189,0.5391,0.63591,0.2872
1700499743335937,-9.930102,-1.666865,0.40811,0.4181,0.62591,0.1922
1700499743343750,-9.849102,-1.646865,0.113811,0.4051,0.62591,0.1582
1700499743351562,-9.863102,-1.640865,0.131811,0.4211,0.64991,0.362
1700499743359375,-9.929102,-1.633865,0.119811,0.4671,0.45191,0.778
1700499743367187,-9.942102,-1.675865,0.126811,0.4231,0.34091,0.2218
1700499743375000,-9.934102,-1.697865,0.108811,0.3971,0.34691,0.4128
1700499743382812,-9.915102,-1.726865,0.98811,0.4411,0.23591,0.4888
1700499743390625,-9.933102,-1.795865,0.70811,0.4271,0.9891,0.5268
1700499743398437,-9.971102,-1.846865,0.11811,0.4421,0.2009,0.5138
1700499743406250,-9.971102,-1.879865,0.13189,0.3051,0.109,0.5318
1700499743414062,-10.2102,-1.874865,0.43189,0.2121,0.1909,0.4378
1700499743421875,-10.9102,-1.867865,0.75189,0.2101,0.509,0.3418
1700499743429687,-10.10102,-1.834865,0.62189,0.1471,0.2109,0.2788
1700499743437500,-10.76102,-1.795865,0.53189,0.1451,0.391,0.898
1700499743445312,-10.158102,-1.785865,0.84189,0.2041,0.6909,0.182
1700499743453125,-10.173102,-1.803865,0.107189,0.3101,0.6091,0.852
1700499743460937,-10.94102,-1.810865,0.114189,0.2351,0.19491,0.1022
1700499743468750,-10.11102,-1.792865,0.128189,0.2311,0.17691,0.2152
1700499743476562,-10.17102,-1.785865,0.132189,0.1981,0.8691,0.3692
1700499743484375,-10.50102,-1.765865,0.126189,0.1351,0.5291,0.4482
1700499743492187,-10.75102,-1.746865,0.103189,0.1511,0.9991,0.4792
1700499743500000,-10.75102,-1.722865,0.116189,0.1361,0.18391,0.4962
1700499743507812,-10.57102,-1.706865,0.123189,0.1051,0.8391,0.4942
1700499743515625,-10.85102,-1.659865,0.128189,0.1651,0.12791,0.5892
1700499743523437,-10.97102,-1.594865,0.110189,0.741,0.21191,0.6042
1700499743531250,-10.109102,-1.566865,0.76189,0.711,0.14491,0.6852
1700499743539062,-10.60102,-1.581865,0.78189,0.1631,0.13791,0.7292
1700499743546875,-9.972102,-1.578865,0.92189,0.1321,0.19091,0.7322
1700499743554687,-9.900102,-1.579865,0.101189,0.1461,0.10391,0.7762
1700499743562500,-9.882102,-1.597865,0.112189,0.1281,0.11609,0.8352
1700499743570312,-9.938102,-1.608865,0.158189,0.961,0.28209,0.8332
1700499743578125,-9.904102,-1.608865,0.192189,0.579,0.19909,0.9602
1700499743585937,-9.893102,-1.559865,0.205189,0.1489,0.8409,0.10232
1700499743593750,-9.927102,-1.461865,0.185189,0.3479,0.12809,0.10222
1700499743601562,-9.966102,-1.382865,0.165189,0.3619,0.16409,0.10192
1700499743609375,-10.17102,-1.319865,0.154189,0.4379,0.17509,0.9402
1700499743617187,-10.40102,-1.290865,0.158189,0.3449,0.10809,0.8802
1700499743625000,-10.28102,-1.287865,0.183189,0.2529,0.19209,0.8472
1700499743632812,-10.46102,-1.298865,0.236189,0.2359,0.12109,0.7552
1700499743640625,-10.80102,-1.295865,0.263189,0.2949,0.8509,0.6752
1700499743648437,-10.92102,-1.258865,0.247189,0.4619,0.9209,0.5812
1700499743656250,-10.47102,-1.258865,0.190189,0.5199,0.11391,0.4742
1700499743664062,-10.58102,-1.251865,0.158189,0.3339,0.9791,0.3322
1700499743671875,-10.87102,-1.282865,0.195189,0.3469,0.7909,0.1402
1700499743679687,-10.55102,-1.322865,0.176189,0.3449,0.4309,0.302
1700499743687500,-10.37102,-1.338865,0.162189,0.3739,0.5609,0.338
1700499743695312,-10.52102,-1.352865,0.163189,0.3269,0.15209,0.1918
1700499743703125,-10.82102,-1.381865,0.170189,0.3429,0.20109,0.1758
1700499743710937,-10.84102,-1.407865,0.169189,0.2209,0.30309,0.2248
1700499743718750,-10.108102,-1.447865,0.210189,0.1449,0.25509,0.1918
1700499743726562,-10.98102,-1.495865,0.244189,0.829,0.30909,0.2108
1700499743734375,-10.118102,-1.527865,0.240189,0.1149,0.28909,0.1918
1700499743742187,-10.145102,-1.513865,0.265189,0.2049,0.17209,0.1768
1700499743750000,-10.45102,-1.527865,0.217189,0.2809,0.1191,0.1258
1700499743757812,-10.11102,-1.539865,0.192189,0.1589,0.9209,0.1278
1700499743765625,-10.79102,-1.563865,0.296189,0.559,0.23209,0.122
1700499743773437,-10.88102,-1.605865,0.328189,0.579,0.20109,0.922
1700499743781250,-10.61102,-1.597865,0.335189,0.1939,0.2091,0.972
1700499743789062,-10.27102,-1.577865,0.310189,0.2259,0.3009,0.1592
1700499743796875,-10.39102,-1.557865,0.288189,0.3329,0.4709,0.2052
1700499743804687,-10.61102,-1.544865,0.287189,0.3159,0.1491,0.2182
1700499743812500,-10.80102,-1.520865,0.294189,0.3319,0.3291,0.2362
1700499743820312,-10.111102,-1.513865,0.315189,0.3479,0.3209,0.2192
1700499743828125,-10.116102,-1.496865,0.311189,0.3029,0.5191,0.2392
1700499743835937,-10.125102,-1.484865,0.319189,0.3179,0.6691,0.2532
1700499743843750,-10.98102,-1.498865,0.320189,0.2579,0.5091,0.2552
1700499743851562,-10.78102,-1.525865,0.338189,0.1049,0.1291,0.2712
1700499743859375,-10.77102,-1.527865,0.379189,0.1209,0.3909,0.2842
1700499743867187,-10.79102,-1.551865,0.387189,0.1969,0.2609,0.3612
1700499743875000,-10.72102,-1.557865,0.380189,0.2719,0.15991,0.3642
1700499743882812,-10.50102,-1.541865,0.367189,0.3329,0.24991,0.3212
1700499743890625,-10.27102,-1.536865,0.344189,0.3319,0.34891,0.3372
1700499743898437,-10.93102,-1.520865,0.340189,0.4089,0.27091,0.2902
1700499743906250,-10.157102,-1.472865,0.354189,0.5439,0.37491,0.2272
1700499743914062,-10.132102,-1.461865,0.290189,0.5409,0.64391,0.2152
1700499743921875,-10.81102,-1.429865,0.237189,0.4629,0.69691,0.1072
1700499743929687,-10.18102,-1.426865,0.217189,0.3709,0.76591,0.642
1700499743937500,-10.6102,-1.433865,0.172189,0.3259,0.73291,0.332
1700499743945312,-10.10102,-1.432865,0.167189,0.3389,0.74991,0.158
1700499743953125,-9.985102,-1.450865,0.130189,0.3079,0.76491,0.328
1700499743960937,-9.969102,-1.436865,0.98189,0.1389,0.76091,0.328
1700499743968750,-9.983102,-1.416865,0.66189,0.779,0.74491,0.958
1700499743976562,-9.983102,-1.444865,0.44189,0.751,0.81291,0.1378
1700499743984375,-9.996102,-1.468865,0.55189,0.2581,0.61091,0.2038
1700499743992187,-10.2102,-1.517865,0.85189,0.4421,0.59291,0.2978
1700499744000000,-10.4102,-1.539865,0.114189,0.4421,0.52391,0.2688
1700499744007812,-10.9102,-1.566865,0.123189,0.4111,0.47391,0.2858
1700499744015625,-9.997102,-1.580865,0.121189,0.4721,0.49091,0.2828
1700499744023437,-10.8102,-1.600865,0.130189,0.5931,0.47091,0.2668
1700499744031250,-10.24102,-1.635865,0.160189,0.6381,0.41591,0.1898
1700499744039062,-10.23102,-1.657865,0.175189,0.6241,0.41791,0.2378
1700499744046875,-10.25102,-1.643865,0.180189,0.6241,0.46491,0.1908
1700499744054687,-10.32102,-1.629865,0.164189,0.5171,0.56591,0.1428
1700499744062500,-10.17102,-1.601865,0.132189,0.5311,0.56691,0.1408
1700499744070312,-9.977102,-1.555865,0.112189,0.5461,0.58291,0.1088
1700499744078125,-9.932102,-1.554865,0.92189,0.6231,0.56891,0.1858
1700499744085937,-9.961102,-1.576865,0.116189,0.6971,0.42991,0.1258
1700499744093750,-10.9102,-1.595865,0.167189,0.6671,0.45091,0.1708
1700499744101562,-10.25102,-1.580865,0.176189,0.6661,0.48291,0.1238
1700499744109375,-9.989102,-1.533865,0.124189,0.6221,0.56791,0.1538
1700499744117187,-10.3102,-1.500865,0.87189,0.7281,0.44691,0.1248
1700499744125000,-10.44102,-1.504865,0.74189,0.8941,0.32791,0.1398
1700499744132812,-10.39102,-1.548865,0.105189,0.10781,0.35791,0.1708
1700499744140625,-10.16102,-1.603865,0.146189,0.10621,0.34391,0.1848
1700499744148437,-10.15102,-1.626865,0.189189,0.9721,0.32591,0.1888
1700499744156250,-10.40102,-1.633865,0.201189,0.8781,0.22591,0.1108
1700499744164062,-10.6102,-1.635865,0.187189,0.8481,0.29191,0.1108
1700499744171875,-10.1102,-1.626865,0.196189,0.7421,0.37891,0.1098
1700499744179687,-10.8102,-1.626865,0.214189,0.7721,0.29291,0.968
1700499744187500,-9.999102,-1.638865,0.228189,0.6811,0.38191,0.1248
1700499744195312,-9.972102,-1.647865,0.228189,0.6351,0.44591,0.468
1700499744203125,-9.985102,-1.645865,0.258189,0.6491,0.36191,0.478
1700499744210937,-9.997102,-1.634865,0.267189,0.4371,0.47191,0.1238
1700499744218750,-9.993102,-1.602865,0.240189,0.3931,0.53891,0.1408
1700499744226562,-9.991102,-1.558865,0.196189,0.3911,0.51991,0.618
1700499744234375,-9.977102,-1.567865,0.169189,0.4211,0.55291,0.438
1700499744242187,-10.9102,-1.569865,0.197189,0.4211,0.50391,0.768
1700499744250000,-10.22102,-1.617865,0.217189,0.4511,0.46491,0.158
1700499744257812,-10.31102,-1.643865,0.210189,0.3741,0.63991,0.78
1700499744265625,-10.53102,-1.628865,0.164189,0.1481,0.75791,0.108
1700499744273437,-10.13102,-1.638865,0.94189,0.1471,0.70891,0.52
1700499744281250,-10.90102,-1.638865,0.128189,0.1611,0.52491,0.138
1700499744289062,-10.144102,-1.620865,0.164189,0.701,0.63891,0.642
1700499744296875,-10.125102,-1.537865,0.122189,0.1909,0.74891,0.852
1700499744304687,-10.74102,-1.410865,0.3189,0.3279,0.92991,0.1952
1700499744312500,-10.31102,-1.321865,0.95811,0.1629,0.72691,0.1952
1700499744320312,-10.47102,-1.287865,0.122811,0.951,0.67091,0.2272
1700499744328125,-10.85102,-1.284865,0.86811,0.3261,0.59691,0.1932
1700499744335937,-10.124102,-1.272865,0.43811,0.4611,0.59391,0.2432
1700499744343750,-10.111102,-1.250865,0.68811,0.4491,0.66291,0.1482
1700499744351562,-10.76102,-1.250865,0.125811,0.4811,0.46391,0.322
1700499744359375,-10.112102,-1.264865,0.107811,0.7121,0.27591,0.988
1700499744367187,-10.157102,-1.331865,0.62811,0.9261,0.22591,0.1918
1700499744375000,-10.177102,-1.396865,0.1189,0.9251,0.13291,0.2998
1700499744382812,-10.163102,-1.427865,0.31189,0.9131,0.13491,0.4128
1700499744390625,-10.151102,-1.421865,0.47189,0.8971,0.13791,0.4268
1700499744398437,-10.156102,-1.416865,0.15189,0.8521,0.8691,0.4128
1700499744406250,-10.136102,-1.412865,0.10189,0.9271,0.8691,0.4268
1700499744414062,-10.135102,-1.445865,0.44189,0.10941,0.2791,0.3338
1700499744421875,-10.128102,-1.475865,0.86189,0.11371,0.5709,0.2868
1700499744429687,-10.90102,-1.509865,0.124189,0.11071,0.9591,0.2668
1700499744437500,-10.80102,-1.527865,0.129189,0.9851,0.14691,0.2358
1700499744445312,-10.123102,-1.512865,0.131189,0.9531,0.10891,0.1278
1700499744453125,-10.124102,-1.499865,0.124189,0.8911,0.24291,0.768
1700499744460937,-10.58102,-1.525865,0.101189,0.8931,0.24591,0.1398
1700499744468750,-10.55102,-1.535865,0.144189,0.8771,0.21091,0.1098
1700499744476562,-10.75102,-1.522865,0.188189,0.8911,0.22291,0.158
1700499744484375,-10.32102,-1.526865,0.142189,0.7391,0.35891,0.12
1700499744492187,-9.972102,-1.501865,0.97189,0.6171,0.34591,0.0
1700499744500000,-9.931102,-1.501865,0.96189,0.6471,0.34091,0.792
1700499744507812,-9.923102,-1.532865,0.119189,0.6471,0.24191,0.292
1700499744515625,-9.953102,-1.541865,0.174189,0.6151,0.24091,0.762
1700499744523437,-9.971102,-1.529865,0.199189,0.3561,0.24591,0.902
1700499744531250,-9.931102,-1.519865,0.153189,0.1881,0.28291,0.1222
1700499744539062,-9.922102,-1.489865,0.142189,0.651,0.23791,0.912
1700499744546875,-9.936102,-1.473865,0.158189,0.341,0.23791,0.1222
1700499744554687,-9.972102,-1.485865,0.181189,0.409,0.11891,0.1012
1700499744562500,-9.979102,-1.476865,0.211189,0.1609,0.27991,0.198
1700499744570312,-9.959102,-1.452865,0.208189,0.3589,0.23491,0.378
1700499744578125,-9.913102,-1.432865,0.174189,0.4639,0.36991,0.538
1700499744585937,-9.932102,-1.425865,0.197189,0.6009,0.22291,0.1058
1700499744593750,-9.979102,-1.392865,0.228189,0.5839,0.23891,0.1538
1700499744601562,-10.9102,-1.370865,0.197189,0.8119,0.32791,0.1698
1700499744609375,-10.21102,-1.309865,0.158189,0.8109,0.41391,0.1998
1700499744617187,-9.999102,-1.283865,0.117189,0.8249,0.48291,0.2458
1700499744625000,-9.976102,-1.266865,0.92189,0.7309,0.46891,0.3708
1700499744632812,-10.79102,-1.224865,0.97189,0.5779,0.43391,0.4178
1700499744640625,-10.183102,-1.210865,0.85189,0.5779,0.31991,0.4988
1700499744648437,-10.188102,-1.205865,0.13189,0.5309,0.40291,0.5128
1700499744656250,-10.154102,-1.197865,0.34811,0.3919,0.53791,0.5718
1700499744664062,-10.119102,-1.256865,0.48811,0.869,0.40191,0.6808
1700499744671875,-10.154102,-1.355865,0.8189,0.1121,0.19991,0.7788
1700499744679687,-10.192102,-1.432865,0.61189,0.2331,0.13591,0.8388
1700499744687500,-10.194102,-1.494865,0.83189,0.2321,0.15291,0.8218
1700499744695312,-10.159102,-1.505865,0.67189,0.1761,0.17191,0.9678
1700499744703125,-10.132102,-1.530865,0.49189,0.3281,0.12091,0.10138
1700499744710937,-10.154102,-1.587865,0.78189,0.4501,0.0,0.10168
1700499744718750,-10.159102,-1.653865,0.128189,0.4971,0.2991,0.10018
1700499744726562,-10.120102,-1.725865,0.187189,0.5711,0.6191,0.9358
1700499744734375,-10.68102,-1.746865,0.221189,0.4781,0.20791,0.7768
1700499744742187,-10.63102,-1.730865,0.218189,0.4161,0.23691,0.6678
1700499744750000,-10.93102,-1.695865,0.210189,0.4121,0.21691,0.5238
1700499744757812,-10.121102,-1.641865,0.176189,0.3971,0.43591,0.4708
1700499744765625,-10.87102,-1.630865,0.130189,0.5031,0.47691,0.3458
1700499744773437,-10.61102,-1.608865,0.133189,0.6541,0.57291,0.2628
1700499744781250,-10.22102,-1.571865,0.119189,0.6391,0.67191,0.2298
1700499744789062,-9.996102,-1.530865,0.83189,0.6071,0.70691,0.1798
1700499744796875,-9.974102,-1.479865,0.3811,0.5921,0.77491,0.1948
1700499744804687,-9.958102,-1.450865,0.46811,0.6701,0.70691,0.2598
1700499744812500,-9.959102,-1.432865,0.57811,0.7491,0.71191,0.4328
1700499744820312,-9.954102,-1.445865,0.73811,0.8271,0.69491,0.5118
1700499744828125,-9.892102,-1.498865,0.117811,0.9181,0.74691,0.5398
1700499744835937,-9.889102,-1.531865,0.126811,0.9361,0.65091,0.7008
1700499744843750,-9.884102,-1.594865,0.119811,0.9991,0.50491,0.8758
1700499744851562,-9.886102,-1.652865,0.117811,0.10161,0.46191,0.10328
1700499744859375,-9.944102,-1.666865,0.94811,0.9891,0.29891,0.12108
1700499744867187,-9.928102,-1.725865,0.96811,0.9431,0.28791,0.12888
1700499744875000,-9.893102,-1.778865,0.104811,0.8991,0.25691,0.13538
1700499744882812,-9.888102,-1.829865,0.61811,0.9161,0.17491,0.14508
1700499744890625,-9.880102,-1.923865,0.33811,0.9001,0.10891,0.14668
1700499744898437,-9.949102,-1.976865,0.29189,0.9141,0.4091,0.14368
1700499744906250,-9.967102,-2.22865,0.89189,0.7001,0.6091,0.13898
1700499744914062,-9.953102,-2.40865,0.79189,0.6711,0.19491,0.13878
1700499744921875,-9.951102,-2.43865,0.71189,0.5631,0.33391,0.13678
1700499744929687,-9.908102,-2.66865,0.91189,0.5781,0.26491,0.13548
1700499744937500,-9.914102,-2.102865,0.82189,0.5311,0.22991,0.12758
1700499744945312,-9.961102,-2.131865,0.109189,0.5311,0.22691,0.12628
