time,Acceleration X (m/s^2),Acceleration Y (m/s^2),Acceleration Z (m/s^2),Angular Velocity X (rad/s),Angular Velocity Y (rad/s),Angular Velocity Z (rad/s)
1702332025304687,-9.535209,2.268072,-0.010561,,,
1702332025312500,-9.533209,0.388507,2.277072,0.15161,0.66171,0.8486
1702332025320312,-9.531209,0.402507,2.299072,0.20161,0.61771,0.15086
1702332025328125,-9.556209,0.411507,2.288072,0.26361,0.72971,0.13586
1702332025335937,-9.549209,0.418507,2.247072,0.35961,0.58771,0.15386
1702332025343750,-9.509209,0.441507,2.270072,0.40461,0.53271,0.18486
1702332025359375,-9.480209,0.452507,2.295072,0.57661,0.45071,0.16986
1702332025367187,-9.475209,0.443507,2.317072,0.62261,0.49471,0.20186
1702332025375000,-9.455209,0.425507,2.306072,0.63961,0.56471,0.17086
1702332025382812,-9.450209,0.400507,2.286072,0.62361,0.46371,0.20186
1702332025406250,-9.520209,0.331507,2.292072,0.63961,0.43971,0.9086
1702332025414062,-9.516209,0.335507,2.299072,0.63661,0.48071,0.10586
1702332025421875,-9.516209,0.344507,2.304072,0.68561,0.48671,0.9086
1702332025429687,-9.519209,0.373507,2.299072,0.70061,0.54571,0.13886
1702332025437500,-9.510209,0.372507,2.283072,0.84061,0.51371,0.9186
1702332025445312,-9.515209,0.377507,2.286072,0.87261,0.56271,0.9286
1702332025453125,-9.528209,0.377507,2.299072,0.85461,0.52671,0.5886
1702332025460937,-9.548209,0.377507,2.324072,0.85461,0.54671,0.514
1702332025468750,-9.546209,0.364507,2.328072,0.87161,0.53571,0.5214
1702332025476562,-9.521209,0.375507,2.310072,0.91861,0.55171,0.5114
1702332025484375,-9.499209,0.373507,2.292072,0.95061,0.49171,0.6614
1702332025492187,-9.461209,0.376507,2.272072,0.97961,0.48371,0.5114
1702332025500000,-9.443209,0.385507,2.283072,0.99761,0.48871,0.3414
1702332025507812,-9.470209,0.376507,2.263072,0.102661,0.31971,0.414
1702332025515625,-9.530209,0.364507,2.234072,0.112161,0.42071,0.1714
1702332025523437,-9.582209,0.353507,2.214072,0.113161,0.48871,0.8514
1702332025531250,-9.633209,0.332507,2.209072,0.112161,0.56471,0.4914
1702332025539062,-9.655209,0.299507,2.225072,0.113361,0.67171,0.9914
1702332025546875,-9.625209,0.268507,2.236072,0.113661,0.72671,0.4814
1702332025554687,-9.562209,0.242507,2.250072,0.112061,0.87071,0.9714
1702332025562500,-9.506209,0.217507,2.232072,0.110461,0.83871,0.8114
1702332025570312,-9.440209,0.209507,2.223072,0.108861,0.77271,0.9814
1702332025578125,-9.413209,0.200507,2.225072,0.93361,0.78171,0.14614
1702332025585937,-9.395209,0.224507,2.232072,0.88461,0.61471,0.14814
1702332025593750,-9.398209,0.238507,2.263072,0.87161,0.60071,0.6714
1702332025601562,-9.420209,0.256507,2.297072,0.82761,0.52971,0.8214
1702332025609375,-9.448209,0.265507,2.310072,0.80761,0.48671,0.6914
1702332025617187,-9.470209,0.268507,2.326072,0.82261,0.41571,0.2586
1702332025625000,-9.514209,0.281507,2.324072,0.74261,0.48971,0.3986
1702332025632812,-9.534209,0.302507,2.317072,0.80761,0.48371,0.514
1702332025640625,-9.541209,0.306507,2.333072,0.82461,0.51671,0.1186
1702332025648437,-9.534209,0.300507,2.371072,0.83861,0.51671,0.3714
1702332025656250,-9.495209,0.279507,2.392072,0.75861,0.64271,0.10214
1702332025664062,-9.468209,0.265507,2.380072,0.66261,0.50871,0.8914
1702332025671875,-9.443209,0.234507,2.337072,0.74261,0.50071,0.13514
1702332025679687,-9.396209,0.204507,2.295072,0.61361,0.43871,0.9114
1702332025687500,-9.384209,0.171507,2.281072,0.58461,0.36471,0.9014
1702332025695312,-9.386209,0.184507,2.281072,0.43861,0.23971,0.7914
1702332025703125,-9.411209,0.178507,2.292072,0.37961,0.15171,0.4614
1702332025710937,-9.420209,0.194507,2.292072,0.33461,0.5871,0.2914
1702332025718750,-9.447209,0.197507,2.313072,0.33561,0.12671,0.2814
1702332025726562,-9.463209,0.205507,2.301072,0.31761,0.13271,0.1686
1702332025734375,-9.474209,0.237507,2.295072,0.27461,0.15671,0.6686
1702332025742187,-9.486209,0.268507,2.297072,0.22461,0.14871,0.8086
1702332025750000,-9.516209,0.283507,2.313072,0.28661,0.4771,0.12886
1702332025757812,-9.548209,0.304507,2.324072,0.28861,0.13171,0.16186
1702332025765625,-9.559209,0.295507,2.331072,0.27361,0.18071,0.17886
1702332025773437,-9.547209,0.293507,2.328072,0.35461,0.24071,0.8586
1702332025781250,-9.531209,0.279507,2.297072,0.28861,0.21671,0.5086
1702332025789062,-9.507209,0.268507,2.295072,0.23761,0.30771,0.3214
1702332025796875,-9.472209,0.265507,2.310072,0.22661,0.30471,0.2914
1702332025804687,-9.460209,0.282507,2.308072,0.25361,0.24171,0.0
1702332025812500,-9.462209,0.274507,2.320072,0.25461,0.21471,0.0
1702332025820312,-9.471209,0.278507,2.333072,0.30161,0.22771,0.4986
1702332025828125,-9.500209,0.268507,2.337072,0.30561,0.25271,0.6786
1702332025835937,-9.533209,0.257507,2.353072,0.22461,0.23071,0.4886
1702332025843750,-9.551209,0.253507,2.356072,0.17661,0.22771,0.6386
1702332025851562,-9.560209,0.258507,2.376072,0.11761,0.28571,0.4986
1702332025859375,-9.551209,0.262507,2.387072,0.10361,0.29071,0.3486
1702332025867187,-9.551209,0.271507,2.410072,0.11761,0.39971,0.5086
1702332025875000,-9.540209,0.268507,2.407072,0.10061,0.47671,0.3386
1702332025882812,-9.534209,0.277507,2.412072,0.6861,0.50671,0.1686
1702332025890625,-9.530209,0.283507,2.414072,0.3461,0.49871,0.4686
1702332025898437,-9.500209,0.288507,2.434072,0.13139,0.57471,0.12886
1702332025906250,-9.491209,0.297507,2.434072,0.1739,0.63471,0.14886
1702332025914062,-9.482209,0.294507,2.419072,0.9939,0.65671,0.14586
1702332025921875,-9.489209,0.294507,2.407072,0.1161,0.69171,0.17986
1702332025929687,-9.480209,0.292507,2.407072,0.11139,0.60171,0.16386
1702332025937500,-9.475209,0.281507,2.416072,0.14439,0.61571,0.14686
1702332025945312,-9.477209,0.254507,2.414072,0.14839,0.61071,0.4886
1702332025953125,-9.490209,0.252507,2.394072,0.13139,0.57771,0.12886
1702332025960937,-9.515209,0.247507,2.385072,0.14339,0.60471,0.8286
1702332025968750,-9.547209,0.246507,2.371072,0.8439,0.65971,0.8186
1702332025976562,-9.589209,0.261507,2.391072,0.12839,0.69771,0.11486
1702332025984375,-9.605209,0.261507,2.412072,0.11439,0.67571,0.12986
1702332025992187,-9.592209,0.276507,2.459072,0.4839,0.72971,0.19686
1702332026000000,-9.553209,0.251507,2.506072,0.7939,0.78171,0.14886
1702332026007812,-9.499209,0.235507,2.526072,0.9139,0.75471,0.21486
1702332026015625,-9.463209,0.225507,2.511072,0.1361,0.79271,0.19786
1702332026023437,-9.406209,0.200507,2.482072,0.7939,0.79271,0.22886
1702332026031250,-9.359209,0.186507,2.493072,0.15739,0.82871,0.21286
1702332026039062,-9.331209,0.164507,2.495072,0.12439,0.70271,0.21386
1702332026046875,-9.331209,0.162507,2.493072,0.24939,0.66971,0.22786
1702332026054687,-9.338209,0.160507,2.497072,0.40639,0.67271,0.21086
1702332026062500,-9.359209,0.166507,2.518072,0.42639,0.61371,0.17486
1702332026070312,-9.404209,0.211507,2.551072,0.44139,0.61571,0.19186
1702332026078125,-9.436209,0.243507,2.560072,0.45439,0.64871,0.30486
1702332026085937,-9.454209,0.263507,2.556072,0.37539,0.61871,0.28986
1702332026093750,-9.447209,0.257507,2.529072,0.38739,0.64271,0.30786
1702332026101562,-9.403209,0.228507,2.493072,0.38039,0.58871,0.30286
1702332026109375,-9.341209,0.173507,2.459072,0.39239,0.54971,0.28886
1702332026117187,-9.320209,0.137507,2.443072,0.37339,0.55771,0.29086
1702332026125000,-9.315209,0.124507,2.436072,0.47139,0.39471,0.17586
1702332026132812,-9.351209,0.129507,2.439072,0.53439,0.37571,0.18986
1702332026140625,-9.430209,0.128507,2.452072,0.61439,0.29471,0.13986
1702332026148437,-9.491209,0.153507,2.464072,0.64639,0.30271,0.23486
1702332026156250,-9.538209,0.167507,2.470072,0.64439,0.29171,0.28486
1702332026164062,-9.534209,0.193507,2.497072,0.62839,0.32071,0.33286
1702332026171875,-9.526209,0.213507,2.500072,0.70639,0.35371,0.33186
1702332026179687,-9.481209,0.244507,2.473072,0.65939,0.45271,0.28486
1702332026187500,-9.485209,0.264507,2.459072,0.65339,0.51771,0.30586
1702332026195312,-9.491209,0.270507,2.457072,0.67439,0.51771,0.30186
1702332026203125,-9.484209,0.284507,2.475072,0.62539,0.49271,0.28786
1702332026210937,-9.473209,0.290507,2.488072,0.64439,0.40071,0.31686
1702332026218750,-9.451209,0.307507,2.504072,0.62839,0.44971,0.30086
1702332026226562,-9.435209,0.300507,2.513072,0.64439,0.43371,0.30086
1702332026234375,-9.457209,0.307507,2.506072,0.62939,0.41671,0.28486
1702332026242187,-9.484209,0.311507,2.488072,0.64039,0.39771,0.27086
1702332026250000,-9.500209,0.326507,2.486072,0.62539,0.47971,0.23986
1702332026257812,-9.503209,0.328507,2.484072,0.61539,0.56171,0.18786
1702332026265625,-9.480209,0.326507,2.490072,0.64339,0.53971,0.20686
1702332026273437,-9.458209,0.337507,2.486072,0.56639,0.53971,0.12686
1702332026281250,-9.444209,0.325507,2.466072,0.56839,0.51271,0.22086
1702332026289062,-9.444209,0.314507,2.457072,0.63139,0.46371,0.20286
1702332026296875,-9.457209,0.301507,2.445072,0.61039,0.46071,0.22286
1702332026304687,-9.487209,0.296507,2.443072,0.50739,0.45771,0.26786
1702332026312500,-9.497209,0.270507,2.446072,0.40939,0.48171,0.27086
1702332026320312,-9.486209,0.270507,2.468072,0.43739,0.55571,0.30586
1702332026328125,-9.484209,0.265507,2.475072,0.39539,0.54171,0.28686
1702332026335937,-9.457209,0.267507,2.470072,0.37939,0.54171,0.30286
1702332026343750,-9.439209,0.298507,2.491072,0.39439,0.49871,0.27186
1702332026351562,-9.464209,0.305507,2.500072,0.38139,0.59171,0.17386
1702332026359375,-9.481209,0.329507,2.495072,0.39839,0.55371,0.23686
1702332026367187,-9.481209,0.358507,2.502072,0.41139,0.54271,0.28686
1702332026375000,-9.465209,0.363507,2.527072,0.35939,0.53671,0.30586
1702332026382812,-9.455209,0.332507,2.542072,0.34539,0.54971,0.28886
1702332026390625,-9.415209,0.293507,2.524072,0.34639,0.54771,0.30486
1702332026398437,-9.412209,0.267507,2.515072,0.39239,0.53371,0.27286
1702332026406250,-9.409209,0.243507,2.499072,0.37739,0.53671,0.20886
1702332026414062,-9.407209,0.231507,2.511072,0.39539,0.44671,0.25386
1702332026421875,-9.409209,0.231507,2.500072,0.38039,0.43571,0.12686
1702332026429687,-9.416209,0.223507,2.488072,0.39639,0.37071,0.17386
1702332026437500,-9.434209,0.229507,2.495072,0.38039,0.36471,0.23786
1702332026445312,-9.450209,0.263507,2.488072,0.39639,0.40371,0.15886
1702332026453125,-9.470209,0.270507,2.470072,0.40939,0.37271,0.22286
1702332026460937,-9.513209,0.284507,2.482072,0.44039,0.40271,0.30286
1702332026468750,-9.511209,0.284507,2.500072,0.39339,0.45171,0.28786
1702332026476562,-9.495209,0.295507,2.513072,0.37639,0.53671,0.27286
1702332026484375,-9.462209,0.301507,2.511072,0.39239,0.54971,0.28886
1702332026492187,-9.433209,0.307507,2.513072,0.37739,0.55071,0.25686
1702332026500000,-9.421209,0.319507,2.511072,0.38839,0.56071,0.27486
1702332026507812,-9.419209,0.325507,2.524072,0.37739,0.46871,0.27186
1702332026515625,-9.447209,0.339507,2.524072,0.47139,0.47171,0.23986
1702332026523437,-9.480209,0.341507,2.515072,0.41239,0.43371,0.17386
1702332026531250,-9.496209,0.355507,2.520072,0.31339,0.42771,0.20986
1702332026539062,-9.499209,0.361507,2.511072,0.23639,0.48171,0.30586
1702332026546875,-9.496209,0.348507,2.509072,0.28239,0.58571,0.25886
1702332026554687,-9.475209,0.331507,2.488072,0.10539,0.51371,0.32686
1702332026562500,-9.462209,0.317507,2.486072,0.13839,0.52771,0.26186
1702332026570312,-9.484209,0.299507,2.481072,0.12639,0.47371,0.19586
1702332026578125,-9.497209,0.293507,2.499072,0.14139,0.47371,0.21186
1702332026585937,-9.506209,0.304507,2.506072,0.12339,0.53071,0.19786
1702332026593750,-9.495209,0.308507,2.522072,0.10939,0.53871,0.22886
1702332026601562,-9.493209,0.295507,2.508072,0.7739,0.50871,0.21286
1702332026609375,-9.477209,0.281507,2.526072,0.9339,0.73571,0.19786
1702332026617187,-9.461209,0.266507,2.553072,0.10839,0.63971,0.19786
1702332026625000,-9.436209,0.239507,2.562072,0.12439,0.60671,0.21386
1702332026632812,-9.433209,0.212507,2.567072,0.13939,0.67571,0.18186
1702332026640625,-9.428209,0.190507,2.558072,0.12439,0.76871,0.18186
1702332026648437,-9.442209,0.190507,2.563072,0.20439,0.73271,0.17986
1702332026656250,-9.431209,0.206507,2.598072,0.21839,0.67271,0.19686
1702332026664062,-9.416209,0.224507,2.592072,0.27039,0.67371,0.22486
1702332026671875,-9.384209,0.249507,2.585072,0.18739,0.75171,0.19686
1702332026679687,-9.385209,0.275507,2.583072,0.17239,0.72971,0.24386
1702332026687500,-9.371209,0.277507,2.563072,0.29739,0.58571,0.29086
1702332026695312,-9.374209,0.271507,2.545072,0.32939,0.61571,0.27386
1702332026703125,-9.369209,0.275507,2.536072,0.39139,0.56971,0.27386
1702332026710937,-9.385209,0.284507,2.529072,0.34439,0.48971,0.25786
1702332026718750,-9.408209,0.305507,2.533072,0.40739,0.34271,0.30486
1702332026726562,-9.430209,0.301507,2.545072,0.34539,0.42171,0.28886
1702332026734375,-9.446209,0.292507,2.538072,0.26539,0.37471,0.30586
1702332026742187,-9.448209,0.302507,2.538072,0.32439,0.46771,0.30886
1702332026750000,-9.433209,0.296507,2.531072,0.23739,0.43271,0.28886
1702332026757812,-9.432209,0.303507,2.538072,0.21939,0.45671,0.25886
1702332026765625,-9.435209,0.303507,2.547072,0.18739,0.50571,0.25986
1702332026773437,-9.430209,0.304507,2.558072,0.16839,0.50371,0.19886
1702332026781250,-9.442209,0.323507,2.569072,0.12939,0.51771,0.14586
1702332026789062,-9.440209,0.343507,2.596072,0.12539,0.50871,0.19686
1702332026796875,-9.429209,0.354507,2.605072,0.9639,0.51671,0.21086
1702332026804687,-9.419209,0.345507,2.578072,0.11039,0.55871,0.13286
1702332026812500,-9.435209,0.338507,2.547072,0.12739,0.50371,0.16286
1702332026820312,-9.447209,0.334507,2.543072,0.8339,0.52571,0.20886
1702332026828125,-9.428209,0.336507,2.551072,0.4839,0.45971,0.14886
1702332026835937,-9.419209,0.323507,2.576072,0.7761,0.45671,0.21386
1702332026843750,-9.439209,0.321507,2.594072,0.12561,0.45971,0.19886
1702332026851562,-9.455209,0.314507,2.587072,0.7161,0.42971,0.11386
1702332026859375,-9.457209,0.308507,2.587072,0.7861,0.47571,0.21486
1702332026867187,-9.437209,0.309507,2.599072,0.12261,0.50071,0.19686
1702332026875000,-9.419209,0.302507,2.608072,0.10561,0.51171,0.21186
1702332026882812,-9.428209,0.303507,2.603072,0.12561,0.48671,0.27886
1702332026890625,-9.417209,0.302507,2.601072,0.10661,0.46771,0.18086
1702332026898437,-9.392209,0.305507,2.610072,0.12761,0.59571,0.16886
1702332026906250,-9.372209,0.302507,2.621072,0.4661,0.53871,0.18186
1702332026914062,-9.347209,0.302507,2.635072,0.12361,0.52271,0.16686
1702332026921875,-9.351209,0.289507,2.641072,0.0,0.50871,0.18186
1702332026929687,-9.347209,0.277507,2.650072,0.439,0.42171,0.8286
1702332026937500,-9.356209,0.277507,2.657072,0.7461,0.38871,0.13186
1702332026945312,-9.373209,0.265507,2.637072,0.4561,0.23571,0.10086
1702332026953125,-9.385209,0.282507,2.617072,0.7361,0.27171,0.17886
1702332026960937,-9.387209,0.289507,2.626072,0.2861,0.27671,0.19586
1702332026968750,-9.415209,0.304507,2.648072,0.10061,0.19771,0.14486
1702332026976562,-9.451209,0.325507,2.635072,0.8761,0.21971,0.14586
1702332026984375,-9.471209,0.345507,2.650072,0.339,0.22171,0.25886
1702332026992187,-9.483209,0.354507,2.651072,0.13561,0.6871,0.30586
1702332027000000,-9.476209,0.368507,2.641072,0.10561,0.13971,0.22686
1702332027007812,-9.470209,0.378507,2.646072,0.10261,0.16471,0.22486
1702332027015625,-9.441209,0.371507,2.660072,0.16561,0.15071,0.20986
1702332027023437,-9.412209,0.398507,2.655072,0.30661,0.18671,0.13186
1702332027031250,-9.414209,0.411507,2.642072,0.35161,0.23571,0.5186
1702332027039062,-9.437209,0.417507,2.653072,0.37861,0.22271,0.3286
1702332027046875,-9.460209,0.425507,2.705072,0.38361,0.24671,0.13186
1702332027054687,-9.507209,0.439507,2.716072,0.41561,0.26571,0.11686
1702332027062500,-9.551209,0.415507,2.684072,0.49561,0.36371,0.16686
1702332027070312,-9.583209,0.414507,2.653072,0.57661,0.57871,0.16986
1702332027078125,-9.609209,0.387507,2.705072,0.70161,0.78871,0.17186
1702332027085937,-9.613209,0.359507,2.689072,0.78161,0.65771,0.28486
1702332027093750,-9.597209,0.350507,2.601072,0.92761,0.74671,0.32186
1702332027101562,-9.555209,0.340507,2.574072,0.103461,0.98171,0.30586
1702332027109375,-9.537209,0.346507,2.581072,0.114361,0.109971,0.21186
1702332027117187,-9.535209,0.352507,2.588072,0.109161,0.104271,0.11186
1702332027125000,-9.519209,0.359507,2.606072,0.107261,0.105671,0.1814
1702332027132812,-9.459209,0.355507,2.624072,0.97661,0.103771,0.6814
1702332027140625,-9.402209,0.331507,2.653072,0.85461,0.105471,0.14614
1702332027148437,-9.334209,0.335507,2.698072,0.87561,0.107871,0.7914
1702332027156250,-9.307209,0.307507,2.714072,0.85461,0.106571,0.6714
1702332027164062,-9.291209,0.289507,2.716072,0.87261,0.106771,0.3314
1702332027171875,-9.291209,0.269507,2.709072,0.82461,0.104871,0.1914
1702332027179687,-9.325209,0.279507,2.707072,0.74461,0.87171,0.5214
1702332027187500,-9.338209,0.268507,2.725072,0.66561,0.85271,0.7014
1702332027195312,-9.317209,0.236507,2.741072,0.60561,0.91771,0.5886
1702332027203125,-9.299209,0.207507,2.747072,0.62061,0.87471,0.5314
1702332027210937,-9.282209,0.174507,2.738072,0.54361,0.93971,0.1086
1702332027218750,-9.271209,0.136507,2.734072,0.49561,0.94071,0.3814
1702332027226562,-9.277209,0.103507,2.702072,0.38661,0.92071,0.786
1702332027234375,-9.281209,0.67507,2.677072,0.24561,0.75771,0.8586
1702332027242187,-9.278209,0.65507,2.680072,0.13861,0.66471,0.13386
1702332027250000,-9.267209,0.51507,2.664072,0.2461,0.55571,0.14586
1702332027257812,-9.233209,0.53507,2.668072,0.3439,0.51471,0.21086
1702332027265625,-9.224209,0.36507,2.682072,0.12639,0.60171,0.17986
1702332027273437,-9.226209,0.11507,2.673072,0.17639,0.44671,0.24086
1702332027281250,-9.246209,0.16507,2.639072,0.36439,0.35071,0.25486
1702332027289062,-9.242209,0.45507,2.655072,0.41139,0.36471,0.26986
1702332027296875,-9.257209,0.100507,2.723072,0.61539,0.26671,0.31486
1702332027304687,-9.383209,0.131507,2.781072,0.67639,0.11571,0.47386
1702332027312500,-9.568209,0.152507,2.772072,0.69339,0.13271,0.39286
1702332027320312,-9.677209,0.222507,2.799072,0.81939,0.29671,0.31286
1702332027328125,-9.653209,0.295507,2.887072,0.92639,0.59171,0.36186
1702332027335937,-9.543209,0.351507,2.968072,0.93939,0.71471,0.31586
1702332027343750,-9.439209,0.387507,3.6072,0.89339,0.70971,0.34786
1702332027351562,-9.382209,0.400507,2.973072,0.89239,0.55371,0.29986
1702332027359375,-9.349209,0.363507,2.871072,0.88139,0.42571,0.36086
1702332027367187,-9.312209,0.351507,2.838072,0.103739,0.42571,0.39086
1702332027375000,-9.330209,0.350507,2.905072,0.114439,0.54571,0.39186
1702332027382812,-9.400209,0.346507,2.912072,0.101939,0.47971,0.42486
1702332027390625,-9.566209,0.367507,2.865072,0.78339,0.40071,0.42786
1702332027398437,-9.715209,0.402507,2.759072,0.40739,0.42671,0.51186
1702332027406250,-9.720209,0.501507,2.705072,0.11361,0.62971,0.77586
1702332027414062,-9.662209,0.601507,2.743072,0.75061,0.69071,0.97986
1702332027421875,-9.646209,0.727507,2.853072,0.152161,0.93671,0.103986
1702332027429687,-9.724209,0.823507,3.11072,0.209661,0.108971,0.91586
1702332027437500,-9.780209,0.906507,3.88072,0.267461,0.126971,0.74586
1702332027445312,-9.767209,0.964507,3.72072,0.325061,0.154771,0.49586
1702332027453125,-9.612209,0.973507,3.32072,0.370361,0.189771,0.18186
1702332027460937,-9.490209,0.973507,3.32072,0.402461,0.224271,0.31214
1702332027468750,-9.351209,0.988507,3.47072,0.442061,0.225471,0.79314
1702332027476562,-9.196209,0.951507,3.36072,0.489661,0.227171,0.128814
1702332027484375,-9.95209,0.881507,2.995072,0.543961,0.229971,0.176414
1702332027492187,-9.12209,0.839507,2.878072,0.591561,0.224571,0.213214
1702332027500000,-9.63209,0.808507,2.815072,0.650061,0.244871,0.253014
1702332027507812,-9.9209,0.779507,2.734072,0.706261,0.263671,0.282714
1702332027515625,-8.998209,0.779507,2.610072,0.737961,0.238971,0.331014
1702332027523437,-9.49209,0.791507,2.595072,0.809361,0.252071,0.370514
1702332027531250,-9.139209,0.932507,2.525072,0.859161,0.232671,0.387814
1702332027539062,-9.253209,1.38507,2.394072,0.904661,0.202571,0.395214
1702332027546875,-9.408209,1.61507,2.212072,0.947761,0.174771,0.422414
1702332027554687,-9.483209,1.84507,1.991072,-1.5161,0.166371,0.442914
1702332027562500,-9.442209,1.90507,1.811072,-1.69161,0.167871,0.459914
1702332027570312,-9.284209,1.7507,1.734072,-1.126761,0.180971,0.480214
1702332027578125,-9.155209,0.960507,1.701072,-1.194661,0.171471,0.505714
1702332027585937,-9.142209,0.856507,1.678072,-1.262061,0.144571,0.519314
1702332027593750,-9.253209,0.716507,1.667072,-1.311461,0.121371,0.543314
1702332027601562,-9.365209,0.571507,1.619072,-1.354661,0.95971,0.552914
1702332027609375,-9.415209,0.461507,1.565072,-1.400061,0.95171,0.571514
1702332027617187,-9.376209,0.423507,1.502072,-1.443661,0.82871,0.591914
1702332027625000,-9.373209,0.374507,1.430072,-1.466561,0.57771,0.604914
1702332027632812,-9.431209,0.339507,1.410072,-1.481261,0.35771,0.630914
1702332027640625,-9.505209,0.312507,1.446072,-1.485561,0.14771,0.650314
1702332027648437,-9.524209,0.241507,1.495072,-1.511961,0.3571,0.661414
1702332027656250,-9.498209,0.168507,1.547072,-1.535161,0.3871,0.685214
1702332027664062,-9.438209,0.42507,1.554072,-1.559461,0.1471,0.704614
1702332027671875,-9.378209,0.48493,1.488072,-1.599961,0.6129,0.725014
1702332027679687,-9.245209,0.68493,1.434072,-1.635161,0.30929,0.753914
1702332027687500,-8.976209,0.30493,1.400072,-1.673761,0.60429,0.776314
1702332027695312,-8.654209,0.70507,1.434072,-1.708761,0.96029,0.816514
1702332027703125,-8.439209,0.246507,1.588072,-1.740161,0.121329,0.868214
1702332027710937,-8.384209,0.472507,1.932072,-1.751161,0.150529,0.937814
1702332027718750,-8.398209,0.685507,2.247072,-1.775361,0.193529,0.987514
1702332027726562,-8.598209,0.828507,2.482072,-1.810061,0.249929,1.16914
1702332027734375,-8.911209,1.12507,2.633072,-1.846661,0.297629,1.46014
1702332027742187,-9.106209,1.255507,2.640072,-1.890761,0.316929,1.40614
1702332027750000,-9.304209,1.449507,2.514072,-1.928761,0.314829,1.31914
1702332027757812,-9.537209,1.402507,2.336072,-1.962161,0.316629,1.8914
1702332027765625,-9.744209,0.923507,2.171072,-1.970361,0.351429,0.972014
1702332027773437,-9.866209,0.147507,1.979072,-1.968061,0.395829,0.919114
1702332027781250,-9.890209,0.670493,1.821072,-1.960861,0.445929,0.856814
1702332027789062,-9.873209,-1.214493,1.700072,-1.946461,0.495629,0.773514
1702332027796875,-9.939209,-1.448493,1.632072,-1.932961,0.534829,0.660714
1702332027804687,-10.25209,-1.497493,1.569072,-1.909161,0.595429,0.512714
1702332027812500,-10.16209,-1.393493,1.546072,-1.910361,0.681129,0.347014
1702332027820312,-9.875209,-1.72493,1.672072,-1.956061,0.752329,0.232514
1702332027828125,-9.879209,0.630493,2.202072,-2.32061,0.779429,0.175414
1702332027835937,-10.121209,0.150493,2.937072,-2.140461,0.779929,0.158114
1702332027843750,-10.413209,0.255507,3.281072,-2.232361,0.737429,0.200414
1702332027851562,-10.528209,0.610507,3.95072,-2.292561,0.648529,0.279714
1702332027859375,-10.343209,0.859507,2.392072,-2.318061,0.525929,0.362714
1702332027867187,-10.69209,1.39507,1.676072,-2.308561,0.392229,0.427814
1702332027875000,-9.913209,1.149507,1.430072,-2.260161,0.283629,0.461314
1702332027882812,-9.780209,1.205507,1.649072,-2.210061,0.254929,0.450614
1702332027890625,-9.614209,1.240507,2.50072,-2.206561,0.267429,0.403714
1702332027898437,-9.318209,1.289507,2.412072,-2.256361,0.241529,0.352914
1702332027906250,-9.26209,1.307507,2.493072,-2.345161,0.191329,0.312814
1702332027914062,-8.884209,1.262507,2.273072,-2.406261,0.148029,0.312114
1702332027921875,-8.914209,1.232507,1.815072,-2.412661,0.172829,0.323114
1702332027929687,-9.109209,1.186507,1.399072,-2.399761,0.240429,0.338014
1702332027937500,-9.404209,1.185507,1.165072,-2.369661,0.311229,0.366914
1702332027945312,-9.752209,1.220507,1.171072,-2.344161,0.348729,0.407414
1702332027953125,-10.118209,1.314507,1.248072,-2.360161,0.372629,0.440014
1702332027960937,-10.487209,1.451507,1.302072,-2.420961,0.348829,0.480814
1702332027968750,-10.728209,1.638507,1.278072,-2.484661,0.312329,0.499514
1702332027976562,-10.879209,1.781507,1.323072,-2.542961,0.273929,0.509714
1702332027984375,-10.981209,1.736507,1.372072,-2.585761,0.269929,0.502514
1702332027992187,-11.91209,1.524507,1.345072,-2.622661,0.271529,0.507414
1702332028000000,-11.187209,1.232507,1.282072,-2.641461,0.261729,0.540514
1702332028007812,-11.315209,1.116507,1.156072,-2.642161,0.232329,0.590414
1702332028015625,-11.367209,1.268507,1.165072,-2.631761,0.184529,0.653214
1702332028023437,-11.247209,1.613507,1.363072,-2.625561,0.156729,0.700414
1702332028031250,-10.980209,1.947507,1.480072,-2.650961,0.174229,0.720614
1702332028039062,-10.718209,2.140507,1.300072,-2.713261,0.166629,0.732914
1702332028046875,-10.595209,2.157507,1.41072,-2.785461,0.113529,0.730414
1702332028054687,-10.538209,2.55507,0.728072,-2.867961,0.61629,0.723814
1702332028062500,-10.482209,1.899507,0.545072,-2.932661,0.5971,0.733714
1702332028070312,-10.354209,1.777507,0.554072,-2.990861,0.59671,0.736014
1702332028078125,-10.214209,1.713507,0.703072,-3.37661,0.81971,0.743514
1702332028085937,-10.128209,1.668507,0.876072,-3.68861,0.80971,0.760814
1702332028093750,-10.95209,1.598507,0.942072,-3.110861,0.64471,0.771714
1702332028101562,-10.31209,1.504507,0.953072,-3.145061,0.74071,0.782614
1702332028109375,-9.961209,1.363507,0.912072,-3.163761,0.78971,0.792114
1702332028117187,-9.883209,1.227507,0.833072,-3.187261,0.99971,0.791714
1702332028125000,-9.779209,1.104507,0.761072,-3.203761,0.133671,0.784514
1702332028132812,-9.695209,0.987507,0.748072,-3.206861,0.176871,0.781314
1702332028140625,-9.627209,0.882507,0.799072,-3.204461,0.197771,0.772614
1702332028148437,-9.557209,0.843507,0.871072,-3.203161,0.222071,0.766114
1702332028156250,-9.497209,0.810507,0.955072,-3.210761,0.256471,0.759814
1702332028164062,-9.474209,0.802507,1.119072,-3.208161,0.269271,0.759314
1702332028171875,-9.426209,0.897507,1.241072,-3.208261,0.262671,0.751314
1702332028179687,-9.352209,1.52507,1.203072,-3.223661,0.230671,0.743514
1702332028187500,-9.322209,1.192507,1.67072,-3.233261,0.203671,0.738514
1702332028195312,-9.316209,1.223507,0.919072,-3.259461,0.167071,0.738714
1702332028203125,-9.330209,1.137507,0.671072,-3.295261,0.125271,0.751214
1702332028210937,-9.323209,1.74507,0.455072,-3.337061,0.105071,0.762414
1702332028218750,-9.340209,1.41507,0.358072,-3.358661,0.83771,0.768814
1702332028226562,-9.308209,0.985507,0.434072,-3.344361,0.62771,0.778714
1702332028234375,-9.264209,0.900507,0.655072,-3.332961,0.62271,0.788714
1702332028242187,-9.276209,0.843507,0.901072,-3.331461,0.38871,0.796614
1702332028250000,-9.336209,0.924507,1.34072,-3.326261,0.19329,0.789314
1702332028257812,-9.422209,1.116507,0.928072,-3.347961,0.43629,0.795614
1702332028265625,-9.466209,1.440507,0.806072,-3.353561,0.57529,0.810414
1702332028273437,-9.420209,1.812507,0.784072,-3.318561,0.40329,0.849214
1702332028281250,-9.266209,2.191507,0.883072,-3.301961,0.16129,0.894614
1702332028289062,-9.74209,2.416507,1.34072,-3.304361,0.3371,0.933314
1702332028296875,-8.824209,2.543507,0.985072,-3.344161,0.5371,0.982814
1702332028304687,-8.663209,2.436507,0.636072,-3.410361,0.60629,1.11814
1702332028312500,-8.715209,2.137507,0.235072,-3.456961,0.107629,1.27614
1702332028320312,-8.895209,1.703507,0.19928,-3.502061,0.132829,1.25814
1702332028328125,-9.199209,1.192507,0.31928,-3.520361,0.104029,1.4014
1702332028335937,-9.637209,0.604507,0.212072,-3.494461,0.77029,0.962414
1702332028343750,-10.42209,0.0,0.56072,-3.457761,0.90329,0.912914
1702332028351562,-10.115209,0.505493,0.304928,-3.445661,0.2129,0.841314
1702332028359375,-9.916209,0.983493,0.139072,-3.396561,0.136271,0.747414
1702332028367187,-9.940209,-1.607493,1.102072,-3.358561,0.161571,0.640714
1702332028375000,-10.430209,-2.488493,1.982072,-3.321561,0.84171,0.578814
1702332028382812,-11.178209,-3.386493,2.320072,-3.308861,0.39671,0.571314
1702332028390625,-11.885209,-4.53493,2.216072,-3.266361,0.138471,0.616214
1702332028398437,-12.151209,-4.284493,2.202072,-3.124861,0.304671,0.697214
1702332028406250,-12.77209,-3.839493,2.601072,-2.918261,0.449271,0.800314
1702332028414062,-11.697209,-3.27493,3.284072,-2.739061,0.495571,0.915114
1702332028421875,-11.20209,-2.161493,3.658072,-2.658761,0.432171,0.989114
1702332028429687,-10.339209,-1.538493,3.427072,-2.657361,0.300171,1.23814
1702332028437500,-9.891209,-1.49493,2.787072,-2.668861,0.181171,1.16814
1702332028445312,-9.642209,0.547493,2.402072,-2.680461,0.176971,0.997114
1702332028453125,-9.570209,0.66493,2.101072,-2.662761,0.186371,0.970914
1702332028460937,-9.545209,0.326507,1.799072,-2.648761,0.201071,0.940914
1702332028468750,-9.573209,0.541507,1.448072,-2.649361,0.186171,0.908714
1702332028476562,-9.591209,0.803507,1.198072,-2.653661,0.205971,0.863214
1702332028484375,-9.514209,0.900507,1.209072,-2.645461,0.212571,0.809914
1702332028492187,-9.418209,0.838507,1.302072,-2.659961,0.203971,0.780814
1702332028500000,-9.321209,0.673507,1.256072,-2.690061,0.183471,0.775514
1702332028507812,-9.322209,0.573507,1.187072,-2.725161,0.156171,0.795014
1702332028515625,-9.460209,0.480507,1.72072,-2.768561,0.129471,0.829914
1702332028523437,-9.618209,0.389507,0.891072,-2.808261,0.147371,0.881114
1702332028531250,-9.728209,0.378507,0.801072,-2.854861,0.198771,0.930014
1702332028539062,-9.682209,0.439507,0.833072,-2.883261,0.266371,0.991014
1702332028546875,-9.531209,0.445507,0.916072,-2.915161,0.284871,1.55014
1702332028554687,-9.360209,0.391507,0.856072,-2.948361,0.268371,1.108114
1702332028562500,-9.208209,0.253507,0.662072,-2.995361,0.239271,1.150314
1702332028570312,-9.87209,0.165507,0.547072,-3.24361,0.222171,1.198214
1702332028578125,-9.97209,0.128507,0.682072,-3.45561,0.214871,1.246214
1702332028585937,-9.178209,0.123507,0.849072,-3.63561,0.180571,1.273714
1702332028593750,-9.335209,0.121507,0.934072,-3.77161,0.142971,1.286714
1702332028601562,-9.467209,0.25507,0.943072,-3.81161,0.109471,1.298514
1702332028609375,-9.487209,0.122493,0.871072,-3.70261,0.78871,1.295414
1702332028617187,-9.486209,0.293493,0.880072,-3.57461,0.69071,1.302114
1702332028625000,-9.509209,0.425493,1.8072,-3.36061,0.50471,1.289214
1702332028632812,-9.601209,0.557493,1.110072,-3.1261,0.20471,1.286814
1702332028640625,-9.701209,0.693493,1.231072,-2.969461,0.14271,1.281214
1702332028648437,-9.750209,0.816493,1.215072,-2.965661,0.9571,1.270914
1702332028656250,-9.672209,0.904493,1.111072,-2.943861,0.1371,1.261514
1702332028664062,-9.516209,0.957493,1.100072,-2.923861,0.3829,1.234414
1702332028671875,-9.388209,0.960493,1.91072,-2.912861,0.37729,1.207814
1702332028679687,-9.322209,0.912493,1.141072,-2.899461,0.79929,1.167714
1702332028687500,-9.362209,0.884493,1.240072,-2.876761,0.131929,1.119714
1702332028695312,-9.592209,0.836493,1.256072,-2.870361,0.183329,1.99314
1702332028703125,-9.759209,0.827493,1.184072,-2.869661,0.171429,1.71614
1702332028710937,-9.859209,0.874493,1.193072,-2.839961,0.178529,1.52814
1702332028718750,-9.993209,0.930493,1.130072,-2.793261,0.204429,1.35714
1702332028726562,-10.163209,-1.34493,1.58072,-2.747361,0.220929,1.44514
1702332028734375,-10.224209,-1.153493,0.943072,-2.718561,0.214829,1.69214
1702332028742187,-10.54209,-1.235493,0.909072,-2.708361,0.172229,1.117514
1702332028750000,-9.726209,-1.344493,1.35072,-2.703561,0.115329,1.160414
1702332028757812,-9.466209,-1.439493,1.357072,-2.671861,0.74229,1.191114
1702332028765625,-9.328209,-1.515493,1.557072,-2.643161,0.115929,1.185514
1702332028773437,-9.405209,-1.637493,1.587072,-2.582261,0.156629,1.167114
1702332028781250,-9.641209,-1.755493,1.557072,-2.526661,0.179029,1.128914
1702332028789062,-9.831209,-1.857493,1.546072,-2.473661,0.176629,1.97514
1702332028796875,-9.832209,-1.955493,1.501072,-2.406861,0.189729,1.67614
1702332028804687,-9.771209,-2.82493,1.415072,-2.358561,0.219429,1.37814
1702332028812500,-9.735209,-2.202493,1.456072,-2.307361,0.282529,1.3114
1702332028820312,-9.618209,-2.90493,1.658072,-2.262161,0.373729,0.971814
1702332028828125,-9.488209,-1.814493,1.967072,-2.213461,0.444229,0.928214
1702332028835937,-9.299209,-1.486493,2.307072,-2.172361,0.480929,0.873714
1702332028843750,-9.175209,-1.219493,2.659072,-2.192661,0.481029,0.805514
1702332028851562,-9.199209,0.833493,2.988072,-2.239061,0.499829,0.742314
1702332028859375,-9.418209,0.497493,3.64072,-2.329561,0.529429,0.678514
1702332028867187,-9.796209,0.485493,2.821072,-2.410261,0.562029,0.611914
1702332028875000,-10.63209,0.669493,2.416072,-2.444961,0.577929,0.533914
1702332028882812,-10.60209,0.847493,2.161072,-2.421361,0.566729,0.464714
1702332028890625,-10.34209,0.769493,2.253072,-2.367961,0.583829,0.405414
1702332028898437,-10.201209,0.454493,2.571072,-2.314861,0.654529,0.367814
1702332028906250,-10.536209,0.142493,2.679072,-2.263161,0.747629,0.344814
1702332028914062,-10.777209,0.18507,2.614072,-2.225061,0.761429,0.347214
1702332028921875,-10.727209,0.154507,2.554072,-2.258361,0.664829,0.362214
1702332028929687,-10.206209,0.328507,2.502072,-2.321861,0.521029,0.365414
1702332028937500,-9.559209,0.506507,2.367072,-2.350261,0.443829,0.382214
1702332028945312,-9.236209,0.620507,2.207072,-2.368861,0.428529,0.378914
1702332028953125,-9.230209,0.655507,2.63072,-2.390861,0.453729,0.358014
1702332028960937,-9.402209,0.697507,1.901072,-2.392461,0.481329,0.309214
1702332028968750,-9.594209,0.866507,1.908072,-2.415361,0.459129,0.258814
1702332028976562,-9.709209,1.185507,2.77072,-2.461861,0.395429,0.230414
1702332028984375,-9.650209,1.568507,2.318072,-2.523361,0.339329,0.242114
1702332028992187,-9.523209,1.909507,2.501072,-2.564261,0.319229,0.291914
1702332029000000,-9.502209,2.151507,2.521072,-2.570661,0.333129,0.366014
1702332029007812,-9.619209,2.323507,2.392072,-2.579461,0.351829,0.480514
1702332029015625,-9.890209,2.443507,2.147072,-2.558161,0.342629,0.611314
1702332029023437,-10.124209,2.525507,2.77072,-2.545861,0.294629,0.742414
1702332029031250,-10.266209,2.548507,2.125072,-2.535761,0.272829,0.863414
1702332029039062,-10.363209,2.445507,2.296072,-2.523661,0.247129,0.939014
1702332029046875,-10.411209,2.121507,2.390072,-2.513561,0.261229,0.979414
1702332029054687,-10.495209,1.704507,2.253072,-2.546961,0.314629,0.995914
1702332029062500,-10.528209,1.337507,1.795072,-2.586261,0.373229,0.981214
1702332029070312,-10.365209,1.171507,1.376072,-2.615361,0.379129,0.948414
1702332029078125,-10.15209,1.240507,1.155072,-2.613461,0.392429,0.883914
1702332029085937,-9.720209,1.437507,1.226072,-2.599961,0.435229,0.812214
1702332029093750,-9.630209,1.618507,1.315072,-2.625261,0.473329,0.737514
1702332029101562,-9.792209,1.780507,1.277072,-2.699861,0.482329,0.682014
1702332029109375,-10.101209,1.953507,0.933072,-2.805661,0.445829,0.638814
1702332029117187,-10.326209,2.123507,0.627072,-2.909261,0.333929,0.607514
1702332029125000,-10.339209,2.231507,0.523072,-2.997661,0.207729,0.594614
1702332029132812,-10.250209,2.306507,0.602072,-3.59461,0.139329,0.607614
1702332029140625,-10.156209,2.297507,0.703072,-3.107161,0.112229,0.642614
1702332029148437,-10.106209,2.152507,0.746072,-3.150661,0.96929,0.679014
1702332029156250,-10.39209,1.892507,0.757072,-3.198661,0.51029,0.721714
1702332029164062,-9.959209,1.527507,0.730072,-3.229361,0.9629,0.774214
1702332029171875,-9.850209,1.169507,0.802072,-3.228861,0.15571,0.815914
1702332029179687,-9.763209,0.879507,0.923072,-3.240761,0.28571,0.846414
1702332029187500,-9.718209,0.748507,1.108072,-3.227761,0.15271,0.861214
1702332029195312,-9.746209,0.670507,1.189072,-3.196261,0.14429,0.850614
1702332029203125,-9.834209,0.563507,1.58072,-3.168261,0.30629,0.839714
1702332029210937,-9.865209,0.479507,0.966072,-3.154461,0.11229,0.830114
1702332029218750,-9.837209,0.443507,1.15072,-3.150261,0.1771,0.807414
1702332029226562,-9.913209,0.445507,1.90072,-3.133861,0.1171,0.786314
1702332029234375,-10.42209,0.496507,1.209072,-3.115061,0.4029,0.776914
1702332029242187,-10.218209,0.525507,1.369072,-3.101261,0.8771,0.762514
1702332029250000,-10.445209,0.542507,1.524072,-3.82661,0.41871,0.765614
1702332029257812,-10.558209,0.553507,1.617072,-3.65361,0.72471,0.772214
1702332029265625,-10.489209,0.571507,1.639072,-3.41861,0.100171,0.775614
1702332029273437,-10.277209,0.577507,1.662072,-3.13861,0.122071,0.783714
1702332029281250,-10.79209,0.545507,1.570072,-2.997761,0.122671,0.782614
1702332029289062,-9.883209,0.531507,1.374072,-2.980861,0.109771,0.768214
1702332029296875,-9.737209,0.547507,1.274072,-2.956261,0.96071,0.757014
1702332029304687,-9.735209,0.573507,1.238072,-2.928061,0.53571,0.743114
1702332029312500,-9.821209,0.581507,1.252072,-2.912261,0.39371,0.725914
1702332029320312,-9.895209,0.704507,1.299072,-2.901761,0.31671,0.708214
1702332029328125,-9.937209,0.936507,1.320072,-2.919361,0.32071,0.699814
1702332029335937,-9.951209,1.299507,1.363072,-2.922661,0.85371,0.698014
1702332029343750,-9.814209,1.676507,1.550072,-2.918061,0.144071,0.707314
1702332029351562,-9.588209,1.977507,1.653072,-2.954261,0.181171,0.732214
1702332029359375,-9.288209,2.150507,1.658072,-2.988361,0.184471,0.751114
1702332029367187,-9.14209,2.223507,1.485072,-3.26961,0.150671,0.778214
1702332029375000,-8.821209,2.231507,1.322072,-3.65461,0.152371,0.813314
1702332029382812,-8.714209,2.107507,1.341072,-3.70461,0.163971,0.847614
1702332029390625,-8.666209,1.911507,1.262072,-3.81061,0.149571,0.868514
1702332029398437,-8.613209,1.651507,0.933072,-3.114961,0.129871,0.889214
1702332029406250,-8.572209,1.359507,0.538072,-3.146261,0.102271,0.887414
1702332029414062,-8.574209,1.33507,0.225072,-3.151061,0.62871,0.869814
1702332029421875,-8.545209,0.766507,0.49928,-3.130561,0.33971,0.846414
1702332029429687,-8.329209,0.612507,0.42928,-3.91161,0.82171,0.809114
1702332029437500,-8.106209,0.472507,0.407072,-3.56761,0.109071,0.755814
1702332029445312,-8.185209,0.178507,0.475072,-3.41261,0.37371,0.701914
1702332029453125,-8.410209,0.87493,0.294072,-3.61861,0.929,0.625714
1702332029460937,-8.548209,0.446493,1.130072,-3.49761,0.67571,0.547814
1702332029468750,-9.172209,-1.268493,2.406072,-3.36161,0.10671,0.484114
1702332029476562,-10.429209,-2.703493,2.816072,-2.988561,0.124729,0.482214
1702332029484375,-11.886209,-4.248493,2.601072,-2.877361,0.99929,0.557714
1702332029492187,-12.781209,-5.139493,2.148072,-2.706161,0.72371,0.699014
1702332029500000,-12.128209,-5.36493,1.905072,-2.514161,0.379971,0.847214
1702332029507812,-10.288209,-4.128493,2.220072,-2.336261,0.588971,0.957414
1702332029515625,-8.740209,-2.911493,2.593072,-2.197361,0.446171,1.23314
1702332029523437,-8.174209,-1.547493,2.764072,-2.141861,0.156771,1.40514
1702332029531250,-8.408209,0.235493,2.616072,-2.141761,0.74629,0.994914
1702332029539062,-8.930209,0.821507,2.175072,-2.203461,0.191229,0.928914
1702332029546875,-9.355209,1.534507,1.622072,-2.294061,0.166029,0.866514
1702332029554687,-9.744209,1.891507,1.365072,-2.384761,0.75329,0.843514
1702332029562500,-10.224209,1.924507,1.458072,-2.398661,0.31429,0.830714
1702332029570312,-10.650209,1.696507,1.714072,-2.376061,0.2829,0.811214
1702332029578125,-10.742209,1.393507,1.908072,-2.343561,0.15671,0.777814
1702332029585937,-10.439209,0.999507,1.926072,-2.325461,0.14771,0.756814
1702332029593750,-10.21209,0.595507,1.781072,-2.323961,0.13129,0.742514
1702332029601562,-9.782209,0.232507,1.524072,-2.326961,0.85229,0.726814
1702332029609375,-9.881209,0.60493,1.270072,-2.345961,0.145629,0.704414
1702332029617187,-10.223209,0.314493,1.179072,-2.361661,0.185329,0.685214
1702332029625000,-10.579209,0.551493,1.24072,-2.402361,0.183729,0.688014
1702332029632812,-10.762209,0.767493,0.774072,-2.441561,0.144429,0.698514
1702332029640625,-10.725209,0.938493,0.638072,-2.448561,0.84429,0.702514
1702332029648437,-10.447209,-1.105493,0.551072,-2.414761,0.63229,0.721114
1702332029656250,-10.28209,-1.302493,0.657072,-2.361561,0.34729,0.734214
1702332029664062,-9.717209,-1.508493,0.897072,-2.292461,0.27429,0.750914
1702332029671875,-9.656209,-1.771493,1.86072,-2.227961,0.28629,0.767714
1702332029679687,-9.713209,-2.16493,1.116072,-2.141361,0.35629,0.773814
1702332029687500,-9.786209,-2.259493,1.25072,-2.42861,0.35729,0.757214
1702332029695312,-9.810209,-2.458493,0.967072,-1.939161,0.13329,0.722414
1702332029703125,-9.774209,-2.601493,1.93072,-1.817361,0.15171,0.689914
1702332029710937,-9.812209,-2.793493,1.419072,-1.691361,0.7271,0.644514
1702332029718750,-9.989209,-2.992493,1.570072,-1.583861,0.22729,0.591214
1702332029726562,-10.44209,-3.20493,1.579072,-1.510061,0.14329,0.528914
1702332029734375,-9.850209,-2.927493,1.750072,-1.447561,0.40071,0.469414
1702332029742187,-9.575209,-2.840493,2.14072,-1.389361,0.67771,0.411714
1702332029750000,-9.558209,-2.745493,2.165072,-1.368061,0.50771,0.363814
1702332029757812,-9.611209,-2.529493,2.286072,-1.344361,0.52771,0.307414
1702332029765625,-9.611209,-2.272493,2.492072,-1.312161,0.38971,0.259514
1702332029773437,-9.674209,-2.23493,2.632072,-1.268761,0.21171,0.205614
1702332029781250,-9.705209,-1.820493,2.663072,-1.236061,0.42571,0.156914
1702332029789062,-9.544209,-1.688493,2.629072,-1.196061,0.73871,0.109014
1702332029796875,-9.189209,-1.640493,2.733072,-1.123861,0.108471,0.80014
1702332029804687,-8.955209,-1.653493,2.976072,-1.42961,0.96971,0.91214
1702332029812500,-9.27209,-1.611493,3.116072,0.980161,0.73671,0.104714
1702332029820312,-9.304209,-1.631493,3.23072,0.937861,0.52371,0.97314
1702332029828125,-9.546209,-1.654493,2.915072,0.890361,0.66771,0.118814
1702332029835937,-9.544209,-1.546493,3.267072,0.858861,0.81371,0.124014
1702332029843750,-9.533209,-1.200493,4.53072,0.888761,0.74171,0.109314
1702332029851562,-9.830209,0.512493,4.621072,-1.37161,0.44471,0.49714
1702332029859375,-10.106209,0.63507,4.439072,-1.187161,0.18571,0.25886
1702332029867187,-9.840209,0.327507,3.567072,-1.211061,0.8929,0.45486
1702332029875000,-9.180209,0.234507,2.549072,-1.133861,0.11429,0.17286
1702332029882812,-8.528209,0.46493,1.948072,-1.32561,0.30271,0.49714
1702332029890625,-8.110209,0.289493,1.936072,0.926661,0.37771,0.105614
1702332029898437,-8.12209,0.543493,2.254072,0.805861,0.5229,0.157514
1702332029906250,-8.159209,0.796493,2.418072,0.717261,0.63429,0.189514
1702332029914062,-8.388209,-1.76493,2.321072,0.657261,0.89429,0.203314
1702332029921875,-8.609209,-1.301493,2.161072,0.596461,0.90129,0.202114
1702332029929687,-8.857209,-1.394493,2.35072,0.535861,0.94829,0.178614
1702332029937500,-9.95209,-1.340493,2.39072,0.476061,0.120429,0.162014
1702332029945312,-9.232209,-1.163493,2.208072,0.399761,0.149829,0.127514
1702332029953125,-9.225209,0.897493,2.503072,0.339061,0.164629,0.104114
1702332029960937,-9.189209,0.609493,2.880072,0.277961,0.161729,0.93614
1702332029968750,-9.199209,0.303493,3.184072,0.246761,0.158229,0.90614
1702332029976562,-9.242209,0.14493,3.342072,0.240461,0.142629,0.84314
1702332029984375,-9.302209,0.281507,3.342072,0.253361,0.120529,0.87014
1702332029992187,-9.327209,0.561507,3.178072,0.266061,0.99329,0.86714
1702332030000000,-9.310209,0.739507,3.9072,0.257961,0.106929,0.75914
1702332030007812,-9.321209,0.802507,2.926072,0.225461,0.120529,0.72814
1702332030015625,-9.437209,0.832507,2.917072,0.195361,0.134129,0.71814
1702332030023437,-9.648209,0.854507,2.937072,0.181361,0.138729,0.71914
1702332030031250,-9.858209,0.883507,2.845072,0.192361,0.144029,0.62214
1702332030039062,-9.960209,0.850507,2.669072,0.224461,0.123329,0.51714
1702332030046875,-9.904209,0.707507,2.462072,0.251061,0.95829,0.57814
1702332030054687,-9.733209,0.507507,2.261072,0.261861,0.69829,0.70414
1702332030062500,-9.553209,0.262507,2.216072,0.244561,0.69529,0.80214
1702332030070312,-9.451209,0.44507,2.326072,0.220761,0.88229,0.101414
1702332030078125,-9.436209,0.64493,2.474072,0.174661,0.107729,0.124714
1702332030085937,-9.488209,0.42493,2.596072,0.140561,0.128829,0.148314
1702332030093750,-9.549209,0.85507,2.675072,0.106061,0.130129,0.155014
1702332030101562,-9.578209,0.272507,2.752072,0.79661,0.111529,0.158314
1702332030109375,-9.595209,0.478507,2.833072,0.61261,0.99829,0.147014
1702332030117187,-9.590209,0.697507,2.874072,0.64361,0.90829,0.135814
1702332030125000,-9.612209,0.882507,2.865072,0.74761,0.67229,0.112714
1702332030132812,-9.564209,0.944507,2.851072,0.87861,0.52529,0.89914
1702332030140625,-9.534209,0.945507,2.820072,0.105661,0.29429,0.73314
1702332030148437,-9.559209,0.905507,2.813072,0.110161,0.2729,0.73314
1702332030156250,-9.562209,0.817507,2.844072,0.107461,0.12571,0.63414
1702332030164062,-9.549209,0.719507,2.930072,0.85461,0.25371,0.66914
1702332030171875,-9.568209,0.620507,3.112072,0.55861,0.22471,0.60714
1702332030179687,-9.598209,0.545507,3.259072,0.35861,0.22671,0.51214
1702332030187500,-9.552209,0.445507,3.306072,0.34261,0.30871,0.52714
1702332030195312,-9.471209,0.330507,3.256072,0.41861,0.28671,0.52814
1702332030203125,-9.362209,0.224507,3.137072,0.60861,0.32171,0.49314
1702332030210937,-9.289209,0.192507,3.65072,0.40061,0.27171,0.64114
1702332030218750,-9.229209,0.227507,3.103072,0.37261,0.40171,0.51214
1702332030226562,-9.199209,0.290507,3.139072,0.21461,0.41071,0.46714
1702332030234375,-9.209209,0.393507,3.105072,0.12761,0.50571,0.36714
1702332030242187,-9.220209,0.470507,3.34072,0.15561,0.54371,0.38514
1702332030250000,-9.218209,0.508507,2.964072,0.0,0.49771,0.33814
1702332030257812,-9.240209,0.520507,2.910072,0.16939,0.53871,0.33814
1702332030265625,-9.291209,0.494507,2.867072,0.29339,0.52471,0.33914
1702332030273437,-9.381209,0.413507,2.813072,0.39339,0.38371,0.36014
1702332030281250,-9.487209,0.328507,2.777072,0.42239,0.32371,0.35914
1702332030289062,-9.612209,0.268507,2.750072,0.57739,0.45771,0.34314
1702332030296875,-9.667209,0.225507,2.740072,0.60439,0.63671,0.21314
1702332030304687,-9.626209,0.182507,2.725072,0.61639,0.76771,0.5014
1702332030312500,-9.551209,0.154507,2.747072,0.72339,0.81871,0.1386
1702332030320312,-9.468209,0.139507,2.761072,0.92639,0.81371,0.12286
1702332030328125,-9.405209,0.161507,2.738072,0.109839,0.81971,0.8986
1702332030335937,-9.366209,0.218507,2.770072,0.123639,0.98371,0.15486
1702332030343750,-9.338209,0.293507,2.819072,0.137939,0.94771,0.15186
1702332030351562,-9.303209,0.363507,2.871072,0.137939,0.92571,0.21486
1702332030359375,-9.282209,0.456507,2.851072,0.134239,0.98271,0.34686
1702332030367187,-9.263209,0.560507,2.824072,0.135839,0.104271,0.41086
1702332030375000,-9.249209,0.632507,2.808072,0.137439,0.100671,0.45786
1702332030382812,-9.256209,0.657507,2.799072,0.118739,0.101471,0.55486
1702332030390625,-9.279209,0.662507,2.804072,0.123339,0.89471,0.44286
1702332030398437,-9.287209,0.636507,2.824072,0.128039,0.103171,0.29986
1702332030406250,-9.300209,0.583507,2.855072,0.117139,0.107871,0.28486
1702332030414062,-9.288209,0.533507,2.856072,0.114239,0.103971,0.29886
1702332030421875,-9.247209,0.502507,2.817072,0.112439,0.96871,0.25286
1702332030429687,-9.192209,0.468507,2.822072,0.114339,0.89571,0.23386
1702332030437500,-9.152209,0.445507,2.813072,0.113039,0.74271,0.24786
1702332030445312,-9.178209,0.425507,2.813072,0.114539,0.56771,0.24786
1702332030453125,-9.230209,0.397507,2.831072,0.113139,0.54371,0.29486
1702332030460937,-9.285209,0.374507,2.873072,0.129939,0.29771,0.31086
1702332030468750,-9.341209,0.355507,2.889072,0.133439,0.28671,0.33986
1702332030476562,-9.350209,0.310507,2.885072,0.130339,0.26471,0.45186
1702332030484375,-9.340209,0.263507,2.880072,0.138139,0.25871,0.56286
1702332030492187,-9.335209,0.235507,2.871072,0.117439,0.25071,0.58286
1702332030500000,-9.337209,0.219507,2.898072,0.120039,0.30171,0.74486
1702332030507812,-9.346209,0.208507,2.939072,0.134039,0.29571,0.88786
1702332030515625,-9.389209,0.222507,2.963072,0.135039,0.43471,0.98786
1702332030523437,-9.459209,0.250507,3.2072,0.147339,0.55971,0.116286
1702332030531250,-9.506209,0.255507,3.38072,0.161239,0.82171,0.121186
1702332030539062,-9.539209,0.218507,3.85072,0.160939,0.113271,0.123086
1702332030546875,-9.575209,0.167507,3.72072,0.162339,0.128071,0.124786
1702332030554687,-9.615209,0.179507,3.47072,0.160639,0.149571,0.121786
1702332030562500,-9.615209,0.168507,3.96072,0.160739,0.157271,0.121686
1702332030570312,-9.577209,0.172507,3.126072,0.141939,0.175771,0.107686
1702332030578125,-9.577209,0.208507,3.108072,0.120039,0.185671,0.103086
1702332030585937,-9.587209,0.226507,3.51072,0.91939,0.195771,0.87486
1702332030593750,-9.517209,0.202507,2.943072,0.68639,0.226571,0.73286
1702332030601562,-9.448209,0.117507,2.925072,0.57939,0.238071,0.57386
1702332030609375,-9.442209,0.14493,2.966072,0.68039,0.245571,0.31286
1702332030617187,-9.473209,0.182493,2.982072,0.104339,0.240471,0.29186
1702332030625000,-9.555209,0.342493,2.965072,0.138339,0.248171,0.30686
1702332030632812,-9.636209,0.474493,2.970072,0.186939,0.253171,0.28586
1702332030640625,-9.771209,0.503493,2.959072,0.249739,0.259271,0.30986
1702332030648437,-9.823209,0.473493,2.961072,0.296239,0.277871,0.40486
1702332030656250,-9.753209,0.469493,3.31072,0.368139,0.286471,0.42986
1702332030664062,-9.598209,0.492493,3.42072,0.440139,0.296071,0.48686
1702332030671875,-9.411209,0.541493,3.13072,0.507639,0.286671,0.41486
1702332030679687,-9.232209,0.600493,2.983072,0.581939,0.286071,0.25886
1702332030687500,-9.15209,0.685493,2.947072,0.667439,0.269471,0.1214
1702332030695312,-8.892209,0.669493,3.4072,0.760239,0.244571,0.29614
1702332030703125,-8.986209,0.494493,3.170072,0.825839,0.223871,0.20714
1702332030710937,-9.147209,0.290493,3.378072,0.871039,0.221971,0.314
1702332030718750,-9.300209,0.96493,3.441072,0.896139,0.245871,0.45086
1702332030726562,-9.354209,0.36507,3.362072,0.929339,0.278471,0.99886
1702332030734375,-9.317209,0.124507,3.213072,0.958339,0.276171,0.149386
1702332030742187,-9.170209,0.168507,2.997072,0.995439,0.254271,0.189086
1702332030750000,-8.968209,0.241507,2.765072,1.40039,0.235371,0.222486
1702332030757812,-8.756209,0.302507,2.614072,1.76939,0.254971,0.252886
1702332030765625,-8.476209,0.359507,2.549072,1.139339,0.245671,0.289086
1702332030773437,-8.255209,0.334507,2.490072,1.187239,0.209071,0.314286
1702332030781250,-8.132209,0.234507,2.317072,1.227939,0.154471,0.343986
1702332030789062,-8.163209,0.64507,2.19072,1.268239,0.106071,0.370786
1702332030796875,-8.206209,0.26493,1.677072,1.284839,0.74871,0.413986
1702332030804687,-8.310209,0.4507,1.441072,1.304139,0.58571,0.463786
1702332030812500,-8.512209,0.99507,1.335072,1.355439,0.25971,0.522386
1702332030820312,-8.824209,0.231507,1.373072,1.416939,0.20171,0.568686
1702332030828125,-9.188209,0.345507,1.479072,1.451839,0.36471,0.616786
1702332030835937,-9.468209,0.416507,1.565072,1.480939,0.26271,0.661586
1702332030843750,-9.578209,0.393507,1.536072,1.505339,0.2671,0.709486
1702332030851562,-9.478209,0.361507,1.459072,1.559239,0.44129,0.758686
1702332030859375,-9.361209,0.299507,1.509072,1.645239,0.89129,0.795986
1702332030867187,-9.372209,0.162507,1.745072,1.719339,0.101829,0.848486
1702332030875000,-9.420209,0.96493,2.58072,1.814039,0.99329,0.905386
1702332030882812,-9.364209,0.458493,2.328072,1.897039,0.88529,0.964486
1702332030890625,-9.155209,0.927493,2.492072,1.952639,0.63229,-1.12286
1702332030898437,-8.869209,-1.377493,2.652072,1.992139,0.43429,-1.60486
1702332030906250,-8.663209,-1.909493,2.982072,2.72339,0.63729,-1.112886
1702332030914062,-8.862209,-2.594493,3.93072,2.148139,0.152829,-1.127386
1702332030921875,-9.386209,-2.850493,2.451072,2.169639,0.233529,-1.108686
1702332030929687,-9.803209,-2.163493,1.620072,2.142639,0.237429,-1.36486
1702332030937500,-10.13209,0.792493,1.269072,2.199439,0.235029,0.937386
1702332030945312,-10.135209,0.650507,1.511072,2.345139,0.279029,0.807786
1702332030953125,-10.400209,1.958507,1.899072,2.446139,0.329329,0.643186
1702332030960937,-10.473209,3.200507,1.823072,2.427939,0.332729,0.470386
1702332030968750,-9.846209,3.785507,1.508072,2.439439,0.279029,0.336886
1702332030976562,-8.693209,3.521507,1.553072,2.564739,0.223329,0.256586
1702332030984375,-7.801209,2.776507,2.23072,2.739139,0.226529,0.241686
1702332030992187,-7.348209,1.720507,2.714072,2.902839,0.308429,0.308586
1702332031000000,-7.440209,0.644507,3.115072,2.974239,0.448329,0.398686
1702332031007812,-8.300209,0.304493,3.6072,2.932639,0.576729,0.488586
1702332031015625,-9.872209,-1.116493,2.612072,2.827139,0.628929,0.520186
1702332031023437,-11.541209,-1.773493,2.305072,2.758239,0.597829,0.508286
1702332031031250,-12.651209,-2.64493,2.32072,2.720039,0.451529,0.480886
1702332031039062,-12.704209,-1.992493,1.931072,2.751839,0.198929,0.448486
1702332031046875,-11.725209,-1.725493,2.37072,2.802239,0.58671,0.420786
1702332031054687,-10.398209,-1.373493,1.965072,2.818939,0.171471,0.414986
1702332031062500,-9.634209,-1.70493,1.735072,2.845739,0.132171,0.422386
1702332031070312,-9.570209,0.693493,1.391072,2.879239,0.22971,0.445286
1702332031078125,-9.994209,0.327493,1.13072,2.899239,0.73229,0.487986
1702332031085937,-10.505209,0.99493,0.815072,2.931039,0.103729,0.537686
1702332031093750,-10.813209,0.41507,0.862072,2.958739,0.126229,0.591886
1702332031101562,-11.89209,0.159507,0.946072,2.962539,0.140229,0.625786
1702332031109375,-11.237209,0.281507,1.175072,2.992939,0.102929,0.664386
1702332031117187,-11.265209,0.304507,1.558072,3.23539,0.46229,0.693486
1702332031125000,-11.285209,0.216507,1.756072,3.34839,0.5629,0.714886
1702332031132812,-11.236209,0.69507,1.711072,3.45339,0.28171,0.735886
1702332031140625,-11.71209,0.166493,1.443072,3.36839,0.86471,0.762086
1702332031148437,-10.844209,0.451493,1.94072,3.37539,0.154071,0.772386
1702332031156250,-10.592209,0.723493,0.864072,3.65339,0.196671,0.778886
1702332031164062,-10.386209,0.955493,0.720072,3.94939,0.214771,0.780286
1702332031171875,-10.236209,-1.71493,0.731072,3.147839,0.236071,0.791086
1702332031179687,-10.243209,-1.48493,0.846072,3.196239,0.250871,0.797186
1702332031187500,-10.369209,0.929493,1.4072,3.219239,0.278671,0.813286
1702332031195312,-10.492209,0.780493,1.163072,3.230839,0.317171,0.832886
1702332031203125,-10.519209,0.685493,1.123072,3.248039,0.346571,0.852086
1702332031210937,-10.312209,0.643493,0.909072,3.283239,0.382371,0.860186
1702332031218750,-10.20209,0.601493,0.722072,3.317339,0.404271,0.861686
1702332031226562,-9.805209,0.472493,0.673072,3.369139,0.412271,0.859486
1702332031234375,-9.784209,0.166493,0.729072,3.411439,0.397871,0.863786
1702332031242187,-9.892209,0.196507,0.819072,3.427339,0.372471,0.871386
1702332031250000,-10.7209,0.535507,0.970072,3.425739,0.351671,0.871286
1702332031257812,-10.150209,0.804507,0.968072,3.388039,0.353571,0.870186
1702332031265625,-10.207209,0.990507,0.856072,3.339639,0.399171,0.853286
1702332031273437,-10.132209,1.89507,0.795072,3.286239,0.471171,0.834986
1702332031281250,-9.978209,1.129507,0.869072,3.245439,0.538271,0.813386
1702332031289062,-9.876209,1.81507,1.49072,3.206639,0.565871,0.791386
1702332031296875,-9.774209,0.936507,1.270072,3.168939,0.576471,0.775886
1702332031304687,-9.664209,0.774507,1.392072,3.137939,0.554871,0.772786
1702332031312500,-9.573209,0.575507,1.376072,3.106639,0.540371,0.768286
1702332031320312,-9.536209,0.360507,1.308072,3.86339,0.541771,0.770086
1702332031328125,-9.461209,0.125507,1.191072,3.83339,0.514971,0.779486
1702332031335937,-9.341209,0.75493,1.101072,3.89339,0.492571,0.793886
1702332031343750,-9.269209,0.263493,1.35072,3.84539,0.468671,0.817786
1702332031351562,-9.196209,0.559493,1.19072,3.93539,0.436171,0.844986
1702332031359375,-9.153209,0.903493,0.880072,3.106339,0.369771,0.868386
1702332031367187,-9.232209,-1.334493,0.638072,3.126439,0.303371,0.892086
1702332031375000,-9.394209,-1.765493,0.409072,3.154839,0.269271,0.912286
1702332031382812,-9.597209,-2.161493,0.237072,3.178139,0.238671,0.927986
1702332031390625,-9.740209,-2.446493,0.199072,3.213539,0.250671,0.942286
1702332031398437,-9.674209,-2.538493,0.190072,3.257039,0.265071,0.962886
1702332031406250,-9.476209,-2.415493,0.129072,3.299339,0.269571,0.970386
1702332031414062,-9.320209,-2.162493,0.127928,3.352139,0.255971,0.981186
1702332031421875,-9.210209,-1.739493,0.525928,3.418439,0.219471,0.981686
1702332031429687,-9.108209,-1.204493,0.820928,3.470339,0.179171,0.977686
1702332031437500,-9.153209,0.582493,0.912928,3.505539,0.141371,0.957586
1702332031445312,-9.268209,0.38493,0.824928,3.496939,0.121271,0.933286
1702332031453125,-9.267209,0.230507,0.587928,3.453239,0.163371,0.890586
1702332031460937,-9.133209,0.448507,0.256072,3.397339,0.256771,0.837086
1702332031468750,-9.138209,1.47507,1.597072,3.349839,0.308271,0.781286
1702332031476562,-9.732209,2.383507,2.266072,3.310739,0.152271,0.735586
1702332031484375,-10.817209,3.888507,1.146072,3.272039,0.68329,0.724486
1702332031492187,-11.200209,4.844507,0.551072,3.184339,0.71471,0.737986
1702332031500000,-10.902209,5.321507,1.840072,3.81639,0.344371,0.770086
1702332031507812,-10.580209,6.50507,3.739072,2.916139,0.325571,0.828286
1702332031515625,-10.499209,6.152507,4.183072,2.623039,0.69871,0.902486
1702332031523437,-10.444209,5.87507,2.982072,2.409239,0.42929,0.911986
1702332031531250,-10.216209,3.472507,1.674072,2.373139,0.45271,0.864786
1702332031539062,-9.856209,2.91507,1.458072,2.347739,0.239471,0.827586
1702332031546875,-9.435209,1.338507,1.451072,2.302239,0.290171,0.815586
1702332031554687,-9.157209,0.941507,1.88072,2.269139,0.301571,0.820886
1702332031562500,-8.726209,0.553507,0.837072,2.250539,0.370771,0.853986
1702332031570312,-8.371209,0.137507,0.914072,2.294039,0.452471,0.852486
1702332031578125,-8.626209,0.374493,1.213072,2.370939,0.440371,0.838686
1702332031585937,-9.289209,0.666493,1.256072,2.446039,0.354071,0.819286
1702332031593750,-9.777209,0.561493,1.342072,2.477739,0.342371,0.810686
1702332031601562,-10.92209,0.187493,1.720072,2.524639,0.332171,0.798986
1702332031609375,-10.554209,0.286507,2.175072,2.575939,0.283471,0.779986
1702332031617187,-11.142209,0.632507,2.223072,2.611539,0.214871,0.748486
1702332031625000,-11.429209,0.785507,1.691072,2.632739,0.189671,0.702986
1702332031632812,-11.108209,0.784507,0.937072,2.653839,0.253471,0.649886
1702332031640625,-10.350209,0.741507,0.173072,2.660539,0.312071,0.621086
1702332031648437,-9.571209,0.811507,0.452928,2.694439,0.298071,0.638486
1702332031656250,-9.86209,1.7507,0.744928,2.747539,0.236671,0.680886
1702332031664062,-8.971209,1.411507,0.740928,2.798939,0.150371,0.718486
1702332031671875,-8.927209,1.898507,0.483928,2.859239,0.126471,0.778886
1702332031679687,-8.891209,2.224507,0.145928,2.905139,0.121671,0.833286
1702332031687500,-8.926209,2.411507,0.73072,2.903839,0.89271,0.899286
1702332031695312,-9.91209,2.467507,0.48928,2.867539,0.15371,0.934686
1702332031703125,-9.388209,2.544507,0.221928,2.835439,0.12429,0.975286
1702332031710937,-9.573209,2.666507,0.225928,2.813639,0.10629,0.991486
1702332031718750,-9.681209,2.837507,0.14928,2.791439,0.21829,-1.2986
1702332031726562,-9.901209,2.992507,0.246072,2.755439,0.50329,0.993686
1702332031734375,-10.247209,3.90507,0.393072,2.690339,0.62329,0.966786
1702332031742187,-10.535209,3.121507,0.438072,2.625339,0.39029,0.914486
1702332031750000,-10.545209,3.21507,0.528072,2.586439,0.36371,0.876686
1702332031757812,-10.391209,2.858507,0.764072,2.559839,0.115571,0.838886
1702332031765625,-10.180209,2.695507,1.41072,2.540039,0.145171,0.800586
1702332031773437,-9.863209,2.557507,1.300072,2.516739,0.174971,0.778486
1702332031781250,-9.483209,2.398507,1.616072,2.495539,0.188971,0.751286
1702332031789062,-9.222209,2.252507,1.613072,2.434939,0.162771,0.733986
1702332031796875,-9.145209,2.175507,1.352072,2.378739,0.154471,0.721686
1702332031804687,-9.210209,2.172507,1.86072,2.330639,0.171971,0.701286
1702332031812500,-9.284209,2.238507,0.987072,2.308039,0.180371,0.698686
1702332031820312,-9.304209,2.347507,1.41072,2.304839,0.182871,0.687586
1702332031828125,-9.247209,2.421507,1.212072,2.288139,0.179571,0.692286
1702332031835937,-9.232209,2.488507,1.361072,2.266439,0.168071,0.684386
1702332031843750,-9.229209,2.561507,1.453072,2.225639,0.179471,0.681686
1702332031851562,-9.149209,2.604507,1.474072,2.193739,0.186471,0.696686
1702332031859375,-8.933209,2.585507,1.474072,2.162339,0.199971,0.714786
1702332031867187,-8.768209,2.516507,1.435072,2.149439,0.205371,0.719886
1702332031875000,-8.709209,2.466507,1.327072,2.140539,0.181371,0.722786
1702332031882812,-8.734209,2.493507,1.282072,2.123239,0.183871,0.710286
1702332031890625,-8.896209,2.553507,1.291072,2.112339,0.170971,0.707086
1702332031898437,-9.69209,2.647507,1.298072,2.91939,0.152671,0.720086
1702332031906250,-9.269209,2.816507,1.327072,2.92139,0.124471,0.724686
1702332031914062,-9.619209,3.198507,1.247072,2.73339,0.93371,0.731086
1702332031921875,-9.984209,3.532507,1.314072,2.100339,0.55471,0.730486
1702332031929687,-10.264209,3.616507,1.677072,2.178139,0.2971,0.706586
1702332031937500,-10.517209,3.365507,2.287072,2.239339,0.12929,0.629886
1702332031945312,-10.561209,2.933507,3.73072,2.298339,0.23171,0.545786
1702332031953125,-10.526209,2.267507,4.93072,2.410939,0.36471,0.478386
1702332031960937,-10.866209,1.242507,5.137072,2.534139,0.23171,0.449286
1702332031968750,-11.647209,0.14493,5.198072,2.562539,0.6571,0.372886
1702332031976562,-12.470209,0.833493,3.864072,2.482439,0.147671,0.258586
1702332031984375,-11.930209,0.864493,2.639072,2.456939,0.382271,0.199286
1702332031992187,-10.255209,0.293493,2.234072,2.562539,0.442171,0.213186
1702332032000000,-8.885209,0.483507,2.432072,2.664239,0.409571,0.234386
1702332032007812,-8.63209,1.507,2.473072,2.567239,0.407771,0.296886
1702332032015625,-7.643209,1.326507,2.277072,2.424339,0.376271,0.395186
1702332032023437,-7.373209,1.738507,1.773072,2.283339,0.291371,0.507486
1702332032031250,-7.307209,2.134507,1.271072,2.125539,0.138671,0.608286
1702332032039062,-7.771209,2.305507,0.687072,2.19439,0.47329,0.653186
1702332032046875,-8.759209,2.245507,0.836072,1.994539,0.102229,0.651586
1702332032054687,-9.770209,1.931507,1.804072,2.14239,0.81229,0.607886
1702332032062500,-10.391209,1.375507,2.937072,2.45439,0.30129,0.522286
1702332032070312,-10.519209,0.639507,3.642072,2.102039,0.34571,0.409186
1702332032078125,-10.185209,0.19493,3.713072,2.165339,0.133171,0.276686
1702332032085937,-9.481209,0.495493,3.375072,2.217639,0.260471,0.191686
1702332032093750,-8.666209,0.868493,2.871072,2.248139,0.294971,0.171886
1702332032101562,-8.108209,-1.180493,2.368072,2.277439,0.228871,0.200286
1702332032109375,-7.918209,-1.407493,2.80072,2.302939,0.124371,0.278486
1702332032117187,-8.166209,-1.517493,2.64072,2.316039,0.18371,0.380786
1702332032125000,-8.662209,-1.548493,2.278072,2.315039,0.58029,0.512786
1702332032132812,-9.293209,-1.561493,2.431072,2.295639,0.116429,0.648086
1702332032140625,-9.997209,-1.537493,2.474072,2.268039,0.130329,0.778986
1702332032148437,-10.539209,-1.393493,2.469072,2.253239,0.108629,0.871486
1702332032156250,-10.808209,-1.145493,2.377072,2.244639,0.96829,0.923186
1702332032164062,-10.868209,0.907493,2.235072,2.233239,0.99829,0.941086
1702332032171875,-10.891209,0.709493,2.121072,2.248839,0.94629,0.937786
1702332032179687,-10.762209,0.523493,2.35072,2.271339,0.104329,0.913286
1702332032187500,-10.485209,0.385493,1.990072,2.298939,0.123829,0.870786
1702332032195312,-10.240209,0.245493,2.26072,2.338939,0.128529,0.833186
1702332032203125,-10.99209,0.175493,2.80072,2.384839,0.127229,0.794086
1702332032210937,-10.123209,0.251493,2.188072,2.437239,0.96429,0.756486
1702332032218750,-10.248209,0.440493,2.242072,2.475339,0.47329,0.722486
1702332032226562,-10.387209,0.716493,2.188072,2.517339,0.2471,0.714386
1702332032234375,-10.419209,-1.493,1.992072,2.567539,0.16171,0.726686
1702332032242187,-10.326209,-1.237493,1.704072,2.618439,0.21571,0.756886
1702332032250000,-10.164209,-1.341493,1.481072,2.670939,0.25071,0.787086
1702332032257812,-10.35209,-1.293493,1.319072,2.742739,0.27871,0.810386
1702332032265625,-9.912209,-1.90493,1.386072,2.821939,0.42871,0.835486
1702332032273437,-9.809209,0.899493,1.485072,2.890439,0.55271,0.841386
1702332032281250,-9.776209,0.711493,1.575072,2.926439,0.63571,0.841086
1702332032289062,-9.884209,0.545493,1.670072,2.964439,0.89371,0.826186
1702332032296875,-9.931209,0.445493,1.752072,2.980439,0.117271,0.824386
1702332032304687,-9.912209,0.390493,1.821072,2.989539,0.147271,0.822986
1702332032312500,-9.755209,0.346493,1.819072,2.976739,0.179971,0.826586
1702332032320312,-9.619209,0.268493,1.673072,2.977939,0.196071,0.841186
1702332032328125,-9.546209,0.193493,1.569072,2.994139,0.220271,0.860786
1702332032335937,-9.519209,0.185493,1.463072,3.13839,0.219071,0.886386
1702332032343750,-9.568209,0.220493,1.378072,3.32739,0.211471,0.903786
1702332032351562,-9.702209,0.271493,1.351072,3.54439,0.187171,0.916286
1702332032359375,-9.877209,0.293493,1.337072,3.77739,0.184871,0.938486
1702332032367187,-10.68209,0.299493,1.285072,3.102839,0.186571,0.936586
1702332032375000,-10.219209,0.277493,1.198072,3.103139,0.197271,0.930086
1702332032382812,-10.298209,0.235493,1.78072,3.85339,0.223771,0.917886
1702332032390625,-10.218209,0.197493,0.941072,3.63839,0.266871,0.900486
1702332032398437,-10.51209,0.122493,0.781072,3.53139,0.289871,0.879786
1702332032406250,-9.919209,0.73493,0.729072,3.43939,0.295171,0.862286
1702332032414062,-9.806209,0.82493,0.704072,3.36639,0.279571,0.857286
1702332032421875,-9.722209,0.147493,0.689072,3.46339,0.259971,0.850586
1702332032429687,-9.687209,0.252493,0.657072,3.54439,0.238171,0.851786
1702332032437500,-9.728209,0.309493,0.580072,3.73139,0.226471,0.837186
1702332032445312,-9.830209,0.301493,0.486072,3.82939,0.237171,0.830586
1702332032453125,-10.15209,0.262493,0.450072,3.99939,0.247871,0.824186
1702332032460937,-10.106209,0.161493,0.475072,3.124539,0.275971,0.832186
1702332032468750,-10.25209,0.65493,0.576072,3.131039,0.307971,0.824186
1702332032476562,-9.829209,0.30493,0.612072,3.129139,0.336371,0.824486
1702332032484375,-9.661209,0.26493,0.668072,3.130439,0.370771,0.826286
1702332032492187,-9.615209,0.131493,0.914072,3.122539,0.365271,0.840786
1702332032500000,-9.758209,0.344493,1.31072,3.98839,0.343271,0.863386
1702332032507812,-9.889209,0.570493,1.98072,3.70339,0.315571,0.882986
1702332032515625,-9.970209,0.704493,1.114072,3.21339,0.302271,0.905986
1702332032523437,-9.964209,0.906493,0.979072,2.973939,0.302771,0.917986
1702332032531250,-9.851209,-1.109493,0.636072,2.951939,0.303771,0.903886
1702332032539062,-9.648209,-1.193493,0.283072,2.976439,0.305871,0.874286
1702332032546875,-9.505209,-1.91493,0.130072,3.20939,0.293271,0.843086
1702332032554687,-9.557209,0.809493,0.227072,3.47039,0.245071,0.822886
1702332032562500,-9.649209,0.377493,0.358072,3.41639,0.207471,0.795286
1702332032570312,-9.627209,0.114507,0.403072,3.8939,0.201571,0.774686
1702332032578125,-9.565209,0.570507,0.522072,2.964039,0.187371,0.744486
1702332032585937,-9.437209,0.903507,0.772072,2.895539,0.173371,0.711386
1702332032593750,-9.351209,1.165507,1.63072,2.800039,0.137671,0.661986
1702332032601562,-9.384209,1.392507,1.264072,2.716739,0.89971,0.615686
1702332032609375,-9.587209,1.572507,1.298072,2.610239,0.46871,0.559886
1702332032617187,-9.836209,1.519507,1.68072,2.506239,0.48871,0.502986
1702332032625000,-9.887209,1.497507,1.32072,2.450439,0.145271,0.449386
1702332032632812,-9.828209,1.750507,1.613072,2.410739,0.252571,0.423386
1702332032640625,-9.773209,1.982507,1.858072,2.341539,0.252671,0.432286
1702332032648437,-9.617209,1.904507,1.381072,2.202039,0.242571,0.433786
1702332032656250,-9.483209,1.819507,1.721072,2.78039,0.323471,0.429186
1702332032664062,-9.639209,1.862507,2.962072,2.32539,0.290871,0.439186
1702332032671875,-10.131209,1.708507,3.135072,1.954939,0.87871,0.461186
1702332032679687,-10.486209,1.243507,2.165072,1.870639,0.36671,0.466586
1702332032687500,-10.281209,0.925507,1.624072,1.884239,0.160871,0.457586
1702332032695312,-9.874209,0.950507,2.47072,1.943139,0.244471,0.462386
1702332032703125,-9.935209,1.199507,2.683072,1.953939,0.219371,0.489386
1702332032710937,-10.271209,1.291507,2.788072,1.929739,0.170571,0.526586
1702332032718750,-10.456209,1.82507,2.410072,1.926739,0.214371,0.562686
1702332032726562,-10.174209,0.853507,2.185072,1.964839,0.320171,0.588786
1702332032734375,-9.547209,0.734507,2.290072,2.16839,0.409671,0.630786
1702332032742187,-8.930209,0.643507,2.365072,2.67439,0.411771,0.675486
1702332032750000,-8.504209,0.568507,2.177072,2.81239,0.369371,0.704186
1702332032757812,-8.289209,0.499507,1.964072,2.88939,0.346671,0.739186
1702332032765625,-8.209209,0.412507,1.813072,2.85039,0.304371,0.782586
1702332032773437,-8.365209,0.319507,1.533072,2.57839,0.252971,0.805286
1702332032781250,-8.725209,0.189507,1.371072,2.47139,0.230271,0.822786
1702332032789062,-9.203209,0.173507,1.504072,2.64139,0.208371,0.825886
1702332032796875,-9.823209,0.260507,1.747072,2.94739,0.164371,0.800986
1702332032804687,-10.413209,0.473507,1.786072,2.121339,0.131271,0.742186
1702332032812500,-10.697209,0.829507,1.453072,2.97639,0.152871,0.669986
1702332032820312,-10.517209,1.205507,0.948072,2.78539,0.152771,0.610386
1702332032828125,-10.88209,1.585507,0.701072,2.97439,0.110771,0.538886
1702332032835937,-9.817209,2.64507,0.766072,2.135039,0.35971,0.481486
1702332032843750,-9.713209,2.612507,1.10072,2.152039,0.21729,0.443586
1702332032851562,-9.753209,2.974507,1.280072,2.147639,0.55829,0.436986
1702332032859375,-9.820209,3.128507,1.307072,2.100639,0.55929,0.437486
1702332032867187,-9.738209,3.207507,1.303072,2.32739,0.10571,0.446686
1702332032875000,-9.468209,3.266507,1.283072,1.952239,0.70371,0.465686
1702332032882812,-9.148209,3.295507,1.172072,1.873039,0.82471,0.486286
1702332032890625,-9.48209,3.311507,1.154072,1.818439,0.51271,0.486686
1702332032898437,-9.169209,3.185507,1.280072,1.799839,0.24971,0.485086
1702332032906250,-9.322209,3.19507,1.634072,1.785739,0.41671,0.472486
1702332032914062,-9.368209,2.773507,2.53072,1.759239,0.106671,0.453786
1702332032921875,-9.267209,2.524507,2.298072,1.721339,0.156571,0.438586
1702332032929687,-9.75209,2.330507,2.278072,1.695039,0.177671,0.419586
1702332032937500,-8.854209,2.140507,2.188072,1.683039,0.168371,0.414586
1702332032945312,-8.648209,2.12507,2.129072,1.686639,0.155071,0.399886
1702332032953125,-8.557209,1.967507,2.183072,1.685339,0.141971,0.393286
1702332032960937,-8.591209,1.972507,2.323072,1.668139,0.129371,0.385486
1702332032968750,-8.753209,1.993507,2.453072,1.646039,0.124971,0.385786
1702332032976562,-9.21209,2.30507,2.532072,1.606639,0.107471,0.392686
1702332032984375,-9.331209,2.80507,2.595072,1.570139,0.92271,0.393286
1702332032992187,-9.614209,2.137507,2.620072,1.539239,0.79671,0.398086
1702332033000000,-9.820209,2.242507,2.615072,1.499939,0.82671,0.403386
1702332033007812,-9.919209,2.372507,2.733072,1.482739,0.91571,0.416386
1702332033015625,-9.940209,2.475507,2.811072,1.458639,0.94271,0.421786
1702332033023437,-9.948209,2.519507,2.778072,1.411739,0.129371,0.422386
1702332033031250,-9.934209,2.619507,2.791072,1.392539,0.189971,0.419786
1702332033039062,-9.892209,2.682507,2.990072,1.423639,0.229271,0.419786
1702332033046875,-9.871209,2.618507,3.93072,1.430039,0.240571,0.411586
1702332033054687,-9.820209,2.523507,3.89072,1.405439,0.264871,0.386186
1702332033062500,-9.793209,2.402507,3.23072,1.361339,0.298971,0.361386
1702332033070312,-9.708209,2.385507,3.46072,1.335539,0.308371,0.327686
1702332033078125,-9.467209,2.394507,3.129072,1.314039,0.312771,0.314986
1702332033085937,-9.310209,2.381507,3.5072,1.226439,0.301471,0.301386
1702332033093750,-9.335209,2.405507,2.721072,1.137839,0.289971,0.269986
1702332033101562,-9.339209,2.394507,2.652072,1.112039,0.274771,0.244286
1702332033109375,-9.196209,2.290507,2.760072,1.102639,0.275271,0.236386
1702332033117187,-8.931209,2.302507,2.816072,1.53739,0.277371,0.238686
1702332033125000,-8.632209,2.335507,2.901072,1.5239,0.284871,0.242386
1702332033132812,-8.363209,2.321507,3.73072,0.953439,0.256671,0.262086
1702332033140625,-8.380209,2.160507,3.154072,0.915739,0.186371,0.279886
1702332033148437,-8.915209,1.881507,3.93072,0.897239,0.115071,0.274886
1702332033156250,-9.464209,1.778507,3.124072,0.921139,0.87571,0.261486
1702332033164062,-9.565209,1.715507,3.291072,0.946639,0.96671,0.253086
1702332033171875,-9.436209,1.673507,3.248072,0.918139,0.128071,0.252086
1702332033179687,-9.266209,1.606507,3.2072,0.885339,0.142171,0.249186
1702332033187500,-9.127209,1.492507,2.698072,0.861139,0.125671,0.259386
1702332033195312,-9.38209,1.416507,2.457072,0.846139,0.112871,0.257586
1702332033203125,-9.83209,1.437507,2.378072,0.807039,0.95671,0.241886
1702332033210937,-9.99209,1.525507,2.430072,0.762439,0.77671,0.237086
1702332033218750,-9.30209,1.605507,2.590072,0.707139,0.68771,0.242686
1702332033226562,-8.973209,1.677507,2.696072,0.662339,0.34871,0.241086
1702332033234375,-8.998209,1.679507,2.707072,0.613939,0.5871,0.230286
1702332033242187,-9.116209,1.673507,2.710072,0.573339,0.129,0.214686
1702332033250000,-9.232209,1.678507,2.624072,0.513239,0.15729,0.182686
1702332033257812,-9.285209,1.688507,2.516072,0.438139,0.429,0.164386
1702332033265625,-9.270209,1.699507,2.412072,0.356839,0.13871,0.154086
1702332033273437,-9.149209,1.749507,2.313072,0.261039,0.29271,0.142586
1702332033281250,-8.999209,1.776507,2.248072,0.169239,0.6271,0.144686
1702332033289062,-8.955209,1.739507,2.210072,0.82439,0.31329,0.155486
1702332033296875,-9.76209,1.550507,2.282072,0.13639,0.76029,0.163986
1702332033304687,-9.422209,1.236507,2.423072,0.40761,0.104229,0.156186
1702332033312500,-9.765209,0.909507,2.563072,0.92161,0.98129,0.118386
1702332033320312,-9.917209,0.650507,2.666072,0.125561,0.64429,0.71986
1702332033328125,-9.855209,0.483507,2.772072,0.139561,0.22629,0.37086
1702332033335937,-9.706209,0.369507,2.777072,0.147761,0.7729,0.2986
1702332033343750,-9.535209,0.278507,2.749072,0.158661,0.3329,0.24014
1702332033351562,-9.404209,0.181507,2.734072,0.161261,0.24829,0.37114
1702332033359375,-9.361209,0.20507,2.754072,0.159961,0.36329,0.22714
1702332033367187,-9.383209,0.118493,2.817072,0.161661,0.54429,0.8314
1702332033375000,-9.451209,0.244493,2.835072,0.147661,0.51629,0.5986
1702332033382812,-9.443209,0.348493,2.785072,0.135361,0.45429,0.18686
1702332033390625,-9.336209,0.389493,2.675072,0.127861,0.20329,0.17386
1702332033398437,-9.190209,0.369493,2.666072,0.102861,0.11229,0.5986
1702332033406250,-9.112209,0.351493,2.697072,0.68061,0.21529,0.3786
1702332033414062,-9.163209,0.385493,2.727072,0.39361,0.64529,0.4686
1702332033421875,-9.343209,0.436493,2.754072,0.25361,0.86129,0.17186
1702332033429687,-9.499209,0.491493,2.760072,0.8361,0.103629,0.29886
1702332033437500,-9.596209,0.558493,2.798072,0.12361,0.78329,0.48086
1702332033445312,-9.596209,0.584493,2.891072,0.11161,0.57129,0.59586
1702332033453125,-9.516209,0.560493,2.929072,0.22161,0.36929,0.70886
1702332033460937,-9.380209,0.504493,2.837072,0.28761,0.25829,0.88686
1702332033468750,-9.281209,0.455493,2.684072,0.31861,0.46829,0.88686
1702332033476562,-9.256209,0.389493,2.589072,0.12861,0.63529,0.91486
1702332033484375,-9.261209,0.298493,2.574072,0.12761,0.77929,0.88186
1702332033492187,-9.256209,0.202493,2.582072,0.6461,0.85229,0.72186
1702332033500000,-9.241209,0.127493,2.580072,0.12461,0.83829,0.65686
1702332033507812,-9.222209,0.61493,2.540072,0.10961,0.90129,0.65686
1702332033515625,-9.252209,0.40493,2.470072,0.24561,0.93929,0.51186
1702332033523437,-9.412209,0.7493,2.436072,0.36661,0.105629,0.34986
1702332033531250,-9.684209,0.107507,2.508072,0.48961,0.115429,0.30186
1702332033539062,-9.999209,0.269507,2.630072,0.91461,0.107329,0.33986
1702332033546875,-10.191209,0.395507,2.686072,0.118761,0.111629,0.52186
1702332033554687,-10.114209,0.437507,2.687072,0.136261,0.74829,0.70286
1702332033562500,-9.863209,0.403507,2.621072,0.146061,0.51129,0.64286
1702332033570312,-9.644209,0.282507,2.513072,0.139161,0.43629,0.47886
1702332033578125,-9.498209,0.162507,2.394072,0.109161,0.51129,0.29886
1702332033585937,-9.395209,0.49507,2.382072,0.86561,0.40129,0.2186
1702332033593750,-9.324209,0.38493,2.495072,0.57761,0.40529,0.16114
1702332033601562,-9.321209,0.108493,2.607072,0.40561,0.49729,0.21014
1702332033609375,-9.359209,0.121493,2.745072,0.38761,0.45329,0.22814
1702332033617187,-9.411209,0.98493,2.828072,0.37461,0.41829,0.16214
1702332033625000,-9.438209,0.86493,2.862072,0.42561,0.37829,0.11114
1702332033632812,-9.400209,0.54493,2.885072,0.44161,0.7529,0.6214
1702332033640625,-9.338209,0.15493,2.916072,0.38261,0.15971,0.7614
1702332033648437,-9.284209,0.10507,2.947072,0.36761,0.21171,0.10714
1702332033656250,-9.237209,0.7507,2.963072,0.33361,0.12471,0.11014
1702332033664062,-9.219209,0.11507,2.984072,0.20461,0.2171,0.14614
1702332033671875,-9.204209,0.6507,3.11072,0.1361,0.271,0.22914
1702332033679687,-9.192209,0.11507,3.29072,0.13939,0.20229,0.13414
1702332033687500,-9.264209,0.8507,3.11072,0.32639,0.34929,0.4014
1702332033695312,-9.383209,0.29507,2.979072,0.41839,0.57929,0.13486
1702332033703125,-9.465209,0.77507,2.966072,0.38539,0.67829,0.26386
1702332033710937,-9.515209,0.151507,2.930072,0.39739,0.78729,0.37686
1702332033718750,-9.487209,0.226507,2.858072,0.33239,0.77229,0.49086
1702332033726562,-9.478209,0.281507,2.813072,0.33639,0.67329,0.56886
1702332033734375,-9.507209,0.324507,2.824072,0.55239,0.61629,0.55186
1702332033742187,-9.544209,0.362507,2.808072,0.80739,0.49229,0.45186
1702332033750000,-9.551209,0.400507,2.756072,0.88039,0.26229,0.35886
1702332033757812,-9.504209,0.412507,2.655072,0.91439,0.771,0.26186
1702332033765625,-9.457209,0.432507,2.608072,0.108539,0.19171,0.22986
1702332033773437,-9.408209,0.478507,2.675072,0.114639,0.42371,0.18286
1702332033781250,-9.363209,0.565507,2.768072,0.111639,0.38471,0.26286
1702332033789062,-9.378209,0.647507,2.779072,0.96239,0.21571,0.27786
1702332033796875,-9.473209,0.695507,2.736072,0.78939,0.14671,0.34286
1702332033804687,-9.585209,0.698507,2.727072,0.70439,0.17571,0.44486
1702332033812500,-9.578209,0.675507,2.777072,0.65739,0.32071,0.41286
1702332033820312,-9.519209,0.621507,2.820072,0.62839,0.51271,0.34886
1702332033828125,-9.409209,0.551507,2.804072,0.51539,0.68371,0.30486
1702332033835937,-9.258209,0.491507,2.792072,0.38839,0.75471,0.29186
1702332033843750,-9.126209,0.475507,2.772072,0.39539,0.83171,0.30386
1702332033851562,-9.63209,0.500507,2.745072,0.33339,0.78271,0.28786
1702332033859375,-9.102209,0.546507,2.763072,0.36439,0.54171,0.27086
1702332033867187,-9.239209,0.599507,2.738072,0.28439,0.39971,0.30386
1702332033875000,-9.393209,0.642507,2.729072,0.12639,0.30671,0.30686
1702332033882812,-9.475209,0.680507,2.791072,0.11639,0.48771,0.25586
1702332033890625,-9.489209,0.754507,2.903072,0.3261,0.54371,0.19886
1702332033898437,-9.526209,0.827507,2.932072,0.15161,0.54171,0.19586
1702332033906250,-9.593209,0.893507,2.892072,0.34161,0.57671,0.24786
1702332033914062,-9.628209,0.909507,2.883072,0.53461,0.63271,0.31686
1702332033921875,-9.610209,0.849507,2.923072,0.83161,0.67371,0.39886
1702332033929687,-9.593209,0.771507,2.937072,0.102161,0.66171,0.41886
1702332033937500,-9.553209,0.651507,2.928072,0.114661,0.71071,0.40386
1702332033953125,-9.320209,0.398507,2.880072,0.114461,0.103071,0.30786
1702332033960937,-9.208209,0.301507,2.916072,0.106461,0.98771,0.17886
1702332033968750,-9.215209,0.197507,2.925072,0.99761,0.80571,0.3086
1702332033976562,-9.241209,0.120507,2.882072,0.90161,0.75671,0.1914
1702332033984375,-9.202209,0.71507,2.862072,0.85861,0.78371,0.4914
1702332033992187,-9.170209,0.49507,2.839072,0.62061,0.77071,0.19714
1702332034000000,-9.152209,0.39507,2.862072,0.33161,0.70971,0.30114
1702332034007812,-9.150209,0.59507,2.876072,0.15561,0.54371,0.36914
1702332034015625,-9.168209,0.90507,2.862072,0.10939,0.39171,0.43514
1702332034023437,-9.217209,0.142507,2.849072,0.22239,0.28471,0.42314
1702332034031250,-9.276209,0.181507,2.824072,0.36039,0.35571,0.37414
1702332034039062,-9.305209,0.201507,2.819072,0.26239,0.48371,0.16314
1702332034046875,-9.287209,0.198507,2.756072,0.26239,0.47771,0.6714
1702332034054687,-9.244209,0.173507,2.671072,0.25639,0.44971,0.11086
1702332034062500,-9.222209,0.161507,2.619072,0.38539,0.32671,0.13886
1702332034070312,-9.165209,0.153507,2.594072,0.42539,0.27771,0.19086
1702332034078125,-9.154209,0.149507,2.599072,0.63439,0.9771,0.26386
