time,Acceleration X (m/s^2),Acceleration Y (m/s^2),Acceleration Z (m/s^2),Angular Velocity X (rad/s),Angular Velocity Y (rad/s),Angular Velocity Z (rad/s)
1702331777304687,-12.370044,1.816302,-0.004357,-1.741541,,
1702331777312500,-12.337044,0.15003,2.178302,0.88857,-1.900641,0.52063
1702331777320312,-11.992044,0.10703,2.467302,0.122157,-2.24041,0.19563
1702331777328125,-11.679044,0.5803,2.989302,0.111157,-2.72241,0.9137
1702331777335937,-11.563044,0.697,3.577302,0.80657,-1.997841,0.30837
1702331777343750,-11.202044,0.4003,3.980302,0.42457,-1.921441,0.19137
1702331777359375,-10.118044,0.25203,4.433302,0.2643,-1.716541,0.66063
1702331777367187,-9.808044,0.26303,4.561302,0.13643,-1.600141,0.105463
1702331777375000,-9.696044,0.22903,4.813302,0.19643,-1.519241,0.126063
1702331777382812,-9.761044,0.16703,5.144302,0.22343,-1.434141,0.128263
1702331777406250,-10.378044,0.18697,5.505302,0.55143,-1.218341,0.119863
1702331777414062,-10.179044,0.25397,5.759302,0.71043,-1.185941,0.113063
1702331777421875,-9.821044,0.20897,6.50302,0.84343,-1.126741,0.101063
1702331777429687,-9.428044,0.14997,6.245302,0.80243,-1.46741,0.95763
1702331777437500,-9.200044,0.7597,6.295302,0.99743,0.946141,0.77263
1702331777445312,-9.181044,0.1703,6.293302,0.119743,0.847741,0.55263
1702331777453125,-9.341044,0.17903,6.336302,0.142543,0.765941,0.41463
1702331777460937,-9.539044,0.36403,6.383302,0.177543,0.709841,0.42163
1702331777468750,-9.754044,0.49203,6.469302,0.204043,0.662041,0.45063
1702331777476562,-10.3044,0.51703,6.575302,0.223743,0.608341,0.42463
1702331777484375,-10.193044,0.48503,6.604302,0.207143,0.576741,0.29363
1702331777492187,-10.270044,0.48603,6.606302,0.172943,0.574041,0.4063
1702331777500000,-10.203044,0.49403,6.694302,0.134543,0.589941,0.27837
1702331777507812,-10.119044,0.49503,6.732302,0.94243,0.616141,0.57937
1702331777515625,-10.42044,0.45303,6.746302,0.74143,0.632441,0.76937
1702331777523437,-9.883044,0.44903,6.838302,0.60243,0.646041,0.97637
1702331777531250,-9.629044,0.44903,6.829302,0.48343,0.644041,0.121837
1702331777539062,-9.359044,0.44303,6.791302,0.33143,0.627441,0.138037
1702331777546875,-9.163044,0.41403,6.768302,0.31843,0.600541,0.152537
1702331777554687,-8.999044,0.34903,6.712302,0.14743,0.560441,0.163737
1702331777562500,-8.856044,0.26103,6.721302,0.29543,0.503241,0.178837
1702331777570312,-8.752044,0.18303,6.631302,0.22743,0.448741,0.200237
1702331777578125,-8.637044,0.15503,6.442302,0.17143,0.395741,0.207237
1702331777585937,-8.482044,0.18303,6.302302,0.19343,0.360141,0.230037
1702331777593750,-8.331044,0.28803,6.178302,0.19543,0.322741,0.233437
1702331777601562,-8.157044,0.39803,6.47302,0.15243,0.286741,0.240137
1702331777609375,-7.992044,0.50203,5.917302,0.7443,0.251541,0.244937
1702331777617187,-7.854044,0.54803,5.739302,0.1643,0.216541,0.248537
1702331777625000,-7.783044,0.58703,5.563302,0.10257,0.184941,0.260037
1702331777632812,-7.760044,0.59603,5.430302,0.16657,0.148341,0.263237
1702331777640625,-7.744044,0.58203,5.367302,0.17957,0.121841,0.261837
1702331777648437,-7.696044,0.55203,5.345302,0.31857,0.102241,0.265037
1702331777656250,-7.685044,0.49003,5.223302,0.40457,0.68441,0.273537
1702331777664062,-7.690044,0.41903,5.129302,0.49857,0.55541,0.276737
1702331777671875,-7.647044,0.35803,5.68302,0.70057,0.43841,0.276637
1702331777679687,-7.621044,0.29603,5.54302,0.80757,0.30741,0.281437
1702331777687500,-7.563044,0.21103,5.108302,0.77857,0.21441,0.279837
1702331777695312,-7.457044,0.15403,5.38302,0.79157,0.14641,0.284737
1702331777703125,-7.352044,0.12203,4.979302,0.77957,0.17641,0.290837
1702331777710937,-7.269044,0.9503,4.935302,0.78957,0.14259,0.294537
1702331777718750,-7.231044,0.9003,4.903302,0.73957,0.47259,0.294937
1702331777726562,-7.207044,0.14503,4.876302,0.58157,0.63659,0.293637
1702331777734375,-7.150044,0.22403,4.874302,0.53457,0.93159,0.285737
1702331777742187,-7.91044,0.23003,4.858302,0.53257,0.116359,0.281137
1702331777750000,-7.44044,0.26103,4.754302,0.52257,0.138259,0.266537
1702331777757812,-7.5044,0.32503,4.682302,0.54257,0.162059,0.251937
1702331777765625,-6.924044,0.33203,4.651302,0.49257,0.168359,0.241037
1702331777773437,-6.817044,0.35003,4.597302,0.49457,0.182859,0.228237
1702331777781250,-6.676044,0.40003,4.536302,0.53757,0.184559,0.220537
1702331777789062,-6.540044,0.44003,4.541302,0.52357,0.184559,0.215737
1702331777796875,-6.417044,0.51803,4.500302,0.71357,0.190859,0.207337
1702331777804687,-6.290044,0.56703,4.514302,0.69857,0.192559,0.204137
1702331777812500,-6.146044,0.61403,4.516302,0.76357,0.196659,0.203937
1702331777820312,-5.977044,0.58803,4.493302,0.78057,0.207359,0.205337
1702331777828125,-5.847044,0.60103,4.491302,0.76157,0.219859,0.200937
1702331777835937,-5.743044,0.57503,4.473302,0.77857,0.229759,0.191237
1702331777843750,-5.662044,0.50403,4.410302,0.78957,0.264659,0.193237
1702331777851562,-5.596044,0.47003,4.396302,0.63257,0.298459,0.193537
1702331777859375,-5.614044,0.50803,4.525302,0.47457,0.321359,0.190637
1702331777867187,-5.765044,0.52403,4.606302,0.25357,0.362559,0.183237
1702331777875000,-5.983044,0.51403,4.563302,0.12543,0.417959,0.182337
1702331777882812,-6.185044,0.46303,4.421302,0.31943,0.456359,0.184737
1702331777890625,-6.346044,0.44603,4.316302,0.50743,0.477359,0.181737
1702331777898437,-6.459044,0.48303,4.257302,0.69843,0.500559,0.183837
1702331777906250,-6.550044,0.52703,4.277302,0.82343,0.490559,0.187137
1702331777914062,-6.564044,0.55603,4.289302,0.99243,0.469259,0.177437
1702331777921875,-6.498044,0.65403,4.262302,0.89643,0.453159,0.169237
1702331777929687,-6.455044,0.80703,4.194302,0.73443,0.449759,0.151137
1702331777937500,-6.431044,0.95903,4.95302,0.73143,0.448359,0.131837
1702331777945312,-6.379044,1.10003,4.57302,0.67943,0.450359,0.102737
1702331777953125,-6.327044,1.23203,4.3302,0.47043,0.460159,0.76737
1702331777960937,-6.266044,1.36903,3.965302,0.34243,0.481259,0.60537
1702331777968750,-6.242044,1.52203,3.899302,0.7443,0.512359,0.45837
1702331777976562,-6.227044,1.64603,3.787302,0.28857,0.550659,0.37337
1702331777984375,-6.317044,1.77203,3.715302,0.55157,0.598459,0.34237
1702331777992187,-6.486044,1.92203,3.810302,0.71857,0.641859,0.31337
1702331778000000,-6.748044,1.97103,4.66302,0.79257,0.664759,0.45937
1702331778007812,-7.52044,1.88703,4.213302,0.90157,0.674059,0.57137
1702331778015625,-7.293044,1.73603,4.219302,0.117957,0.625359,0.82437
1702331778023437,-7.461044,1.59603,4.154302,0.131857,0.579159,0.114137
1702331778031250,-7.652044,1.49103,3.953302,0.142557,0.550159,0.153937
1702331778039062,-7.809044,1.41503,3.857302,0.132057,0.526459,0.197737
1702331778046875,-7.836044,1.42703,3.832302,0.125557,0.504259,0.233037
1702331778054687,-7.793044,1.53203,3.904302,0.152957,0.477559,0.260337
1702331778062500,-7.753044,1.70903,4.1302,0.185457,0.464859,0.277737
1702331778070312,-7.755044,1.86703,3.992302,0.223257,0.473959,0.277137
1702331778078125,-7.723044,1.94203,3.915302,0.259457,0.477559,0.265537
1702331778085937,-7.719044,1.98403,3.769302,0.303657,0.465959,0.258337
1702331778093750,-7.724044,2.2603,3.677302,0.337057,0.442559,0.249637
1702331778101562,-7.759044,2.9703,3.639302,0.371557,0.422159,0.242837
1702331778109375,-7.801044,2.20403,3.675302,0.402957,0.409459,0.242437
1702331778117187,-7.883044,2.31503,3.805302,0.428357,0.383759,0.251337
1702331778125000,-7.986044,2.39203,3.907302,0.447157,0.370959,0.251137
1702331778132812,-8.21044,2.45603,3.907302,0.465757,0.369659,0.255837
1702331778140625,-8.79044,2.48003,3.830302,0.509457,0.372359,0.274637
1702331778148437,-8.113044,2.47103,3.639302,0.546657,0.384159,0.288937
1702331778156250,-8.162044,2.47403,3.494302,0.580657,0.395559,0.306337
1702331778164062,-8.241044,2.47003,3.515302,0.619057,0.409159,0.332037
1702331778171875,-8.235044,2.48103,3.585302,0.645057,0.429059,0.354537
1702331778179687,-8.261044,2.45503,3.634302,0.665357,0.426859,0.365437
1702331778187500,-8.355044,2.41903,3.625302,0.714057,0.423459,0.364837
1702331778195312,-8.385044,2.32603,3.659302,0.724557,0.406159,0.379337
1702331778203125,-8.368044,2.12903,3.762302,0.743857,0.375959,0.378637
1702331778210937,-8.342044,1.99703,3.846302,0.754557,0.353859,0.389937
1702331778218750,-8.397044,1.91503,3.911302,0.769057,0.344859,0.386237
1702331778226562,-8.501044,1.86503,3.933302,0.775357,0.349759,0.381337
1702331778234375,-8.529044,1.78603,4.3302,0.755157,0.339959,0.376637
1702331778242187,-8.495044,1.73403,4.41302,0.753657,0.344859,0.373537
1702331778250000,-8.445044,1.68703,3.956302,0.761357,0.342259,0.368737
1702331778257812,-8.440044,1.66203,3.911302,0.752457,0.345259,0.346137
1702331778265625,-8.503044,1.65003,3.951302,0.734157,0.329159,0.325337
1702331778273437,-8.555044,1.70503,4.30302,0.728957,0.313459,0.297437
1702331778281250,-8.637044,1.77803,4.118302,0.736957,0.296659,0.273337
1702331778289062,-8.723044,1.90603,4.161302,0.767457,0.288259,0.247037
1702331778296875,-8.806044,2.6003,4.134302,0.794257,0.282459,0.229037
1702331778304687,-8.824044,2.18903,4.109302,0.821357,0.266059,0.214037
1702331778312500,-8.803044,2.31803,3.988302,0.856257,0.265459,0.208637
1702331778320312,-8.825044,2.44903,3.828302,0.887257,0.267059,0.226037
1702331778328125,-8.879044,2.54703,3.686302,0.904057,0.261059,0.237237
1702331778335937,-8.887044,2.62903,3.666302,0.927257,0.257859,0.249937
1702331778343750,-8.836044,2.74203,3.589302,0.963557,0.260259,0.257337
1702331778351562,-8.833044,2.82303,3.488302,0.997657,0.270659,0.262037
1702331778359375,-8.855044,2.79703,3.366302,-1.26157,0.274859,0.259937
1702331778367187,-8.888044,2.72903,3.258302,-1.60557,0.268559,0.259537
1702331778375000,-8.961044,2.66403,3.134302,-1.99757,0.255559,0.267137
1702331778382812,-9.57044,2.55303,3.114302,-1.102557,0.235559,0.267337
1702331778390625,-9.118044,2.45503,3.299302,-1.104557,0.205059,0.271637
1702331778398437,-9.106044,2.31603,3.476302,-1.101557,0.190259,0.269937
1702331778406250,-9.94044,2.20403,3.551302,-1.106257,0.167659,0.271337
1702331778414062,-9.62044,2.8303,3.555302,-1.96057,0.138459,0.267637
1702331778421875,-8.993044,1.95003,3.512302,-1.89557,0.128759,0.252037
1702331778429687,-8.928044,1.83803,3.481302,-1.68057,0.124059,0.231237
1702331778437500,-8.828044,1.76403,3.505302,-1.56257,0.131459,0.206937
1702331778445312,-8.735044,1.71303,3.587302,-1.47257,0.113859,0.184437
1702331778453125,-8.665044,1.68603,3.641302,-1.27457,0.102659,0.158737
1702331778460937,-8.607044,1.71103,3.663302,-1.17057,0.86059,0.139337
1702331778468750,-8.561044,1.77903,3.672302,-1.9557,0.80059,0.118437
1702331778476562,-8.502044,1.87203,3.627302,-1.7157,0.84659,0.87737
1702331778484375,-8.418044,1.98103,3.517302,-1.957,0.91459,0.75037
1702331778492187,-8.405044,2.16503,3.402302,0.992457,0.101959,0.49037
1702331778500000,-8.471044,2.37903,3.224302,-1.3557,0.116459,0.39237
1702331778507812,-8.639044,2.65003,3.112302,-1.5257,0.103959,0.31237
1702331778515625,-8.871044,2.68703,3.526302,0.983757,0.84059,0.18337
1702331778523437,-9.150044,2.37403,3.943302,0.978357,0.98359,0.28537
1702331778531250,-9.458044,1.90903,4.8302,0.968457,0.104659,0.51237
1702331778539062,-9.998044,1.40003,4.100302,0.936857,0.68459,0.77137
1702331778546875,-10.420044,0.91703,4.151302,0.930657,0.28841,0.115137
1702331778554687,-10.439044,0.68503,4.206302,0.916257,0.115241,0.145537
1702331778562500,-10.192044,0.60203,4.304302,0.904157,0.183541,0.167437
1702331778570312,-9.965044,0.56903,4.408302,0.883657,0.211541,0.183637
1702331778578125,-9.928044,0.64403,4.509302,0.884957,0.219741,0.199737
1702331778585937,-10.107044,0.72003,4.631302,0.882557,0.225341,0.221037
1702331778593750,-10.401044,0.71103,4.683302,0.897957,0.227541,0.243237
1702331778601562,-10.738044,0.65803,4.622302,0.941057,0.243241,0.276837
1702331778609375,-11.72044,0.77003,4.424302,-1.1157,0.240241,0.327737
1702331778617187,-11.233044,1.12703,4.242302,-1.36057,0.259741,0.388737
1702331778625000,-11.128044,1.65203,4.300302,-1.46457,0.309141,0.458837
1702331778632812,-10.684044,2.11903,4.420302,-1.82757,0.336041,0.513437
1702331778640625,-10.154044,2.42303,4.310302,-1.133157,0.301541,0.561737
1702331778648437,-9.698044,2.48903,4.85302,-1.185657,0.270441,0.592037
1702331778656250,-9.323044,2.22603,4.42302,-1.212557,0.249841,0.586837
1702331778664062,-9.146044,1.65103,4.118302,-1.237557,0.224341,0.565937
1702331778671875,-9.239044,0.82803,4.93302,-1.257157,0.183541,0.522337
1702331778679687,-9.479044,0.5697,3.964302,-1.270857,0.172341,0.467137
1702331778687500,-9.720044,0.90297,3.864302,-1.262557,0.175441,0.413937
1702331778695312,-9.845044,-1.65697,3.806302,-1.246157,0.181341,0.369037
1702331778703125,-9.787044,-2.23197,3.731302,-1.231857,0.178641,0.315637
1702331778710937,-9.391044,-2.58197,3.623302,-1.244657,0.193641,0.281837
1702331778718750,-8.892044,-2.68697,3.431302,-1.263357,0.215741,0.237537
1702331778726562,-8.463044,-2.54497,3.321302,-1.270157,0.213341,0.200537
1702331778734375,-8.196044,-2.15297,3.260302,-1.265657,0.169341,0.178137
1702331778742187,-8.59044,-1.71097,3.188302,-1.249957,0.128441,0.168937
1702331778750000,-7.970044,-1.26297,3.146302,-1.233657,0.95141,0.176037
1702331778757812,-8.39044,0.85797,3.101302,-1.233557,0.79341,0.187237
1702331778765625,-8.163044,0.52597,3.139302,-1.208957,0.69241,0.226537
1702331778773437,-8.207044,0.27597,3.187302,-1.226057,0.88641,0.267837
1702331778781250,-8.259044,0.15197,3.266302,-1.233057,0.103241,0.306537
1702331778789062,-8.349044,0.17497,3.306302,-1.247257,0.102041,0.355237
1702331778796875,-8.394044,0.31397,3.358302,-1.263957,0.133141,0.390337
1702331778804687,-8.395044,0.55597,3.453302,-1.280757,0.144741,0.417537
1702331778812500,-8.382044,0.78597,3.396302,-1.299157,0.132941,0.451037
1702331778820312,-8.366044,0.96897,3.351302,-1.314257,0.117441,0.460837
1702331778828125,-8.392044,-1.13397,3.378302,-1.315657,0.89841,0.464237
1702331778835937,-8.406044,-1.24697,3.416302,-1.304157,0.32541,0.474437
1702331778843750,-8.410044,-1.27997,3.432302,-1.308457,0.1559,0.485837
1702331778851562,-8.446044,-1.27897,3.452302,-1.312957,0.22259,0.498737
1702331778859375,-8.572044,-1.29497,3.556302,-1.302857,0.54059,0.505737
1702331778867187,-8.783044,-1.28497,3.655302,-1.298057,0.81959,0.504437
1702331778875000,-9.9044,-1.26197,3.711302,-1.291757,0.82459,0.498237
1702331778882812,-9.117044,-1.26497,3.723302,-1.302757,0.71059,0.498037
1702331778890625,-9.103044,-1.24997,3.662302,-1.301557,0.60959,0.488137
1702331778898437,-9.11044,-1.18397,3.551302,-1.311357,0.62959,0.490937
1702331778906250,-8.923044,-1.7297,3.486302,-1.304657,0.84759,0.497737
1702331778914062,-8.836044,0.90797,3.506302,-1.299057,0.88659,0.523937
1702331778921875,-8.702044,0.74597,3.664302,-1.309457,0.87159,0.551337
1702331778929687,-8.623044,0.60097,3.793302,-1.326057,0.85259,0.586637
1702331778937500,-8.604044,0.51497,3.860302,-1.345557,0.57259,0.639437
1702331778945312,-8.646044,0.53797,3.851302,-1.371657,0.21859,0.688737
1702331778953125,-8.633044,0.66897,3.867302,-1.372457,0.22541,0.743337
1702331778960937,-8.632044,0.75597,4.7302,-1.372957,0.49441,0.785537
1702331778968750,-8.708044,0.74797,3.986302,-1.347957,0.40541,0.793637
1702331778976562,-8.808044,0.84997,3.878302,-1.314757,0.20641,0.792637
1702331778984375,-8.845044,0.93697,3.795302,-1.287957,0.4041,0.793137
1702331778992187,-8.790044,-1.1997,3.835302,-1.253457,0.14259,0.785737
1702331779000000,-8.811044,-1.12997,4.24302,-1.240957,0.40359,0.773037
1702331779007812,-8.807044,-1.20097,4.202302,-1.244457,0.40259,0.756837
1702331779015625,-8.783044,-1.19697,4.279302,-1.256057,0.22659,0.729237
1702331779023437,-8.824044,-1.11597,4.324302,-1.263257,0.7041,0.699737
1702331779031250,-8.911044,-1.2797,4.376302,-1.260857,0.23841,0.678437
1702331779039062,-9.16044,0.92597,4.326302,-1.253857,0.27541,0.647637
1702331779046875,-9.89044,0.84297,4.272302,-1.244657,0.33841,0.634837
1702331779054687,-9.178044,0.76697,4.254302,-1.225857,0.24041,0.628637
1702331779062500,-9.287044,0.66497,4.295302,-1.197857,0.48841,0.630337
1702331779070312,-9.338044,0.59997,4.376302,-1.183957,0.95841,0.628737
1702331779078125,-9.287044,0.55197,4.392302,-1.162257,0.129241,0.635037
1702331779085937,-9.212044,0.54797,4.317302,-1.148757,0.182441,0.639337
1702331779093750,-9.127044,0.60197,4.264302,-1.126357,0.226041,0.638437
1702331779101562,-8.986044,0.65197,4.277302,-1.125357,0.266541,0.640937
1702331779109375,-8.806044,0.64997,4.263302,-1.111857,0.300441,0.643737
1702331779117187,-8.724044,0.60097,4.387302,-1.100357,0.331941,0.655337
1702331779125000,-8.735044,0.59797,4.572302,-1.80357,0.345541,0.652137
1702331779132812,-8.805044,0.60597,4.765302,-1.66257,0.371541,0.653737
1702331779140625,-8.888044,0.63597,4.916302,-1.44557,0.409241,0.653737
1702331779148437,-8.938044,0.75297,4.923302,-1.2157,0.469141,0.665337
1702331779156250,-8.925044,0.99397,4.916302,0.963457,0.553541,0.679437
1702331779164062,-8.797044,-1.23297,5.134302,0.879057,0.601241,0.688137
1702331779171875,-8.718044,-1.29197,5.260302,0.769357,0.600341,0.694037
1702331779179687,-8.737044,-1.36497,5.317302,0.692857,0.604741,0.669237
1702331779187500,-8.682044,-1.33097,5.418302,0.668557,0.634841,0.625937
1702331779195312,-8.496044,-1.11797,5.538302,0.654857,0.681441,0.560837
1702331779203125,-8.257044,0.85397,5.790302,0.662857,0.734141,0.476637
1702331779210937,-7.997044,0.69797,5.729302,0.710957,0.767141,0.367437
1702331779218750,-7.664044,0.64097,5.63302,0.761957,0.775641,0.266437
1702331779226562,-7.338044,0.68397,4.400302,0.776657,0.800841,0.159637
1702331779234375,-6.988044,0.76697,4.130302,0.776757,0.811741,0.78837
1702331779242187,-6.608044,0.77297,4.193302,0.772357,0.806041,0.4337
1702331779250000,-6.405044,0.69197,4.594302,0.769357,0.790041,0.30763
1702331779257812,-6.487044,0.45997,4.835302,0.764757,0.744441,0.41763
1702331779265625,-6.798044,0.16897,4.705302,0.746757,0.686941,0.29763
1702331779273437,-7.165044,0.6903,4.381302,0.738057,0.610641,0.1763
1702331779281250,-7.565044,0.18803,4.65302,0.727157,0.568041,0.53637
1702331779289062,-7.901044,0.21103,3.937302,0.731657,0.588641,0.129637
1702331779296875,-8.123044,0.26603,4.176302,0.737357,0.646341,0.207837
1702331779304687,-8.195044,0.35103,4.538302,0.721957,0.701841,0.280437
1702331779312500,-8.62044,0.35003,4.910302,0.674357,0.755641,0.344837
1702331779320312,-7.682044,0.36103,5.52302,0.642757,0.790341,0.414837
1702331779328125,-7.183044,0.31803,4.872302,0.605857,0.810241,0.466837
1702331779335937,-6.711044,0.22203,4.543302,0.570557,0.807141,0.506037
1702331779343750,-6.375044,0.14803,4.338302,0.513657,0.769641,0.516637
1702331779351562,-6.174044,0.9003,4.331302,0.453057,0.700841,0.493137
1702331779359375,-5.997044,0.12903,4.414302,0.407357,0.611041,0.452637
1702331779367187,-6.6044,0.24003,4.550302,0.376757,0.533641,0.385837
1702331779375000,-6.401044,0.36503,4.491302,0.363857,0.445141,0.304137
1702331779382812,-6.916044,0.50203,4.385302,0.358657,0.373641,0.214537
1702331779390625,-7.285044,0.67603,4.480302,0.372557,0.342441,0.143437
1702331779398437,-7.460044,0.82103,4.595302,0.417357,0.350741,0.105637
1702331779406250,-7.498044,0.92803,4.615302,0.469357,0.390441,0.114337
1702331779414062,-7.432044,1.1303,4.575302,0.506957,0.464241,0.139237
1702331779421875,-7.302044,1.7803,4.527302,0.546857,0.521641,0.196437
1702331779429687,-7.246044,1.22803,4.435302,0.576957,0.569641,0.279737
1702331779437500,-7.322044,1.38003,4.584302,0.567657,0.603041,0.369937
1702331779445312,-7.469044,1.36903,4.884302,0.552057,0.623541,0.426837
1702331779453125,-7.593044,1.25803,4.967302,0.562657,0.636941,0.455637
1702331779460937,-7.576044,1.6203,4.906302,0.592657,0.671341,0.456637
1702331779468750,-7.473044,0.76303,4.958302,0.607657,0.716141,0.411137
1702331779476562,-7.279044,0.44803,5.108302,0.613857,0.753841,0.357337
1702331779484375,-7.49044,0.9403,5.270302,0.629257,0.748641,0.291037
1702331779492187,-6.894044,0.31097,5.256302,0.630557,0.695241,0.224937
1702331779500000,-6.772044,0.70397,5.272302,0.611957,0.626841,0.174237
1702331779507812,-6.693044,-1.8797,5.306302,0.612757,0.598641,0.148237
1702331779515625,-6.625044,-1.41797,5.204302,0.596857,0.590941,0.139037
1702331779523437,-6.547044,-1.67797,5.204302,0.549757,0.587741,0.138037
1702331779531250,-6.550044,-1.80497,5.386302,0.494557,0.539041,0.143737
1702331779539062,-6.644044,-1.65697,5.641302,0.428657,0.487741,0.120837
1702331779546875,-6.934044,-1.35497,5.891302,0.380657,0.426041,0.82937
1702331779554687,-7.366044,-1.4897,6.135302,0.332757,0.363041,0.17837
1702331779562500,-7.789044,0.73597,6.281302,0.307357,0.323841,0.47963
1702331779570312,-8.54044,0.49497,6.304302,0.288457,0.307441,0.123563
1702331779578125,-8.178044,0.29097,6.272302,0.280657,0.343541,0.186863
1702331779585937,-8.155044,0.17197,6.225302,0.250157,0.391041,0.211063
1702331779593750,-7.940044,0.15297,6.155302,0.209357,0.431541,0.205963
1702331779601562,-7.583044,0.26097,5.908302,0.172757,0.485141,0.168663
1702331779609375,-7.157044,0.46097,5.716302,0.112457,0.528341,0.116663
1702331779617187,-6.811044,0.64297,5.777302,0.61657,0.547141,0.69463
1702331779625000,-6.534044,0.82497,5.909302,0.37157,0.529041,0.31863
1702331779632812,-6.403044,0.96897,5.939302,0.14657,0.494341,0.19963
1702331779640625,-6.412044,0.96597,5.862302,0.8257,0.447541,0.18063
1702331779648437,-6.491044,0.81597,5.858302,0.11943,0.393741,0.41763
1702331779656250,-6.627044,0.57897,5.995302,0.12943,0.347741,0.80163
1702331779664062,-6.787044,0.25997,5.912302,0.10943,0.293541,0.120163
1702331779671875,-6.916044,0.4603,5.779302,0.30043,0.261641,0.130863
1702331779679687,-6.939044,0.26103,5.809302,0.39843,0.239341,0.109663
1702331779687500,-6.892044,0.41803,5.714302,0.37543,0.226341,0.70863
1702331779695312,-6.832044,0.47403,5.653302,0.34243,0.219441,0.15763
1702331779703125,-6.765044,0.46003,5.676302,0.8443,0.207341,0.35537
1702331779710937,-6.689044,0.39503,5.721302,0.12557,0.200941,0.80537
1702331779718750,-6.657044,0.32103,5.685302,0.43357,0.199041,0.102937
1702331779726562,-6.604044,0.25603,5.714302,0.75757,0.175241,0.106137
1702331779734375,-6.563044,0.20703,5.881302,0.113957,0.143741,0.89437
1702331779742187,-6.631044,0.15703,5.842302,0.156857,0.112941,0.59937
1702331779750000,-6.777044,0.10603,5.842302,0.199457,0.75941,0.21237
1702331779757812,-6.864044,0.3203,6.88302,0.217157,0.39741,0.15863
1702331779765625,-6.937044,0.3797,6.272302,0.223157,0.27441,0.18863
1702331779773437,-7.87044,0.5997,6.284302,0.212157,0.11641,0.12363
1702331779781250,-7.201044,0.10697,6.189302,0.183357,0.25059,0.15537
1702331779789062,-7.266044,0.14397,6.155302,0.135357,0.41759,0.48637
1702331779796875,-7.298044,0.23397,6.223302,0.111057,0.35359,0.84437
1702331779804687,-7.296044,0.38497,6.286302,0.69457,0.40859,0.112637
1702331779812500,-7.293044,0.54697,6.360302,0.23857,0.42059,0.126037
1702331779820312,-7.249044,0.68097,6.383302,0.8943,0.48659,0.116737
1702331779828125,-7.266044,0.71097,6.261302,0.49343,0.71559,0.91537
1702331779835937,-7.279044,0.71997,6.288302,0.51943,0.92959,0.59437
1702331779843750,-7.330044,0.62497,6.481302,0.64843,0.106459,0.20537
1702331779851562,-7.462044,0.55497,6.497302,0.66243,0.122459,0.16163
1702331779859375,-7.542044,0.44497,6.489302,0.70743,0.130959,0.32163
1702331779867187,-7.567044,0.28697,6.678302,0.76743,0.106159,0.33963
1702331779875000,-7.592044,0.12697,6.835302,0.97343,0.102759,0.20863
1702331779882812,-7.544044,0.3497,6.930302,0.118043,0.93859,0.6637
1702331779890625,-7.447044,0.603,7.42302,0.116643,0.73359,0.38637
1702331779898437,-7.419044,0.7203,6.937302,0.125243,0.73759,0.66337
1702331779906250,-7.341044,0.8203,6.966302,0.125643,0.59459,0.82437
1702331779914062,-7.242044,0.5103,7.106302,0.143543,0.53359,0.103737
1702331779921875,-7.112044,0.6397,6.984302,0.168743,0.82459,0.105837
1702331779929687,-7.44044,0.19997,6.858302,0.171843,0.90159,0.110637
1702331779937500,-6.977044,0.34897,6.774302,0.203443,0.134259,0.109637
1702331779945312,-6.925044,0.50697,6.815302,0.217143,0.146659,0.100037
1702331779953125,-6.899044,0.55897,6.614302,0.228143,0.197959,0.73237
1702331779960937,-6.856044,0.57897,6.562302,0.227243,0.212059,0.42437
1702331779968750,-6.972044,0.52497,6.657302,0.225643,0.252259,0.12237
1702331779976562,-7.79044,0.42497,6.693302,0.242843,0.309659,0.8163
1702331779984375,-7.100044,0.35597,6.720302,0.225643,0.348759,0.17863
1702331779992187,-7.262044,0.22097,6.738302,0.217843,0.368359,0.17763
1702331780000000,-7.470044,0.14897,6.549302,0.201543,0.406859,0.2963
1702331780007812,-7.587044,0.13197,6.554302,0.192643,0.429159,0.26037
1702331780015625,-7.625044,0.13597,6.664302,0.196443,0.441059,0.44037
1702331780023437,-7.731044,0.11797,6.730302,0.190843,0.480259,0.65337
1702331780031250,-7.751044,0.12897,6.709302,0.188343,0.529359,0.81837
1702331780039062,-7.736044,0.9597,6.799302,0.173243,0.541059,0.99537
1702331780046875,-7.823044,0.1003,6.723302,0.173243,0.563159,0.105937
1702331780054687,-7.962044,0.13303,6.743302,0.156443,0.588559,0.107737
1702331780062500,-8.49044,0.22603,6.721302,0.151443,0.610959,0.96437
1702331780070312,-8.122044,0.27803,6.773302,0.134543,0.610159,0.94837
1702331780078125,-8.216044,0.36503,6.635302,0.122243,0.672459,0.87037
1702331780085937,-8.146044,0.36903,6.640302,0.106443,0.687559,0.72537
1702331780093750,-8.281044,0.39303,6.581302,0.90443,0.693859,0.61037
1702331780101562,-8.302044,0.38203,6.584302,0.84343,0.714159,0.54837
1702331780109375,-8.404044,0.37103,6.685302,0.79143,0.722659,0.46337
1702331780117187,-8.467044,0.32903,6.538302,0.71543,0.737959,0.44937
1702331780125000,-8.516044,0.30603,6.610302,0.80943,0.750759,0.45037
1702331780132812,-8.675044,0.27103,6.583302,0.80943,0.781359,0.45137
1702331780140625,-8.776044,0.25403,6.572302,0.87943,0.779359,0.56837
1702331780148437,-8.891044,0.26503,6.741302,0.84943,0.779159,0.68137
1702331780156250,-9.37044,0.31903,6.831302,0.99043,0.789359,0.85837
1702331780164062,-9.144044,0.39803,6.917302,0.101143,0.789859,0.100537
1702331780171875,-9.253044,0.45903,7.14302,0.102743,0.786559,0.103737
1702331780179687,-9.426044,0.48503,7.63302,0.102843,0.813859,0.108637
1702331780187500,-9.696044,0.45503,7.151302,0.98043,0.814159,0.98937
1702331780195312,-10.118044,0.28203,7.20302,0.91943,0.852059,0.92737
1702331780203125,-10.281044,0.23403,6.937302,0.79143,0.820459,0.97137
1702331780210937,-10.251044,0.31303,7.212302,0.71343,0.780259,0.100137
1702331780218750,-10.435044,0.42603,7.57302,0.82443,0.792159,0.94037
1702331780226562,-9.666044,0.54503,7.57302,0.112843,0.711859,0.74337
1702331780234375,-9.558044,0.50803,7.68302,0.139443,0.767859,0.50937
1702331780242187,-10.500044,0.37403,6.34302,0.172143,0.972159,0.54337
1702331780250000,-10.631044,0.31603,5.728302,0.175143,0.939159,0.62137
1702331780257812,-10.513044,0.34003,5.478302,0.156643,0.921359,0.78037
1702331780265625,-10.30044,0.38603,4.915302,0.137843,0.902159,0.82637
1702331780273437,-9.572044,0.45903,4.683302,0.142243,0.899859,0.76037
1702331780281250,-9.342044,0.40703,4.399302,0.151643,0.963159,0.63537
1702331780289062,-9.234044,0.33703,3.998302,0.152143,0.969259,0.70337
1702331780296875,-9.182044,0.33703,3.683302,0.161443,0.939059,0.84537
1702331780304687,-8.935044,0.35703,3.615302,0.157143,0.890259,0.110137
1702331780312500,-8.664044,0.47703,3.635302,0.143043,0.865259,0.127437
1702331780320312,-8.491044,0.58503,3.494302,0.132643,0.921159,0.131037
1702331780328125,-8.338044,0.60503,3.325302,0.118443,0.943859,0.127737
1702331780335937,-8.282044,0.56603,3.289302,0.117143,0.970559,0.124837
1702331780343750,-8.370044,0.47003,3.286302,0.123443,0.999559,0.123337
1702331780351562,-8.506044,0.39303,3.221302,0.109543,1.12959,0.121737
1702331780359375,-8.635044,0.30103,3.136302,0.84343,0.990659,0.118237
1702331780367187,-8.733044,0.27203,3.154302,0.76243,0.977359,0.113137
1702331780375000,-8.874044,0.22803,3.214302,0.75743,0.971659,0.101537
1702331780382812,-9.51044,0.18403,3.228302,0.72343,0.982859,0.88637
1702331780390625,-9.242044,0.18403,3.295302,0.81843,0.977459,0.79237
1702331780398437,-9.418044,0.22003,3.417302,0.97343,0.972559,0.69737
1702331780406250,-9.621044,0.25903,3.476302,0.95743,0.958059,0.71237
1702331780414062,-9.792044,0.30003,3.484302,0.99843,0.932359,0.67637
1702331780421875,-9.928044,0.32803,3.485302,0.99743,0.888459,0.73837
1702331780429687,-10.44,0.35203,3.498302,0.102943,0.860859,0.78537
1702331780437500,-10.14044,0.36703,3.498302,0.110543,0.818559,0.76837
1702331780445312,-10.7044,0.39203,3.554302,0.124143,0.793459,0.71737
1702331780453125,-9.999044,0.40903,3.554302,0.138043,0.772159,0.65337
1702331780460937,-9.977044,0.43803,3.446302,0.147243,0.765559,0.57337
1702331780468750,-9.969044,0.50203,3.320302,0.147143,0.757859,0.47637
1702331780476562,-9.950044,0.58703,3.156302,0.159443,0.751859,0.33337
1702331780484375,-9.949044,0.68703,3.23302,0.165343,0.740159,0.21937
1702331780492187,-9.951044,0.78503,2.922302,0.170943,0.740059,0.7163
1702331780500000,-9.939044,0.87803,2.866302,0.172543,0.728959,0.7063
1702331780507812,-9.890044,0.95703,2.800302,0.170543,0.713359,0.10663
1702331780515625,-9.816044,1.103,2.708302,0.170343,0.699759,0.6063
1702331780523437,-9.729044,1.503,2.609302,0.150243,0.679259,0.3063
1702331780531250,-9.653044,1.1803,2.510302,0.136043,0.663959,0.9537
1702331780539062,-9.603044,1.903,2.415302,0.123243,0.656359,0.18737
1702331780546875,-9.575044,0.98803,2.365302,0.120143,0.644859,0.20237
1702331780554687,-9.564044,0.95903,2.359302,0.122043,0.640759,0.25237
1702331780562500,-9.561044,0.94103,2.311302,0.120443,0.639159,0.26837
1702331780570312,-9.537044,0.92203,2.251302,0.122343,0.630359,0.27037
1702331780578125,-9.530044,0.91803,2.181302,0.121743,0.614559,0.20237
1702331780585937,-9.518044,0.93603,2.100302,0.119943,0.607559,0.18437
1702331780593750,-9.488044,0.95203,1.992302,0.124943,0.610659,0.9137
1702331780601562,-9.467044,0.95203,1.899302,0.141943,0.608559,0.2737
1702331780609375,-9.461044,0.97003,1.893302,0.146543,0.610859,0.9963
1702331780617187,-9.497044,0.97703,1.874302,0.147643,0.605159,0.16663
1702331780625000,-9.569044,0.99403,1.857302,0.146143,0.604059,0.22963
1702331780632812,-9.673044,0.98803,1.787302,0.152443,0.599259,0.24563
1702331780640625,-9.812044,0.97703,1.726302,0.128443,0.584459,0.39463
1702331780648437,-9.911044,1.603,1.694302,0.118643,0.564059,0.38363
1702331780656250,-9.981044,1.2003,1.654302,0.110943,0.532559,0.41563
1702331780664062,-10.40044,1.5203,1.665302,0.98243,0.506359,0.38663
1702331780671875,-10.65044,1.5403,1.724302,0.96543,0.479759,0.32563
1702331780679687,-10.112044,1.3503,1.746302,0.93343,0.461359,0.24663
1702331780687500,-10.154044,1.1103,1.713302,0.76143,0.440659,0.23263
1702331780695312,-10.196044,0.97003,1.560302,0.49443,0.422959,0.23663
1702331780703125,-10.207044,0.91503,1.440302,0.40143,0.419159,0.12663
1702331780710937,-10.141044,0.88503,1.399302,0.44843,0.409259,0.11063
1702331780718750,-10.26044,0.89203,1.395302,0.40043,0.401159,0.9563
1702331780726562,-9.894044,0.91403,1.411302,0.36743,0.386359,0.14563
1702331780734375,-9.793044,0.91903,1.375302,0.27343,0.381459,0.13063
1702331780742187,-9.730044,0.89303,1.321302,0.24143,0.393559,0.25763
1702331780750000,-9.711044,0.83103,1.235302,0.25743,0.404759,0.24163
1702331780757812,-9.726044,0.77203,1.84302,0.17943,0.407959,0.25863
1702331780765625,-9.761044,0.75703,0.969302,0.10043,0.397959,0.21163
1702331780773437,-9.831044,0.76203,1.17302,0.10243,0.401459,0.14663
1702331780781250,-9.917044,0.79703,1.91302,0.9043,0.420759,0.1663
1702331780789062,-10.30044,0.86303,1.152302,0.25157,0.427559,0.9337
1702331780796875,-10.176044,0.94003,1.107302,0.48457,0.416359,0.22037
1702331780804687,-10.300044,1.903,1.55302,0.78257,0.372159,0.31037
1702331780812500,-10.377044,1.2803,1.10302,0.103557,0.335959,0.35337
1702331780820312,-10.446044,1.403,0.974302,0.122657,0.304959,0.33237
1702331780828125,-10.449044,0.92103,0.958302,0.148357,0.275759,0.34037
1702331780835937,-10.366044,0.77703,0.929302,0.157557,0.242759,0.30737
1702331780843750,-10.258044,0.62003,0.875302,0.157757,0.205359,0.28937
1702331780851562,-10.139044,0.49003,0.877302,0.177157,0.169159,0.17037
1702331780859375,-10.57044,0.40003,0.874302,0.166657,0.141359,0.2437
1702331780867187,-9.943044,0.32003,0.771302,0.152957,0.139959,0.19963
1702331780875000,-9.819044,0.26503,0.602302,0.139057,0.126959,0.27963
1702331780882812,-9.726044,0.23903,0.491302,0.116057,0.105359,0.42463
1702331780890625,-9.655044,0.26703,0.417302,0.83357,0.105059,0.47063
1702331780898437,-9.608044,0.29703,0.399302,0.64657,0.108759,0.61263
1702331780906250,-9.574044,0.31003,0.413302,0.57157,0.124759,0.74063
1702331780914062,-9.583044,0.33303,0.385302,0.37257,0.134859,0.80563
1702331780921875,-9.672044,0.39203,0.334302,0.37057,0.133759,0.80363
1702331780929687,-9.797044,0.46003,0.230302,0.34057,0.122859,0.93263
1702331780937500,-9.874044,0.49003,0.158302,0.32757,0.92559,0.106263
1702331780945312,-9.888044,0.51403,0.149302,0.16057,0.85559,0.120763
1702331780953125,-9.911044,0.52103,0.199302,0.6457,0.87659,0.120463
1702331780960937,-9.932044,0.57003,0.366302,0.12243,0.71459,0.123563
1702331780968750,-9.944044,0.64903,0.597302,0.18043,0.84759,0.126963
1702331780976562,-9.970044,0.76403,0.645302,0.21943,0.92359,0.110463
1702331780984375,-9.944044,0.82603,0.471302,0.17143,0.96359,0.104263
1702331780992187,-9.846044,0.75803,0.388302,0.33143,0.50659,0.76863
1702331781000000,-9.758044,0.68603,0.561302,0.59943,0.3059,0.52663
1702331781007812,-9.674044,0.64903,0.757302,0.77543,0.16741,0.28363
1702331781015625,-9.670044,0.69303,0.947302,0.79543,0.14759,0.26463
1702331781023437,-9.699044,0.79303,1.53302,0.78243,0.62259,0.29363
1702331781031250,-9.734044,0.90903,1.14302,0.65443,0.81859,0.43863
1702331781039062,-9.793044,1.7203,1.44302,0.66843,0.69059,0.53563
1702331781046875,-9.837044,1.18203,1.161302,0.63043,0.48959,0.68463
1702331781054687,-9.871044,1.18903,1.224302,0.47043,0.36759,0.70563
1702331781062500,-9.879044,1.11303,1.237302,0.22443,0.3359,0.54663
1702331781070312,-9.812044,0.98903,1.314302,0.6343,0.46241,0.45663
1702331781078125,-9.704044,0.84703,1.388302,0.26057,0.81541,0.25063
1702331781085937,-9.593044,0.64803,1.381302,0.22657,0.82141,0.4163
1702331781093750,-9.590044,0.47703,1.286302,0.1957,0.56341,0.10737
1702331781101562,-9.699044,0.38603,1.144302,0.24643,0.14841,0.12637
1702331781109375,-9.861044,0.37103,1.106302,0.59843,0.25759,0.8837
1702331781117187,-9.999044,0.41703,1.190302,0.70543,0.38559,0.3863
1702331781125000,-10.81044,0.53403,1.318302,0.52343,0.30859,0.22263
1702331781132812,-10.72044,0.64903,1.383302,0.14943,0.12559,0.28963
1702331781140625,-9.999044,0.70103,1.298302,0.39957,0.6241,0.39263
1702331781148437,-9.875044,0.68103,1.113302,0.77557,0.7841,0.38063
1702331781156250,-9.738044,0.60203,0.958302,0.82457,0.10441,0.30263
1702331781164062,-9.618044,0.50903,0.827302,0.52357,0.8641,0.20163
1702331781171875,-9.522044,0.41803,0.762302,0.17257,0.9541,0.163
1702331781179687,-9.469044,0.33103,0.775302,0.15443,0.10441,0.3137
1702331781187500,-9.434044,0.27503,0.822302,0.43643,0.2059,0.8337
1702331781195312,-9.470044,0.26003,0.881302,0.67443,0.9059,0.10337
1702331781203125,-9.529044,0.28103,0.926302,0.75743,0.29359,0.12437
1702331781210937,-9.597044,0.32603,0.940302,0.82943,0.37259,0.11763
1702331781218750,-9.684044,0.39603,0.915302,0.75243,0.55259,0.13363
1702331781226562,-9.750044,0.48203,0.852302,0.74943,0.53359,0.19863
1702331781234375,-9.799044,0.58303,0.807302,0.77643,0.41459,0.31363
1702331781242187,-9.798044,0.65303,0.784302,0.93443,0.39259,0.39063
1702331781250000,-9.735044,0.70303,0.798302,0.93243,0.35459,0.42463
1702331781257812,-9.680044,0.76003,0.827302,0.90043,0.30759,0.45663
1702331781265625,-9.640044,0.77903,0.812302,0.90443,0.34459,0.37463
1702331781273437,-9.598044,0.80103,0.764302,0.76243,0.27759,0.36063
1702331781281250,-9.582044,0.77803,0.717302,0.67043,0.34459,0.28063
1702331781289062,-9.593044,0.76303,0.665302,0.65443,0.37359,0.26563
1702331781296875,-9.599044,0.75403,0.674302,0.67343,0.45759,0.16663
1702331781304687,-9.617044,0.73203,0.726302,0.62843,0.57159,0.11763
1702331781312500,-9.655044,0.72603,0.800302,0.56343,0.55059,0.10363
1702331781320312,-9.710044,0.70803,0.829302,0.45243,0.57459,0.4263
1702331781328125,-9.766044,0.68403,0.834302,0.32943,0.44959,0.537
1702331781335937,-9.825044,0.65603,0.807302,0.20643,0.35659,0.5237
1702331781343750,-9.863044,0.61403,0.784302,0.20843,0.27959,0.10237
1702331781351562,-9.881044,0.54903,0.746302,0.24943,0.26359,0.9837
1702331781359375,-9.881044,0.49903,0.721302,0.34743,0.15959,0.11737
1702331781367187,-9.880044,0.46003,0.755302,0.42243,0.18159,0.16437
1702331781375000,-9.875044,0.41703,0.816302,0.53643,0.24059,0.15237
1702331781382812,-9.884044,0.39703,0.877302,0.67743,0.33659,0.17037
1702331781390625,-9.906044,0.39803,0.847302,0.67843,0.48659,0.10737
1702331781398437,-9.942044,0.39203,0.748302,0.75443,0.42159,0.2737
1702331781406250,-9.975044,0.38603,0.685302,0.92343,0.46459,0.5263
1702331781414062,-9.989044,0.38303,0.685302,0.97143,0.45859,0.17963
1702331781421875,-9.985044,0.43403,0.701302,0.106043,0.25559,0.26263
1702331781429687,-9.955044,0.49103,0.679302,0.116943,0.31359,0.45263
1702331781437500,-9.906044,0.53503,0.683302,0.119743,0.23059,0.56563
1702331781445312,-9.864044,0.56703,0.721302,0.127443,0.29559,0.64563
1702331781453125,-9.835044,0.58903,0.706302,0.141543,0.42559,0.67563
1702331781460937,-9.859044,0.61003,0.626302,0.142643,0.55659,0.64663
1702331781468750,-9.920044,0.57803,0.586302,0.150643,0.41459,0.62863
1702331781476562,-9.996044,0.55003,0.539302,0.154043,0.30459,0.53063
1702331781484375,-10.54044,0.50803,0.487302,0.160443,0.9359,0.45063
1702331781492187,-10.58044,0.50603,0.440302,0.164943,0.20041,0.45163
1702331781500000,-9.991044,0.53003,0.410302,0.164643,0.46541,0.50363
1702331781507812,-9.877044,0.56603,0.466302,0.158943,0.82241,0.63863
1702331781515625,-9.774044,0.61503,0.431302,0.146143,0.81241,0.89663
1702331781523437,-9.701044,0.69703,0.374302,0.131343,0.75441,0.109363
1702331781531250,-9.637044,0.78903,0.298302,0.118843,0.48841,0.123763
1702331781539062,-9.657044,0.89503,0.181302,0.103443,0.19941,0.138063
1702331781546875,-9.771044,1.603,0.147302,0.85843,0.17641,0.135263
1702331781554687,-9.963044,1.5303,0.154302,0.70443,0.10841,0.130463
1702331781562500,-10.208044,1.3603,0.194302,0.50643,0.28141,0.109663
1702331781570312,-10.416044,0.94903,0.194302,0.28943,0.64741,0.79563
1702331781578125,-10.560044,0.82203,0.131302,0.4143,0.131141,0.55963
1702331781585937,-10.604044,0.64403,0.122302,0.12057,0.216041,0.31163
1702331781593750,-10.591044,0.46603,0.187302,0.7057,0.286841,0.18463
1702331781601562,-10.550044,0.29003,0.262302,0.3943,0.347041,0.4063
1702331781609375,-10.484044,0.12703,0.336302,0.22143,0.387041,0.5963
1702331781617187,-10.409044,0.3903,0.440302,0.36143,0.404141,0.20263
1702331781625000,-10.341044,0.4903,0.539302,0.51543,0.414341,0.25063
1702331781632812,-10.322044,0.12703,0.543302,0.60543,0.418141,0.34863
1702331781640625,-10.342044,0.26103,0.541302,0.56943,0.430141,0.43163
1702331781648437,-10.393044,0.45103,0.602302,0.65243,0.435141,0.42763
1702331781656250,-10.474044,0.60803,0.658302,0.57443,0.460041,0.33363
1702331781664062,-10.528044,0.77303,0.728302,0.38143,0.504941,0.30863
1702331781671875,-10.538044,0.87503,0.812302,0.22143,0.563541,0.29863
1702331781679687,-10.526044,0.91903,0.951302,0.1557,0.618941,0.25563
1702331781687500,-10.438044,0.89403,1.46302,0.17257,0.664641,0.14763
1702331781695312,-10.313044,0.83903,1.5302,0.34957,0.703241,0.8963
1702331781703125,-10.207044,0.80103,0.888302,0.56857,0.750241,0.1363
1702331781710937,-10.92044,0.78203,0.778302,0.68357,0.794941,0.3563
1702331781718750,-10.2044,0.76503,0.658302,0.81057,0.815641,0.11863
1702331781726562,-9.987044,0.79103,0.523302,0.90657,0.826641,0.24863
1702331781734375,-9.909044,0.85903,0.480302,0.89757,0.832441,0.39663
1702331781742187,-9.855044,0.88903,0.627302,0.89657,0.844541,0.47563
1702331781750000,-9.910044,0.90103,0.760302,0.86557,0.844541,0.49163
1702331781757812,-10.88044,0.83303,0.787302,0.92957,0.850741,0.33463
1702331781765625,-10.354044,0.73703,0.814302,0.83157,0.878441,0.10863
1702331781773437,-10.558044,0.68503,0.879302,0.62757,0.936141,0.13137
1702331781781250,-10.676044,0.63803,0.944302,0.48757,0.983141,0.16337
1702331781789062,-10.695044,0.57203,0.969302,0.55857,-1.45841,0.4337
1702331781796875,-10.573044,0.46603,0.969302,0.70257,-1.90541,0.12063
1702331781804687,-10.423044,0.37203,0.640302,0.56457,-1.77641,0.28063
1702331781812500,-10.236044,0.37103,0.210302,0.26557,-1.98341,0.26063
1702331781820312,-10.173044,0.37503,0.415302,0.11257,-1.126841,0.23063
1702331781828125,-10.461044,0.39303,0.809302,0.6357,-1.122041,0.14863
1702331781835937,-10.811044,0.50503,0.897302,0.33057,-1.133741,0.10463
1702331781843750,-10.978044,0.65203,0.901302,0.56457,-1.171641,0.11537
1702331781851562,-11.82044,0.76503,1.160302,0.74557,-1.244441,0.5737
1702331781859375,-11.212044,0.83103,1.561302,0.85557,-1.291141,0.5437
1702331781867187,-11.336044,0.82203,1.915302,0.112457,-1.314041,0.5037
1702331781875000,-11.436044,0.75503,2.188302,0.146757,-1.343241,0.15737
1702331781882812,-11.527044,0.69203,2.307302,0.193557,-1.378441,0.24837
1702331781890625,-11.698044,0.67903,2.345302,0.236257,-1.439441,0.36737
1702331781898437,-11.883044,0.74603,2.323302,0.253357,-1.472541,0.55637
1702331781906250,-11.984044,0.75203,2.311302,0.277357,-1.549741,0.66037
1702331781914062,-11.919044,0.77403,2.793302,0.271857,-1.661941,0.76337
1702331781921875,-11.692044,0.79803,3.627302,0.262857,-1.737341,0.84037
1702331781929687,-11.517044,0.77103,4.138302,0.265657,-1.748641,0.96837
1702331781937500,-11.295044,0.68703,4.219302,0.266757,-1.721541,0.95637
1702331781945312,-10.958044,0.50903,4.338302,0.268457,-1.694241,0.92437
1702331781953125,-10.649044,0.27603,4.397302,0.275457,-1.621141,0.91537
1702331781960937,-10.369044,0.8103,4.394302,0.280257,-1.543241,0.70937
1702331781968750,-10.161044,0.203,4.514302,0.269057,-1.446541,0.52337
1702331781976562,-10.150044,0.1303,4.644302,0.243857,-1.329641,0.13237
1702331781984375,-10.74044,0.3703,4.617302,0.209657,-1.186241,0.35563
1702331781992187,-9.800044,0.8303,4.671302,0.165557,-1.103541,0.64963
1702331782000000,-9.644044,0.15503,4.917302,0.134657,-1.40641,0.88663
1702331782007812,-9.685044,0.22603,5.101302,0.107157,0.941941,0.92363
1702331782015625,-9.828044,0.29703,5.320302,0.90857,0.879541,0.81963
1702331782023437,-9.969044,0.37003,5.570302,0.87357,0.861541,0.72063
1702331782031250,-10.90044,0.38603,5.836302,0.85457,0.843841,0.59063
1702331782039062,-10.12044,0.42203,6.70302,0.93257,0.847741,0.44763
1702331782046875,-9.786044,0.45403,6.223302,0.88457,0.840841,0.46263
1702331782054687,-9.621044,0.43603,6.286302,0.96057,0.791441,0.53963
1702331782062500,-9.580044,0.38103,6.295302,0.91557,0.741741,0.65063
1702331782070312,-9.647044,0.34103,6.275302,0.83157,0.677341,0.67663
1702331782078125,-9.764044,0.38503,6.180302,0.65657,0.634441,0.70263
1702331782085937,-9.845044,0.47203,6.196302,0.63357,0.617041,0.61763
1702331782093750,-9.802044,0.48603,6.367302,0.59057,0.611841,0.60463
1702331782101562,-9.683044,0.49003,6.489302,0.56957,0.615741,0.48863
1702331782109375,-9.548044,0.46103,6.516302,0.61357,0.604041,0.45563
1702331782117187,-9.412044,0.41503,6.514302,0.66457,0.597941,0.56963
1702331782125000,-9.256044,0.37303,6.478302,0.66657,0.596541,0.61863
1702331782132812,-9.73044,0.32403,6.520302,0.87557,0.601941,0.76863
1702331782140625,-8.906044,0.27403,6.527302,0.90557,0.601141,0.84763
1702331782148437,-8.775044,0.23203,6.547302,0.85757,0.597541,0.86163
1702331782156250,-8.685044,0.18403,6.491302,0.79557,0.578941,0.100363
1702331782164062,-8.612044,0.14603,6.381302,0.65757,0.568341,0.108463
1702331782171875,-8.530044,0.11603,6.326302,0.47057,0.536341,0.109763
1702331782179687,-8.466044,0.11203,6.300302,0.46657,0.510441,0.120563
1702331782187500,-8.390044,0.17103,6.153302,0.34257,0.480941,0.136363
1702331782195312,-8.265044,0.22203,6.22302,0.15857,0.447841,0.147563
1702331782203125,-8.128044,0.24903,5.933302,0.4857,0.414241,0.171263
1702331782210937,-8.28044,0.29203,5.800302,0.7443,0.389941,0.187163
1702331782218750,-7.906044,0.29003,5.707302,0.7243,0.363641,0.201463
1702331782226562,-7.803044,0.27403,5.640302,0.12143,0.346741,0.210863
1702331782234375,-7.719044,0.24203,5.536302,0.15443,0.321841,0.212163
1702331782242187,-7.666044,0.18303,5.466302,0.12343,0.302241,0.216963
1702331782250000,-7.652044,0.15003,5.432302,0.18243,0.285241,0.221863
1702331782257812,-7.595044,0.11403,5.324302,0.32243,0.264541,0.223263
1702331782265625,-7.500044,0.4803,5.196302,0.40743,0.253341,0.221163
1702331782273437,-7.414044,0.1097,5.187302,0.58043,0.225841,0.219263
1702331782281250,-7.319044,0.997,5.200302,0.72443,0.202641,0.218863
1702331782289062,-7.245044,0.2697,5.137302,0.89843,0.162041,0.221663
1702331782296875,-7.180044,0.3897,5.38302,0.112143,0.114341,0.222563
1702331782304687,-7.136044,0.6197,4.957302,0.128943,0.85641,0.238463
1702331782312500,-7.65044,0.6597,4.854302,0.145343,0.32141,0.242563
1702331782320312,-7.48044,0.7697,4.766302,0.160843,0.3359,0.250263
1702331782328125,-7.41044,0.9397,4.664302,0.176143,0.36359,0.255063
1702331782335937,-7.5044,0.12597,4.601302,0.192243,0.51859,0.256163
1702331782343750,-6.918044,0.12097,4.583302,0.208443,0.74359,0.255563
1702331782351562,-6.879044,0.12997,4.516302,0.226943,0.89459,0.255463
1702331782359375,-6.854044,0.15697,4.461302,0.250743,0.107459,0.248663
1702331782367187,-6.797044,0.18897,4.401302,0.271443,0.142359,0.254463
1702331782375000,-6.755044,0.19897,4.342302,0.295343,0.167759,0.253863
1702331782382812,-6.723044,0.20097,4.319302,0.311943,0.175859,0.260463
1702331782390625,-6.688044,0.24597,4.344302,0.338443,0.190359,0.269763
1702331782398437,-6.656044,0.29097,4.311302,0.362243,0.210759,0.275663
1702331782406250,-6.603044,0.35197,4.306302,0.385643,0.239759,0.280163
1702331782414062,-6.544044,0.41097,4.349302,0.406343,0.258259,0.279663
1702331782421875,-6.558044,0.38197,4.387302,0.428543,0.286259,0.280763
1702331782429687,-6.594044,0.38097,4.394302,0.449243,0.307559,0.275463
1702331782437500,-6.595044,0.44897,4.364302,0.466143,0.348459,0.273763
1702331782445312,-6.607044,0.42297,4.288302,0.490443,0.390459,0.271363
1702331782453125,-6.670044,0.41597,4.293302,0.516243,0.414459,0.264163
1702331782460937,-6.848044,0.39197,4.355302,0.538143,0.455459,0.252563
1702331782468750,-7.50044,0.36497,4.358302,0.539943,0.476759,0.247563
1702331782476562,-7.204044,0.36297,4.344302,0.554443,0.510359,0.251863
1702331782484375,-7.337044,0.31497,4.448302,0.549943,0.504659,0.256563
1702331782492187,-7.460044,0.25097,4.543302,0.535643,0.504659,0.266463
1702331782500000,-7.598044,0.14197,4.574302,0.524243,0.494659,0.277963
1702331782507812,-7.691044,0.9197,4.597302,0.508043,0.450459,0.291463
1702331782515625,-7.686044,0.14097,4.559302,0.506243,0.404759,0.286963
1702331782523437,-7.492044,0.17897,4.462302,0.493243,0.370259,0.295463
1702331782531250,-7.294044,0.21097,4.317302,0.482143,0.348159,0.282963
1702331782539062,-7.176044,0.23897,4.155302,0.492043,0.342059,0.266663
1702331782546875,-7.106044,0.31397,4.85302,0.490743,0.347259,0.256863
1702331782554687,-7.25044,0.43697,4.22302,0.514343,0.342259,0.253363
1702331782562500,-6.871044,0.65697,3.932302,0.511143,0.347159,0.258263
1702331782570312,-6.681044,0.90797,3.871302,0.534443,0.345559,0.266063
1702331782578125,-6.499044,-1.14797,3.810302,0.557543,0.355459,0.289963
1702331782585937,-6.431044,-1.34897,3.754302,0.579143,0.368859,0.315463
1702331782593750,-6.413044,-1.50197,3.763302,0.625543,0.372059,0.343963
1702331782601562,-6.494044,-1.63097,3.871302,0.674543,0.369459,0.385663
1702331782609375,-6.665044,-1.75297,3.965302,0.727543,0.378259,0.412363
1702331782617187,-6.838044,-1.79397,4.118302,0.791243,0.381759,0.447063
1702331782625000,-7.16044,-1.73597,4.238302,0.840843,0.359459,0.474063
1702331782632812,-7.247044,-1.65897,4.182302,0.877543,0.346859,0.494963
1702331782640625,-7.475044,-1.55597,4.157302,0.922843,0.347759,0.518463
1702331782648437,-7.695044,-1.46897,4.225302,0.975643,0.347759,0.542163
1702331782656250,-7.846044,-1.44797,4.249302,1.10543,0.332959,0.590363
1702331782664062,-7.843044,-1.49497,4.197302,1.47243,0.330759,0.627163
1702331782671875,-7.742044,-1.58497,4.76302,1.83943,0.303259,0.667363
1702331782679687,-7.676044,-1.67897,3.961302,1.115843,0.275459,0.704363
1702331782687500,-7.679044,-1.74097,3.887302,1.141843,0.272259,0.734763
1702331782695312,-7.694044,-1.77197,3.886302,1.181643,0.263959,0.776363
1702331782703125,-7.714044,-1.80497,3.918302,1.221743,0.267259,0.808263
1702331782710937,-7.810044,-1.80797,3.925302,1.255543,0.268359,0.832163
1702331782718750,-7.913044,-1.76197,3.938302,1.280443,0.249859,0.857663
1702331782726562,-7.993044,-1.69197,3.891302,1.300543,0.233459,0.864063
1702331782734375,-8.66044,-1.57297,3.943302,1.329543,0.195759,0.861063
1702331782742187,-8.138044,-1.42597,4.94302,1.353143,0.181559,0.860763
1702331782750000,-8.163044,-1.29697,4.218302,1.378643,0.174459,0.858763
1702331782757812,-8.198044,-1.17497,4.231302,1.378543,0.161259,0.857263
1702331782765625,-8.193044,-1.4597,4.184302,1.378343,0.155759,0.858963
1702331782773437,-8.184044,0.94897,4.166302,1.378143,0.136859,0.870363
1702331782781250,-8.171044,0.87297,4.139302,1.377743,0.142759,0.883263
1702331782789062,-8.212044,0.85297,4.128302,1.379143,0.162759,0.900863
1702331782796875,-8.284044,0.86297,4.146302,1.383643,0.180559,0.913663
1702331782804687,-8.369044,0.92097,4.144302,1.379043,0.190659,0.915163
1702331782812500,-8.493044,0.97697,4.141302,1.377343,0.193659,0.916863
1702331782820312,-8.623044,-1.3697,4.141302,1.379243,0.203759,0.911863
1702331782828125,-8.761044,-1.12397,4.166302,1.400043,0.199259,0.893863
1702331782835937,-8.875044,-1.19797,4.175302,1.410043,0.192759,0.867863
1702331782843750,-8.932044,-1.26997,4.202302,1.417843,0.159259,0.847163
1702331782851562,-8.937044,-1.38197,4.245302,1.422343,0.124259,0.834563
1702331782859375,-8.901044,-1.48497,4.227302,1.428743,0.90059,0.824963
1702331782867187,-8.831044,-1.57097,4.171302,1.446043,0.51259,0.818463
1702331782875000,-8.706044,-1.63497,4.132302,1.463043,0.30159,0.824963
1702331782882812,-8.616044,-1.62497,4.83302,1.475143,0.28059,0.839363
1702331782890625,-8.587044,-1.62097,4.36302,1.489143,0.35459,0.855263
1702331782898437,-8.574044,-1.62597,4.38302,1.509243,0.40159,0.867963
1702331782906250,-8.529044,-1.59497,4.22302,1.528043,0.39859,0.866163
1702331782914062,-8.485044,-1.55197,3.970302,1.532843,0.23859,0.861263
1702331782921875,-8.437044,-1.58297,3.896302,1.556043,0.9459,0.851663
1702331782929687,-8.371044,-1.60697,3.824302,1.575143,0.13041,0.840163
1702331782937500,-8.315044,-1.62297,3.821302,1.597143,0.45541,0.830463
1702331782945312,-8.216044,-1.63797,3.887302,1.622443,0.60141,0.817263
1702331782953125,-8.135044,-1.66397,3.950302,1.642843,0.78541,0.805963
1702331782960937,-8.123044,-1.71497,4.26302,1.666943,0.79741,0.786263
1702331782968750,-8.156044,-1.73397,4.76302,1.691143,0.75141,0.748763
1702331782976562,-8.177044,-1.69997,4.53302,1.701043,0.72941,0.711663
1702331782984375,-8.103044,-1.65297,3.970302,1.712343,0.102841,0.681063
1702331782992187,-8.16044,-1.65597,3.902302,1.714643,0.120141,0.656763
1702331783000000,-7.883044,-1.64497,3.923302,1.708643,0.124341,0.627963
1702331783007812,-7.743044,-1.56097,4.110302,1.691743,0.125741,0.613563
1702331783015625,-7.668044,-1.48197,4.346302,1.656243,0.111841,0.604063
1702331783023437,-7.662044,-1.40197,4.515302,1.604643,0.93941,0.601363
1702331783031250,-7.699044,-1.33997,4.576302,1.540543,0.79141,0.597063
1702331783039062,-7.774044,-1.23997,4.646302,1.479443,0.61841,0.588063
1702331783046875,-7.927044,-1.14597,4.819302,1.445843,0.21241,0.575063
1702331783054687,-8.202044,-1.9197,5.96302,1.436443,0.3959,0.570263
1702331783062500,-8.541044,-1.13297,5.400302,1.424343,0.19359,0.565363
1702331783070312,-8.819044,-1.16197,5.630302,1.404043,0.48459,0.563863
1702331783078125,-9.71044,-1.15197,5.763302,1.372943,0.50759,0.562463
1702331783085937,-9.373044,0.97397,6.90302,1.325743,0.4359,0.545663
1702331783093750,-9.665044,0.58797,6.608302,1.306843,0.52141,0.542863
1702331783101562,-9.926044,0.8197,7.286302,1.279343,0.95741,0.555063
1702331783109375,-10.274044,0.60603,7.584302,1.220843,0.134641,0.570463
1702331783117187,-10.673044,1.26403,7.465302,1.149143,0.190241,0.605663
1702331783125000,-11.4044,1.55503,7.204302,1.79243,0.233641,0.647063
1702331783132812,-10.937044,1.48303,7.28302,1.21343,0.319141,0.685563
1702331783140625,-10.543044,1.25103,6.918302,1.643,0.410141,0.683163
1702331783148437,-10.110044,0.90903,6.552302,1.12043,0.471341,0.635063
1702331783156250,-9.777044,0.32803,6.59302,1.41443,0.473841,0.563763
1702331783164062,-9.630044,0.18297,5.559302,1.66943,0.491141,0.477763
1702331783171875,-9.544044,0.47897,5.254302,1.67643,0.575441,0.409063
1702331783179687,-9.504044,0.77697,4.977302,1.91643,0.653841,0.367263
1702331783187500,-9.417044,-1.897,4.849302,1.105443,0.684041,0.359363
1702331783195312,-9.357044,0.93897,4.970302,1.82043,0.731841,0.403763
1702331783203125,-9.141044,0.51997,5.367302,1.30043,0.810141,0.472763
1702331783210937,-8.808044,0.17003,5.478302,0.949743,0.878941,0.562763
1702331783218750,-8.543044,1.2903,5.338302,0.880543,0.882341,0.637963
1702331783226562,-8.448044,2.4503,5.240302,0.821543,0.844341,0.702963
1702331783234375,-8.443044,3.2003,5.355302,0.765043,0.790141,0.725863
1702331783242187,-8.324044,3.63303,5.468302,0.749043,0.758441,0.729263
1702331783250000,-7.992044,3.80503,5.346302,0.780243,0.710941,0.681663
1702331783257812,-7.506044,3.64403,4.889302,0.813743,0.673041,0.598463
1702331783265625,-7.68044,3.25103,4.265302,0.863143,0.626341,0.491063
1702331783273437,-6.883044,2.75803,3.693302,0.898743,0.560741,0.391463
1702331783281250,-7.67044,2.17103,3.318302,0.939543,0.504541,0.314863
1702331783289062,-7.557044,1.55503,3.156302,0.959843,0.449241,0.286463
1702331783296875,-8.113044,1.4303,3.311302,0.994043,0.404341,0.295663
1702331783304687,-8.579044,0.61803,3.672302,1.10843,0.387341,0.332363
1702331783312500,-8.805044,0.26903,3.833302,1.4743,0.417141,0.384463
1702331783320312,-8.707044,0.19603,3.854302,0.984243,0.542141,0.441963
1702331783328125,-8.391044,0.56903,4.176302,1.11743,0.685041,0.494563
1702331783335937,-8.194044,1.31303,4.604302,1.19843,0.729641,0.536863
1702331783343750,-8.128044,2.13503,4.614302,0.994743,0.661741,0.568863
1702331783351562,-8.164044,2.84403,4.528302,0.969543,0.561441,0.610363
1702331783359375,-8.317044,3.28803,4.596302,0.925843,0.479341,0.629663
1702331783367187,-8.412044,3.46503,4.662302,0.872743,0.417641,0.631463
1702331783375000,-8.292044,3.44703,4.644302,0.818743,0.386241,0.604363
1702331783382812,-8.213044,3.28903,4.653302,0.763543,0.390941,0.546763
1702331783390625,-8.315044,3.7803,4.391302,0.683343,0.372241,0.476663
1702331783398437,-8.460044,2.87703,3.866302,0.566343,0.368641,0.424963
1702331783406250,-8.335044,2.77403,3.690302,0.472843,0.393941,0.403363
1702331783414062,-8.24044,2.67403,4.249302,0.425843,0.447141,0.400863
1702331783421875,-7.806044,2.54203,4.988302,0.371043,0.469441,0.401563
1702331783429687,-7.802044,2.43603,5.224302,0.306043,0.468441,0.423463
1702331783437500,-7.983044,2.9103,4.972302,0.280843,0.440241,0.441263
1702331783445312,-8.258044,1.54703,4.778302,0.285043,0.453241,0.462263
1702331783453125,-8.562044,0.98403,4.895302,0.278743,0.499541,0.468963
1702331783460937,-8.755044,0.52403,5.156302,0.281243,0.562641,0.466363
1702331783468750,-8.748044,0.21303,5.408302,0.287043,0.634141,0.474763
1702331783476562,-8.576044,0.3003,5.682302,0.295543,0.692541,0.481763
1702331783484375,-8.399044,0.9097,5.775302,0.310743,0.707241,0.499463
1702331783492187,-8.187044,0.14697,5.540302,0.319843,0.714841,0.518663
1702331783500000,-7.914044,0.7897,5.433302,0.340043,0.727041,0.539463
1702331783507812,-7.664044,0.3703,5.534302,0.373843,0.734141,0.560163
1702331783515625,-7.458044,0.26103,5.707302,0.396843,0.752741,0.569863
1702331783523437,-7.311044,0.46403,5.710302,0.429643,0.762041,0.580763
1702331783531250,-7.103044,0.56303,5.732302,0.463643,0.795341,0.587163
1702331783539062,-6.893044,0.62803,5.723302,0.513743,0.811241,0.591463
1702331783546875,-6.743044,0.65103,5.653302,0.551043,0.808541,0.600863
1702331783554687,-6.663044,0.56503,5.552302,0.587043,0.811341,0.611663
1702331783562500,-6.555044,0.38603,5.482302,0.610543,0.820841,0.614663
1702331783570312,-6.383044,0.16803,5.462302,0.650943,0.808041,0.628663
1702331783578125,-6.229044,0.3797,5.331302,0.669643,0.782441,0.636463
1702331783585937,-6.122044,0.13297,5.81302,0.692043,0.753641,0.639063
1702331783593750,-6.20044,0.12097,4.871302,0.715343,0.731441,0.645263
1702331783601562,-5.904044,0.7497,4.788302,0.723343,0.718041,0.643363
1702331783609375,-5.773044,0.3903,4.766302,0.726643,0.699041,0.633563
1702331783617187,-5.719044,0.28603,4.763302,0.708643,0.654541,0.614063
1702331783625000,-5.732044,0.66503,4.998302,0.681343,0.616641,0.583363
1702331783632812,-5.838044,1.15303,5.259302,0.641443,0.551441,0.560763
1702331783640625,-5.971044,1.76303,5.428302,0.618043,0.499841,0.557563
1702331783648437,-6.226044,2.43703,5.586302,0.560443,0.480141,0.543463
1702331783656250,-6.547044,2.96603,5.582302,0.529443,0.460941,0.551563
1702331783664062,-6.718044,3.23103,5.585302,0.474543,0.484141,0.542763
1702331783671875,-6.606044,3.27803,5.621302,0.433743,0.549641,0.521063
1702331783679687,-6.226044,3.1003,5.348302,0.395543,0.618341,0.458963
1702331783687500,-5.659044,2.54003,4.868302,0.365643,0.693941,0.362863
1702331783695312,-5.66044,2.10503,4.846302,0.364443,0.768941,0.253463
1702331783703125,-4.644044,1.72003,5.147302,0.356943,0.786741,0.139163
1702331783710937,-4.517044,1.32703,5.449302,0.374743,0.724241,0.62463
1702331783718750,-4.629044,0.90103,5.687302,0.385443,0.651941,0.27863
1702331783726562,-5.17044,0.54803,5.883302,0.361143,0.568441,0.14563
1702331783734375,-5.546044,0.30403,6.162302,0.321243,0.494441,0.50363
1702331783742187,-6.28044,0.20103,6.529302,0.267143,0.446041,0.116763
1702331783750000,-6.369044,0.27503,6.714302,0.222043,0.401141,0.194363
1702331783757812,-6.475044,0.48503,6.766302,0.208243,0.387541,0.268663
1702331783765625,-6.415044,0.83003,6.771302,0.208443,0.390841,0.330163
1702331783773437,-6.158044,1.16203,6.627302,0.212843,0.380341,0.357363
1702331783781250,-5.772044,1.34703,6.485302,0.252243,0.362541,0.350363
1702331783789062,-5.455044,1.37503,6.397302,0.287543,0.346141,0.319063
1702331783796875,-5.235044,1.27203,6.266302,0.336043,0.312341,0.255363
1702331783804687,-5.55044,1.7903,6.235302,0.384443,0.283541,0.190063
1702331783812500,-4.950044,0.84903,6.437302,0.412343,0.260441,0.139363
1702331783820312,-5.26044,0.64403,6.599302,0.413543,0.211541,0.98663
1702331783828125,-5.232044,0.43903,6.680302,0.411043,0.136041,0.94863
1702331783835937,-5.451044,0.27203,6.714302,0.379243,0.91141,0.109663
1702331783843750,-5.651044,0.25003,6.678302,0.357743,0.48941,0.122263
1702331783851562,-5.736044,0.35103,6.786302,0.332343,0.24341,0.146663
1702331783859375,-5.738044,0.45503,6.924302,0.311643,0.14141,0.167763
1702331783867187,-5.729044,0.60703,6.917302,0.297543,0.21059,0.167763
1702331783875000,-5.642044,0.80003,6.876302,0.279143,0.62359,0.166063
1702331783882812,-5.522044,0.90903,6.908302,0.244943,0.62359,0.150263
1702331783890625,-5.486044,1.4603,6.865302,0.223843,0.89059,0.127563
1702331783898437,-5.442044,1.12103,6.910302,0.197643,0.94959,0.97263
1702331783906250,-5.431044,1.13603,6.976302,0.185743,0.97559,0.57063
1702331783914062,-5.403044,1.6703,7.262302,0.183443,0.105859,0.27963
1702331783921875,-5.531044,0.92303,7.525302,0.181043,0.112759,0.2937
1702331783929687,-5.730044,0.69503,7.568302,0.183243,0.135759,0.24137
1702331783937500,-5.888044,0.46803,7.703302,0.208143,0.140859,0.37037
1702331783945312,-6.78044,0.20903,7.838302,0.247543,0.139959,0.34437
1702331783953125,-6.239044,0.9497,8.29302,0.305443,0.142059,0.19137
1702331783960937,-6.394044,0.39297,8.178302,0.356543,0.139659,0.3337
1702331783968750,-6.412044,0.71897,8.146302,0.401543,0.140459,0.33163
1702331783976562,-6.412044,0.98097,7.936302,0.430543,0.141959,0.68463
1702331783984375,-6.428044,-1.9797,7.803302,0.459643,0.154859,0.103563
1702331783992187,-6.385044,-1.2997,7.785302,0.480843,0.193059,0.157863
1702331784000000,-6.424044,0.77597,7.691302,0.484243,0.226159,0.204863
1702331784015625,-6.395044,0.9603,7.430302,0.488843,0.276759,0.254163
1702331784023437,-6.361044,0.50803,7.518302,0.460843,0.299959,0.249463
1702331784031250,-6.367044,0.76103,7.343302,0.431543,0.361759,0.242963
1702331784039062,-6.409044,0.84303,7.295302,0.388143,0.393159,0.230263
1702331784046875,-6.498044,0.80903,7.140302,0.342843,0.426759,0.224163
1702331784054687,-6.502044,0.73803,7.47302,0.305743,0.440159,0.203463
1702331784062500,-6.532044,0.63203,6.978302,0.289143,0.489959,0.201463
1702331784070312,-6.484044,0.49603,6.957302,0.273943,0.514359,0.185363
1702331784078125,-6.478044,0.38603,6.831302,0.255243,0.565959,0.180563
