time,Acceleration X (m/s^2),Acceleration Y (m/s^2),Acceleration Z (m/s^2),Angular Velocity X (rad/s),Angular Velocity Y (rad/s),Angular Velocity Z (rad/s)
1702332278304687,-9.624839,1.184826,3.530984,-0.026279,,
1702332278312500,-9.562839,1.141826,3.534984,0.102972,0.33079,0.137281
1702332278320312,-9.517839,1.87826,3.570984,0.67172,0.65279,0.123181
1702332278328125,-9.510839,1.58826,3.712984,0.53272,0.102979,0.99481
1702332278335937,-9.499839,0.976826,3.807984,0.56672,0.106879,0.78581
1702332278343750,-9.475839,0.871826,3.775984,0.85472,0.96679,0.60281
1702332278359375,-9.235839,0.728826,3.543984,0.151772,0.96879,0.35381
1702332278367187,-9.104839,0.717826,3.442984,0.167572,0.95279,0.30281
1702332278375000,-8.977839,0.785826,3.388984,0.167872,0.91479,0.28581
1702332278382812,-8.973839,0.972826,3.327984,0.161572,0.72079,0.30181
1702332278406250,-8.985839,1.107826,3.62984,0.110272,0.46579,0.31981
1702332278414062,-8.825839,0.972826,3.36984,0.93772,0.72979,0.32781
1702332278421875,-8.663839,0.845826,3.113984,0.86172,0.89979,0.31081
1702332278429687,-8.571839,0.683826,3.223984,0.95772,0.90779,0.37281
1702332278437500,-8.651839,0.612826,3.252984,0.105972,0.77279,0.56781
1702332278445312,-8.751839,0.538826,3.135984,0.109172,0.58479,0.72581
1702332278453125,-8.903839,0.490826,3.38984,0.125772,0.55879,0.93481
1702332278460937,-9.51839,0.474826,3.52984,0.155372,0.58679,0.110781
1702332278468750,-9.146839,0.506826,3.77984,0.161172,0.55579,0.126981
1702332278476562,-9.257839,0.544826,3.59984,0.161072,0.53979,0.133381
1702332278484375,-9.319839,0.651826,3.27984,0.159372,0.32579,0.146181
1702332278492187,-9.314839,0.780826,3.104984,0.162172,0.52779,0.146381
1702332278500000,-9.279839,0.825826,3.363984,0.149972,0.76279,0.139981
1702332278507812,-9.249839,0.896826,3.584984,0.134672,0.71379,0.127181
1702332278515625,-9.277839,1.4826,3.678984,0.135972,0.65979,0.120981
1702332278523437,-9.310839,1.135826,3.719984,0.136072,0.70879,0.114581
1702332278531250,-9.316839,1.195826,3.735984,0.132972,0.64879,0.106581
1702332278539062,-9.352839,1.191826,3.791984,0.134472,0.55279,0.106581
1702332278546875,-9.455839,1.177826,3.708984,0.135172,0.29479,0.102781
1702332278554687,-9.579839,1.199826,3.523984,0.127272,0.6979,0.107681
1702332278562500,-9.601839,1.170826,3.370984,0.116672,0.9179,0.105981
1702332278570312,-9.510839,1.84826,3.296984,0.110072,0.29679,0.101581
1702332278578125,-9.420839,0.977826,3.291984,0.93072,0.28079,0.88781
1702332278585937,-9.339839,0.922826,3.266984,0.79172,0.28079,0.77681
1702332278593750,-9.266839,0.901826,3.196984,0.68172,0.17379,0.68281
1702332278601562,-9.231839,0.963826,3.214984,0.62072,0.20979,0.57081
1702332278609375,-9.210839,1.38826,3.300984,0.42172,0.29479,0.52181
1702332278617187,-9.185839,1.146826,3.352984,0.30072,0.27579,0.36181
1702332278625000,-9.171839,1.247826,3.320984,0.16072,0.27579,0.31481
1702332278632812,-9.158839,1.298826,3.311984,0.4328,0.37679,0.26981
1702332278640625,-9.126839,1.256826,3.370984,0.13728,0.50779,0.20681
1702332278648437,-9.117839,1.152826,3.350984,0.30928,0.44779,0.11281
1702332278656250,-9.126839,1.85826,3.269984,0.38028,0.35279,0.2981
1702332278664062,-9.118839,1.36826,3.275984,0.36728,0.42379,0.3081
1702332278671875,-9.79839,0.975826,3.341984,0.36528,0.39079,0.6619
1702332278679687,-9.53839,0.911826,3.347984,0.31928,0.26279,0.219
1702332278687500,-9.105839,0.922826,3.280984,0.22228,0.20279,0.2581
1702332278695312,-9.138839,0.979826,3.260984,0.11728,0.16179,0.13981
1702332278703125,-9.165839,1.19826,3.287984,0.13328,0.5779,0.28281
1702332278710937,-9.218839,1.75826,3.354984,0.14828,0.10621,0.32981
1702332278718750,-9.322839,1.155826,3.365984,0.31128,0.19521,0.46281
1702332278726562,-9.402839,1.258826,3.336984,0.39428,0.12221,0.53081
1702332278734375,-9.394839,1.311826,3.291984,0.61128,0.5121,0.57981
1702332278742187,-9.355839,1.252826,3.271984,0.64128,0.2121,0.54781
1702332278750000,-9.346839,1.120826,3.226984,0.62428,0.79,0.38681
1702332278757812,-9.358839,1.13826,3.237984,0.71428,0.6179,0.25781
1702332278765625,-9.361839,0.938826,3.286984,0.72928,0.1779,0.16281
1702332278773437,-9.384839,0.907826,3.320984,0.69228,0.9021,0.9381
1702332278781250,-9.372839,0.916826,3.316984,0.61528,0.22421,0.1719
1702332278789062,-9.332839,0.955826,3.302984,0.42428,0.20621,0.16419
1702332278796875,-9.264839,0.998826,3.338984,0.40528,0.3421,0.24619
1702332278804687,-9.176839,1.35826,3.374984,0.37128,0.3479,0.48719
1702332278812500,-9.141839,1.56826,3.363984,0.46028,0.3279,0.66519
1702332278820312,-9.115839,1.88826,3.316984,0.61128,0.1321,0.71519
1702332278828125,-9.101839,1.100826,3.264984,0.61528,0.11221,0.76019
1702332278835937,-9.77839,1.111826,3.183984,0.72328,0.11121,0.82319
1702332278843750,-9.56839,1.106826,3.183984,0.69428,0.2479,0.83819
1702332278851562,-8.992839,1.15826,3.248984,0.61728,0.521,0.80619
1702332278859375,-8.927839,0.896826,3.257984,0.60228,0.10421,0.75819
1702332278867187,-8.907839,0.816826,3.194984,0.60528,0.13421,0.66119
1702332278875000,-8.889839,0.784826,3.162984,0.44728,0.6021,0.60019
1702332278882812,-8.866839,0.748826,3.190984,0.40328,0.479,0.47019
1702332278890625,-8.881839,0.709826,3.252984,0.37728,0.4779,0.38719
1702332278898437,-8.917839,0.726826,3.340984,0.36728,0.6879,0.24019
1702332278906250,-8.960839,0.760826,3.372984,0.40128,0.11479,0.6319
1702332278914062,-9.8839,0.764826,3.354984,0.27128,0.10179,0.5219
1702332278921875,-9.48839,0.714826,3.336984,0.11728,0.27079,0.6719
1702332278929687,-9.33839,0.656826,3.394984,0.8628,0.49779,0.9819
1702332278937500,-8.978839,0.569826,3.446984,0.4128,0.53279,0.5019
1702332278945312,-8.932839,0.470826,3.399984,0.4372,0.42779,0.18219
1702332278953125,-8.901839,0.394826,3.322984,0.23172,0.28579,0.21719
1702332278960937,-8.903839,0.388826,3.313984,0.40372,0.30279,0.23519
1702332278968750,-8.863839,0.380826,3.347984,0.71772,0.46179,0.19019
1702332278976562,-8.802839,0.339826,3.372984,0.93572,0.37679,0.3219
1702332278984375,-8.781839,0.304826,3.363984,0.110572,0.30279,0.3319
1702332278992187,-8.866839,0.290826,3.349984,0.146372,0.10379,0.17081
1702332279000000,-9.108839,0.393826,3.424984,0.186872,0.9021,0.34281
1702332279007812,-9.344839,0.683826,3.462984,0.213172,0.19121,0.56481
1702332279015625,-9.539839,1.49826,3.440984,0.206172,0.13021,0.95281
1702332279023437,-9.580839,1.263826,3.420984,0.183372,0.13379,0.124781
1702332279031250,-9.547839,1.296826,3.401984,0.154472,0.25179,0.143081
1702332279039062,-9.582839,1.245826,3.368984,0.109472,0.33879,0.140181
1702332279046875,-9.639839,1.151826,3.264984,0.68172,0.47979,0.142681
1702332279054687,-9.624839,1.44826,3.259984,0.44772,0.82079,0.130181
1702332279062500,-9.526839,0.947826,3.388984,0.32772,0.91479,0.110881
1702332279070312,-9.419839,0.883826,3.505984,0.61072,0.111179,0.101081
1702332279078125,-9.358839,0.896826,3.572984,0.84772,0.113479,0.79881
1702332279085937,-9.326839,0.962826,3.611984,0.96172,0.119879,0.60381
1702332279093750,-9.296839,1.41826,3.586984,0.110472,0.116679,0.53781
1702332279101562,-9.330839,1.97826,3.518984,0.112372,0.95679,0.40781
1702332279109375,-9.378839,1.174826,3.435984,0.105972,0.84779,0.40881
1702332279117187,-9.332839,1.233826,3.298984,0.88572,0.74879,0.49081
1702332279125000,-9.213839,1.213826,3.199984,0.81172,0.70779,0.44081
1702332279132812,-9.72839,1.111826,3.212984,0.63772,0.79479,0.41281
1702332279140625,-8.917839,0.978826,3.262984,0.56372,0.75679,0.31481
1702332279148437,-8.754839,0.884826,3.286984,0.40472,0.87379,0.30181
1702332279156250,-8.658839,0.821826,3.300984,0.32672,0.83079,0.20681
1702332279164062,-8.652839,0.847826,3.352984,0.28572,0.82779,0.25181
1702332279171875,-8.666839,0.919826,3.403984,0.27772,0.78079,0.31981
1702332279179687,-8.712839,0.928826,3.431984,0.26572,0.77279,0.30181
1702332279187500,-8.787839,0.863826,3.401984,0.21372,0.73079,0.40081
1702332279195312,-8.860839,0.807826,3.354984,0.24272,0.62179,0.48181
1702332279203125,-8.983839,0.777826,3.293984,0.33972,0.59479,0.51081
1702332279210937,-9.75839,0.730826,3.268984,0.37072,0.44979,0.52581
1702332279218750,-9.142839,0.686826,3.291984,0.37272,0.35979,0.60381
1702332279226562,-9.178839,0.685826,3.298984,0.35472,0.26979,0.63781
1702332279234375,-9.194839,0.694826,3.304984,0.46672,0.21179,0.68281
1702332279242187,-9.175839,0.691826,3.302984,0.57272,0.23679,0.69981
1702332279250000,-9.142839,0.700826,3.325984,0.57572,0.18279,0.68181
1702332279257812,-9.138839,0.726826,3.379984,0.62472,0.18279,0.56781
1702332279265625,-9.154839,0.748826,3.392984,0.62772,0.7979,0.54981
1702332279273437,-9.150839,0.775826,3.385984,0.59272,0.17179,0.50481
1702332279281250,-9.139839,0.786826,3.408984,0.60972,0.23779,0.40881
1702332279289062,-9.105839,0.777826,3.448984,0.61272,0.33379,0.29581
1702332279296875,-9.73839,0.761826,3.466984,0.64372,0.36679,0.27981
1702332279304687,-9.19839,0.744826,3.428984,0.75772,0.33479,0.10081
1702332279312500,-8.987839,0.691826,3.412984,0.87072,0.12279,0.1681
1702332279320312,-9.7839,0.671826,3.408984,0.100072,0.7179,0.16319
1702332279328125,-9.20839,0.676826,3.358984,0.111072,0.7321,0.19719
1702332279335937,-9.42839,0.665826,3.259984,0.112472,0.5721,0.10019
1702332279343750,-9.53839,0.654826,3.250984,0.129472,0.5421,0.3719
1702332279351562,-9.99839,0.654826,3.318984,0.145072,0.7921,0.15281
1702332279359375,-9.197839,0.756826,3.345984,0.155572,0.9621,0.39381
1702332279367187,-9.255839,0.899826,3.228984,0.142272,0.5621,0.62281
1702332279375000,-9.264839,0.899826,3.81984,0.135272,0.13179,0.75681
1702332279382812,-9.243839,0.865826,3.25984,0.119572,0.25379,0.90281
1702332279390625,-9.228839,0.756826,3.21984,0.102472,0.34079,0.95081
1702332279398437,-9.255839,0.639826,3.16984,0.84972,0.31779,0.93881
1702332279406250,-9.322839,0.579826,3.984,0.81572,0.30679,0.95681
1702332279414062,-9.348839,0.524826,3.5984,0.83272,0.24179,0.92381
1702332279421875,-9.381839,0.482826,3.72984,0.97872,0.35179,0.72781
1702332279429687,-9.392839,0.498826,3.218984,0.119372,0.34379,0.80781
1702332279437500,-9.332839,0.530826,3.390984,0.138672,0.45379,0.61181
1702332279445312,-9.316839,0.594826,3.464984,0.151572,0.31779,0.57581
1702332279453125,-9.306839,0.707826,3.469984,0.154772,0.15979,0.51081
1702332279460937,-9.335839,0.842826,3.442984,0.140872,0.13479,0.55881
1702332279468750,-9.349839,0.928826,3.406984,0.148272,0.12721,0.59281
1702332279476562,-9.363839,0.903826,3.437984,0.156372,0.10821,0.66881
1702332279484375,-9.376839,0.850826,3.453984,0.148272,0.13621,0.73581
1702332279492187,-9.380839,0.826826,3.349984,0.154372,0.29721,0.83081
1702332279500000,-9.350839,0.823826,3.273984,0.152372,0.12021,0.100981
1702332279507812,-9.233839,0.830826,3.293984,0.142672,0.1279,0.109281
1702332279515625,-9.191839,0.847826,3.349984,0.136272,0.9179,0.117481
1702332279523437,-9.194839,0.887826,3.397984,0.134872,0.4779,0.128481
1702332279531250,-9.173839,0.969826,3.415984,0.110672,0.7679,0.137181
1702332279539062,-9.185839,1.67826,3.392984,0.93272,0.6579,0.134181
1702332279546875,-9.223839,1.153826,3.417984,0.73472,0.13079,0.132481
1702332279554687,-9.267839,1.225826,3.496984,0.64172,0.26279,0.122981
1702332279562500,-9.274839,1.283826,3.570984,0.45172,0.20479,0.123381
1702332279570312,-9.329839,1.328826,3.550984,0.33172,0.5521,0.124681
1702332279578125,-9.405839,1.440826,3.501984,0.15972,0.24621,0.123181
1702332279585937,-9.483839,1.574826,3.440984,0.4828,0.1221,0.126981
1702332279593750,-9.551839,1.553826,3.339984,0.24828,0.2321,0.125281
1702332279601562,-9.574839,1.431826,3.253984,0.54428,0.11079,0.109681
1702332279609375,-9.553839,1.278826,3.194984,0.74228,0.20679,0.80881
1702332279617187,-9.520839,1.186826,3.120984,0.94328,0.11479,0.61781
1702332279625000,-9.451839,1.74826,3.86984,0.112528,0.1079,0.43981
1702332279632812,-9.379839,1.46826,3.136984,0.130828,0.10479,0.23181
1702332279640625,-9.308839,1.99826,3.242984,0.138528,0.19479,0.719
1702332279648437,-9.226839,1.155826,3.330984,0.137728,0.5679,0.20319
1702332279656250,-9.178839,1.155826,3.329984,0.136428,0.11979,0.32919
1702332279664062,-9.99839,1.156826,3.307984,0.145828,0.17979,0.50219
1702332279671875,-9.32839,1.166826,3.248984,0.160728,0.18079,0.60119
1702332279679687,-8.960839,1.141826,3.210984,0.156328,0.20779,0.69619
1702332279687500,-8.900839,1.51826,3.151984,0.177928,0.20579,0.80719
1702332279695312,-8.858839,0.937826,3.111984,0.186728,0.16779,0.100119
1702332279703125,-8.812839,0.748826,3.79984,0.185228,0.15979,0.108019
1702332279710937,-8.720839,0.569826,3.18984,0.170328,0.18279,0.131119
1702332279718750,-8.548839,0.411826,3.18984,0.159328,0.33679,0.147119
1702332279726562,-8.383839,0.270826,3.54984,0.146128,0.32379,0.155619
1702332279734375,-8.304839,0.181826,3.83984,0.113528,0.15779,0.159019
1702332279742187,-8.329839,0.192826,3.88984,0.78828,0.5721,0.156419
1702332279750000,-8.367839,0.205826,3.56984,0.49628,0.7921,0.145219
1702332279757812,-8.416839,0.146826,2.988984,0.10828,0.6021,0.129419
1702332279765625,-8.594839,0.10826,2.953984,0.33072,0.36321,0.106119
1702332279773437,-8.862839,0.93174,3.61984,0.92572,0.78021,0.76619
1702332279781250,-9.169839,0.53174,3.131984,0.149872,0.104021,0.40319
1702332279789062,-9.512839,0.231826,3.101984,0.188072,0.130421,0.17181
1702332279796875,-9.730839,0.629826,3.88984,0.211772,0.96421,0.76781
1702332279804687,-9.740839,0.837826,3.129984,0.212172,0.60621,0.127081
1702332279812500,-9.754839,0.855826,3.187984,0.206572,0.31221,0.158081
1702332279820312,-9.788839,0.783826,3.169984,0.165372,0.19621,0.173181
1702332279828125,-9.843839,0.670826,3.151984,0.133872,0.14679,0.167381
1702332279835937,-9.857839,0.573826,3.246984,0.104072,0.44779,0.151881
1702332279843750,-9.812839,0.541826,3.424984,0.85772,0.80279,0.124781
1702332279851562,-9.764839,0.521826,3.541984,0.95372,0.93779,0.102281
1702332279859375,-9.697839,0.547826,3.577984,0.111872,0.100479,0.60181
1702332279867187,-9.566839,0.606826,3.581984,0.139372,0.111579,0.27481
1702332279875000,-9.387839,0.730826,3.626984,0.156772,0.117479,0.3381
1702332279882812,-9.268839,0.877826,3.647984,0.162372,0.116779,0.25919
1702332279890625,-9.143839,1.57826,3.582984,0.164572,0.87379,0.48819
1702332279898437,-9.76839,1.246826,3.419984,0.152272,0.67979,0.58419
1702332279906250,-9.116839,1.331826,3.174984,0.138472,0.37979,0.55419
1702332279914062,-9.139839,1.278826,3.10984,0.141072,0.22579,0.40719
1702332279921875,-9.126839,1.131826,3.32984,0.147272,0.13579,0.24919
1702332279929687,-9.65839,0.935826,3.120984,0.151772,0.1779,0.4119
1702332279937500,-8.974839,0.750826,3.147984,0.143072,0.10679,0.23681
1702332279945312,-8.952839,0.655826,3.133984,0.147072,0.421,0.47881
1702332279953125,-9.839,0.697826,3.108984,0.132572,0.8779,0.75381
1702332279960937,-9.27839,0.849826,3.61984,0.115972,0.43579,0.100181
1702332279968750,-8.995839,0.955826,3.102984,0.96872,0.65879,0.114981
1702332279976562,-9.18839,0.950826,3.151984,0.77672,0.67379,0.134581
1702332279984375,-9.154839,0.933826,3.153984,0.54172,0.62779,0.129981
1702332279992187,-9.298839,0.874826,3.124984,0.34472,0.59779,0.123381
1702332280000000,-9.353839,0.814826,3.97984,0.15772,0.73679,0.99681
1702332280007812,-9.359839,0.758826,3.176984,0.11272,0.88779,0.78981
1702332280015625,-9.334839,0.738826,3.284984,0.13372,0.86979,0.59481
1702332280023437,-9.320839,0.720826,3.345984,0.12072,0.85379,0.44981
1702332280031250,-9.297839,0.713826,3.322984,0.15572,0.75279,0.38381
1702332280039062,-9.311839,0.705826,3.307984,0.31172,0.69379,0.31781
1702332280046875,-9.301839,0.696826,3.334984,0.37372,0.71279,0.31781
1702332280054687,-9.243839,0.686826,3.351984,0.35672,0.70179,0.28681
1702332280062500,-9.209839,0.696826,3.340984,0.37572,0.72979,0.22081
1702332280070312,-9.160839,0.727826,3.365984,0.38972,0.80079,0.15881
1702332280078125,-9.108839,0.695826,3.381984,0.42472,0.72479,0.20281
1702332280085937,-9.90839,0.654826,3.331984,0.37872,0.65579,0.21881
1702332280093750,-9.80839,0.618826,3.300984,0.41172,0.56579,0.31281
1702332280101562,-9.50839,0.565826,3.313984,0.39372,0.58779,0.29781
1702332280109375,-9.27839,0.505826,3.367984,0.39372,0.57079,0.34681
1702332280117187,-9.28839,0.460826,3.394984,0.55172,0.33879,0.39081
1702332280125000,-9.19839,0.423826,3.334984,0.73572,0.32779,0.50281
1702332280132812,-9.23839,0.401826,3.277984,0.85772,0.30079,0.56681
1702332280140625,-9.23839,0.394826,3.320984,0.104572,0.36679,0.58181
1702332280148437,-9.41839,0.432826,3.363984,0.112272,0.36879,0.59781
1702332280156250,-9.74839,0.490826,3.347984,0.109572,0.42079,0.59481
1702332280164062,-9.115839,0.543826,3.365984,0.106472,0.51679,0.56281
1702332280171875,-9.168839,0.645826,3.392984,0.103072,0.46179,0.54981
1702332280179687,-9.210839,0.723826,3.399984,0.90272,0.46679,0.56881
1702332280187500,-9.240839,0.785826,3.365984,0.79572,0.37979,0.56781
1702332280195312,-9.272839,0.812826,3.327984,0.67272,0.29279,0.55081
1702332280203125,-9.309839,0.789826,3.304984,0.70272,0.33579,0.45681
1702332280210937,-9.353839,0.714826,3.302984,0.76672,0.33379,0.42281
1702332280218750,-9.335839,0.660826,3.298984,0.81572,0.38079,0.37381
1702332280226562,-9.291839,0.616826,3.291984,0.78272,0.41879,0.34381
1702332280234375,-9.271839,0.617826,3.257984,0.86372,0.34779,0.30881
1702332280242187,-9.295839,0.664826,3.262984,0.91372,0.30779,0.30581
1702332280250000,-9.316839,0.765826,3.248984,0.86272,0.30479,0.29381
1702332280257812,-9.292839,0.860826,3.223984,0.87672,0.20879,0.34181
1702332280265625,-9.247839,0.927826,3.212984,0.81472,0.13779,0.42081
1702332280273437,-9.248839,0.994826,3.199984,0.67572,0.6579,0.46881
1702332280281250,-9.246839,1.27826,3.158984,0.60872,0.14979,0.56781
1702332280289062,-9.219839,1.31826,3.136984,0.52872,0.8979,0.58581
1702332280296875,-9.176839,0.995826,3.142984,0.38872,0.16579,0.63481
1702332280304687,-9.146839,0.999826,3.149984,0.38872,0.11979,0.58681
1702332280312500,-9.158839,1.35826,3.111984,0.29472,0.13579,0.55581
1702332280320312,-9.222839,1.81826,3.117984,0.18072,0.16279,0.57581
1702332280328125,-9.317839,1.146826,3.111984,0.5672,0.12979,0.51281
1702332280335937,-9.431839,1.252826,3.64984,0.8028,0.921,0.49581
1702332280343750,-9.547839,1.323826,3.27984,0.22528,0.6721,0.57881
1702332280351562,-9.606839,1.303826,3.48984,0.43828,0.421,0.56181
1702332280359375,-9.584839,1.234826,3.66984,0.61428,0.5779,0.48681
1702332280367187,-9.513839,1.151826,3.100984,0.89028,0.24379,0.34281
1702332280375000,-9.385839,1.30826,3.210984,0.108128,0.33379,0.28281
1702332280382812,-9.258839,0.925826,3.332984,0.132328,0.47079,0.2581
1702332280390625,-9.126839,0.875826,3.460984,0.148228,0.64879,0.19319
1702332280398437,-9.24839,0.886826,3.543984,0.166028,0.58979,0.46919
1702332280406250,-8.949839,0.852826,3.606984,0.170128,0.57179,0.72719
1702332280414062,-8.890839,0.809826,3.608984,0.163428,0.39779,0.93819
1702332280421875,-8.918839,0.765826,3.539984,0.148928,0.24779,0.103819
1702332280429687,-8.973839,0.699826,3.336984,0.119028,0.3021,0.102719
1702332280437500,-9.94839,0.647826,3.165984,0.90828,0.16321,0.90319
1702332280445312,-9.176839,0.589826,3.111984,0.69228,0.19421,0.77619
1702332280453125,-9.162839,0.553826,3.48984,0.58728,0.33921,0.55219
1702332280460937,-9.123839,0.508826,2.966984,0.55828,0.44021,0.36019
1702332280468750,-9.91839,0.466826,2.928984,0.40628,0.45221,0.19919
1702332280476562,-9.68839,0.432826,2.953984,0.36028,0.47421,0.7219
1702332280484375,-9.61839,0.430826,2.975984,0.37928,0.42321,0.4281
1702332280492187,-9.102839,0.466826,2.966984,0.36528,0.47521,0.18681
1702332280500000,-9.203839,0.529826,2.960984,0.38028,0.40121,0.24981
1702332280507812,-9.261839,0.570826,2.973984,0.35328,0.24621,0.30081
1702332280515625,-9.309839,0.575826,3.14984,0.21428,0.6621,0.31681
1702332280523437,-9.340839,0.587826,3.45984,0.12128,0.5179,0.30081
1702332280531250,-9.370839,0.625826,3.66984,0.13628,0.16079,0.30081
1702332280539062,-9.373839,0.656826,3.77984,0.2428,0.19179,0.25081
1702332280546875,-9.350839,0.625826,3.79984,0.13172,0.15079,0.15381
1702332280554687,-9.359839,0.592826,3.140984,0.12272,0.17679,0.5719
1702332280562500,-9.383839,0.588826,3.176984,0.13872,0.17879,0.12119
1702332280570312,-9.346839,0.645826,3.214984,0.12172,0.26979,0.21519
1702332280578125,-9.290839,0.722826,3.243984,0.30972,0.33879,0.29719
1702332280585937,-9.251839,0.765826,3.282984,0.39372,0.34479,0.34919
1702332280593750,-9.234839,0.800826,3.282984,0.45372,0.32779,0.22119
1702332280601562,-9.250839,0.818826,3.264984,0.40872,0.33879,0.23819
1702332280609375,-9.265839,0.808826,3.257984,0.51372,0.32679,0.10819
1702332280617187,-9.267839,0.779826,3.221984,0.43172,0.40879,0.7081
1702332280625000,-9.249839,0.732826,3.197984,0.43172,0.41579,0.18181
1702332280632812,-9.195839,0.651826,3.208984,0.50572,0.47579,0.21581
1702332280640625,-9.119839,0.542826,3.237984,0.42572,0.54079,0.26581
1702332280648437,-9.57839,0.443826,3.264984,0.50372,0.54379,0.23281
1702332280656250,-9.18839,0.405826,3.302984,0.58272,0.57479,0.21581
1702332280664062,-9.10839,0.413826,3.367984,0.63072,0.65379,0.19881
1702332280671875,-9.44839,0.457826,3.376984,0.73772,0.56379,0.24781
1702332280679687,-9.114839,0.518826,3.347984,0.95272,0.57179,0.27981
1702332280687500,-9.231839,0.553826,3.254984,0.116872,0.56079,0.35881
1702332280695312,-9.291839,0.569826,3.156984,0.121872,0.57679,0.49981
1702332280703125,-9.290839,0.518826,3.81984,0.133972,0.64779,0.61281
1702332280710937,-9.277839,0.447826,3.14984,0.136772,0.60079,0.75881
1702332280718750,-9.247839,0.373826,2.948984,0.132072,0.56479,0.80681
1702332280726562,-9.226839,0.328826,2.939984,0.124472,0.57579,0.77381
1702332280734375,-9.202839,0.354826,2.996984,0.126172,0.55679,0.75681
1702332280742187,-9.197839,0.476826,3.79984,0.132572,0.53879,0.73881
1702332280750000,-9.187839,0.574826,3.230984,0.135472,0.59279,0.75681
1702332280757812,-9.187839,0.674826,3.356984,0.127672,0.72379,0.69381
1702332280765625,-9.178839,0.736826,3.421984,0.109872,0.82179,0.66781
1702332280773437,-9.174839,0.738826,3.395984,0.115472,0.65279,0.64481
1702332280781250,-9.189839,0.687826,3.334984,0.132772,0.54179,0.61081
1702332280789062,-9.226839,0.617826,3.320984,0.141972,0.56079,0.64281
1702332280796875,-9.225839,0.557826,3.354984,0.157672,0.50879,0.70481
1702332280804687,-9.207839,0.521826,3.320984,0.160772,0.48179,0.62481
1702332280812500,-9.203839,0.446826,3.286984,0.163672,0.29279,0.67281
1702332280820312,-9.195839,0.370826,3.286984,0.177972,0.26879,0.71781
1702332280828125,-9.177839,0.334826,3.311984,0.179872,0.12679,0.77881
1702332280835937,-9.118839,0.369826,3.320984,0.182272,0.22779,0.81581
1702332280843750,-9.81839,0.388826,3.351984,0.182572,0.23579,0.79781
1702332280851562,-9.82839,0.488826,3.430984,0.182372,0.17579,0.79881
1702332280859375,-9.107839,0.584826,3.437984,0.184372,0.12979,0.82681
1702332280867187,-9.136839,0.633826,3.369984,0.186972,0.2779,0.92581
1702332280875000,-9.189839,0.662826,3.289984,0.185472,0.16479,0.100581
1702332280882812,-9.155839,0.668826,3.293984,0.180872,0.32279,0.98981
1702332280890625,-9.135839,0.662826,3.354984,0.167972,0.49379,0.99481
1702332280898437,-9.162839,0.685826,3.365984,0.158272,0.55179,0.98181
1702332280906250,-9.194839,0.687826,3.318984,0.160872,0.41879,0.83081
1702332280914062,-9.242839,0.709826,3.262984,0.143872,0.31779,0.78281
1702332280921875,-9.266839,0.710826,3.287984,0.140672,0.48379,0.75281
1702332280929687,-9.246839,0.748826,3.322984,0.143572,0.55779,0.68981
1702332280937500,-9.222839,0.803826,3.322984,0.135672,0.47879,0.69081
1702332280945312,-9.203839,0.833826,3.287984,0.137572,0.45679,0.62481
1702332280953125,-9.203839,0.864826,3.232984,0.137472,0.41079,0.65781
1702332280960937,-9.233839,0.891826,3.187984,0.129572,0.48979,0.69081
1702332280968750,-9.285839,0.948826,3.181984,0.112172,0.59279,0.66281
1702332280976562,-9.304839,0.994826,3.129984,0.96872,0.56779,0.62981
1702332280984375,-9.312839,1.50826,3.111984,0.82972,0.61479,0.55081
1702332280992187,-9.346839,1.108826,3.118984,0.72072,0.56879,0.50381
1702332281000000,-9.377839,1.209826,3.115984,0.41872,0.56179,0.49281
1702332281007812,-9.438839,1.329826,3.66984,0.12672,0.46679,0.46081
1702332281015625,-9.547839,1.464826,3.5984,0.11328,0.26579,0.54581
1702332281023437,-9.618839,1.514826,2.976984,0.31728,0.19979,0.57981
1702332281031250,-9.656839,1.524826,2.994984,0.45828,0.12079,0.56481
1702332281039062,-9.735839,1.495826,3.28984,0.70228,0.3879,0.54681
1702332281046875,-9.838839,1.459826,3.42984,0.94928,0.25979,0.42081
1702332281054687,-9.895839,1.436826,3.46984,0.136028,0.53279,0.31681
1702332281062500,-9.852839,1.407826,3.73984,0.173828,0.69079,0.14781
1702332281070312,-9.730839,1.358826,3.181984,0.211028,0.93379,0.5719
1702332281078125,-9.541839,1.311826,3.321984,0.243328,0.89579,0.24919
1702332281085937,-9.361839,1.178826,3.404984,0.261928,0.83879,0.51919
1702332281093750,-9.192839,1.44826,3.467984,0.273628,0.78579,0.77819
1702332281101562,-9.16839,0.993826,3.516984,0.280828,0.87079,0.116319
1702332281109375,-8.920839,0.979826,3.528984,0.284528,0.84479,0.148919
1702332281117187,-8.837839,0.867826,3.480984,0.263228,0.65579,0.167319
1702332281125000,-8.817839,0.723826,3.345984,0.255228,0.35279,0.181919
1702332281132812,-8.826839,0.587826,3.187984,0.236028,0.4279,0.188819
1702332281140625,-8.882839,0.434826,3.50984,0.209728,0.9121,0.190519
1702332281148437,-8.881839,0.269826,2.948984,0.183128,0.19221,0.182819
1702332281156250,-8.844839,0.149826,2.953984,0.156728,0.20821,0.167019
1702332281164062,-8.812839,0.104826,3.11984,0.119428,0.18121,0.144919
1702332281171875,-8.765839,0.135826,3.38984,0.106028,0.27221,0.119119
1702332281179687,-8.752839,0.212826,3.27984,0.92528,0.29221,0.87119
1702332281187500,-8.783839,0.270826,3.54984,0.78728,0.28121,0.63219
1702332281195312,-8.875839,0.343826,3.65984,0.78228,0.18721,0.35319
1702332281203125,-8.991839,0.397826,3.39984,0.64228,0.21821,0.6819
1702332281210937,-9.160839,0.409826,3.984,0.63028,0.20521,0.14081
1702332281218750,-9.315839,0.405826,2.973984,0.54228,0.3021,0.20881
1702332281226562,-9.404839,0.340826,2.991984,0.35528,0.6479,0.28681
1702332281234375,-9.448839,0.280826,3.5984,0.33828,0.17179,0.30181
1702332281242187,-9.498839,0.292826,3.18984,0.11928,0.16379,0.18881
1702332281250000,-9.545839,0.370826,3.21984,0.7672,0.12879,0.18181
1702332281257812,-9.552839,0.475826,3.86984,0.13572,0.19179,0.8781
1702332281265625,-9.536839,0.599826,3.192984,0.37072,0.22779,0.3781
1702332281273437,-9.521839,0.747826,3.237984,0.37072,0.34279,0.1019
1702332281281250,-9.507839,0.893826,3.226984,0.38872,0.32679,0.13919
1702332281289062,-9.480839,1.6826,3.221984,0.37572,0.31079,0.22019
1702332281296875,-9.451839,1.41826,3.239984,0.39372,0.48879,0.34919
1702332281304687,-9.408839,1.10826,3.255984,0.37772,0.44579,0.44419
1702332281312500,-9.360839,0.978826,3.239984,0.36372,0.37779,0.46219
1702332281320312,-9.314839,0.953826,3.241984,0.39372,0.40479,0.57219
1702332281328125,-9.240839,0.936826,3.296984,0.52172,0.36179,0.51219
1702332281335937,-9.174839,0.911826,3.329984,0.58072,0.36679,0.43019
1702332281343750,-9.158839,0.891826,3.266984,0.61172,0.24079,0.46319
1702332281351562,-9.172839,0.902826,3.187984,0.65972,0.23579,0.40019
1702332281359375,-9.143839,0.892826,3.127984,0.46972,0.34679,0.30119
1702332281367187,-9.129839,0.874826,3.86984,0.57772,0.19879,0.15819
1702332281375000,-9.115839,0.838826,3.106984,0.52972,0.31079,0.9319
1702332281382812,-9.69839,0.787826,3.91984,0.35572,0.27779,0.4319
1702332281390625,-9.76839,0.764826,3.50984,0.35872,0.28579,0.2819
1702332281398437,-9.150839,0.766826,3.25984,0.29072,0.28279,0.781
1702332281406250,-9.185839,0.733826,3.68984,0.22872,0.42779,0.2319
1702332281414062,-9.145839,0.620826,3.90984,0.33572,0.56079,0.2581
1702332281421875,-9.78839,0.488826,3.133984,0.30472,0.68679,0.2581
1702332281429687,-9.9839,0.396826,3.196984,0.38372,0.73879,0.3919
1702332281437500,-8.915839,0.288826,3.246984,0.36772,0.90279,0.8619
1702332281445312,-8.788839,0.211826,3.342984,0.42772,0.100979,0.13219
1702332281453125,-8.729839,0.197826,3.464984,0.61872,0.99079,0.21619
1702332281460937,-8.733839,0.250826,3.484984,0.82372,0.91979,0.15519
1702332281468750,-8.781839,0.310826,3.390984,0.101172,0.83879,0.14219
1702332281476562,-8.858839,0.349826,3.307984,0.132572,0.71879,0.1919
1702332281484375,-8.903839,0.354826,3.298984,0.163372,0.65579,0.21981
1702332281492187,-8.932839,0.308826,3.293984,0.188272,0.53779,0.39281
1702332281500000,-8.958839,0.273826,3.352984,0.211672,0.32179,0.56581
1702332281507812,-9.25839,0.245826,3.379984,0.236372,0.13879,0.83581
1702332281515625,-9.159839,0.336826,3.356984,0.257872,0.2321,0.109081
1702332281523437,-9.280839,0.502826,3.302984,0.258672,0.679,0.120681
1702332281531250,-9.356839,0.614826,3.257984,0.242372,0.21779,0.145281
1702332281539062,-9.427839,0.687826,3.327984,0.227972,0.38379,0.150481
1702332281546875,-9.498839,0.758826,3.395984,0.201472,0.53679,0.153881
1702332281554687,-9.560839,0.821826,3.365984,0.174772,0.61479,0.158981
1702332281562500,-9.592839,0.842826,3.363984,0.155572,0.78679,0.157881
1702332281570312,-9.600839,0.838826,3.399984,0.141472,0.84079,0.148581
1702332281578125,-9.558839,0.839826,3.462984,0.134172,0.98079,0.130781
1702332281585937,-9.506839,0.832826,3.514984,0.135972,0.104979,0.113081
1702332281593750,-9.480839,0.882826,3.514984,0.131772,0.95279,0.92081
1702332281601562,-9.462839,0.922826,3.453984,0.129272,0.93379,0.67881
1702332281609375,-9.443839,0.970826,3.388984,0.134572,0.79879,0.48181
1702332281617187,-9.450839,0.999826,3.381984,0.122372,0.94679,0.27481
1702332281625000,-9.466839,1.24826,3.363984,0.103672,0.94979,0.16481
1702332281632812,-9.404839,1.45826,3.289984,0.88372,0.91679,0.1119
1702332281640625,-9.293839,1.39826,3.203984,0.69672,0.85679,0.12119
1702332281648437,-9.187839,0.993826,3.246984,0.43072,0.87579,0.19819
1702332281656250,-9.49839,0.925826,3.280984,0.36872,0.87879,0.27819
1702332281664062,-8.997839,0.881826,3.271984,0.27972,0.72379,0.31219
1702332281671875,-8.943839,0.885826,3.275984,0.19872,0.73879,0.23019
1702332281679687,-8.863839,0.828826,3.282984,0.27472,0.69579,0.18219
1702332281687500,-8.814839,0.669826,3.271984,0.37272,0.54779,0.4319
1702332281695312,-8.833839,0.500826,3.230984,0.36672,0.59379,0.881
1702332281703125,-8.922839,0.408826,3.207984,0.39472,0.57979,0.13881
1702332281710937,-8.978839,0.400826,3.214984,0.53572,0.62079,0.24881
1702332281718750,-9.14839,0.412826,3.232984,0.76672,0.64279,0.37581
1702332281726562,-9.17839,0.443826,3.257984,0.88972,0.47779,0.53481
1702332281734375,-9.55839,0.439826,3.255984,0.109272,0.36079,0.64381
1702332281742187,-9.138839,0.451826,3.232984,0.111972,0.30279,0.74181
1702332281750000,-9.245839,0.530826,3.207984,0.110172,0.29679,0.95081
1702332281757812,-9.319839,0.644826,3.228984,0.111672,0.29379,0.103081
1702332281765625,-9.316839,0.747826,3.293984,0.95572,0.42679,0.116381
1702332281773437,-9.286839,0.821826,3.345984,0.72372,0.47879,0.124381
1702332281781250,-9.259839,0.890826,3.347984,0.47972,0.56479,0.123581
1702332281789062,-9.265839,0.979826,3.363984,0.26272,0.74479,0.106281
1702332281796875,-9.366839,1.104826,3.431984,0.14372,0.88479,0.88581
1702332281804687,-9.486839,1.277826,3.507984,0.7128,0.81379,0.77281
1702332281812500,-9.589839,1.396826,3.512984,0.20728,0.84479,0.54781
1702332281820312,-9.637839,1.463826,3.422984,0.37728,0.76879,0.37381
1702332281828125,-9.637839,1.450826,3.332984,0.51728,0.70279,0.30981
1702332281835937,-9.566839,1.356826,3.278984,0.65928,0.75779,0.26481
1702332281843750,-9.389839,1.211826,3.321984,0.80628,0.81079,0.2181
1702332281851562,-9.205839,1.113826,3.368984,0.91528,0.73679,0.15319
1702332281859375,-9.63839,1.80826,3.404984,0.102028,0.60679,0.34719
1702332281867187,-9.2839,1.70826,3.428984,0.106328,0.50879,0.50819
1702332281875000,-8.947839,1.26826,3.438984,0.122928,0.43579,0.63819
1702332281882812,-8.881839,0.968826,3.456984,0.118028,0.41679,0.72019
1702332281890625,-8.839839,0.866826,3.460984,0.127628,0.39779,0.84519
1702332281898437,-8.789839,0.802826,3.433984,0.117528,0.29979,0.83519
1702332281906250,-8.748839,0.775826,3.406984,0.111928,0.32679,0.73619
1702332281914062,-8.729839,0.720826,3.349984,0.101028,0.21779,0.75319
1702332281921875,-8.759839,0.643826,3.289984,0.85528,0.10279,0.62619
1702332281929687,-8.811839,0.542826,3.246984,0.65628,0.679,0.41819
1702332281937500,-8.916839,0.481826,3.205984,0.64128,0.13021,0.26019
1702332281945312,-8.976839,0.444826,3.149984,0.47528,0.19121,0.1819
1702332281953125,-8.968839,0.364826,3.138984,0.38328,0.18021,0.22081
1702332281960937,-9.24839,0.323826,3.212984,0.37128,0.22421,0.28681
1702332281968750,-9.76839,0.377826,3.261984,0.18428,0.11821,0.46081
1702332281976562,-9.143839,0.446826,3.259984,0.24828,0.7221,0.55781
1702332281984375,-9.233839,0.501826,3.309984,0.34728,0.18079,0.56281
1702332281992187,-9.351839,0.576826,3.390984,0.37728,0.22779,0.56281
1702332282000000,-9.427839,0.655826,3.442984,0.39428,0.34179,0.57981
1702332282007812,-9.455839,0.698826,3.464984,0.44128,0.47279,0.53281
1702332282015625,-9.466839,0.705826,3.455984,0.45428,0.55579,0.35681
1702332282023437,-9.462839,0.736826,3.487984,0.42128,0.53979,0.27481
1702332282031250,-9.462839,0.785826,3.507984,0.37328,0.61179,0.11481
1702332282039062,-9.443839,0.815826,3.489984,0.40128,0.56579,0.6219
1702332282046875,-9.407839,0.842826,3.453984,0.32128,0.53879,0.23919
1702332282054687,-9.324839,0.851826,3.460984,0.25628,0.55279,0.30519
1702332282062500,-9.232839,0.841826,3.448984,0.31628,0.52079,0.44919
1702332282070312,-9.162839,0.815826,3.415984,0.32428,0.42579,0.55019
1702332282078125,-9.89839,0.781826,3.365984,0.16928,0.33879,0.59819
1702332282085937,-9.5839,0.731826,3.363984,0.5828,0.31679,0.60119
1702332282093750,-8.934839,0.691826,3.426984,0.4572,0.20179,0.55119
1702332282101562,-8.936839,0.741826,3.469984,0.12872,0.14279,0.55519
1702332282109375,-8.961839,0.812826,3.410984,0.14172,0.9279,0.42619
1702332282117187,-8.971839,0.819826,3.336984,0.12372,0.7579,0.29719
1702332282125000,-8.924839,0.734826,3.261984,0.12172,0.2679,0.18419
1702332282132812,-8.882839,0.584826,3.221984,0.7472,0.14879,0.8819
1702332282140625,-8.850839,0.398826,3.201984,0.12272,0.8079,0.4119
1702332282148437,-8.831839,0.217826,3.210984,0.23272,0.5879,0.3681
1702332282156250,-8.852839,0.114826,3.286984,0.38672,0.8079,0.5281
1702332282164062,-8.904839,0.102826,3.340984,0.60372,0.6679,0.13081
1702332282171875,-8.987839,0.157826,3.374984,0.81772,0.5021,0.22781
1702332282179687,-9.92839,0.260826,3.435984,0.103872,0.11021,0.35181
1702332282187500,-9.221839,0.408826,3.437984,0.114372,0.9421,0.57681
1702332282195312,-9.336839,0.560826,3.367984,0.132972,0.3521,0.75081
1702332282203125,-9.409839,0.651826,3.345984,0.121272,0.11979,0.91681
1702332282210937,-9.400839,0.692826,3.374984,0.113372,0.32679,0.96681
1702332282218750,-9.360839,0.674826,3.426984,0.97672,0.46079,0.90481
1702332282226562,-9.335839,0.651826,3.489984,0.83972,0.53779,0.76081
1702332282234375,-9.317839,0.676826,3.572984,0.72872,0.56179,0.66681
1702332282242187,-9.297839,0.706826,3.665984,0.63772,0.55679,0.63481
1702332282250000,-9.247839,0.765826,3.690984,0.65772,0.59779,0.51981
1702332282257812,-9.212839,0.820826,3.697984,0.77172,0.60979,0.40481
1702332282265625,-9.178839,0.847826,3.705984,0.80072,0.63979,0.29481
1702332282273437,-9.136839,0.890826,3.663984,0.83372,0.64079,0.19781
1702332282281250,-9.128839,0.946826,3.602984,0.78672,0.59379,0.14981
1702332282289062,-9.156839,0.997826,3.552984,0.71072,0.42779,0.13281
1702332282296875,-9.217839,1.27826,3.482984,0.59972,0.31779,0.15081
1702332282304687,-9.253839,1.45826,3.361984,0.47972,0.7779,0.16381
1702332282312500,-9.231839,1.26826,3.262984,0.29172,0.12379,0.19781
1702332282320312,-9.181839,0.999826,3.203984,0.18072,0.15579,0.26381
1702332282328125,-9.174839,0.990826,3.172984,0.472,0.11479,0.28381
1702332282335937,-9.192839,0.999826,3.127984,0.13528,0.17479,0.30081
1702332282343750,-9.221839,0.984826,3.106984,0.30628,0.22079,0.28581
1702332282351562,-9.258839,0.929826,3.107984,0.35328,0.21779,0.31781
1702332282359375,-9.271839,0.838826,3.102984,0.47928,0.29979,0.31981
1702332282367187,-9.220839,0.760826,3.176984,0.60628,0.53179,0.29181
1702332282375000,-9.155839,0.695826,3.273984,0.67228,0.62379,0.21481
1702332282382812,-9.81839,0.681826,3.392984,0.71528,0.63579,0.10081
1702332282390625,-9.50839,0.704826,3.458984,0.69628,0.56479,0.5081
1702332282398437,-9.56839,0.771826,3.492984,0.81828,0.40079,0.4619
1702332282406250,-9.65839,0.813826,3.476984,0.72428,0.35779,0.11019
1702332282414062,-9.92839,0.816826,3.433984,0.66228,0.24879,0.15919
1702332282421875,-9.107839,0.768826,3.383984,0.61228,0.22779,0.17719
1702332282429687,-9.138839,0.699826,3.329984,0.61328,0.13179,0.14519
1702332282437500,-9.161839,0.619826,3.260984,0.57828,0.8779,0.13219
1702332282445312,-9.169839,0.544826,3.235984,0.42728,0.6279,0.319
1702332282453125,-9.188839,0.470826,3.223984,0.36828,0.5479,0.4681
1702332282460937,-9.178839,0.439826,3.230984,0.38628,0.14179,0.3281
1702332282468750,-9.174839,0.450826,3.270984,0.35328,0.10379,0.6281
1702332282476562,-9.173839,0.505826,3.300984,0.33828,0.16979,0.7881
1702332282484375,-9.160839,0.578826,3.338984,0.24428,0.14979,0.14181
1702332282492187,-9.129839,0.613826,3.369984,0.15528,0.17479,0.25581
1702332282500000,-9.103839,0.650826,3.385984,0.32528,0.27779,0.28881
1702332282507812,-9.108839,0.670826,3.381984,0.34128,0.32379,0.30481
1702332282515625,-9.122839,0.702826,3.390984,0.26428,0.29679,0.32081
1702332282523437,-9.120839,0.715826,3.388984,0.31028,0.34079,0.32081
1702332282531250,-9.140839,0.675826,3.356984,0.29228,0.30579,0.28681
1702332282539062,-9.214839,0.651826,3.300984,0.25628,0.23479,0.17181
1702332282546875,-9.294839,0.630826,3.237984,0.13228,0.9079,0.21881
1702332282554687,-9.321839,0.631826,3.216984,0.13528,0.10379,0.15681
1702332282562500,-9.299839,0.658826,3.216984,0.11828,0.15379,0.4481
1702332282570312,-9.275839,0.715826,3.237984,0.13028,0.13179,0.519
1702332282578125,-9.240839,0.767826,3.246984,0.11128,0.11079,0.7119
1702332282585937,-9.233839,0.792826,3.228984,0.13028,0.1021,0.6919
1702332282593750,-9.217839,0.774826,3.248984,0.12928,0.8879,0.14919
1702332282601562,-9.174839,0.751826,3.273984,0.22128,0.5279,0.18219
1702332282609375,-9.129839,0.730826,3.257984,0.18628,0.1279,0.21719
1702332282617187,-9.106839,0.701826,3.266984,0.16028,0.3679,0.11819
1702332282625000,-9.96839,0.657826,3.268984,0.6728,0.979,0.13419
1702332282632812,-9.87839,0.616826,3.264984,0.14172,0.2379,0.7619
1702332282640625,-9.104839,0.546826,3.246984,0.13972,0.7779,0.7419
1702332282648437,-9.121839,0.488826,3.235984,0.21572,0.4479,0.5381
1702332282656250,-9.112839,0.395826,3.257984,0.33672,0.10479,0.5481
1702332282664062,-9.101839,0.321826,3.262984,0.38772,0.621,0.11481
1702332282671875,-9.104839,0.295826,3.286984,0.55672,0.8379,0.14781
1702332282679687,-9.98839,0.322826,3.354984,0.63172,0.3979,0.21281
1702332282687500,-9.115839,0.396826,3.378984,0.69272,0.2279,0.30881
1702332282695312,-9.134839,0.468826,3.381984,0.80672,0.2879,0.28881
1702332282703125,-9.156839,0.544826,3.370984,0.85272,0.1279,0.32081
1702332282710937,-9.192839,0.589826,3.349984,0.75572,0.6079,0.45081
1702332282718750,-9.226839,0.601826,3.327984,0.87872,0.6879,0.45181
1702332282726562,-9.244839,0.592826,3.318984,0.81772,0.17579,0.48381
1702332282734375,-9.266839,0.561826,3.343984,0.83172,0.22479,0.53181
1702332282742187,-9.265839,0.513826,3.347984,0.85972,0.16679,0.56581
1702332282750000,-9.248839,0.455826,3.325984,0.89172,0.22979,0.58081
1702332282757812,-9.239839,0.464826,3.349984,0.92172,0.28179,0.54981
1702332282765625,-9.266839,0.544826,3.363984,0.95572,0.28979,0.56281
1702332282773437,-9.262839,0.610826,3.410984,0.112572,0.29279,0.64281
1702332282781250,-9.263839,0.695826,3.455984,0.110972,0.31479,0.57981
1702332282789062,-9.310839,0.800826,3.426984,0.109672,0.27679,0.52981
1702332282796875,-9.338839,0.895826,3.424984,0.92272,0.29579,0.56481
1702332282804687,-9.335839,0.953826,3.419984,0.84372,0.31179,0.56581
1702332282812500,-9.270839,0.965826,3.406984,0.76872,0.27379,0.54881
1702332282820312,-9.212839,0.982826,3.395984,0.70472,0.25979,0.56681
1702332282828125,-9.174839,1.8826,3.370984,0.56572,0.18879,0.54981
1702332282835937,-9.163839,1.32826,3.311984,0.40872,0.12579,0.56781
1702332282843750,-9.172839,1.35826,3.273984,0.31272,0.14679,0.55481
1702332282851562,-9.199839,1.31826,3.269984,0.24972,0.19579,0.55581
1702332282859375,-9.239839,1.24826,3.255984,0.11172,0.22379,0.49181
1702332282867187,-9.275839,1.5826,3.196984,0.4828,0.18479,0.46381
1702332282875000,-9.320839,0.979826,3.147984,0.23228,0.25279,0.47881
1702332282882812,-9.280839,0.905826,3.147984,0.43628,0.39179,0.32281
1702332282890625,-9.209839,0.838826,3.223984,0.60828,0.50679,0.24481
1702332282898437,-9.175839,0.795826,3.295984,0.79228,0.58879,0.3781
1702332282906250,-9.137839,0.781826,3.329984,0.92828,0.48879,0.15619
1702332282914062,-9.100839,0.750826,3.368984,0.101928,0.35779,0.23619
1702332282921875,-9.70839,0.696826,3.397984,0.107728,0.32279,0.41419
1702332282929687,-9.79839,0.665826,3.390984,0.99928,0.24679,0.46319
1702332282937500,-9.73839,0.612826,3.370984,0.89028,0.20079,0.46319
1702332282945312,-9.84839,0.572826,3.358984,0.82928,0.18679,0.41519
1702332282953125,-9.115839,0.537826,3.340984,0.76828,0.2279,0.30419
1702332282960937,-9.146839,0.501826,3.314984,0.63728,0.2079,0.26219
1702332282968750,-9.166839,0.494826,3.268984,0.61328,0.3221,0.9819
1702332282976562,-9.152839,0.484826,3.239984,0.52028,0.3221,0.5019
1702332282984375,-9.145839,0.482826,3.225984,0.41228,0.3279,0.1281
1702332282992187,-9.129839,0.451826,3.217984,0.42928,0.5979,0.17381
1702332283000000,-9.108839,0.397826,3.192984,0.38328,0.7879,0.15781
1702332283007812,-9.125839,0.353826,3.210984,0.35428,0.8679,0.14381
1702332283015625,-9.112839,0.333826,3.264984,0.30628,0.18279,0.9481
1702332283023437,-9.119839,0.368826,3.295984,0.22628,0.35479,0.12481
1702332283031250,-9.158839,0.412826,3.351984,0.15128,0.31679,0.11081
1702332283039062,-9.170839,0.456826,3.361984,0.5428,0.35279,0.17081
1702332283046875,-9.180839,0.514826,3.338984,0.13172,0.31179,0.15481
1702332283054687,-9.170839,0.514826,3.327984,0.20572,0.31979,0.21981
1702332283062500,-9.161839,0.514826,3.333984,0.37872,0.33379,0.21781
1702332283070312,-9.157839,0.520826,3.336984,0.44472,0.21679,0.16681
1702332283078125,-9.189839,0.541826,3.320984,0.61472,0.15379,0.22981
1702332283085937,-9.234839,0.543826,3.327984,0.61772,0.5079,0.21181
1702332283093750,-9.250839,0.532826,3.325984,0.63472,0.4479,0.25881
1702332283101562,-9.245839,0.526826,3.343984,0.61572,0.11879,0.24481
1702332283109375,-9.242839,0.517826,3.354984,0.70572,0.27079,0.31081
1702332283117187,-9.233839,0.517826,3.370984,0.75472,0.31779,0.26181
1702332283125000,-9.211839,0.501826,3.367984,0.73772,0.26879,0.30981
1702332283132812,-9.188839,0.472826,3.376984,0.83472,0.32679,0.29081
1702332283140625,-9.174839,0.452826,3.426984,0.84972,0.34279,0.30681
1702332283148437,-9.176839,0.422826,3.428984,0.86872,0.30479,0.28981
1702332283156250,-9.191839,0.405826,3.385984,0.87972,0.34779,0.30781
1702332283164062,-9.212839,0.404826,3.354984,0.110072,0.21779,0.28881
1702332283171875,-9.223839,0.398826,3.327984,0.126272,0.18579,0.31481
1702332283179687,-9.210839,0.414826,3.279984,0.138072,0.28079,0.39881
1702332283187500,-9.221839,0.426826,3.239984,0.139572,0.29679,0.44681
1702332283195312,-9.233839,0.456826,3.208984,0.144272,0.38679,0.52581
1702332283203125,-9.197839,0.490826,3.239984,0.153172,0.46279,0.57581
1702332283210937,-9.153839,0.551826,3.268984,0.148572,0.53879,0.60781
1702332283218750,-9.143839,0.600826,3.253984,0.135672,0.49179,0.73881
1702332283226562,-9.145839,0.629826,3.257984,0.136872,0.48379,0.78881
1702332283234375,-9.134839,0.651826,3.295984,0.125672,0.65279,0.76081
1702332283242187,-9.99839,0.699826,3.311984,0.111972,0.69079,0.72781
1702332283250000,-9.122839,0.726826,3.320984,0.100972,0.77579,0.68181
1702332283257812,-9.165839,0.729826,3.304984,0.86672,0.72879,0.71581
1702332283265625,-9.192839,0.718826,3.280984,0.83972,0.65479,0.66581
1702332283273437,-9.236839,0.676826,3.262984,0.73172,0.65579,0.56981
1702332283281250,-9.249839,0.621826,3.280984,0.77972,0.65579,0.52081
1702332283289062,-9.254839,0.566826,3.320984,0.79572,0.66179,0.40881
1702332283296875,-9.241839,0.570826,3.365984,0.76772,0.57679,0.32781
1702332283304687,-9.228839,0.614826,3.390984,0.76872,0.59079,0.31081
1702332283312500,-9.220839,0.669826,3.379984,0.83372,0.47379,0.29181
1702332283320312,-9.206839,0.747826,3.421984,0.70472,0.41279,0.40781
1702332283328125,-9.179839,0.769826,3.451984,0.61372,0.41079,0.32681
1702332283335937,-9.175839,0.764826,3.446984,0.62872,0.39379,0.35881
1702332283343750,-9.169839,0.720826,3.453984,0.43972,0.39379,0.37781
1702332283351562,-9.155839,0.660826,3.455984,0.36072,0.40979,0.39481
1702332283359375,-9.122839,0.580826,3.437984,0.37372,0.56279,0.38081
1702332283367187,-9.90839,0.535826,3.424984,0.35972,0.55679,0.42781
1702332283375000,-9.45839,0.516826,3.451984,0.37572,0.57079,0.42681
1702332283382812,-9.27839,0.512826,3.451984,0.35772,0.56179,0.42981
1702332283390625,-9.33839,0.514826,3.417984,0.37372,0.54279,0.44481
1702332283398437,-9.61839,0.561826,3.381984,0.36272,0.32479,0.37681
1702332283406250,-9.94839,0.592826,3.365984,0.38072,0.35279,0.34381
1702332283414062,-9.122839,0.568826,3.327984,0.36572,0.24079,0.29481
1702332283421875,-9.177839,0.597826,3.284984,0.38372,0.13779,0.30881
1702332283429687,-9.216839,0.647826,3.282984,0.30672,0.8779,0.26081
1702332283437500,-9.235839,0.705826,3.244984,0.27772,0.5579,0.19681
1702332283445312,-9.261839,0.713826,3.234984,0.12972,0.7379,0.18681
1702332283453125,-9.253839,0.759826,3.210984,0.8472,0.3579,0.20181
1702332283460937,-9.265839,0.768826,3.174984,0.13472,0.6379,0.11981
1702332283468750,-9.245839,0.670826,3.190984,0.4272,0.3079,0.5581
1702332283476562,-9.206839,0.612826,3.282984,0.3528,0.11279,0.881
1702332283484375,-9.168839,0.629826,3.394984,0.10228,0.20579,0.319
1702332283492187,-9.162839,0.673826,3.397984,0.13128,0.18679,0.8419
1702332283500000,-9.189839,0.694826,3.349984,0.11628,0.5879,0.6819
1702332283507812,-9.234839,0.717826,3.370984,0.22728,0.17579,0.8219
1702332283515625,-9.268839,0.697826,3.358984,0.19228,0.19779,0.6919
1702332283523437,-9.303839,0.656826,3.297984,0.17928,0.10979,0.8319
1702332283531250,-9.301839,0.590826,3.244984,0.18628,0.379,0.7319
1702332283539062,-9.283839,0.544826,3.241984,0.11428,0.3979,0.8519
1702332283546875,-9.227839,0.519826,3.221984,0.12828,0.11321,0.5519
1702332283554687,-9.182839,0.514826,3.153984,0.12828,0.17621,0.5519
1702332283562500,-9.168839,0.516826,3.115984,0.528,0.18421,0.8719
1702332283570312,-9.164839,0.541826,3.151984,0.10272,0.17921,0.8719
1702332283578125,-9.164839,0.554826,3.126984,0.2672,0.20321,0.5619
1702332283585937,-9.194839,0.579826,3.79984,0.3928,0.18521,0.4281
1702332283593750,-9.203839,0.603826,3.88984,0.428,0.19021,0.4019
1702332283601562,-9.208839,0.621826,3.104984,0.3528,0.20921,0.781
1702332283609375,-9.244839,0.637826,3.117984,0.828,0.9721,0.6919
1702332283617187,-9.261839,0.686826,3.138984,0.8772,0.17121,0.819
1702332283625000,-9.287839,0.757826,3.138984,0.13472,0.17121,0.781
1702332283632812,-9.341839,0.827826,3.88984,0.772,0.20121,0.5781
1702332283640625,-9.412839,0.877826,3.14984,0.5728,0.21221,0.7581
1702332283648437,-9.460839,0.809826,2.993984,0.13528,0.13321,0.9281
1702332283656250,-9.415839,0.642826,3.25984,0.33728,0.1321,0.12581
1702332283664062,-9.294839,0.498826,3.102984,0.38428,0.20179,0.3181
1702332283671875,-9.189839,0.377826,3.228984,0.36528,0.28479,0.17819
1702332283679687,-9.139839,0.329826,3.399984,0.37228,0.26879,0.29519
1702332283687500,-9.134839,0.451826,3.520984,0.37428,0.30279,0.50019
1702332283695312,-9.172839,0.647826,3.529984,0.35928,0.25579,0.50019
1702332283703125,-9.231839,0.787826,3.444984,0.16728,0.3579,0.49019
1702332283710937,-9.241839,0.818826,3.365984,0.2072,0.1621,0.41219
1702332283718750,-9.211839,0.782826,3.291984,0.8072,0.8221,0.26819
1702332283726562,-9.194839,0.687826,3.208984,0.9672,0.13421,0.20519
1702332283734375,-9.197839,0.601826,3.117984,0.1528,0.24121,0.18619
1702332283742187,-9.177839,0.512826,3.59984,0.6728,0.22021,0.3919
1702332283750000,-9.147839,0.447826,3.25984,0.8128,0.24221,0.5619
1702332283757812,-9.146839,0.398826,2.998984,0.13228,0.16821,0.2119
1702332283765625,-9.164839,0.380826,3.34984,0.6528,0.5121,0.2419
1702332283773437,-9.171839,0.418826,3.104984,0.3828,0.6579,0.8981
1702332283781250,-9.160839,0.497826,3.183984,0.2872,0.10479,0.8681
1702332283789062,-9.195839,0.569826,3.221984,0.6072,0.16779,0.8681
1702332283796875,-9.240839,0.670826,3.221984,0.1872,0.20779,0.14181
1702332283804687,-9.300839,0.755826,3.196984,0.2372,0.17479,0.20181
1702332283812500,-9.357839,0.780826,3.163984,0.8928,0.26479,0.20581
1702332283820312,-9.421839,0.739826,3.144984,0.9028,0.24879,0.22181
1702332283828125,-9.452839,0.664826,3.115984,0.3828,0.17779,0.10581
1702332283835937,-9.473839,0.607826,3.52984,0.11428,0.11579,0.519
1702332283843750,-9.469839,0.635826,3.45984,0.228,0.15979,0.5619
1702332283851562,-9.441839,0.700826,3.122984,0.1072,0.26379,0.7019
1702332283859375,-9.391839,0.774826,3.185984,0.6072,0.20679,0.5719
1702332283867187,-9.355839,0.843826,3.169984,0.8528,0.18679,0.3619
1702332283875000,-9.338839,0.896826,3.149984,0.11728,0.23879,0.5119
1702332283882812,-9.335839,0.931826,3.136984,0.17728,0.29279,0.419
1702332283890625,-9.316839,0.897826,3.113984,0.17928,0.30079,0.6719
1702332283898437,-9.290839,0.833826,3.86984,0.33628,0.33379,0.8119
1702332283906250,-9.249839,0.779826,3.102984,0.35028,0.29579,0.3419
1702332283914062,-9.174839,0.720826,3.124984,0.37928,0.42379,0.16219
1702332283921875,-9.119839,0.666826,3.111984,0.36328,0.28279,0.22719
1702332283929687,-9.137839,0.664826,3.124984,0.40628,0.19479,0.27719
1702332283937500,-9.171839,0.678826,3.135984,0.31228,0.3479,0.29419
1702332283945312,-9.222839,0.661826,3.111984,0.29828,0.7279,0.30919
1702332283953125,-9.264839,0.644826,3.68984,0.17428,0.421,0.29419
1702332283960937,-9.303839,0.631826,3.45984,0.9528,0.679,0.24719
1702332283968750,-9.321839,0.636826,3.50984,0.9528,0.10279,0.23119
1702332283976562,-9.334839,0.613826,3.52984,0.10828,0.9179,0.18519
1702332283984375,-9.377839,0.607826,3.50984,0.3328,0.22779,0.15119
1702332283992187,-9.356839,0.594826,3.41984,0.13028,0.28579,0.18019
1702332284000000,-9.313839,0.554826,3.65984,0.11428,0.30479,0.21219
1702332284007812,-9.231839,0.477826,3.176984,0.8028,0.29679,0.19819
1702332284015625,-9.151839,0.423826,3.252984,0.9528,0.44679,0.35819
1702332284023437,-9.79839,0.426826,3.315984,0.7972,0.48079,0.47219
1702332284031250,-9.8839,0.442826,3.383984,0.17572,0.60979,0.58619
1702332284039062,-8.927839,0.441826,3.437984,0.20772,0.58279,0.68219
1702332284046875,-8.883839,0.430826,3.450984,0.40872,0.57779,0.74619
1702332284054687,-8.917839,0.397826,3.403984,0.56972,0.44979,0.67219
1702332284062500,-8.991839,0.395826,3.316984,0.77472,0.36279,0.62819
1702332284070312,-9.48839,0.389826,3.307984,0.105572,0.31079,0.48719
1702332284078125,-9.31839,0.357826,3.315984,0.127972,0.21679,0.27519
1702332284085937,-9.24839,0.350826,3.264984,0.145072,0.25779,0.10119
1702332284093750,-9.53839,0.363826,3.185984,0.165272,0.10679,0.10481
1702332284101562,-9.94839,0.386826,3.169984,0.175872,0.5779,0.29681
1702332284109375,-9.171839,0.425826,3.178984,0.182072,0.7621,0.42381
1702332284117187,-9.284839,0.564826,3.153984,0.173572,0.2579,0.62081
1702332284125000,-9.369839,0.721826,3.95984,0.154672,0.18379,0.70281
1702332284132812,-9.422839,0.799826,3.86984,0.137272,0.42679,0.75481
1702332284140625,-9.486839,0.838826,3.131984,0.127472,0.57879,0.80681
1702332284148437,-9.506839,0.809826,3.165984,0.94872,0.73679,0.68081
1702332284156250,-9.505839,0.803826,3.171984,0.69672,0.85979,0.57381
1702332284164062,-9.506839,0.818826,3.221984,0.60572,0.97179,0.39781
1702332284171875,-9.465839,0.831826,3.329984,0.62372,0.98879,0.31681
1702332284179687,-9.446839,0.897826,3.408984,0.61472,0.90579,0.5681
1702332284187500,-9.472839,0.989826,3.408984,0.63172,0.85879,0.3919
1702332284195312,-9.468839,1.110826,3.361984,0.60472,0.80479,0.17019
1702332284203125,-9.475839,1.191826,3.262984,0.60272,0.76379,0.18419
1702332284210937,-9.440839,1.230826,3.190984,0.50972,0.65479,0.28019
1702332284218750,-9.400839,1.242826,3.138984,0.43572,0.67179,0.25019
1702332284226562,-9.343839,1.217826,3.140984,0.30572,0.63279,0.18219
1702332284234375,-9.237839,1.178826,3.149984,0.7372,0.57779,0.19719
1702332284242187,-9.178839,1.132826,3.136984,0.972,0.57779,0.16419
1702332284250000,-9.130839,1.81826,3.138984,0.14828,0.61279,0.14519
1702332284257812,-9.93839,1.11826,3.124984,0.36928,0.74079,0.6219
1702332284265625,-9.70839,0.980826,3.167984,0.37428,0.84379,0.6881
1702332284273437,-9.87839,0.951826,3.246984,0.42128,0.85379,0.14881
1702332284281250,-9.94839,0.909826,3.320984,0.45428,0.86679,0.26181
1702332284289062,-9.113839,0.859826,3.336984,0.59928,0.98679,0.33081
1702332284296875,-9.128839,0.815826,3.316984,0.64428,0.91879,0.31381
1702332284304687,-9.135839,0.799826,3.314984,0.71828,0.90779,0.24681
1702332284312500,-9.157839,0.800826,3.313984,0.79928,0.92179,0.15481
1702332284320312,-9.163839,0.767826,3.306984,0.79928,0.79879,0.7481
1702332284328125,-9.139839,0.691826,3.279984,0.79528,0.73079,0.7119
1702332284335937,-9.96839,0.623826,3.246984,0.78928,0.70479,0.18719
1702332284343750,-9.37839,0.580826,3.241984,0.77128,0.63979,0.26919
1702332284351562,-8.966839,0.513826,3.232984,0.70528,0.68979,0.43019
1702332284359375,-8.911839,0.428826,3.219984,0.64428,0.68179,0.51019
1702332284367187,-8.816839,0.267826,3.162984,0.45428,0.81079,0.59219
1702332284375000,-8.717839,0.105826,3.137984,0.35828,0.84379,0.69019
1702332284382812,-8.714839,0.63826,3.176984,0.16728,0.72679,0.75819
1702332284390625,-8.808839,0.171826,3.248984,0.272,0.50579,0.67919
1702332284398437,-8.923839,0.382826,3.234984,0.29972,0.24379,0.57119
1702332284406250,-9.56839,0.536826,3.144984,0.54772,0.9079,0.28619
1702332284414062,-9.137839,0.527826,3.99984,0.82172,0.9479,0.3481
1702332284421875,-9.218839,0.485826,3.88984,0.104172,0.4879,0.22181
1702332284429687,-9.344839,0.539826,3.45984,0.110972,0.221,0.49981
1702332284437500,-9.450839,0.594826,3.14984,0.111972,0.6879,0.66281
1702332284445312,-9.455839,0.603826,3.45984,0.110372,0.14179,0.79081
1702332284453125,-9.430839,0.580826,3.142984,0.111772,0.23979,0.80681
1702332284460937,-9.421839,0.593826,3.194984,0.110072,0.35479,0.84081
1702332284468750,-9.455839,0.638826,3.183984,0.95872,0.37379,0.82681
1702332284476562,-9.466839,0.700826,3.221984,0.88672,0.51079,0.66481
1702332284484375,-9.480839,0.792826,3.316984,0.91872,0.61479,0.52081
1702332284492187,-9.470839,0.876826,3.381984,0.91972,0.60379,0.37681
1702332284500000,-9.430839,0.911826,3.399984,0.95072,0.68879,0.29681
1702332284507812,-9.354839,0.910826,3.428984,0.109572,0.62779,0.8581
1702332284515625,-9.266839,0.908826,3.446984,0.107072,0.58379,0.1319
1702332284523437,-9.180839,0.891826,3.446984,0.108872,0.59079,0.22219
1702332284531250,-9.77839,0.881826,3.410984,0.99772,0.34479,0.30419
1702332284539062,-9.34839,0.853826,3.383984,0.87572,0.35579,0.35219
1702332284546875,-8.998839,0.848826,3.336984,0.89072,0.20779,0.28919
1702332284554687,-8.996839,0.842826,3.257984,0.87272,0.12879,0.20819
1702332284562500,-9.7839,0.840826,3.174984,0.88572,0.5979,0.1519
1702332284570312,-8.968839,0.797826,3.140984,0.88172,0.21179,0.6781
1702332284578125,-8.940839,0.737826,3.189984,0.92472,0.24479,0.24481
1702332284585937,-8.957839,0.702826,3.270984,0.97072,0.19479,0.30881
1702332284593750,-9.2839,0.696826,3.313984,0.91672,0.27079,0.44181
1702332284601562,-9.59839,0.761826,3.284984,0.85572,0.27579,0.56881
1702332284609375,-9.116839,0.808826,3.261984,0.75772,0.29379,0.69981
1702332284617187,-9.152839,0.816826,3.329984,0.56672,0.51979,0.78381
1702332284625000,-9.184839,0.825826,3.369984,0.40772,0.57679,0.75581
1702332284632812,-9.265839,0.833826,3.329984,0.25372,0.55779,0.69181
1702332284640625,-9.352839,0.810826,3.284984,0.21172,0.56679,0.56181
1702332284648437,-9.387839,0.730826,3.219984,0.16772,0.53479,0.44881
1702332284656250,-9.393839,0.659826,3.201984,0.11072,0.54079,0.31781
1702332284664062,-9.345839,0.592826,3.275984,0.12372,0.61679,0.25581
1702332284671875,-9.302839,0.592826,3.360984,0.26472,0.57079,0.22281
1702332284679687,-9.249839,0.641826,3.401984,0.34872,0.54479,0.12181
1702332284687500,-9.207839,0.725826,3.388984,0.37872,0.50079,0.12281
1702332284695312,-9.182839,0.822826,3.379984,0.37972,0.43479,0.12181
1702332284703125,-9.147839,0.886826,3.406984,0.34772,0.53379,0.12281
1702332284710937,-9.120839,0.928826,3.403984,0.26572,0.45579,0.22181
1702332284718750,-9.123839,0.928826,3.361984,0.12672,0.35279,0.23781
1702332284726562,-9.122839,0.861826,3.320984,0.11272,0.31679,0.22081
1702332284734375,-9.121839,0.766826,3.275984,0.3672,0.32779,0.20381
1702332284742187,-9.97839,0.668826,3.273984,0.372,0.36079,0.23681
1702332284750000,-9.57839,0.583826,3.277984,0.11128,0.42279,0.25781
1702332284757812,-9.20839,0.543826,3.277984,0.1672,0.35179,0.23881
1702332284765625,-9.36839,0.525826,3.298984,0.9772,0.31379,0.21981
1702332284773437,-9.101839,0.548826,3.286984,0.9572,0.28379,0.28481
1702332284781250,-9.169839,0.576826,3.248984,0.21972,0.28679,0.31681
1702332284789062,-9.226839,0.595826,3.203984,0.29872,0.30079,0.33081
1702332284796875,-9.280839,0.591826,3.246984,0.34572,0.33079,0.34681
1702332284804687,-9.300839,0.598826,3.273984,0.37572,0.34379,0.45881
1702332284812500,-9.285839,0.611826,3.248984,0.35972,0.30779,0.52281
1702332284820312,-9.267839,0.610826,3.230984,0.37572,0.39279,0.47481
1702332284828125,-9.239839,0.602826,3.255984,0.30672,0.50679,0.46481
1702332284835937,-9.221839,0.617826,3.304984,0.34072,0.56479,0.42981
1702332284843750,-9.204839,0.623826,3.388984,0.24972,0.54279,0.36481
1702332284851562,-9.191839,0.665826,3.428984,0.29572,0.53279,0.33381
1702332284859375,-9.203839,0.685826,3.433984,0.31772,0.45379,0.31381
1702332284867187,-9.221839,0.716826,3.408984,0.36372,0.52179,0.26581
1702332284875000,-9.237839,0.748826,3.401984,0.36172,0.46779,0.20381
1702332284882812,-9.230839,0.761826,3.381984,0.37672,0.47079,0.18781
1702332284890625,-9.210839,0.772826,3.336984,0.39272,0.51979,0.13981
1702332284898437,-9.199839,0.771826,3.291984,0.39872,0.36179,0.8681
1702332284906250,-9.231839,0.776826,3.255984,0.41472,0.23579,0.5481
1702332284914062,-9.238839,0.796826,3.201984,0.36972,0.18479,0.581
1702332284921875,-9.254839,0.830826,3.156984,0.32372,0.19579,0.5381
1702332284929687,-9.268839,0.845826,3.165984,0.32172,0.9979,0.13481
1702332284937500,-9.293839,0.866826,3.178984,0.36472,0.10779,0.18481
1702332284945312,-9.343839,0.891826,3.156984,0.23972,0.15079,0.24981
1702332284953125,-9.392839,0.964826,3.143984,0.19672,0.21679,0.27881
1702332284960937,-9.391839,0.981826,3.178984,0.10872,0.37079,0.31881
1702332284968750,-9.375839,0.974826,3.192984,0.2772,0.32679,0.33681
1702332284976562,-9.355839,0.961826,3.183984,0.12828,0.38979,0.32281
1702332284984375,-9.325839,0.949826,3.250984,0.12628,0.49879,0.27381
1702332284992187,-9.275839,0.910826,3.336984,0.28128,0.49879,0.21081
1702332285000000,-9.235839,0.869826,3.401984,0.31028,0.49079,0.22481
1702332285007812,-9.178839,0.845826,3.469984,0.37528,0.60279,0.10081
1702332285015625,-9.88839,0.861826,3.523984,0.52928,0.67979,0.2081
1702332285023437,-9.54839,0.872826,3.538984,0.63828,0.69079,0.20119
1702332285031250,-9.71839,0.916826,3.532984,0.66428,0.58479,0.31619
1702332285039062,-9.121839,0.944826,3.464984,0.67628,0.51679,0.43019
1702332285046875,-9.168839,0.922826,3.358984,0.72128,0.27479,0.49519
1702332285054687,-9.178839,0.811826,3.232984,0.68228,0.21279,0.61219
1702332285062500,-9.127839,0.653826,3.153984,0.56128,0.12779,0.57919
1702332285070312,-9.49839,0.512826,3.140984,0.48028,0.13879,0.62919
1702332285078125,-8.997839,0.444826,3.151984,0.41428,0.6879,0.66419
1702332285085937,-8.969839,0.436826,3.142984,0.30928,0.6279,0.64719
1702332285093750,-8.960839,0.462826,3.149984,0.18528,0.7879,0.55119
1702332285101562,-8.959839,0.480826,3.122984,0.12428,0.5979,0.44019
1702332285109375,-8.949839,0.449826,3.167984,0.7672,0.9479,0.36019
1702332285117187,-8.953839,0.433826,3.234984,0.11872,0.5079,0.19819
1702332285125000,-8.995839,0.494826,3.248984,0.16472,0.7779,0.3919
1702332285132812,-9.70839,0.579826,3.230984,0.13072,0.12379,0.12281
1702332285140625,-9.116839,0.627826,3.232984,0.12472,0.16379,0.23781
1702332285148437,-9.183839,0.603826,3.225984,0.23272,0.11479,0.34981
1702332285156250,-9.279839,0.567826,3.205984,0.32372,0.8679,0.39781
1702332285164062,-9.348839,0.537826,3.153984,0.37472,0.7379,0.45881
1702332285171875,-9.395839,0.538826,3.126984,0.38972,0.7579,0.45881
1702332285179687,-9.416839,0.562826,3.183984,0.57872,0.7679,0.40881
1702332285187500,-9.424839,0.613826,3.237984,0.62672,0.15079,0.47081
1702332285195312,-9.426839,0.656826,3.243984,0.60972,0.9579,0.36081
1702332285203125,-9.430839,0.751826,3.262984,0.64472,0.22179,0.24681
1702332285210937,-9.414839,0.870826,3.325984,0.55172,0.32079,0.13581
1702332285218750,-9.375839,0.997826,3.428984,0.44072,0.29879,0.5881
1702332285226562,-9.346839,1.129826,3.482984,0.23872,0.34479,0.3619
1702332285234375,-9.345839,1.217826,3.462984,0.14972,0.27179,0.11819
1702332285242187,-9.340839,1.264826,3.406984,0.7372,0.23379,0.11919
1702332285250000,-9.308839,1.243826,3.388984,0.13128,0.23279,0.5219
1702332285257812,-9.259839,1.168826,3.394984,0.11728,0.24379,0.17919
1702332285265625,-9.216839,1.30826,3.351984,0.12128,0.20579,0.14419
1702332285273437,-9.179839,0.929826,3.275984,0.19528,0.13179,0.16219
1702332285281250,-9.144839,0.855826,3.257984,0.24228,0.13179,0.16119
1702332285289062,-9.112839,0.832826,3.257984,0.30228,0.13779,0.13119
1702332285296875,-9.144839,0.871826,3.248984,0.39628,0.13979,0.19419
1702332285304687,-9.157839,0.928826,3.223984,0.50328,0.6879,0.21119
1702332285312500,-9.160839,0.954826,3.221984,0.59428,0.1179,0.16419
1702332285320312,-9.175839,0.964826,3.237984,0.61728,0.18879,0.14319
1702332285328125,-9.155839,0.977826,3.280984,0.82028,0.31679,0.14019
1702332285335937,-9.141839,0.968826,3.300984,0.88628,0.24279,0.8919
1702332285343750,-9.143839,0.900826,3.282984,0.88728,0.40379,0.5719
1702332285351562,-9.98839,0.799826,3.298984,0.94928,0.38679,0.7219
1702332285359375,-9.61839,0.688826,3.313984,0.90128,0.35179,0.10619
1702332285367187,-9.46839,0.576826,3.318984,0.83728,0.44479,0.5919
1702332285375000,-9.49839,0.490826,3.329984,0.63128,0.46179,0.17419
1702332285382812,-9.82839,0.464826,3.349984,0.61528,0.51079,0.20619
1702332285390625,-9.100839,0.484826,3.365984,0.53828,0.59279,0.20619
1702332285398437,-9.110839,0.535826,3.365984,0.42728,0.51179,0.22419
1702332285406250,-9.127839,0.604826,3.367984,0.36528,0.52779,0.19319
1702332285414062,-9.155839,0.660826,3.351984,0.38328,0.53579,0.20719
1702332285421875,-9.160839,0.691826,3.316984,0.36128,0.40579,0.22819
1702332285429687,-9.173839,0.694826,3.259984,0.38128,0.35279,0.22519
1702332285437500,-9.166839,0.649826,3.203984,0.25028,0.35979,0.29319
1702332285445312,-9.152839,0.582826,3.203984,0.22028,0.35879,0.22919
1702332285453125,-9.156839,0.578826,3.226984,0.19028,0.50979,0.27619
1702332285460937,-9.185839,0.587826,3.246984,0.14328,0.54479,0.30819
1702332285468750,-9.195839,0.636826,3.268984,0.11628,0.56679,0.21019
1702332285476562,-9.179839,0.654826,3.302984,0.2072,0.62079,0.11319
1702332285484375,-9.180839,0.674826,3.309984,0.8672,0.59379,0.10019
1702332285492187,-9.199839,0.716826,3.289984,0.11872,0.59079,0.10119
1702332285500000,-9.210839,0.740826,3.264984,0.13372,0.57179,0.1081
1702332285507812,-9.197839,0.753826,3.282984,0.11672,0.59079,0.2781
1702332285515625,-9.196839,0.727826,3.307984,0.19472,0.52479,0.7481
1702332285523437,-9.202839,0.692826,3.304984,0.19272,0.54979,0.2881
1702332285531250,-9.195839,0.683826,3.275984,0.23872,0.51679,0.5981
1702332285539062,-9.152839,0.620826,3.266984,0.33072,0.60479,0.4481
1702332285546875,-9.126839,0.548826,3.271984,0.36772,0.52579,0.4081
1702332285554687,-9.103839,0.513826,3.315984,0.37972,0.50379,0.1081
1702332285562500,-9.40839,0.485826,3.354984,0.55772,0.49079,0.481
1702332285570312,-8.972839,0.482826,3.372984,0.61572,0.50679,0.4019
1702332285578125,-8.918839,0.474826,3.390984,0.69972,0.31379,0.2919
1702332285585937,-8.873839,0.443826,3.403984,0.87272,0.29779,0.4819
1702332285593750,-8.845839,0.425826,3.464984,0.91972,0.25479,0.16019
1702332285601562,-8.859839,0.461826,3.466984,0.107272,0.31179,0.12719
1702332285609375,-8.883839,0.518826,3.426984,0.112072,0.25379,0.119
1702332285617187,-8.926839,0.570826,3.367984,0.113672,0.26779,0.219
1702332285625000,-9.20839,0.658826,3.271984,0.125872,0.24779,0.22181
1702332285632812,-9.133839,0.689826,3.320984,0.136272,0.29179,0.32081
1702332285640625,-9.224839,0.637826,3.376984,0.146972,0.29079,0.43181
1702332285648437,-9.356839,0.626826,3.325984,0.146772,0.17279,0.64081
1702332285656250,-9.469839,0.609826,3.226984,0.134472,0.16179,0.70381
1702332285664062,-9.502839,0.554826,3.208984,0.148072,0.34179,0.88081
1702332285671875,-9.433839,0.472826,3.246984,0.153672,0.56779,0.93381
1702332285679687,-9.384839,0.481826,3.322984,0.138572,0.55479,0.88381
1702332285687500,-9.356839,0.552826,3.363984,0.135472,0.54079,0.81981
1702332285695312,-9.382839,0.666826,3.349984,0.127772,0.52779,0.70881
1702332285703125,-9.459839,0.835826,3.327984,0.125172,0.44079,0.59381
1702332285710937,-9.517839,0.987826,3.311984,0.117172,0.38279,0.54781
1702332285718750,-9.526839,1.85826,3.302984,0.110972,0.42979,0.51581
1702332285726562,-9.510839,1.118826,3.307984,0.113972,0.48379,0.46881
1702332285734375,-9.421839,1.137826,3.356984,0.112372,0.54979,0.45381
1702332285742187,-9.336839,1.184826,3.404984,0.93572,0.49979,0.47181
1702332285750000,-9.267839,1.240826,3.415984,0.72272,0.47579,0.31081
1702332285757812,-9.179839,1.312826,3.438984,0.47272,0.58779,0.29681
1702332285765625,-9.123839,1.370826,3.449984,0.26172,0.60579,0.30381
1702332285773437,-9.89839,1.380826,3.442984,0.4928,0.51779,0.32181
1702332285781250,-9.89839,1.351826,3.401984,0.28128,0.47979,0.27481
1702332285789062,-9.72839,1.260826,3.309984,0.54628,0.47979,0.21281
1702332285796875,-9.59839,1.146826,3.257984,0.68528,0.44379,0.14881
1702332285804687,-9.50839,1.17826,3.271984,0.84028,0.50979,0.2181
1702332285812500,-9.71839,0.934826,3.291984,0.80828,0.43379,0.4219
1702332285820312,-9.106839,0.883826,3.282984,0.83828,0.33279,0.5919
1702332285828125,-9.124839,0.875826,3.261984,0.84028,0.24279,0.7419
1702332285835937,-9.129839,0.868826,3.257984,0.75928,0.25079,0.6019
1702332285843750,-9.126839,0.870826,3.262984,0.86728,0.23779,0.17219
1702332285851562,-9.142839,0.900826,3.246984,0.88328,0.17779,0.21919
1702332285859375,-9.159839,0.917826,3.262984,0.97328,0.13079,0.17319
1702332285867187,-9.190839,0.891826,3.268984,0.116428,0.12279,0.20119
1702332285875000,-9.230839,0.861826,3.277984,0.122628,0.8979,0.21719
1702332285882812,-9.231839,0.828826,3.250984,0.119828,0.14679,0.21519
1702332285890625,-9.210839,0.754826,3.234984,0.113328,0.7579,0.20119
1702332285898437,-9.222839,0.653826,3.257984,0.94828,0.16579,0.20119
1702332285906250,-9.214839,0.584826,3.284984,0.87328,0.18779,0.16819
1702332285914062,-9.198839,0.541826,3.286984,0.76028,0.24279,0.12319
1702332285921875,-9.193839,0.535826,3.284984,0.57628,0.28679,0.15419
1702332285929687,-9.198839,0.546826,3.304984,0.52228,0.28979,0.25519
1702332285937500,-9.225839,0.559826,3.302984,0.41128,0.28779,0.25719
1702332285945312,-9.241839,0.604826,3.297984,0.38128,0.27379,0.22519
1702332285953125,-9.233839,0.650826,3.295984,0.36228,0.23879,0.32319
1702332285960937,-9.182839,0.700826,3.304984,0.33128,0.25279,0.27519
1702332285968750,-9.113839,0.744826,3.354984,0.23628,0.28879,0.37219
1702332285976562,-9.53839,0.763826,3.385984,0.15928,0.23179,0.45219
1702332285984375,-9.23839,0.740826,3.349984,0.10828,0.14479,0.50319
1702332285992187,-9.839,0.707826,3.282984,0.4728,0.10079,0.50319
1702332286000000,-8.991839,0.679826,3.253984,0.372,0.11979,0.49019
1702332286007812,-8.991839,0.680826,3.246984,0.6772,0.12379,0.57119
1702332286015625,-8.993839,0.662826,3.253984,0.16072,0.18579,0.54019
1702332286023437,-9.19839,0.656826,3.241984,0.15372,0.18579,0.43919
1702332286031250,-9.43839,0.630826,3.239984,0.33772,0.12479,0.31119
1702332286039062,-9.84839,0.617826,3.216984,0.38872,0.4579,0.25119
1702332286046875,-9.152839,0.627826,3.194984,0.52772,0.4921,0.18819
1702332286054687,-9.195839,0.674826,3.221984,0.57172,0.5021,0.2719
1702332286062500,-9.198839,0.703826,3.239984,0.61572,0.11379,0.8581
1702332286070312,-9.180839,0.725826,3.252984,0.67772,0.6179,0.16481
1702332286078125,-9.176839,0.725826,3.270984,0.69072,0.9979,0.19881
1702332286085937,-9.169839,0.718826,3.293984,0.64472,0.15679,0.24581
1702332286093750,-9.178839,0.725826,3.322984,0.59572,0.17579,0.32881
1702332286101562,-9.173839,0.725826,3.324984,0.54872,0.19479,0.24881
1702332286109375,-9.164839,0.718826,3.360984,0.59672,0.30979,0.18481
1702332286117187,-9.131839,0.755826,3.388984,0.63172,0.32079,0.10281
1702332286125000,-9.80839,0.743826,3.406984,0.61772,0.33479,0.3781
1702332286132812,-9.41839,0.720826,3.390984,0.63272,0.33779,0.3781
1702332286140625,-9.32839,0.694826,3.379984,0.62072,0.30279,0.7619
1702332286148437,-9.28839,0.652826,3.349984,0.62972,0.33779,0.11919
1702332286156250,-9.60839,0.645826,3.318984,0.68272,0.24279,0.12419
1702332286164062,-9.128839,0.669826,3.309984,0.83772,0.16379,0.6119
1702332286171875,-9.186839,0.699826,3.336984,0.91272,0.21279,0.6781
1702332286179687,-9.286839,0.738826,3.354984,0.103672,0.8079,0.19381
1702332286187500,-9.346839,0.793826,3.383984,0.111572,0.8079,0.41581
1702332286195312,-9.333839,0.856826,3.320984,0.112672,0.18379,0.54681
1702332286203125,-9.322839,0.882826,3.261984,0.99172,0.34079,0.76181
1702332286210937,-9.255839,0.813826,3.293984,0.89372,0.55879,0.81381
1702332286218750,-9.200839,0.691826,3.316984,0.77672,0.58879,0.72981
1702332286226562,-9.260839,0.660826,3.277984,0.55072,0.57179,0.75281
1702332286234375,-9.350839,0.675826,3.241984,0.47072,0.53379,0.67481
1702332286242187,-9.403839,0.702826,3.259984,0.41172,0.61279,0.76881
1702332286250000,-9.455839,0.754826,3.347984,0.52072,0.55579,0.68781
1702332286257812,-9.454839,0.815826,3.365984,0.66372,0.59479,0.76481
1702332286265625,-9.429839,0.842826,3.354984,0.72372,0.55079,0.81381
1702332286273437,-9.432839,0.873826,3.338984,0.78472,0.65679,0.73481
1702332286281250,-9.430839,0.927826,3.365984,0.72072,0.72779,0.68881
1702332286289062,-9.420839,0.973826,3.419984,0.59772,0.70879,0.60881
1702332286296875,-9.399839,1.62826,3.412984,0.34872,0.70879,0.54781
1702332286304687,-9.362839,1.145826,3.367984,0.24072,0.64379,0.46781
1702332286312500,-9.340839,1.194826,3.374984,0.8472,0.58079,0.42081
1702332286320312,-9.300839,1.197826,3.403984,0.8772,0.63779,0.37081
1702332286328125,-9.261839,1.183826,3.410984,0.11528,0.62179,0.32481
1702332286335937,-9.215839,1.139826,3.370984,0.13328,0.64579,0.31081
1702332286343750,-9.186839,1.82826,3.352984,0.25528,0.76379,0.32581
1702332286351562,-9.153839,0.977826,3.365984,0.35828,0.68779,0.24381
1702332286359375,-9.154839,0.904826,3.363984,0.41028,0.76879,0.15181
1702332286367187,-9.161839,0.836826,3.306984,0.52028,0.77479,0.5781
1702332286375000,-9.139839,0.808826,3.284984,0.65228,0.77779,0.13819
1702332286382812,-9.85839,0.817826,3.282984,0.65528,0.80579,0.18319
1702332286390625,-9.62839,0.810826,3.300984,0.65228,0.78379,0.23319
1702332286398437,-9.31839,0.822826,3.325984,0.66328,0.77879,0.36419
1702332286406250,-9.4839,0.816826,3.304984,0.64828,0.70279,0.41119
1702332286414062,-8.992839,0.795826,3.270984,0.70728,0.60479,0.55719
1702332286421875,-8.980839,0.756826,3.255984,0.72428,0.61079,0.58719
1702332286429687,-8.952839,0.691826,3.212984,0.62828,0.52579,0.62219
1702332286437500,-8.934839,0.641826,3.140984,0.64028,0.49879,0.60919
1702332286445312,-8.922839,0.604826,3.128984,0.47128,0.50979,0.59219
1702332286453125,-8.910839,0.548826,3.196984,0.26928,0.55679,0.51419
1702332286460937,-8.904839,0.486826,3.250984,0.14528,0.39179,0.35519
1702332286468750,-8.936839,0.486826,3.252984,0.528,0.34079,0.27719
1702332286476562,-9.839,0.574826,3.221984,0.16572,0.27479,0.16619
1702332286484375,-9.69839,0.681826,3.243984,0.22572,0.24479,0.8619
1702332286492187,-9.136839,0.789826,3.250984,0.38072,0.25779,0.7281
1702332286500000,-9.186839,0.843826,3.230984,0.31072,0.20479,0.18981
1702332286507812,-9.227839,0.868826,3.183984,0.31172,0.24579,0.28481
1702332286515625,-9.231839,0.837826,3.162984,0.28072,0.19379,0.31681
1702332286523437,-9.218839,0.836826,3.223984,0.17372,0.25079,0.29981
1702332286531250,-9.220839,0.826826,3.324984,0.13872,0.23179,0.28781
1702332286539062,-9.235839,0.804826,3.351984,0.18672,0.29779,0.22281
1702332286546875,-9.258839,0.799826,3.302984,0.30072,0.22179,0.18581
1702332286554687,-9.326839,0.836826,3.277984,0.36272,0.22479,0.16981
1702332286562500,-9.356839,0.885826,3.300984,0.37772,0.32279,0.17081
1702332286570312,-9.348839,0.929826,3.295984,0.39672,0.29879,0.15181
1702332286578125,-9.357839,0.941826,3.280984,0.36272,0.22779,0.12181
1702332286585937,-9.312839,0.936826,3.250984,0.37972,0.32579,0.5781
1702332286593750,-9.242839,0.939826,3.246984,0.31972,0.38879,0.5419
1702332286601562,-9.165839,0.922826,3.277984,0.24172,0.36179,0.14919
1702332286609375,-9.118839,0.890826,3.282984,0.14972,0.33979,0.18219
1702332286617187,-9.88839,0.875826,3.322984,0.17972,0.31279,0.19719
1702332286625000,-9.32839,0.864826,3.376984,0.16772,0.26979,0.16819
1702332286632812,-9.839,0.837826,3.363984,0.21472,0.13579,0.8919
1702332286640625,-8.957839,0.790826,3.300984,0.33872,0.10579,0.4219
1702332286648437,-8.906839,0.705826,3.246984,0.39772,0.22779,0.2319
1702332286656250,-8.825839,0.582826,3.234984,0.55372,0.22279,0.8681
1702332286664062,-8.787839,0.480826,3.232984,0.62672,0.29579,0.16881
1702332286671875,-8.795839,0.413826,3.248984,0.61172,0.29579,0.13681
1702332286679687,-8.836839,0.387826,3.315984,0.64172,0.30979,0.24881
1702332286687500,-8.890839,0.423826,3.302984,0.62872,0.28779,0.24781
1702332286695312,-8.976839,0.471826,3.322984,0.77172,0.21979,0.22881
1702332286703125,-9.67839,0.534826,3.365984,0.89372,0.18679,0.37181
1702332286710937,-9.142839,0.580826,3.435984,0.101372,0.21079,0.50181
1702332286718750,-9.222839,0.623826,3.496984,0.112272,0.7079,0.73981
1702332286726562,-9.331839,0.704826,3.446984,0.110972,0.521,0.78581
1702332286734375,-9.412839,0.735826,3.406984,0.114772,0.11879,0.101481
1702332286742187,-9.418839,0.713826,3.415984,0.115772,0.26079,0.108281
1702332286750000,-9.438839,0.680826,3.378984,0.103072,0.28979,0.119681
1702332286757812,-9.462839,0.627826,3.322984,0.101772,0.38879,0.103581
1702332286765625,-9.482839,0.563826,3.336984,0.106972,0.46079,0.93681
1702332286773437,-9.513839,0.570826,3.358984,0.107272,0.40679,0.88581
1702332286781250,-9.557839,0.653826,3.329984,0.111572,0.35979,0.80881
1702332286789062,-9.574839,0.756826,3.324984,0.134972,0.31379,0.80681
1702332286796875,-9.533839,0.886826,3.345984,0.138072,0.37979,0.79081
1702332286804687,-9.458839,0.985826,3.358984,0.136172,0.30779,0.80881
1702332286812500,-9.369839,1.68826,3.349984,0.128572,0.39879,0.77681
1702332286820312,-9.288839,1.156826,3.386984,0.110372,0.57579,0.75981
1702332286828125,-9.263839,1.263826,3.467984,0.91772,0.57579,0.68081
1702332286835937,-9.247839,1.387826,3.561984,0.54072,0.55079,0.57381
1702332286843750,-9.244839,1.502826,3.577984,0.13472,0.55079,0.49781
1702332286851562,-9.250839,1.555826,3.521984,0.9528,0.49579,0.38581
1702332286859375,-9.238839,1.522826,3.478984,0.40828,0.49579,0.32481
1702332286867187,-9.157839,1.388826,3.431984,0.58328,0.55579,0.24881
1702332286875000,-9.79839,1.167826,3.356984,0.68928,0.53379,0.19981
1702332286882812,-9.40839,0.965826,3.306984,0.73528,0.52379,0.4081
1702332286890625,-9.32839,0.831826,3.336984,0.79128,0.54279,0.7519
1702332286898437,-9.33839,0.773826,3.329984,0.80128,0.53579,0.19019
1702332286906250,-9.51839,0.760826,3.302984,0.86428,0.40679,0.20519
1702332286914062,-9.76839,0.799826,3.288984,0.80128,0.33979,0.41319
1702332286921875,-9.94839,0.834826,3.291984,0.86328,0.37279,0.46119
1702332286929687,-9.72839,0.818826,3.311984,0.85928,0.42479,0.46419
1702332286937500,-9.28839,0.762826,3.329984,0.87828,0.45179,0.47719
1702332286945312,-8.973839,0.700826,3.340984,0.86728,0.54379,0.44119
1702332286953125,-8.888839,0.630826,3.383984,0.80628,0.62879,0.45719
1702332286960937,-8.848839,0.613826,3.417984,0.69128,0.62879,0.44619
1702332286968750,-8.815839,0.622826,3.412984,0.63028,0.61879,0.46119
1702332286976562,-8.826839,0.611826,3.347984,0.61528,0.59879,0.34919
1702332286984375,-8.893839,0.579826,3.282984,0.39828,0.42179,0.23919
1702332286992187,-8.954839,0.496826,3.250984,0.34128,0.49179,0.7719
1702332287000000,-8.952839,0.396826,3.227984,0.12128,0.50879,0.7919
1702332287007812,-8.941839,0.251826,3.254984,0.11272,0.45979,0.3419
1702332287015625,-8.949839,0.140826,3.295984,0.39772,0.47079,0.5419
1702332287023437,-8.994839,0.114826,3.360984,0.60472,0.37879,0.1219
1702332287031250,-9.112839,0.227826,3.405984,0.83572,0.33479,0.13181
1702332287039062,-9.213839,0.409826,3.390984,0.94072,0.27679,0.22881
1702332287046875,-9.258839,0.535826,3.381984,0.112872,0.20679,0.33781
1702332287054687,-9.264839,0.620826,3.370984,0.114172,0.30179,0.46681
1702332287062500,-9.271839,0.671826,3.356984,0.110472,0.34479,0.55081
1702332287070312,-9.272839,0.689826,3.336984,0.110472,0.47279,0.58381
1702332287078125,-9.265839,0.700826,3.406984,0.108772,0.64979,0.60081
1702332287085937,-9.257839,0.711826,3.516984,0.110572,0.56579,0.59881
1702332287093750,-9.257839,0.730826,3.581984,0.91772,0.74279,0.56981
1702332287101562,-9.248839,0.726826,3.595984,0.85472,0.75879,0.55481
1702332287109375,-9.215839,0.761826,3.577984,0.82572,0.90379,0.44181
1702332287117187,-9.165839,0.803826,3.554984,0.71072,0.103779,0.33581
1702332287125000,-9.180839,0.863826,3.563984,0.71472,0.89879,0.31681
1702332287132812,-9.253839,0.910826,3.602984,0.79772,0.84479,0.20081
1702332287140625,-9.352839,0.909826,3.597984,0.85272,0.65179,0.14781
1702332287148437,-9.419839,0.868826,3.484984,0.82972,0.47079,0.24681
1702332287156250,-9.395839,0.784826,3.401984,0.83072,0.32379,0.27881
1702332287164062,-9.270839,0.731826,3.352984,0.79872,0.32279,0.31081
1702332287171875,-9.133839,0.711826,3.360984,0.65672,0.39079,0.29781
1702332287179687,-9.36839,0.743826,3.358984,0.62072,0.43479,0.31681
1702332287187500,-8.999839,0.798826,3.369984,0.45172,0.40979,0.30081
1702332287195312,-9.19839,0.884826,3.385984,0.29772,0.35279,0.31581
1702332287203125,-9.60839,0.929826,3.331984,0.10972,0.36879,0.30181
1702332287210937,-9.91839,0.898826,3.280984,0.12972,0.38779,0.31481
1702332287218750,-9.90839,0.854826,3.273984,0.1772,0.39579,0.30181
1702332287226562,-9.90839,0.832826,3.291984,0.1272,0.37579,0.32181
1702332287234375,-9.104839,0.830826,3.275984,0.3572,0.30879,0.29981
1702332287242187,-9.139839,0.838826,3.268984,0.228,0.16279,0.35281
1702332287250000,-9.211839,0.828826,3.237984,0.1172,0.8079,0.43281
1702332287257812,-9.280839,0.816826,3.164984,0.13228,0.6979,0.51581
1702332287265625,-9.309839,0.794826,3.146984,0.13428,0.9879,0.61181
1702332287273437,-9.275839,0.742826,3.237984,0.17428,0.24979,0.48181
1702332287281250,-9.237839,0.779826,3.322984,0.34728,0.35379,0.37281
1702332287289062,-9.252839,0.850826,3.354984,0.51728,0.35079,0.30881
1702332287296875,-9.271839,0.953826,3.390984,0.62928,0.45479,0.27981
1702332287304687,-9.234839,1.9826,3.449984,0.74928,0.57479,0.15081
1702332287312500,-9.160839,1.4826,3.523984,0.85928,0.59979,0.5781
1702332287320312,-9.107839,0.901826,3.570984,0.93328,0.50179,0.15219
1702332287328125,-9.93839,0.757826,3.577984,0.89928,0.33879,0.23419
1702332287335937,-9.120839,0.719826,3.570984,0.86428,0.39679,0.28519
1702332287343750,-9.141839,0.750826,3.579984,0.75128,0.40779,0.33619
1702332287351562,-9.163839,0.758826,3.548984,0.61428,0.25479,0.30319
1702332287359375,-9.207839,0.741826,3.496984,0.45928,0.9679,0.24019
1702332287367187,-9.216839,0.728826,3.410984,0.42628,0.7179,0.19519
1702332287375000,-9.196839,0.725826,3.327984,0.41228,0.2779,0.19419
1702332287382812,-9.168839,0.703826,3.302984,0.38328,0.8279,0.17619
1702332287390625,-9.125839,0.653826,3.306984,0.41228,0.6079,0.19419
1702332287398437,-9.84839,0.611826,3.300984,0.38228,0.8279,0.20919
1702332287406250,-9.70839,0.597826,3.282984,0.39528,0.10779,0.21019
1702332287414062,-9.64839,0.625826,3.289984,0.45828,0.18679,0.19319
1702332287421875,-9.78839,0.677826,3.309984,0.41228,0.20579,0.19319
1702332287429687,-9.90839,0.715826,3.369984,0.40028,0.21079,0.11119
1702332287437500,-9.122839,0.760826,3.383984,0.33528,0.14279,0.12919
1702332287445312,-9.209839,0.807826,3.338984,0.33428,0.4179,0.13119
1702332287453125,-9.279839,0.833826,3.313984,0.25728,0.13679,0.5119
1702332287460937,-9.303839,0.816826,3.302984,0.11628,0.9379,0.10019
1702332287468750,-9.327839,0.758826,3.280984,0.13128,0.5279,0.519
1702332287476562,-9.315839,0.707826,3.257984,0.8628,0.5779,0.2781
1702332287484375,-9.265839,0.688826,3.262984,0.11428,0.8579,0.8619
1702332287492187,-9.193839,0.681826,3.284984,0.10028,0.9079,0.10119
1702332287500000,-9.168839,0.703826,3.329984,0.5528,0.13179,0.14719
1702332287507812,-9.150839,0.751826,3.415984,0.12728,0.23079,0.19819
1702332287515625,-9.103839,0.808826,3.480984,0.13228,0.40779,0.22619
1702332287523437,-9.77839,0.881826,3.514984,0.23728,0.36779,0.32419
1702332287531250,-9.76839,0.934826,3.509984,0.27028,0.40279,0.30619
1702332287539062,-9.109839,0.897826,3.453984,0.19228,0.38979,0.32319
1702332287546875,-9.182839,0.843826,3.388984,0.19228,0.29379,0.35519
1702332287554687,-9.244839,0.768826,3.334984,0.8228,0.25579,0.26119
1702332287562500,-9.268839,0.706826,3.302984,0.2472,0.17879,0.19719
1702332287570312,-9.265839,0.673826,3.275984,0.10272,0.6679,0.15019
1702332287578125,-9.237839,0.648826,3.241984,0.11572,0.4979,0.2119
1702332287585937,-9.199839,0.628826,3.223984,0.11972,0.2579,0.8719
1702332287593750,-9.159839,0.618826,3.203984,0.13872,0.3479,0.9019
1702332287601562,-9.134839,0.631826,3.212984,0.9872,0.6879,0.3619
1702332287609375,-9.92839,0.666826,3.230984,0.24272,0.19279,0.5519
1702332287617187,-9.63839,0.699826,3.232984,0.22672,0.14379,0.3919
1702332287625000,-9.59839,0.703826,3.230984,0.22672,0.23879,0.3919
1702332287632812,-9.51839,0.679826,3.232984,0.39672,0.24479,0.2481
1702332287640625,-9.57839,0.619826,3.205984,0.36572,0.22279,0.8881
1702332287648437,-9.53839,0.522826,3.185984,0.46872,0.23279,0.20281
1702332287656250,-9.21839,0.463826,3.216984,0.62772,0.27679,0.19981
1702332287664062,-9.3839,0.452826,3.311984,0.61172,0.27679,0.23281
1702332287671875,-9.12839,0.497826,3.396984,0.76572,0.27979,0.27981
1702332287679687,-9.67839,0.508826,3.433984,0.87972,0.15679,0.29181
1702332287687500,-9.128839,0.513826,3.457984,0.97372,0.13779,0.30681
1702332287695312,-9.145839,0.514826,3.486984,0.101672,0.29579,0.29381
1702332287703125,-9.128839,0.551826,3.523984,0.111172,0.32079,0.35481
1702332287710937,-9.126839,0.580826,3.559984,0.118772,0.30979,0.37181
1702332287718750,-9.122839,0.613826,3.543984,0.135972,0.34279,0.41881
1702332287726562,-9.107839,0.627826,3.525984,0.135772,0.26379,0.48281
1702332287734375,-9.150839,0.658826,3.489984,0.137272,0.20079,0.48281
1702332287742187,-9.184839,0.679826,3.417984,0.135872,0.20879,0.54581
1702332287750000,-9.252839,0.706826,3.388984,0.137172,0.19479,0.61081
1702332287757812,-9.300839,0.756826,3.399984,0.138572,0.21079,0.72381
1702332287765625,-9.309839,0.752826,3.360984,0.135272,0.24579,0.70881
1702332287773437,-9.281839,0.722826,3.340984,0.135372,0.28979,0.75681
1702332287781250,-9.250839,0.717826,3.329984,0.133572,0.32779,0.75781
1702332287789062,-9.248839,0.764826,3.334984,0.118272,0.41779,0.70981
1702332287796875,-9.268839,0.871826,3.340984,0.108272,0.44779,0.73081
1702332287804687,-9.260839,0.964826,3.365984,0.110172,0.47179,0.72881
1702332287812500,-9.255839,1.32826,3.381984,0.91372,0.37679,0.68281
1702332287820312,-9.296839,1.96826,3.354984,0.81872,0.35179,0.60481
1702332287828125,-9.344839,1.149826,3.298984,0.75572,0.29979,0.66881
1702332287835937,-9.370839,1.234826,3.255984,0.60272,0.45579,0.57281
1702332287843750,-9.371839,1.291826,3.273984,0.43072,0.43879,0.57481
1702332287851562,-9.369839,1.264826,3.266984,0.26272,0.38179,0.54181
1702332287859375,-9.345839,1.193826,3.232984,0.10572,0.33479,0.51181
1702332287867187,-9.286839,1.148826,3.212984,0.8028,0.30179,0.41681
1702332287875000,-9.226839,1.94826,3.248984,0.28428,0.30779,0.30781
1702332287882812,-9.154839,1.82826,3.322984,0.37528,0.33779,0.21181
1702332287890625,-9.113839,1.79826,3.383984,0.53428,0.36479,0.15181
1702332287898437,-9.85839,1.114826,3.390984,0.73528,0.37879,0.5581
1702332287906250,-9.86839,1.171826,3.358984,0.88628,0.35479,0.7319
1702332287914062,-9.113839,1.185826,3.331984,0.110728,0.45779,0.16519
1702332287921875,-9.124839,1.156826,3.316984,0.119528,0.46679,0.31119
1702332287929687,-9.138839,1.61826,3.289984,0.128928,0.43979,0.40619
1702332287937500,-9.170839,0.931826,3.237984,0.138228,0.40379,0.40619
1702332287945312,-9.186839,0.805826,3.221984,0.136328,0.33379,0.45719
1702332287953125,-9.143839,0.667826,3.210984,0.116428,0.39279,0.40719
1702332287960937,-9.79839,0.561826,3.228984,0.109728,0.28679,0.44319
1702332287968750,-9.25839,0.525826,3.257984,0.106428,0.26879,0.46019
1702332287976562,-9.7839,0.511826,3.268984,0.89028,0.23079,0.44819
1702332287984375,-9.16839,0.540826,3.268984,0.89328,0.18679,0.36619
1702332287992187,-8.996839,0.562826,3.282984,0.75328,0.23579,0.31919
1702332288000000,-8.960839,0.575826,3.302984,0.63228,0.30679,0.25419
1702332288007812,-8.965839,0.602826,3.336984,0.61828,0.32579,0.22119
1702332288015625,-9.1839,0.656826,3.318984,0.54128,0.31179,0.20519
1702332288023437,-9.58839,0.683826,3.273984,0.43128,0.30679,0.12719
1702332288031250,-9.112839,0.671826,3.270984,0.34028,0.26279,0.4619
1702332288039062,-9.200839,0.672826,3.252984,0.16628,0.15579,0.7781
1702332288046875,-9.288839,0.713826,3.203984,0.6228,0.1279,0.28681
1702332288054687,-9.347839,0.736826,3.171984,0.12572,0.9279,0.30081
1702332288062500,-9.367839,0.721826,3.178984,0.14072,0.4579,0.31681
1702332288070312,-9.378839,0.717826,3.180984,0.13972,0.14679,0.30181
1702332288078125,-9.369839,0.755826,3.176984,0.13572,0.26979,0.32181
1702332288085937,-9.362839,0.818826,3.192984,0.7972,0.31679,0.30181
1702332288093750,-9.356839,0.874826,3.234984,0.1628,0.48579,0.24081
1702332288101562,-9.293839,0.895826,3.300984,0.12028,0.59279,0.6281
1702332288109375,-9.201839,0.867826,3.363984,0.13428,0.60979,0.3319
1702332288117187,-9.101839,0.792826,3.437984,0.16528,0.59879,0.14519
1702332288125000,-9.53839,0.751826,3.539984,0.8228,0.64079,0.24419
1702332288132812,-9.37839,0.780826,3.608984,0.4172,0.59979,0.27619
1702332288140625,-8.993839,0.804826,3.620984,0.13372,0.62179,0.30819
1702332288148437,-8.945839,0.761826,3.586984,0.22772,0.56979,0.24519
1702332288156250,-8.889839,0.641826,3.514984,0.37172,0.40379,0.24919
1702332288164062,-8.853839,0.493826,3.433984,0.57772,0.36579,0.25319
1702332288171875,-8.824839,0.355826,3.392984,0.60772,0.31379,0.14119
1702332288179687,-8.811839,0.271826,3.426984,0.77672,0.20679,0.7719
1702332288187500,-8.832839,0.263826,3.435984,0.93272,0.8979,0.4781
1702332288195312,-8.875839,0.288826,3.372984,0.105272,0.4579,0.24181
1702332288203125,-8.922839,0.322826,3.295984,0.114372,0.22579,0.33881
1702332288210937,-8.950839,0.335826,3.266984,0.123372,0.36979,0.51581
1702332288218750,-8.978839,0.307826,3.250984,0.122872,0.45379,0.69481
1702332288226562,-9.24839,0.350826,3.228984,0.133672,0.46079,0.91681
1702332288234375,-9.88839,0.391826,3.232984,0.134872,0.49579,0.103081
1702332288242187,-9.135839,0.400826,3.225984,0.136072,0.59379,0.117681
1702332288250000,-9.209839,0.395826,3.219984,0.134372,0.62979,0.117781
1702332288257812,-9.296839,0.388826,3.207984,0.133972,0.71879,0.121281
1702332288265625,-9.397839,0.410826,3.225984,0.136772,0.69179,0.131081
1702332288273437,-9.491839,0.459826,3.230984,0.135472,0.81779,0.121381
1702332288281250,-9.548839,0.507826,3.282984,0.138772,0.84779,0.119681
1702332288289062,-9.596839,0.540826,3.338984,0.151772,0.78779,0.114381
1702332288296875,-9.624839,0.627826,3.345984,0.153372,0.72279,0.115881
1702332288304687,-9.589839,0.693826,3.354984,0.140872,0.83679,0.111281
1702332288312500,-9.514839,0.777826,3.385984,0.139072,0.89479,0.106681
1702332288320312,-9.414839,0.859826,3.476984,0.155272,0.88479,0.98181
1702332288328125,-9.366839,0.972826,3.516984,0.131272,0.85079,0.97181
1702332288335937,-9.318839,1.71826,3.536984,0.109672,0.83179,0.86081
1702332288343750,-9.292839,1.126826,3.534984,0.91272,0.84279,0.74881
1702332288351562,-9.247839,1.114826,3.541984,0.72272,0.86179,0.78381
1702332288359375,-9.190839,1.45826,3.532984,0.56472,0.84779,0.76981
1702332288367187,-9.145839,0.958826,3.527984,0.43672,0.87179,0.77381
1702332288375000,-9.97839,0.863826,3.512984,0.34872,0.82579,0.72281
1702332288382812,-9.62839,0.763826,3.473984,0.33172,0.87179,0.80281
1702332288390625,-9.51839,0.668826,3.457984,0.34672,0.94279,0.75681
1702332288398437,-9.68839,0.615826,3.410984,0.32772,0.89079,0.67881
1702332288406250,-9.125839,0.613826,3.372984,0.23872,0.79579,0.70781
1702332288414062,-9.159839,0.641826,3.390984,0.23972,0.84779,0.57981
1702332288421875,-9.166839,0.658826,3.410984,0.16572,0.85379,0.56181
1702332288429687,-9.184839,0.676826,3.428984,0.8572,0.88079,0.45281
1702332288437500,-9.164839,0.689826,3.451984,0.8428,0.91079,0.35781
1702332288445312,-9.144839,0.711826,3.505984,0.6828,0.96279,0.27781
1702332288453125,-9.109839,0.741826,3.552984,0.12228,0.101279,0.9681
1702332288460937,-9.89839,0.786826,3.592984,0.13128,0.103979,0.7181
1702332288468750,-9.89839,0.793826,3.608984,0.14128,0.95079,0.2719
1702332288476562,-9.94839,0.806826,3.570984,0.12428,0.80279,0.6119
1702332288484375,-9.116839,0.775826,3.516984,0.7328,0.68379,0.11219
1702332288492187,-9.117839,0.724826,3.466984,0.1428,0.65879,0.6319
1702332288500000,-9.134839,0.654826,3.441984,0.7972,0.57979,0.8019
1702332288507812,-9.135839,0.560826,3.405984,0.34872,0.42479,0.2119
1702332288515625,-9.136839,0.496826,3.345984,0.37672,0.34779,0.7581
1702332288523437,-9.133839,0.468826,3.353984,0.50172,0.44879,0.2781
1702332288531250,-9.91839,0.500826,3.360984,0.45372,0.46279,0.12381
1702332288539062,-9.90839,0.573826,3.358984,0.57972,0.36379,0.12181
1702332288546875,-9.114839,0.651826,3.372984,0.45472,0.37479,0.17081
1702332288554687,-9.144839,0.711826,3.365984,0.51672,0.32879,0.16981
1702332288562500,-9.171839,0.739826,3.365984,0.59572,0.31479,0.13781
1702332288570312,-9.169839,0.754826,3.381984,0.59172,0.33979,0.18781
1702332288578125,-9.158839,0.769826,3.397984,0.59572,0.37479,0.21781
1702332288585937,-9.162839,0.750826,3.423984,0.62172,0.32579,0.20481
1702332288593750,-9.144839,0.711826,3.439984,0.65772,0.29579,0.20081
1702332288601562,-9.137839,0.705826,3.453984,0.57672,0.34279,0.9181
1702332288609375,-9.129839,0.722826,3.469984,0.61772,0.30179,0.5381
1702332288617187,-9.147839,0.780826,3.457984,0.45872,0.32379,0.4081
1702332288625000,-9.164839,0.858826,3.453984,0.38072,0.40879,0.5419
1702332288632812,-9.199839,0.929826,3.471984,0.38372,0.40279,0.10419
1702332288640625,-9.217839,0.961826,3.466984,0.27072,0.44979,0.19619
1702332288648437,-9.243839,0.986826,3.437984,0.16572,0.40879,0.22919
1702332288656250,-9.265839,0.995826,3.415984,0.13572,0.34379,0.29419
1702332288664062,-9.251839,0.964826,3.394984,0.2028,0.32679,0.30819
1702332288671875,-9.217839,0.952826,3.388984,0.17628,0.35979,0.35519
1702332288679687,-9.172839,0.913826,3.394984,0.30228,0.29079,0.25819
1702332288687500,-9.138839,0.880826,3.403984,0.33528,0.26379,0.30519
1702332288695312,-9.94839,0.832826,3.415984,0.31628,0.23879,0.29119
1702332288703125,-9.62839,0.749826,3.399984,0.34428,0.21779,0.35719
1702332288710937,-9.43839,0.687826,3.388984,0.22028,0.22279,0.38919
1702332288718750,-9.20839,0.651826,3.419984,0.29928,0.18979,0.34019
1702332288726562,-9.15839,0.647826,3.453984,0.14328,0.20679,0.32519
1702332288734375,-9.17839,0.654826,3.478984,0.11228,0.17379,0.26119
1702332288742187,-9.24839,0.654826,3.487984,0.8228,0.4479,0.23019
1702332288750000,-9.43839,0.692826,3.489984,0.6072,0.3979,0.20019
1702332288757812,-9.57839,0.694826,3.460984,0.13872,0.8021,0.5819
1702332288765625,-9.71839,0.675826,3.403984,0.11572,0.13021,0.2581
1702332288773437,-9.82839,0.659826,3.354984,0.12672,0.3221,0.23681
1702332288781250,-9.91839,0.657826,3.360984,0.10972,0.1379,0.30081
1702332288789062,-9.114839,0.666826,3.383984,0.11072,0.2679,0.30081
1702332288796875,-9.130839,0.649826,3.401984,0.12472,0.12279,0.42981
1702332288804687,-9.139839,0.635826,3.415984,0.10872,0.15179,0.47781
1702332288812500,-9.147839,0.629826,3.446984,0.12272,0.20379,0.46281
1702332288820312,-9.143839,0.658826,3.505984,0.10772,0.23979,0.38281
1702332288828125,-9.151839,0.682826,3.554984,0.12772,0.26479,0.29981
1702332288835937,-9.147839,0.718826,3.577984,0.17272,0.26979,0.31681
1702332288843750,-9.161839,0.771826,3.595984,0.18972,0.33079,0.29981
1702332288851562,-9.182839,0.778826,3.593984,0.31672,0.32779,0.29781
1702332288859375,-9.172839,0.742826,3.590984,0.30172,0.39379,0.24981
1702332288867187,-9.137839,0.709826,3.579984,0.26672,0.33879,0.23681
1702332288875000,-9.103839,0.681826,3.559984,0.16272,0.31479,0.10681
1702332288882812,-9.81839,0.686826,3.554984,0.17672,0.41879,0.9181
1702332288890625,-9.64839,0.698826,3.552984,0.18172,0.37279,0.5581
1702332288898437,-9.63839,0.723826,3.509984,0.34972,0.25479,0.7281
1702332288906250,-9.61839,0.725826,3.455984,0.36372,0.23779,0.20181
1702332288914062,-9.38839,0.707826,3.428984,0.34872,0.22179,0.13681
1702332288921875,-9.23839,0.695826,3.453984,0.38172,0.26279,0.18381
1702332288929687,-9.14839,0.725826,3.457984,0.37872,0.28779,0.21781
1702332288937500,-9.15839,0.769826,3.435984,0.33272,0.26779,0.21781
1702332288945312,-9.35839,0.772826,3.426984,0.26772,0.33879,0.20381
1702332288953125,-9.39839,0.761826,3.426984,0.23372,0.27879,0.23781
1702332288960937,-9.31839,0.742826,3.433984,0.19672,0.25779,0.11981
1702332288968750,-8.998839,0.711826,3.439984,0.18972,0.24379,0.14081
1702332288976562,-9.4839,0.676826,3.428984,0.19072,0.28679,0.20381
1702332288984375,-9.11839,0.649826,3.415984,0.9772,0.27079,0.12381
1702332288992187,-9.36839,0.671826,3.383984,0.27172,0.23279,0.16881
1702332289000000,-9.86839,0.683826,3.363984,0.30472,0.3679,0.18381
1702332289007812,-9.136839,0.719826,3.322984,0.33272,0.6879,0.31281
1702332289015625,-9.176839,0.707826,3.300984,0.45872,0.5579,0.26281
1702332289023437,-9.200839,0.694826,3.279984,0.45572,0.9079,0.31281
1702332289031250,-9.231839,0.668826,3.271984,0.52172,0.6679,0.29381
1702332289039062,-9.256839,0.662826,3.295984,0.50372,0.7179,0.31081
1702332289046875,-9.275839,0.720826,3.302984,0.53372,0.9379,0.29581
1702332289054687,-9.267839,0.782826,3.304984,0.53472,0.12379,0.31181
1702332289062500,-9.234839,0.819826,3.345984,0.48872,0.19979,0.29581
1702332289070312,-9.178839,0.854826,3.399984,0.40572,0.22979,0.29981
1702332289078125,-9.144839,0.878826,3.441984,0.38772,0.25179,0.30181
1702332289085937,-9.152839,0.902826,3.473984,0.31372,0.35279,0.29981
1702332289093750,-9.162839,0.912826,3.498984,0.13672,0.35179,0.24081
1702332289101562,-9.165839,0.883826,3.511984,0.12572,0.27879,0.15781
1702332289109375,-9.152839,0.803826,3.507984,0.6172,0.19979,0.19081
1702332289117187,-9.133839,0.744826,3.507984,0.10328,0.12579,0.2881
1702332289125000,-9.136839,0.757826,3.494984,0.11628,0.15379,0.3619
1702332289132812,-9.109839,0.748826,3.484984,0.4072,0.10779,0.7019
1702332289140625,-9.95839,0.697826,3.487984,0.728,0.7479,0.3719
1702332289148437,-9.71839,0.659826,3.442984,0.728,0.6079,0.8519
1702332289156250,-9.75839,0.620826,3.381984,0.13172,0.6979,0.8519
1702332289164062,-9.84839,0.588826,3.374984,0.5772,0.5579,0.10319
1702332289171875,-9.63839,0.570826,3.408984,0.13372,0.8379,0.15019
1702332289179687,-9.45839,0.554826,3.426984,0.11872,0.7779,0.8619
1702332289187500,-9.45839,0.577826,3.383984,0.11572,0.2779,0.7481
1702332289195312,-9.53839,0.594826,3.376984,0.13172,0.12079,0.12181
1702332289203125,-9.45839,0.570826,3.410984,0.13972,0.29779,0.19081
1702332289210937,-9.50839,0.545826,3.435984,0.12672,0.21879,0.31681
1702332289218750,-9.85839,0.513826,3.403984,0.36072,0.19179,0.29881
1702332289226562,-9.120839,0.453826,3.354984,0.39372,0.16679,0.34481
1702332289234375,-9.128839,0.416826,3.347984,0.43372,0.28079,0.39781
1702332289242187,-9.128839,0.412826,3.381984,0.59072,0.21279,0.44281
1702332289250000,-9.140839,0.443826,3.390984,0.61072,0.9079,0.43981
1702332289257812,-9.156839,0.474826,3.363984,0.63872,0.3579,0.42581
1702332289265625,-9.200839,0.532826,3.318984,0.69072,0.1321,0.48481
1702332289273437,-9.255839,0.580826,3.288984,0.76572,0.10679,0.51881
1702332289281250,-9.316839,0.620826,3.264984,0.70572,0.2279,0.45381
1702332289289062,-9.362839,0.660826,3.235984,0.61572,0.15879,0.40481
1702332289296875,-9.377839,0.652826,3.225984,0.62472,0.33579,0.44181
1702332289304687,-9.370839,0.617826,3.234984,0.60972,0.31679,0.44081
1702332289312500,-9.352839,0.614826,3.282984,0.62672,0.33379,0.34381
1702332289320312,-9.307839,0.621826,3.345984,0.62472,0.34179,0.31381
1702332289328125,-9.237839,0.637826,3.374984,0.68972,0.32079,0.29581
1702332289335937,-9.206839,0.666826,3.435984,0.65672,0.42079,0.31281
1702332289343750,-9.180839,0.714826,3.462984,0.66072,0.36379,0.29481
1702332289351562,-9.188839,0.763826,3.446984,0.73672,0.32079,0.31081
1702332289359375,-9.213839,0.806826,3.448984,0.73472,0.34179,0.29681
1702332289367187,-9.211839,0.817826,3.453984,0.78172,0.30979,0.29581
1702332289375000,-9.177839,0.807826,3.435984,0.73872,0.34779,0.30981
1702332289382812,-9.150839,0.773826,3.397984,0.84572,0.30679,0.29381
1702332289390625,-9.127839,0.737826,3.365984,0.87772,0.33679,0.30981
1702332289398437,-9.108839,0.726826,3.363984,0.87772,0.33679,0.30981
1702332289406250,-9.99839,0.719826,3.360984,0.85872,0.35879,0.39181
1702332289414062,-9.144839,0.768826,3.320984,0.85172,0.35779,0.44381
1702332289421875,-9.189839,0.838826,3.307984,0.70272,0.31979,0.44081
1702332289429687,-9.207839,0.879826,3.293984,0.59072,0.34179,0.45981
1702332289437500,-9.235839,0.927826,3.304984,0.54472,0.28679,0.50681
1702332289445312,-9.238839,1.1826,3.331984,0.40172,0.32179,0.57381
1702332289453125,-9.249839,1.92826,3.359984,0.32472,0.30279,0.55781
1702332289460937,-9.295839,1.164826,3.395984,0.26072,0.40279,0.54381
1702332289468750,-9.339839,1.244826,3.431984,0.628,0.55079,0.49881
1702332289476562,-9.414839,1.296826,3.447984,0.16028,0.51179,0.45081
1702332289484375,-9.524839,1.322826,3.399984,0.36328,0.48479,0.35781
1702332289492187,-9.571839,1.299826,3.368984,0.67928,0.60479,0.31481
1702332289500000,-9.562839,1.259826,3.390984,0.78628,0.59879,0.29881
1702332289507812,-9.457839,1.159826,3.467984,0.101628,0.69179,0.12281
1702332289515625,-9.286839,1.44826,3.530984,0.109628,0.74979,0.2981
1702332289523437,-9.144839,0.973826,3.563984,0.119828,0.69279,0.16519
1702332289531250,-9.26839,0.887826,3.599984,0.129128,0.74479,0.32519
1702332289539062,-8.955839,0.868826,3.608984,0.116428,0.70179,0.47019
1702332289546875,-8.956839,0.870826,3.611984,0.115428,0.62079,0.63619
1702332289554687,-8.949839,0.875826,3.588984,0.112528,0.50379,0.73119
1702332289562500,-8.947839,0.900826,3.487984,0.110328,0.29379,0.75219
1702332289570312,-8.915839,0.894826,3.401984,0.112228,0.25879,0.79719
1702332289578125,-8.908839,0.818826,3.331984,0.110228,0.17179,0.86419
1702332289585937,-8.901839,0.697826,3.284984,0.109228,0.16879,0.82919
1702332289593750,-8.881839,0.585826,3.232984,0.111928,0.7879,0.86319
1702332289601562,-8.828839,0.503826,3.185984,0.91828,0.10379,0.87919
1702332289609375,-8.783839,0.435826,3.194984,0.88128,0.10679,0.91619
1702332289617187,-8.773839,0.415826,3.239984,0.79428,0.8379,0.76919
1702332289625000,-8.796839,0.410826,3.241984,0.58628,0.1879,0.67919
1702332289632812,-8.834839,0.424826,3.183984,0.38728,0.4079,0.53419
1702332289640625,-8.883839,0.403826,3.140984,0.34628,0.2879,0.34019
1702332289648437,-8.918839,0.330826,3.135984,0.14328,0.21679,0.23019
1702332289656250,-8.928839,0.228826,3.153984,0.8628,0.30079,0.319
1702332289664062,-8.955839,0.149826,3.133984,0.1228,0.29279,0.6281
1702332289671875,-8.991839,0.103826,3.72984,0.14672,0.32279,0.419
1702332289679687,-9.69839,0.104826,3.65984,0.42472,0.22479,0.20181
1702332289687500,-9.150839,0.81826,3.83984,0.70772,0.8879,0.30881
1702332289695312,-9.249839,0.94826,3.155984,0.112872,0.979,0.40081
1702332289703125,-9.354839,0.173826,3.232984,0.136372,0.1521,0.54181
1702332289710937,-9.430839,0.298826,3.212984,0.157672,0.14121,0.81381
1702332289718750,-9.465839,0.405826,3.171984,0.172872,0.4321,0.100681
1702332289726562,-9.457839,0.472826,3.210984,0.191372,0.10679,0.110281
1702332289734375,-9.438839,0.502826,3.262984,0.200972,0.21079,0.114881
1702332289742187,-9.406839,0.527826,3.311984,0.186272,0.35479,0.117081
1702332289750000,-9.390839,0.585826,3.379984,0.171372,0.46379,0.108781
1702332289757812,-9.398839,0.701826,3.458984,0.146272,0.70179,0.91681
1702332289765625,-9.398839,0.783826,3.568984,0.135472,0.81679,0.78881
1702332289773437,-9.363839,0.858826,3.669984,0.135672,0.81679,0.67581
1702332289781250,-9.303839,0.933826,3.714984,0.119972,0.82479,0.56681
1702332289789062,-9.261839,0.994826,3.732984,0.129672,0.57979,0.49981
1702332289796875,-9.261839,1.39826,3.739984,0.118372,0.63979,0.42281
1702332289804687,-9.246839,1.30826,3.701984,0.110772,0.51979,0.47081
1702332289812500,-9.241839,0.996826,3.570984,0.107972,0.41579,0.41981
1702332289820312,-9.209839,0.935826,3.424984,0.98972,0.29379,0.41881
1702332289828125,-9.173839,0.825826,3.343984,0.89172,0.38579,0.39081
1702332289835937,-9.131839,0.722826,3.291984,0.87372,0.37479,0.39181
1702332289843750,-9.129839,0.604826,3.237984,0.86072,0.41279,0.45381
1702332289851562,-9.126839,0.533826,3.176984,0.81572,0.52479,0.37381
1702332289859375,-9.90839,0.514826,3.212984,0.87672,0.53879,0.46981
1702332289867187,-9.63839,0.534826,3.304984,0.91972,0.63679,0.63181
1702332289875000,-9.15839,0.503826,3.342984,0.100772,0.66279,0.76281
1702332289882812,-9.18839,0.478826,3.365984,0.105772,0.72879,0.87181
1702332289890625,-9.24839,0.492826,3.390984,0.98472,0.85879,0.102181
1702332289898437,-9.11839,0.525826,3.381984,0.96772,0.80579,0.115081
1702332289906250,-9.17839,0.604826,3.399984,0.90672,0.89379,0.124581
1702332289914062,-9.16839,0.677826,3.406984,0.73472,0.84079,0.131181
1702332289921875,-9.25839,0.713826,3.415984,0.63672,0.80479,0.126681
1702332289929687,-9.76839,0.756826,3.433984,0.60972,0.81379,0.116881
1702332289937500,-9.128839,0.797826,3.509984,0.46472,0.80779,0.118881
1702332289945312,-9.189839,0.827826,3.541984,0.39072,0.76979,0.109181
1702332289953125,-9.236839,0.850826,3.523984,0.34372,0.61479,0.97981
1702332289960937,-9.252839,0.857826,3.532984,0.36372,0.57979,0.83381
1702332289968750,-9.238839,0.848826,3.543984,0.30372,0.59679,0.72181
1702332289976562,-9.229839,0.817826,3.509984,0.22772,0.58079,0.60881
1702332289984375,-9.212839,0.773826,3.471984,0.17672,0.62679,0.54881
1702332289992187,-9.225839,0.744826,3.446984,0.428,0.56979,0.37081
1702332290000000,-9.237839,0.766826,3.457984,0.15828,0.54779,0.32281
1702332290007812,-9.278839,0.771826,3.460984,0.29928,0.56379,0.32481
1702332290015625,-9.303839,0.764826,3.482984,0.48428,0.54279,0.27681
1702332290023437,-9.288839,0.722826,3.487984,0.51828,0.56679,0.21481
1702332290031250,-9.250839,0.681826,3.507984,0.51428,0.59179,0.16481
1702332290039062,-9.215839,0.659826,3.547984,0.45328,0.53979,0.5381
1702332290046875,-9.172839,0.657826,3.595984,0.42328,0.47779,0.6981
1702332290054687,-9.141839,0.654826,3.568984,0.39128,0.38179,0.2081
1702332290062500,-9.133839,0.609826,3.534984,0.37128,0.32779,0.6219
1702332290070312,-9.97839,0.584826,3.516984,0.26128,0.24579,0.8019
1702332290078125,-9.63839,0.550826,3.468984,0.16528,0.11279,0.5019
1702332290085937,-9.87839,0.497826,3.406984,0.13028,0.9179,0.14919
1702332290093750,-9.90839,0.440826,3.317984,0.18028,0.8579,0.17819
1702332290101562,-9.139839,0.374826,3.221984,0.528,0.3179,0.21419
1702332290109375,-9.177839,0.397826,3.218984,0.5372,0.2579,0.19619
1702332290117187,-9.150839,0.483826,3.297984,0.2772,0.17379,0.24719
1702332290125000,-9.85839,0.549826,3.315984,0.5528,0.3379,0.10019
1702332290132812,-9.84839,0.566826,3.252984,0.8772,0.4221,0.2481
1702332290140625,-9.114839,0.524826,3.273984,0.11672,0.7179,0.7381
1702332290148437,-9.148839,0.408826,3.351984,0.15872,0.7979,0.21981
1702332290156250,-9.153839,0.274826,3.365984,0.33172,0.18279,0.32981
1702332290164062,-9.199839,0.160826,3.372984,0.60772,0.45079,0.45881
1702332290171875,-9.148839,0.100826,3.527984,0.83172,0.90279,0.63981
1702332290179687,-9.35839,0.63826,3.682984,0.106172,0.116479,0.79981
1702332290187500,-8.978839,0.46826,3.750984,0.131172,0.95179,0.90881
1702332290195312,-8.962839,0.134826,3.694984,0.134672,0.74479,0.101781
1702332290203125,-9.34839,0.248826,3.667984,0.137672,0.62979,0.111281
1702332290210937,-9.41839,0.311826,3.703984,0.156272,0.56979,0.114381
1702332290218750,-9.6839,0.357826,3.696984,0.170072,0.45979,0.125581
1702332290226562,-8.993839,0.387826,3.624984,0.186272,0.30279,0.120181
1702332290234375,-8.962839,0.465826,3.511984,0.182872,0.46079,0.109281
1702332290242187,-9.28839,0.654826,3.543984,0.172172,0.67179,0.96581
1702332290250000,-9.65839,0.857826,3.635984,0.156672,0.70179,0.91881
1702332290257812,-9.60839,0.979826,3.622984,0.158472,0.32779,0.86781
1702332290265625,-9.50839,0.966826,3.482984,0.153072,0.8121,0.82981
1702332290273437,-9.126839,0.975826,3.381984,0.143372,0.19921,0.78481
1702332290281250,-9.97839,0.985826,3.451984,0.134272,0.11121,0.79981
1702332290289062,-8.929839,0.925826,3.548984,0.151372,0.31921,0.86281
1702332290296875,-8.815839,0.795826,3.541984,0.164172,0.64921,0.88981
1702332290304687,-8.892839,0.714826,3.464984,0.167072,0.74521,0.95481
1702332290312500,-9.36839,0.688826,3.318984,0.160672,0.75321,0.90881
1702332290320312,-9.131839,0.742826,3.255984,0.163472,0.55121,0.92681
1702332290328125,-9.222839,0.788826,3.307984,0.152972,0.36821,0.82981
1702332290335937,-9.321839,0.856826,3.351984,0.119572,0.27321,0.83681
1702332290343750,-9.417839,0.913826,3.338984,0.80872,0.18321,0.67881
1702332290351562,-9.473839,0.934826,3.361984,0.49572,0.19721,0.61881
1702332290359375,-9.516839,0.919826,3.401984,0.30972,0.8221,0.47581
1702332290367187,-9.528839,0.873826,3.421984,0.4472,0.179,0.33481
1702332290375000,-9.485839,0.825826,3.440984,0.16828,0.7079,0.22181
1702332290382812,-9.384839,0.799826,3.485984,0.24428,0.13679,0.7781
1702332290390625,-9.305839,0.760826,3.527984,0.41428,0.15579,0.8119
1702332290398437,-9.247839,0.686826,3.482984,0.55028,0.17079,0.28919
1702332290406250,-9.237839,0.599826,3.419984,0.62628,0.28579,0.41719
1702332290414062,-9.234839,0.535826,3.466984,0.62228,0.44479,0.59519
1702332290421875,-9.197839,0.499826,3.484984,0.49628,0.45079,0.72419
1702332290429687,-9.164839,0.440826,3.425984,0.39428,0.40679,0.72019
1702332290437500,-9.110839,0.400826,3.381984,0.29428,0.33079,0.75619
1702332290445312,-9.60839,0.387826,3.329984,0.14228,0.32179,0.67519
1702332290453125,-9.51839,0.375826,3.331984,0.1428,0.35779,0.59919
1702332290460937,-9.46839,0.335826,3.344984,0.13872,0.31979,0.56619
1702332290468750,-9.49839,0.353826,3.351984,0.21872,0.35779,0.48919
1702332290476562,-9.46839,0.373826,3.297984,0.38672,0.31679,0.37619
1702332290484375,-9.41839,0.399826,3.237984,0.43972,0.7079,0.30219
1702332290492187,-9.45839,0.453826,3.196984,0.50772,0.16879,0.12019
1702332290500000,-9.44839,0.490826,3.203984,0.63472,0.9479,0.4419
1702332290507812,-9.46839,0.526826,3.250984,0.78772,0.15279,0.2719
1702332290515625,-9.81839,0.549826,3.304984,0.85072,0.14979,0.3581
1702332290523437,-9.70839,0.581826,3.338984,0.85472,0.7079,0.8081
1702332290531250,-9.73839,0.643826,3.302984,0.83772,0.12121,0.12881
1702332290539062,-9.85839,0.675826,3.243984,0.83672,0.17021,0.19281
1702332290546875,-9.138839,0.651826,3.203984,0.87972,0.17921,0.25881
1702332290554687,-9.199839,0.614826,3.192984,0.78772,0.8821,0.22681
1702332290562500,-9.198839,0.545826,3.192984,0.69472,0.2921,0.29181
1702332290570312,-9.181839,0.514826,3.209984,0.70572,0.1821,0.32581
1702332290578125,-9.193839,0.505826,3.250984,0.62972,0.2579,0.29381
1702332290585937,-9.233839,0.491826,3.327984,0.75272,0.18979,0.34181
1702332290593750,-9.197839,0.528826,3.401984,0.74772,0.21579,0.40981
1702332290601562,-9.123839,0.549826,3.401984,0.66772,0.19979,0.47481
1702332290609375,-9.68839,0.577826,3.390984,0.65772,0.10179,0.48681
1702332290617187,-9.64839,0.632826,3.394984,0.65172,0.7879,0.61781
1702332290625000,-9.31839,0.674826,3.414984,0.63472,0.3179,0.66681
1702332290632812,-9.42839,0.654826,3.379984,0.61972,0.4279,0.73081
1702332290640625,-9.51839,0.652826,3.367984,0.52572,0.7279,0.73081
1702332290648437,-9.64839,0.652826,3.374984,0.50772,0.6179,0.78081
1702332290656250,-9.89839,0.610826,3.360984,0.49372,0.621,0.76381
1702332290664062,-9.79839,0.570826,3.331984,0.57172,0.3921,0.77881
1702332290671875,-9.108839,0.535826,3.288984,0.49572,0.12621,0.77781
1702332290679687,-9.161839,0.526826,3.295984,0.52372,0.21121,0.76381
1702332290687500,-9.186839,0.483826,3.318984,0.62072,0.27421,0.87181
1702332290695312,-9.180839,0.410826,3.331984,0.60472,0.39221,0.95181
1702332290703125,-9.172839,0.339826,3.356984,0.72672,0.46821,0.104781
1702332290710937,-9.177839,0.339826,3.361984,0.71572,0.41021,0.96581
1702332290718750,-9.184839,0.375826,3.322984,0.49172,0.22021,0.93981
1702332290726562,-9.216839,0.438826,3.313984,0.39372,0.12721,0.89581
1702332290734375,-9.270839,0.540826,3.361984,0.25972,0.16321,0.89281
1702332290742187,-9.285839,0.658826,3.370984,0.6972,0.15521,0.86481
1702332290750000,-9.309839,0.738826,3.327984,0.6628,0.22521,0.73481
1702332290757812,-9.332839,0.785826,3.304984,0.14728,0.23421,0.72181
1702332290765625,-9.343839,0.781826,3.295984,0.14328,0.35121,0.57481
1702332290773437,-9.314839,0.751826,3.268984,0.32728,0.39221,0.54281
1702332290781250,-9.300839,0.728826,3.221984,0.30728,0.41021,0.37981
1702332290789062,-9.279839,0.659826,3.228984,0.24228,0.33321,0.32981
1702332290796875,-9.237839,0.586826,3.223984,0.35528,0.27421,0.30181
1702332290804687,-9.202839,0.526826,3.219984,0.38628,0.22121,0.22281
1702332290812500,-9.210839,0.493826,3.207984,0.37328,0.13721,0.28881
1702332290820312,-9.231839,0.506826,3.225984,0.35328,0.6621,0.23781
1702332290828125,-9.265839,0.527826,3.232984,0.39028,0.4579,0.20981
1702332290835937,-9.274839,0.535826,3.226984,0.38628,0.1579,0.27081
1702332290843750,-9.293839,0.562826,3.219984,0.37128,0.3179,0.28681
1702332290851562,-9.307839,0.589826,3.203984,0.35428,0.3621,0.31781
1702332290859375,-9.316839,0.600826,3.169984,0.35728,0.4421,0.30381
1702332290867187,-9.341839,0.616826,3.156984,0.21528,0.3479,0.31881
1702332290875000,-9.347839,0.599826,3.178984,0.28028,0.9179,0.27281
1702332290882812,-9.336839,0.587826,3.178984,0.33828,0.14679,0.20681
1702332290890625,-9.325839,0.589826,3.158984,0.38228,0.21079,0.7781
1702332290898437,-9.319839,0.618826,3.163984,0.36328,0.20779,0.3619
1702332290906250,-9.344839,0.672826,3.207984,0.49328,0.36579,0.6319
1702332290914062,-9.360839,0.698826,3.241984,0.55328,0.36379,0.12719
1702332290921875,-9.342839,0.656826,3.230984,0.55028,0.32279,0.16219
1702332290929687,-9.335839,0.590826,3.232984,0.55728,0.37379,0.12419
1702332290937500,-9.309839,0.501826,3.248984,0.55728,0.47279,0.18819
1702332290945312,-9.270839,0.405826,3.250984,0.44728,0.47279,0.20619
1702332290953125,-9.216839,0.304826,3.245984,0.41428,0.40479,0.22319
1702332290960937,-9.166839,0.253826,3.277984,0.38528,0.42679,0.20619
1702332290968750,-9.135839,0.254826,3.295984,0.33928,0.40679,0.7819
1702332290976562,-9.135839,0.270826,3.277984,0.15328,0.47579,0.6319
1702332290984375,-9.130839,0.274826,3.257984,0.15428,0.47779,0.4619
1702332290992187,-9.131839,0.323826,3.261984,0.1128,0.44079,0.3319
1702332291000000,-9.150839,0.377826,3.293984,0.1972,0.39379,0.4919
1702332291007812,-9.182839,0.421826,3.306984,0.9872,0.37179,0.1281
1702332291015625,-9.208839,0.465826,3.271984,0.2772,0.29079,0.5619
1702332291023437,-9.225839,0.514826,3.235984,0.4172,0.19779,0.2319
1702332291031250,-9.225839,0.550826,3.230984,0.8428,0.19979,0.3719
1702332291039062,-9.194839,0.547826,3.237984,0.8328,0.15079,0.5319
1702332291046875,-9.165839,0.553826,3.241984,0.6328,0.2579,0.5719
1702332291054687,-9.157839,0.536826,3.223984,0.6528,0.8879,0.19919
1702332291062500,-9.170839,0.525826,3.259984,0.12928,0.4479,0.21319
1702332291070312,-9.204839,0.519826,3.282984,0.18928,0.5879,0.31019
1702332291078125,-9.290839,0.535826,3.246984,0.13628,0.3321,0.37819
1702332291085937,-9.359839,0.494826,3.183984,0.10428,0.1421,0.45819
1702332291093750,-9.419839,0.447826,3.212984,0.12628,0.2979,0.39119
1702332291101562,-9.404839,0.376826,3.275984,0.8872,0.13279,0.29419
1702332291109375,-9.322839,0.286826,3.254984,0.11972,0.6779,0.24719
1702332291117187,-9.260839,0.169826,3.194984,0.38772,0.18479,0.10719
1702332291125000,-9.161839,0.93826,3.207984,0.63172,0.48779,0.2519
1702332291132812,-9.90839,0.91826,3.336984,0.78672,0.61079,0.18181
1702332291140625,-9.83839,0.129826,3.365984,0.92472,0.58279,0.21381
1702332291148437,-9.100839,0.167826,3.241984,0.94272,0.36479,0.29181
1702332291156250,-9.74839,0.215826,3.162984,0.89372,0.34779,0.38881
1702332291164062,-9.29839,0.273826,3.209984,0.85372,0.49179,0.52281
1702332291171875,-8.971839,0.380826,3.291984,0.87272,0.60679,0.59981
1702332291179687,-8.983839,0.492826,3.342984,0.92672,0.60879,0.68481
1702332291187500,-9.56839,0.577826,3.315984,0.97372,0.59479,0.65281
1702332291195312,-9.141839,0.678826,3.284984,0.91672,0.48279,0.64881
1702332291203125,-9.205839,0.756826,3.320984,0.91372,0.50179,0.74681
1702332291210937,-9.240839,0.811826,3.320984,0.84872,0.41179,0.73281
1702332291218750,-9.251839,0.810826,3.293984,0.68072,0.25579,0.74781
1702332291226562,-9.247839,0.806826,3.239984,0.57472,0.18479,0.68281
1702332291234375,-9.219839,0.797826,3.232984,0.42972,0.34279,0.60681
1702332291242187,-9.172839,0.768826,3.246984,0.28172,0.24279,0.55481
1702332291250000,-9.140839,0.738826,3.248984,0.27672,0.27479,0.51081
1702332291257812,-9.160839,0.711826,3.230984,0.15372,0.17679,0.43081
1702332291265625,-9.195839,0.677826,3.214984,0.13772,0.8179,0.39881
1702332291273437,-9.233839,0.659826,3.176984,0.14172,0.12279,0.34881
1702332291281250,-9.251839,0.621826,3.178984,0.14372,0.10379,0.31581
1702332291289062,-9.248839,0.577826,3.165984,0.13072,0.4679,0.32981
1702332291296875,-9.245839,0.539826,3.149984,0.6572,0.3779,0.29981
1702332291304687,-9.207839,0.539826,3.158984,0.10628,0.1879,0.31681
1702332291312500,-9.200839,0.521826,3.201984,0.10928,0.621,0.33481
1702332291320312,-9.188839,0.502826,3.196984,0.8128,0.4421,0.33681
1702332291328125,-9.197839,0.463826,3.149984,0.13428,0.13421,0.31481
1702332291335937,-9.218839,0.435826,3.158984,0.9228,0.10421,0.30181
1702332291343750,-9.261839,0.375826,3.167984,0.872,0.15521,0.31181
1702332291351562,-9.297839,0.303826,3.131984,0.9772,0.15521,0.29881
1702332291359375,-9.332839,0.237826,3.108984,0.23472,0.11521,0.33181
1702332291367187,-9.302839,0.191826,3.173984,0.34172,0.7921,0.42781
1702332291375000,-9.246839,0.168826,3.225984,0.43572,0.6321,0.41081
1702332291382812,-9.223839,0.174826,3.250984,0.62572,0.3221,0.32781
1702332291390625,-9.226839,0.214826,3.284984,0.70372,0.4821,0.39081
1702332291398437,-9.218839,0.291826,3.293984,0.73672,0.4821,0.30981
1702332291406250,-9.256839,0.383826,3.288984,0.82772,0.1321,0.37481
1702332291414062,-9.316839,0.474826,3.268984,0.84872,0.18421,0.32281
1702332291421875,-9.337839,0.544826,3.221984,0.80072,0.14621,0.27681
1702332291429687,-9.337839,0.550826,3.176984,0.67972,0.17021,0.21081
1702332291437500,-9.339839,0.530826,3.167984,0.86672,0.19721,0.16181
1702332291445312,-9.342839,0.471826,3.135984,0.80072,0.20021,0.10081
1702332291453125,-9.362839,0.406826,3.104984,0.97772,0.17821,0.6481
1702332291460937,-9.393839,0.400826,3.131984,0.112072,0.14721,0.219
1702332291468750,-9.396839,0.451826,3.167984,0.111972,0.4621,0.6519
1702332291476562,-9.361839,0.519826,3.160984,0.113672,0.3279,0.8119
1702332291484375,-9.342839,0.576826,3.160984,0.118672,0.7021,0.11619
1702332291492187,-9.365839,0.620826,3.133984,0.113372,0.7121,0.8019
1702332291500000,-9.377839,0.628826,3.56984,0.110772,0.14921,0.9919
1702332291507812,-9.379839,0.610826,3.5984,0.106072,0.13321,0.8219
1702332291515625,-9.371839,0.588826,2.969984,0.99472,0.7921,0.3219
1702332291523437,-9.403839,0.564826,2.989984,0.102972,0.7621,0.1919
1702332291531250,-9.379839,0.524826,3.45984,0.107372,0.1379,0.3319
1702332291539062,-9.322839,0.472826,3.54984,0.113472,0.1621,0.1481
1702332291546875,-9.268839,0.411826,3.23984,0.118072,0.6821,0.12581
1702332291554687,-9.225839,0.411826,2.944984,0.124372,0.3321,0.7781
1702332291562500,-9.201839,0.443826,2.901984,0.124472,0.4379,0.9381
1702332291570312,-9.186839,0.508826,2.887984,0.116472,0.16079,0.6381
1702332291578125,-9.198839,0.536826,2.894984,0.115072,0.25379,0.6281
1702332291585937,-9.226839,0.531826,2.881984,0.113072,0.28079,0.6581
1702332291593750,-9.270839,0.551826,2.818984,0.94672,0.26979,0.8181
1702332291601562,-9.252839,0.541826,2.802984,0.86872,0.31379,0.12981
1702332291609375,-9.209839,0.527826,2.885984,0.78772,0.36179,0.22781
1702332291617187,-9.188839,0.532826,2.957984,0.68672,0.34479,0.29781
1702332291625000,-9.195839,0.514826,2.969984,0.65972,0.32879,0.35881
1702332291632812,-9.170839,0.488826,2.975984,0.69972,0.47279,0.45881
1702332291640625,-9.142839,0.445826,3.16984,0.82472,0.59479,0.58581
1702332291648437,-9.131839,0.465826,3.54984,0.86772,0.60279,0.61981
1702332291656250,-9.121839,0.513826,3.131984,0.99072,0.68179,0.76381
1702332291664062,-9.153839,0.554826,3.207984,0.95772,0.71479,0.82881
1702332291671875,-9.203839,0.593826,3.218984,0.90972,0.63779,0.81381
1702332291679687,-9.236839,0.623826,3.201984,0.83772,0.51779,0.90481
1702332291687500,-9.274839,0.646826,3.172984,0.66272,0.44079,0.97281
1702332291695312,-9.276839,0.648826,3.185984,0.72572,0.29379,0.98681
1702332291703125,-9.269839,0.642826,3.243984,0.67772,0.28279,0.97281
1702332291710937,-9.296839,0.649826,3.295984,0.66272,0.22779,0.101981
1702332291718750,-9.292839,0.660826,3.311984,0.67672,0.21679,0.102081
1702332291726562,-9.272839,0.664826,3.291984,0.56972,0.16479,0.97181
1702332291734375,-9.265839,0.671826,3.279984,0.56772,0.15379,0.97381
1702332291742187,-9.236839,0.688826,3.286984,0.47672,0.21679,0.86081
1702332291750000,-9.200839,0.694826,3.268984,0.41472,0.30979,0.86181
1702332291757812,-9.171839,0.671826,3.221984,0.19272,0.25179,0.88181
1702332291765625,-9.141839,0.628826,3.171984,0.8672,0.21079,0.83181
1702332291773437,-9.122839,0.566826,3.165984,0.11672,0.16779,0.81681
1702332291781250,-9.139839,0.527826,3.180984,0.10072,0.24879,0.81781
1702332291789062,-9.186839,0.496826,3.208984,0.13772,0.22479,0.71781
1702332291796875,-9.229839,0.484826,3.237984,0.2472,0.27979,0.73681
1702332291804687,-9.226839,0.454826,3.214984,0.1472,0.21679,0.73381
1702332291812500,-9.201839,0.414826,3.174984,0.7172,0.19479,0.83181
1702332291820312,-9.167839,0.398826,3.203984,0.7472,0.22479,0.73481
1702332291828125,-9.136839,0.372826,3.243984,0.8272,0.33879,0.77181
1702332291835937,-9.145839,0.370826,3.248984,0.9772,0.21379,0.73981
1702332291843750,-9.190839,0.371826,3.182984,0.11472,0.21079,0.75481
1702332291851562,-9.229839,0.395826,3.158984,0.9972,0.18879,0.81781
1702332291859375,-9.248839,0.444826,3.162984,0.11772,0.19979,0.76881
1702332291867187,-9.242839,0.482826,3.203984,0.10372,0.16479,0.75181
1702332291875000,-9.269839,0.514826,3.245984,0.16172,0.9679,0.78581
1702332291882812,-9.296839,0.520826,3.273984,0.27572,0.3979,0.73381
1702332291890625,-9.312839,0.514826,3.264984,0.35272,0.979,0.74981
1702332291898437,-9.292839,0.525826,3.257984,0.35472,0.10721,0.73181
1702332291906250,-9.270839,0.540826,3.239984,0.43672,0.20821,0.64881
1702332291914062,-9.247839,0.551826,3.270984,0.51372,0.23521,0.63281
1702332291921875,-9.214839,0.537826,3.295984,0.61072,0.28921,0.56581
1702332291929687,-9.157839,0.516826,3.316984,0.63172,0.45821,0.48181
1702332291937500,-9.93839,0.437826,3.358984,0.61872,0.54221,0.39981
1702332291945312,-9.58839,0.386826,3.421984,0.53872,0.66021,0.29081
1702332291953125,-9.28839,0.382826,3.516984,0.39472,0.74721,0.26181
1702332291960937,-8.977839,0.372826,3.662984,0.37172,0.78721,0.4981
1702332291968750,-8.892839,0.372826,3.842984,0.39172,0.87721,0.3319
