time,Acceleration X (m/s^2),Acceleration Y (m/s^2),Acceleration Z (m/s^2),Angular Velocity X (rad/s),Angular Velocity Y (rad/s),Angular Velocity Z (rad/s)
1698343812695312,-6.679574,-2.456839,-1.331959,,,
1698343812703125,-6.766574,-2.897839,-2.379093,0.285003,0.30242,-1.340859
1698343812710937,-6.830574,-3.361839,-2.504093,0.262103,0.31792,-1.344159
1698343812718750,-6.796574,-3.715839,-2.662093,0.271203,0.28002,-1.322959
1698343812726562,-6.780574,-3.948839,-2.766093,0.277603,0.23522,-1.298459
1698343812734375,-6.913574,-4.124839,-2.773093,0.299303,0.23552,-1.278159
1698343812750000,-7.124574,-4.384839,-2.631093,0.327703,0.20792,-1.287259
1698343812757812,-7.213574,-4.415839,-2.640093,0.330903,0.20402,-1.291859
1698343812765625,-7.230574,-4.515839,-2.654093,0.324803,0.19892,-1.294859
1698343812773437,-7.155574,-4.698839,-2.658093,0.297003,0.16112,-1.292259
1698343812796875,-6.796574,-5.95839,-2.479093,0.252903,0.11802,-1.259659
1698343812804687,-6.818574,-5.146839,-2.504093,0.253303,0.14882,-1.244559
1698343812812500,-6.356574,-5.476839,-2.433093,0.202603,0.6462,-1.231459
1698343812820312,-5.999574,-5.597839,-2.314093,0.141003,0.2352,-1.189259
1698343812828125,-6.371574,-5.525839,-2.371093,0.191203,0.15892,-1.145359
1698343812835937,-6.721574,-5.605839,-2.371093,0.197803,0.21832,-1.129359
1698343812843750,-6.660574,-5.673839,-2.469093,0.139803,0.15342,-1.135459
1698343812851562,-6.518574,-5.793839,-2.571093,0.138103,0.14192,-1.132059
1698343812859375,-6.383574,-5.899839,-2.582093,0.155203,0.14232,-1.113259
1698343812867187,-6.216574,-5.824839,-2.512093,0.189103,0.13052,-1.91259
1698343812875000,-6.94574,-5.654839,-2.396093,0.209403,0.12162,-1.51859
1698343812882812,-6.23574,-5.548839,-2.314093,0.193503,0.12702,-1.7859
1698343812890625,-5.901574,-5.406839,-2.301093,0.176403,0.12072,0.954159
1698343812898437,-5.829574,-5.158839,-2.274093,0.172403,0.11292,0.902059
1698343812906250,-5.834574,-4.925839,-2.240093,0.167503,0.11512,0.843859
1698343812914062,-5.859574,-4.703839,-2.202093,0.156203,0.11462,0.779359
1698343812921875,-5.517574,-4.750839,-2.136093,0.106403,0.5552,0.724259
1698343812929687,-5.279574,-4.591839,-2.88093,0.69203,0.3972,0.671859
1698343812937500,-5.665574,-4.283839,-2.7093,0.116103,0.16982,0.637259
1698343812945312,-5.896574,-4.329839,-1.950093,0.82603,0.22362,0.656959
1698343812953125,-5.809574,-4.414839,-2.157093,0.1703,0.22502,0.664359
1698343812960937,-5.822574,-4.562839,-2.418093,0.3203,0.26902,0.663759
1698343812968750,-6.574,-4.707839,-2.639093,0.20603,0.28772,0.645359
1698343812976562,-6.91574,-4.808839,-2.723093,0.30203,0.25052,0.600659
1698343812984375,-6.268574,-4.793839,-2.744093,0.47803,0.23172,0.553159
1698343812992187,-6.397574,-4.849839,-2.776093,0.54503,0.22272,0.519959
1698343813000000,-6.280574,-5.80839,-2.746093,0.30103,0.16842,0.499759
1698343813007812,-6.265574,-5.198839,-2.788093,0.37903,0.15922,0.476159
1698343813015625,-6.500574,-5.242839,-2.907093,0.76903,0.19172,0.440859
1698343813023437,-6.508574,-5.410839,-2.929093,0.69003,0.13442,0.411359
1698343813031250,-6.424574,-5.520839,-2.872093,0.59103,0.5992,0.373459
1698343813039062,-6.649574,-5.617839,-2.760093,0.70703,0.10702,0.325859
1698343813046875,-6.916574,-5.843839,-2.744093,0.53403,0.15122,0.281059
1698343813054687,-6.919574,-6.160839,-2.873093,0.12503,0.14872,0.275959
1698343813062500,-7.1574,-6.446839,-3.87093,0.2303,0.16282,0.263559
1698343813070312,-7.289574,-6.602839,-3.264093,0.28503,0.17382,0.232659
1698343813078125,-7.567574,-6.789839,-3.312093,0.36703,0.17852,0.195059
1698343813085937,-7.763574,-7.79839,-3.386093,0.2403,0.17722,0.157059
1698343813093750,-7.926574,-7.413839,-3.613093,0.38597,0.18172,0.150559
1698343813101562,-8.148574,-7.549839,-3.984093,0.26197,0.19072,0.132059
1698343813109375,-8.434574,-7.570839,-4.258093,0.3303,0.17722,0.111359
1698343813117187,-8.662574,-7.573839,-4.335093,0.13803,0.11602,0.81959
1698343813125000,-8.673574,-7.502839,-4.256093,0.30803,0.4572,0.58459
1698343813132812,-8.486574,-7.391839,-4.149093,0.26003,0.612,0.45059
1698343813140625,-8.277574,-7.273839,-4.99093,0.12703,0.1078,0.11659
1698343813148437,-7.955574,-7.289839,-3.948093,0.21997,0.5118,0.16241
1698343813156250,-7.939574,-7.100839,-3.887093,0.61197,0.2718,0.45741
1698343813164062,-8.270574,-6.852839,-3.917093,0.54897,0.3502,0.44341
1698343813171875,-8.178574,-7.28839,-3.801093,0.125297,0.218,0.11241
1698343813179687,-8.26574,-7.226839,-3.876093,0.185497,0.162,0.15259
1698343813187500,-8.103574,-7.407839,-3.998093,0.172897,0.6512,0.19859
1698343813195312,-8.84574,-7.633839,-4.41093,0.191397,0.7192,0.27759
1698343813203125,-8.29574,-7.796839,-4.63093,0.214497,0.5932,0.24259
1698343813210937,-8.94574,-7.922839,-4.45093,0.211797,0.8582,0.16141
1698343813218750,-8.140574,-8.22839,-4.17093,0.215597,0.7892,0.57241
1698343813226562,-8.140574,-8.11839,-4.35093,0.232197,0.5252,0.98641
1698343813234375,-8.154574,-7.941839,-4.26093,0.236497,0.4522,0.123941
1698343813242187,-8.88574,-7.905839,-3.986093,0.234397,0.2992,0.130741
1698343813250000,-8.26574,-7.834839,-3.977093,0.228597,0.1732,0.146541
1698343813257812,-8.33574,-7.741839,-4.9093,0.209297,0.2432,0.173141
1698343813265625,-7.855574,-7.642839,-4.18093,0.184897,0.1048,0.197241
1698343813273437,-7.583574,-7.515839,-3.927093,0.161597,0.5018,0.229441
1698343813281250,-7.623574,-7.238839,-3.821093,0.119897,0.2958,0.261641
1698343813289062,-7.892574,-6.921839,-3.760093,0.62897,0.158,0.279641
1698343813296875,-7.612574,-6.989839,-3.550093,0.81797,0.7188,0.276441
1698343813304687,-7.327574,-6.984839,-3.493093,0.106397,0.8638,0.276941
1698343813312500,-7.658574,-6.781839,-3.517093,0.26097,0.1032,0.297941
1698343813320312,-7.788574,-6.790839,-3.480093,0.15697,0.1192,0.296141
1698343813328125,-7.483574,-6.988839,-3.552093,0.38697,0.3508,0.292641
1698343813335937,-7.360574,-7.63839,-3.698093,0.1297,0.1738,0.336041
1698343813343750,-7.460574,-6.990839,-3.716093,0.54403,0.1842,0.375741
1698343813351562,-7.701574,-6.765839,-3.742093,0.101103,0.3682,0.403541
1698343813359375,-7.997574,-6.401839,-3.855093,0.145803,0.4212,0.401741
1698343813367187,-8.74574,-6.192839,-3.862093,0.143503,0.612,0.378841
1698343813375000,-7.939574,-6.133839,-3.862093,0.133403,0.3318,0.352941
1698343813382812,-7.726574,-6.152839,-3.858093,0.118103,0.5518,0.345741
1698343813390625,-7.777574,-6.13839,-3.892093,0.131703,0.4388,0.340641
1698343813398437,-8.9574,-5.965839,-3.892093,0.128503,0.2988,0.310541
1698343813406250,-7.936574,-6.198839,-3.864093,0.85003,0.7348,0.289741
1698343813414062,-7.953574,-6.438839,-3.948093,0.56003,0.6448,0.286541
1698343813421875,-8.249574,-6.587839,-4.125093,0.84503,0.3648,0.277641
1698343813429687,-8.328574,-6.780839,-4.152093,0.90503,0.5228,0.268641
1698343813437500,-8.277574,-6.951839,-4.147093,0.80003,0.9078,0.272841
1698343813445312,-8.402574,-6.941839,-4.129093,0.104603,0.9138,0.275841
1698343813453125,-8.553574,-6.866839,-3.977093,0.120203,0.11478,0.290541
1698343813460937,-8.621574,-6.802839,-3.884093,0.71103,0.14118,0.311641
1698343813468750,-8.669574,-6.904839,-3.827093,0.17903,0.15638,0.326441
1698343813476562,-8.579574,-7.100839,-3.822093,0.18397,0.19228,0.340141
1698343813484375,-8.499574,-7.139839,-3.863093,0.37897,0.21308,0.359641
1698343813492187,-8.453574,-7.188839,-3.833093,0.36197,0.23098,0.377341
1698343813500000,-8.353574,-7.203839,-3.728093,0.43397,0.23788,0.410541
1698343813507812,-8.303574,-7.135839,-3.671093,0.50297,0.24338,0.442241
1698343813515625,-8.274574,-7.105839,-3.635093,0.57397,0.23728,0.467341
1698343813523437,-8.342574,-7.65839,-3.699093,0.57297,0.21148,0.477741
1698343813531250,-8.444574,-7.8839,-3.774093,0.52597,0.21308,0.482441
1698343813539062,-8.733574,-6.759839,-3.834093,0.15897,0.20868,0.486841
1698343813546875,-8.970574,-6.696839,-3.634093,0.2697,0.23358,0.462141
1698343813554687,-9.19574,-6.874839,-3.504093,0.52097,0.25708,0.434641
1698343813562500,-9.13574,-7.132839,-3.587093,0.70797,0.24718,0.417141
1698343813570312,-9.77574,-7.256839,-3.683093,0.60297,0.26098,0.414241
1698343813578125,-9.148574,-7.344839,-3.566093,0.31697,0.28878,0.405141
1698343813585937,-9.261574,-7.403839,-3.341093,0.31997,0.29748,0.394341
1698343813593750,-9.303574,-7.459839,-3.249093,0.16897,0.28498,0.379841
1698343813601562,-9.77574,-7.601839,-3.208093,0.32297,0.31548,0.369641
1698343813609375,-8.830574,-7.786839,-3.187093,0.53697,0.30828,0.368041
1698343813617187,-8.753574,-7.961839,-3.205093,0.42497,0.27048,0.392241
1698343813625000,-8.729574,-8.60839,-3.207093,0.29397,0.24088,0.427741
1698343813632812,-8.781574,-8.63839,-3.225093,0.11997,0.22268,0.468041
1698343813640625,-8.907574,-8.8839,-3.255093,0.6197,0.18418,0.514441
1698343813648437,-8.988574,-8.5839,-3.291093,0.2597,0.17598,0.551941
1698343813656250,-9.89574,-7.961839,-3.435093,0.9297,0.14948,0.586141
1698343813664062,-9.214574,-7.854839,-3.624093,0.7197,0.12758,0.626441
1698343813671875,-9.260574,-7.808839,-3.711093,0.6897,0.15168,0.655241
1698343813679687,-9.350574,-7.736839,-3.871093,0.15097,0.15358,0.693141
1698343813687500,-9.437574,-7.657839,-3.980093,0.6797,0.16758,0.731241
1698343813695312,-9.547574,-7.593839,-4.74093,0.15397,0.20658,0.766841
1698343813703125,-9.653574,-7.415839,-4.154093,0.1197,0.24488,0.824041
1698343813710937,-9.564574,-7.318839,-4.81093,0.17303,0.29938,0.858041
1698343813718750,-9.459574,-7.204839,-4.13093,0.603,0.34178,0.884141
1698343813726562,-9.474574,-7.92839,-4.25093,0.15303,0.35218,0.931541
1698343813734375,-9.551574,-6.905839,-4.87093,0.22903,0.36788,0.958441
1698343813742187,-9.528574,-6.705839,-4.16093,0.43003,0.41908,0.993941
1698343813750000,-9.482574,-6.472839,-3.823093,0.48103,0.45328,1.29341
1698343813757812,-9.568574,-6.66839,-3.747093,0.74803,0.46718,1.76641
1698343813765625,-9.582574,-5.723839,-3.577093,0.87403,0.52168,1.113941
1698343813773437,-9.388574,-5.429839,-3.327093,0.55203,0.57208,1.137141
1698343813781250,-9.192574,-5.94839,-3.54093,0.42003,0.60638,1.161741
1698343813789062,-9.223574,-4.710839,-2.852093,0.33103,0.56828,1.179641
1698343813796875,-9.328574,-4.323839,-2.744093,0.4503,0.54528,1.193541
1698343813804687,-9.241574,-4.71839,-2.596093,0.44497,0.57458,1.192841
1698343813812500,-8.979574,-3.959839,-2.389093,0.91897,0.61088,1.187741
1698343813820312,-8.777574,-3.852839,-2.141093,0.133197,0.61478,1.192741
1698343813828125,-8.720574,-3.688839,-1.978093,0.155897,0.56348,1.196441
1698343813835937,-8.690574,-3.582839,-1.875093,0.208797,0.53038,1.200841
1698343813843750,-8.586574,-3.534839,-1.834093,0.260797,0.52418,1.199441
1698343813851562,-8.498574,-3.529839,-1.764093,0.290597,0.49608,1.217941
1698343813859375,-8.380574,-3.506839,-1.659093,0.322197,0.47948,1.238241
1698343813867187,-8.328574,-3.394839,-1.543093,0.350397,0.47118,1.266741
1698343813875000,-8.349574,-3.237839,-1.389093,0.382797,0.44418,1.301241
1698343813882812,-8.392574,-3.128839,-1.230093,0.417897,0.42488,1.333641
1698343813890625,-8.409574,-3.40839,-1.116093,0.468997,0.39838,1.346241
1698343813898437,-8.426574,-2.934839,-1.87093,0.503697,0.35118,1.365741
1698343813906250,-8.409574,-2.839839,-1.96093,0.529397,0.33018,1.373241
1698343813914062,-8.386574,-2.673839,-1.137093,0.535297,0.30908,1.388441
1698343813921875,-8.407574,-2.495839,-1.147093,0.547197,0.28848,1.394441
1698343813929687,-8.522574,-2.276839,-1.131093,0.534697,0.25868,1.426441
1698343813937500,-8.693574,-1.946839,-1.130093,0.527397,0.22978,1.448241
1698343813945312,-8.792574,-1.704839,-1.80093,0.509597,0.23428,1.461941
1698343813953125,-8.765574,-1.502839,-1.1093,0.528197,0.26228,1.462541
1698343813960937,-8.677574,-1.283839,0.944093,0.527997,0.26418,1.461141
1698343813968750,-8.609574,-1.132839,0.840093,0.522197,0.25458,1.449841
1698343813976562,-8.592574,0.962839,0.763093,0.527997,0.21688,1.427341
1698343813984375,-8.582574,0.801839,0.770093,0.531397,0.17178,1.410441
1698343813992187,-8.520574,0.726839,0.802093,0.532897,0.13388,1.390841
1698343814000000,-8.501574,0.651839,0.864093,0.532597,0.9228,1.382241
1698343814007812,-8.594574,0.509839,0.996093,0.523097,0.4428,1.371841
1698343814015625,-8.644574,0.412839,-1.83093,0.504697,0.1748,1.374241
1698343814023437,-8.642574,0.269839,-1.115093,0.522897,0.2508,1.387041
1698343814031250,-8.697574,0.114839,-1.134093,0.509797,0.808,1.405741
1698343814039062,-8.770574,0.39161,-1.114093,0.522097,0.348,1.424341
1698343814046875,-8.855574,0.135161,-1.123093,0.537497,0.2102,1.431541
1698343814054687,-8.912574,0.198161,-1.164093,0.563597,0.3852,1.429641
1698343814062500,-9.2574,0.320161,-1.239093,0.577497,0.4792,1.405941
1698343814070312,-9.152574,0.516161,-1.360093,0.554997,0.5492,1.382141
1698343814078125,-9.233574,0.653161,-1.377093,0.538897,0.1782,1.348241
1698343814085937,-9.232574,0.717161,-1.313093,0.535197,0.1108,1.301741
1698343814093750,-9.242574,0.786161,-1.272093,0.532697,0.1458,1.259541
1698343814101562,-9.289574,0.916161,-1.264093,0.501697,0.1188,1.210341
1698343814109375,-9.337574,0.974161,-1.280093,0.485397,0.1028,1.175641
1698343814117187,-9.345574,1.23161,-1.341093,0.487597,0.2238,1.127341
1698343814125000,-9.347574,1.41161,-1.376093,0.459497,0.2778,1.86341
1698343814132812,-9.369574,1.36161,-1.382093,0.440497,0.3788,1.50141
1698343814140625,-9.321574,1.70161,-1.458093,0.404497,0.6268,1.341
1698343814148437,-9.205574,1.49161,-1.498093,0.380897,0.7598,0.970441
1698343814156250,-9.166574,1.121161,-1.528093,0.343497,0.5728,0.944441
1698343814164062,-9.318574,1.247161,-1.576093,0.293097,0.3518,0.935841
1698343814171875,-9.428574,1.380161,-1.624093,0.266197,0.5198,0.907741
1698343814179687,-9.414574,1.506161,-1.663093,0.247197,0.7348,0.881241
1698343814187500,-9.443574,1.618161,-1.664093,0.217997,0.8378,0.859541
1698343814195312,-9.479574,1.786161,-1.653093,0.197297,0.10648,0.845641
1698343814203125,-9.468574,1.917161,-1.594093,0.176097,0.12148,0.822441
1698343814210937,-9.435574,2.42161,-1.555093,0.173897,0.14108,0.792841
1698343814218750,-9.421574,2.161161,-1.517093,0.177197,0.14558,0.766341
1698343814226562,-9.385574,2.234161,-1.483093,0.176797,0.16778,0.746041
1698343814234375,-9.307574,2.280161,-1.442093,0.178097,0.18048,0.730841
1698343814242187,-9.167574,2.260161,-1.390093,0.177097,0.18678,0.699541
1698343814250000,-9.60574,2.259161,-1.378093,0.179097,0.18458,0.669641
1698343814257812,-8.976574,2.251161,-1.383093,0.171897,0.17238,0.641041
1698343814265625,-8.898574,2.289161,-1.355093,0.153097,0.16658,0.615341
1698343814273437,-8.888574,2.342161,-1.349093,0.131597,0.14948,0.596141
1698343814281250,-8.878574,2.439161,-1.342093,0.110897,0.14508,0.583141
1698343814289062,-8.824574,2.570161,-1.319093,0.96797,0.15778,0.577241
1698343814296875,-8.773574,2.690161,-1.235093,0.75597,0.15298,0.578441
1698343814304687,-8.751574,2.772161,-1.158093,0.74097,0.14968,0.576841
1698343814312500,-8.754574,2.891161,-1.119093,0.82097,0.13618,0.567041
1698343814320312,-8.736574,2.988161,-1.115093,0.74097,0.11998,0.563641
1698343814328125,-8.725574,2.963161,-1.36093,0.83197,0.9348,0.549041
1698343814335937,-8.797574,3.26161,-1.118093,0.86397,0.3418,0.547541
1698343814343750,-8.878574,3.222161,-1.298093,0.80497,0.728,0.543641
1698343814351562,-8.817574,3.246161,-1.369093,0.67797,0.3038,0.535041
1698343814359375,-8.716574,3.230161,-1.380093,0.48797,0.3318,0.509641
1698343814367187,-8.795574,3.322161,-1.392093,0.27297,0.1732,0.481841
1698343814375000,-9.21574,3.542161,-1.458093,0.1203,0.5822,0.461741
1698343814382812,-9.192574,3.702161,-1.568093,0.11903,0.7662,0.430041
1698343814390625,-9.232574,3.780161,-1.648093,0.14503,0.6542,0.403541
1698343814398437,-9.186574,3.789161,-1.680093,0.12303,0.4792,0.381841
1698343814406250,-9.165574,3.819161,-1.693093,0.13103,0.5422,0.362641
1698343814414062,-9.139574,3.856161,-1.714093,0.4203,0.7902,0.351241
1698343814421875,-9.125574,3.835161,-1.730093,0.10797,0.9262,0.349541
1698343814429687,-9.134574,3.834161,-1.782093,0.21897,0.10092,0.335241
1698343814437500,-9.144574,3.889161,-1.871093,0.37197,0.10402,0.322741
1698343814445312,-9.117574,3.857161,-1.915093,0.50897,0.8682,0.312341
1698343814453125,-9.42574,3.818161,-1.933093,0.55797,0.7302,0.300041
1698343814460937,-8.882574,3.770161,-1.926093,0.60897,0.5592,0.286241
1698343814468750,-8.749574,3.756161,-1.891093,0.69897,0.4402,0.285141
1698343814476562,-8.648574,3.687161,-1.887093,0.96197,0.4992,0.284941
1698343814484375,-8.593574,3.625161,-1.907093,0.126297,0.7372,0.278541
1698343814492187,-8.749574,3.685161,-2.39093,0.135997,0.10632,0.276041
1698343814500000,-9.15574,3.755161,-2.194093,0.149297,0.14492,0.272241
1698343814507812,-9.179574,3.782161,-2.324093,0.160297,0.12302,0.264941
1698343814515625,-9.213574,3.796161,-2.383093,0.159297,0.8042,0.251641
1698343814523437,-9.175574,3.790161,-2.338093,0.161197,0.3752,0.232241
1698343814531250,-9.162574,3.866161,-2.261093,0.159897,0.2492,0.213641
1698343814539062,-9.115574,3.908161,-2.169093,0.163497,0.1452,0.199641
1698343814546875,-8.992574,3.847161,-2.101093,0.187997,0.582,0.184341
1698343814554687,-8.923574,3.789161,-2.101093,0.221697,0.4002,0.174341
1698343814562500,-8.953574,3.728161,-2.140093,0.234897,0.6012,0.172641
1698343814570312,-8.967574,3.667161,-2.196093,0.250397,0.5202,0.169741
1698343814578125,-8.942574,3.583161,-2.217093,0.257897,0.5172,0.163541
1698343814585937,-8.907574,3.525161,-2.205093,0.258097,0.4842,0.162041
1698343814593750,-8.888574,3.497161,-2.166093,0.249197,0.5022,0.164941
1698343814601562,-8.942574,3.511161,-2.173093,0.246097,0.7172,0.156541
1698343814609375,-9.25574,3.588161,-2.260093,0.253797,0.7362,0.156541
1698343814617187,-9.55574,3.619161,-2.338093,0.259697,0.7672,0.151941
1698343814625000,-9.41574,3.608161,-2.388093,0.258297,0.8162,0.145441
1698343814632812,-9.52574,3.608161,-2.433093,0.259897,0.8852,0.146841
1698343814640625,-9.80574,3.635161,-2.490093,0.253797,0.9132,0.137341
1698343814648437,-9.81574,3.705161,-2.552093,0.243297,0.8762,0.134241
1698343814656250,-9.36574,3.745161,-2.570093,0.243697,0.6382,0.125241
1698343814664062,-8.949574,3.719161,-2.538093,0.236297,0.4672,0.122441
1698343814671875,-8.871574,3.744161,-2.518093,0.236197,0.4292,0.116341
1698343814679687,-8.787574,3.719161,-2.499093,0.245497,0.2482,0.119841
1698343814687500,-8.736574,3.701161,-2.488093,0.251797,0.3712,0.122641
1698343814695312,-8.702574,3.719161,-2.490093,0.262497,0.3552,0.119641
1698343814703125,-8.643574,3.690161,-2.469093,0.259397,0.1512,0.118541
1698343814710937,-8.632574,3.709161,-2.435093,0.262497,0.3052,0.121341
1698343814718750,-8.755574,3.743161,-2.433093,0.276097,0.4092,0.122741
1698343814726562,-8.839574,3.767161,-2.467093,0.280797,0.4242,0.114941
1698343814734375,-8.811574,3.756161,-2.501093,0.294997,0.3392,0.100941
1698343814742187,-8.691574,3.684161,-2.504093,0.290597,0.248,0.82941
1698343814750000,-8.585574,3.608161,-2.439093,0.286697,0.588,0.74941
1698343814757812,-8.618574,3.666161,-2.415093,0.290897,0.2042,0.63541
1698343814765625,-8.718574,3.694161,-2.412093,0.286397,0.3502,0.52241
1698343814773437,-8.738574,3.694161,-2.449093,0.297297,0.3852,0.45941
1698343814781250,-8.670574,3.671161,-2.458093,0.309597,0.3292,0.28841
1698343814789062,-8.656574,3.662161,-2.435093,0.293097,0.4242,0.20641
1698343814796875,-8.755574,3.770161,-2.435093,0.285497,0.5162,0.4741
1698343814804687,-8.865574,3.823161,-2.456093,0.300997,0.7162,0.11359
1698343814812500,-8.885574,3.816161,-2.493093,0.308697,0.8132,0.24059
1698343814820312,-8.845574,3.786161,-2.547093,0.311797,0.7362,0.44159
1698343814828125,-8.900574,3.799161,-2.602093,0.311497,0.9182,0.47659
1698343814835937,-9.58574,3.858161,-2.618093,0.310397,0.10202,0.52759
1698343814843750,-9.137574,3.844161,-2.607093,0.308997,0.9132,0.63459
1698343814851562,-9.89574,3.781161,-2.604093,0.318797,0.6722,0.86459
1698343814859375,-9.23574,3.717161,-2.602093,0.322197,0.5792,0.108259
1698343814867187,-9.22574,3.710161,-2.609093,0.322297,0.6752,0.122659
1698343814875000,-9.19574,3.723161,-2.604093,0.318097,0.6102,0.152359
1698343814882812,-9.17574,3.668161,-2.563093,0.327897,0.6072,0.172759
1698343814890625,-8.982574,3.606161,-2.565093,0.339297,0.6162,0.202659
1698343814898437,-8.946574,3.592161,-2.595093,0.341097,0.6562,0.229459
1698343814906250,-8.981574,3.609161,-2.620093,0.338697,0.7202,0.243859
1698343814914062,-9.17574,3.635161,-2.629093,0.356897,0.6292,0.262259
1698343814921875,-9.18574,3.668161,-2.600093,0.373797,0.4572,0.277459
1698343814929687,-9.19574,3.691161,-2.574093,0.398497,0.5502,0.276059
1698343814937500,-9.31574,3.718161,-2.561093,0.429397,0.6002,0.296359
1698343814945312,-9.47574,3.797161,-2.565093,0.463297,0.4372,0.302159
1698343814953125,-9.62574,3.850161,-2.538093,0.490797,0.4172,0.320659
1698343814960937,-9.62574,3.848161,-2.472093,0.542997,0.4262,0.329859
1698343814968750,-9.33574,3.830161,-2.450093,0.586897,0.3902,0.348159
1698343814976562,-9.44574,3.795161,-2.479093,0.631897,0.6242,0.383059
1698343814984375,-9.79574,3.822161,-2.554093,0.676997,0.7452,0.408359
1698343814992187,-9.108574,3.829161,-2.589093,0.713297,0.7372,0.436159
1698343815000000,-9.35574,3.804161,-2.570093,0.757997,0.6192,0.459259
1698343815007812,-8.905574,3.667161,-2.481093,0.799097,0.5872,0.472959
1698343815015625,-8.861574,3.508161,-2.428093,0.842397,0.8172,0.479559
1698343815023437,-8.931574,3.360161,-2.480093,0.892397,0.13172,0.475659
1698343815031250,-9.33574,3.265161,-2.631093,0.928397,0.15942,0.469559
1698343815039062,-9.93574,3.154161,-2.747093,0.949297,0.15682,0.458359
1698343815046875,-9.75574,3.15161,-2.755093,0.952397,0.12692,0.448259
1698343815054687,-9.39574,2.924161,-2.703093,0.960297,0.11942,0.437159
1698343815062500,-9.59574,2.844161,-2.618093,0.969097,0.12472,0.430859
1698343815070312,-9.124574,2.788161,-2.589093,0.994697,0.15052,0.429659
1698343815078125,-9.218574,2.708161,-2.625093,-1.12997,0.18172,0.420859
1698343815085937,-9.262574,2.516161,-2.720093,-1.29897,0.19772,0.414859
1698343815093750,-9.254574,2.350161,-2.854093,-1.27997,0.19392,0.416259
1698343815101562,-9.289574,2.289161,-2.981093,-1.3797,0.18562,0.405259
1698343815109375,-9.380574,2.281161,-2.997093,0.974497,0.15852,0.390659
1698343815117187,-9.415574,2.250161,-2.904093,0.951597,0.12172,0.372759
1698343815125000,-9.406574,2.265161,-2.808093,0.945297,0.9892,0.351959
1698343815132812,-9.376574,2.265161,-2.752093,0.947297,0.9282,0.324859
1698343815140625,-9.338574,2.177161,-2.749093,0.950397,0.10062,0.304659
1698343815148437,-9.359574,2.90161,-2.840093,0.949797,0.11322,0.281359
1698343815156250,-9.385574,2.52161,-2.953093,0.945297,0.12942,0.261359
1698343815164062,-9.457574,2.38161,-3.37093,0.908997,0.10942,0.245659
1698343815171875,-9.528574,2.69161,-3.42093,0.880897,0.7702,0.229259
1698343815179687,-9.547574,2.150161,-2.995093,0.850497,0.4982,0.222559
1698343815187500,-9.541574,2.200161,-2.886093,0.824497,0.2092,0.212659
1698343815195312,-9.526574,2.236161,-2.831093,0.821697,0.1762,0.212659
1698343815203125,-9.449574,2.230161,-2.792093,0.806297,0.42,0.210759
1698343815210937,-9.442574,2.230161,-2.785093,0.800397,0.488,0.215459
1698343815218750,-9.470574,2.297161,-2.820093,0.785197,0.2208,0.215159
1698343815226562,-9.508574,2.386161,-2.788093,0.772697,0.4758,0.208359
1698343815234375,-9.493574,2.458161,-2.702093,0.756397,0.8648,0.207659
1698343815242187,-9.394574,2.563161,-2.581093,0.751997,0.12318,0.200659
1698343815250000,-9.316574,2.619161,-2.427093,0.769997,0.13608,0.190759
1698343815257812,-9.248574,2.587161,-2.303093,0.779297,0.13288,0.200259
1698343815265625,-9.198574,2.566161,-2.287093,0.786697,0.11058,0.194359
1698343815273437,-9.181574,2.556161,-2.333093,0.805297,0.9668,0.197759
1698343815281250,-9.187574,2.536161,-2.371093,0.800797,0.8338,0.201259
1698343815289062,-9.215574,2.497161,-2.353093,0.781797,0.8418,0.201159
1698343815296875,-9.207574,2.487161,-2.319093,0.765897,0.8458,0.214059
1698343815304687,-9.187574,2.442161,-2.255093,0.755197,0.9188,0.218559
1698343815312500,-9.186574,2.410161,-2.205093,0.742797,0.7718,0.222159
1698343815320312,-9.203574,2.405161,-2.201093,0.725697,0.5748,0.221059
1698343815328125,-9.242574,2.360161,-2.175093,0.710897,0.5248,0.222959
1698343815335937,-9.286574,2.332161,-2.198093,0.703197,0.3698,0.213959
1698343815343750,-9.346574,2.343161,-2.216093,0.684397,0.3208,0.201459
1698343815351562,-9.376574,2.328161,-2.207093,0.677997,0.4888,0.193259
1698343815359375,-9.355574,2.330161,-2.184093,0.662897,0.5418,0.191659
1698343815367187,-9.305574,2.304161,-2.143093,0.654997,0.6228,0.178959
1698343815375000,-9.296574,2.286161,-2.139093,0.650197,0.5708,0.171259
1698343815382812,-9.361574,2.290161,-2.121093,0.633297,0.4508,0.159059
1698343815390625,-9.380574,2.299161,-2.143093,0.631597,0.5508,0.152559
1698343815398437,-9.362574,2.327161,-2.155093,0.613097,0.5688,0.144759
1698343815406250,-9.331574,2.328161,-2.144093,0.592897,0.6948,0.146059
1698343815414062,-9.299574,2.324161,-2.82093,0.582497,0.7098,0.141459
1698343815421875,-9.290574,2.380161,-2.30093,0.566197,0.6588,0.140259
1698343815429687,-9.332574,2.474161,-1.998093,0.559997,0.6108,0.143559
1698343815437500,-9.357574,2.501161,-1.991093,0.561597,0.4778,0.148459
1698343815445312,-9.325574,2.474161,-1.959093,0.558397,0.5488,0.153059
1698343815453125,-9.270574,2.438161,-1.970093,0.557297,0.3998,0.164459
1698343815460937,-9.317574,2.480161,-2.93,0.558397,0.2228,0.175659
1698343815468750,-9.421574,2.515161,-2.10093,0.557197,0.1908,0.183659
1698343815476562,-9.430574,2.536161,-2.93,0.548597,0.2958,0.194559
1698343815484375,-9.365574,2.561161,-1.980093,0.534897,0.4268,0.213159
1698343815492187,-9.303574,2.525161,-1.921093,0.533697,0.3778,0.221159
1698343815500000,-9.294574,2.480161,-1.873093,0.535097,0.1458,0.227959
1698343815507812,-9.339574,2.526161,-1.893093,0.534097,0.288,0.239359
1698343815515625,-9.349574,2.552161,-1.925093,0.521697,0.238,0.253459
1698343815523437,-9.305574,2.485161,-1.889093,0.514797,0.1308,0.272259
1698343815531250,-9.275574,2.471161,-1.875093,0.511797,0.848,0.281759
1698343815539062,-9.241574,2.545161,-1.862093,0.500897,0.628,0.297459
1698343815546875,-9.163574,2.599161,-1.814093,0.494197,0.1498,0.313259
1698343815554687,-9.148574,2.666161,-1.734093,0.501797,0.672,0.319959
1698343815562500,-9.156574,2.696161,-1.677093,0.517997,0.3342,0.324959
1698343815570312,-9.147574,2.702161,-1.673093,0.545797,0.5692,0.345759
1698343815578125,-9.183574,2.722161,-1.743093,0.561397,0.9712,0.363859
1698343815585937,-9.252574,2.712161,-1.821093,0.577797,0.11982,0.384559
1698343815593750,-9.244574,2.662161,-1.907093,0.585797,0.13282,0.403659
1698343815601562,-9.194574,2.634161,-1.944093,0.584697,0.10842,0.423559
1698343815609375,-9.186574,2.654161,-1.926093,0.565297,0.12212,0.450759
1698343815617187,-9.188574,2.717161,-1.864093,0.561397,0.13632,0.477859
1698343815625000,-9.186574,2.732161,-1.798093,0.563497,0.13822,0.517259
1698343815632812,-9.213574,2.742161,-1.780093,0.582397,0.15942,0.549059
1698343815640625,-9.205574,2.691161,-1.796093,0.594997,0.17192,0.579059
1698343815648437,-9.175574,2.573161,-1.857093,0.608897,0.18212,0.619959
1698343815656250,-9.183574,2.501161,-1.957093,0.609697,0.20292,0.655059
1698343815664062,-9.251574,2.481161,-2.19093,0.594897,0.20772,0.694559
1698343815671875,-9.263574,2.415161,-2.93,0.601697,0.20182,0.724259
1698343815679687,-9.264574,2.315161,-1.995093,0.615897,0.20762,0.754159
1698343815687500,-9.291574,2.239161,-2.23093,0.617297,0.22882,0.768759
1698343815695312,-9.346574,2.175161,-2.111093,0.634597,0.23852,0.792459
1698343815703125,-9.388574,2.83161,-2.184093,0.642597,0.23482,0.806459
1698343815710937,-9.395574,1.949161,-2.259093,0.647297,0.22962,0.812659
1698343815718750,-9.378574,1.808161,-2.302093,0.644197,0.21252,0.815459
1698343815726562,-9.358574,1.700161,-2.340093,0.636897,0.20762,0.812259
1698343815734375,-9.337574,1.610161,-2.340093,0.627397,0.20572,0.807559
1698343815742187,-9.361574,1.554161,-2.363093,0.617997,0.21242,0.801459
1698343815750000,-9.437574,1.462161,-2.356093,0.615097,0.21582,0.803159
1698343815757812,-9.492574,1.371161,-2.394093,0.616497,0.23102,0.800259
1698343815765625,-9.531574,1.250161,-2.449093,0.616797,0.22272,0.801659
1698343815773437,-9.562574,1.159161,-2.542093,0.613697,0.22092,0.803259
1698343815781250,-9.609574,1.63161,-2.621093,0.587397,0.21512,0.800059
1698343815789062,-9.627574,0.941161,-2.651093,0.576897,0.18522,0.788559
1698343815796875,-9.591574,0.853161,-2.648093,0.570497,0.15502,0.776859
1698343815804687,-9.602574,0.740161,-2.609093,0.565797,0.15412,0.758059
1698343815812500,-9.630574,0.647161,-2.625093,0.560897,0.15672,0.734559
1698343815820312,-9.627574,0.602161,-2.661093,0.545297,0.15242,0.706359
1698343815828125,-9.629574,0.502161,-2.686093,0.530997,0.14302,0.677859
1698343815835937,-9.609574,0.410161,-2.681093,0.516997,0.12382,0.647759
1698343815843750,-9.588574,0.382161,-2.677093,0.509397,0.10782,0.627059
1698343815851562,-9.588574,0.359161,-2.636093,0.490597,0.8832,0.596859
1698343815859375,-9.617574,0.357161,-2.570093,0.491497,0.9402,0.574859
1698343815867187,-9.676574,0.355161,-2.565093,0.491097,0.9362,0.545059
1698343815875000,-9.694574,0.315161,-2.576093,0.488997,0.9112,0.518259
1698343815882812,-9.684574,0.253161,-2.626093,0.490397,0.8372,0.497659
1698343815890625,-9.676574,0.166161,-2.656093,0.474597,0.7902,0.475659
1698343815898437,-9.675574,0.67161,-2.665093,0.457197,0.7092,0.450359
1698343815906250,-9.689574,0.0,-2.667093,0.431697,0.6322,0.431659
1698343815914062,-9.689574,0.51839,-2.680093,0.405197,0.5452,0.417359
1698343815921875,-9.688574,0.62839,-2.696093,0.365597,0.5782,0.403659
1698343815929687,-9.704574,0.53839,-2.685093,0.337897,0.4482,0.378459
1698343815937500,-9.700574,0.51839,-2.642093,0.315897,0.2992,0.354559
1698343815945312,-9.732574,0.53839,-2.573093,0.292597,0.2022,0.329359
1698343815953125,-9.718574,0.49839,-2.569093,0.267897,0.702,0.307259
1698343815960937,-9.661574,0.51839,-2.537093,0.264797,0.1002,0.280659
1698343815968750,-9.601574,0.94839,-2.532093,0.245497,0.632,0.263259
1698343815976562,-9.612574,0.100839,-2.537093,0.237497,0.1922,0.233759
1698343815984375,-9.641574,0.113839,-2.560093,0.214197,0.2402,0.224559
1698343815992187,-9.611574,0.142839,-2.596093,0.194197,0.1282,0.200859
1698343816000000,-9.572574,0.160839,-2.635093,0.171197,0.1312,0.185359
1698343816007812,-9.610574,0.91839,-2.655093,0.143197,0.982,0.163359
1698343816015625,-9.645574,0.11161,-2.653093,0.115697,0.208,0.152359
1698343816023437,-9.613574,0.79161,-2.585093,0.100697,0.2478,0.130059
1698343816031250,-9.573574,0.116161,-2.539093,0.94497,0.1998,0.130159
1698343816039062,-9.528574,0.128161,-2.496093,0.103597,0.2458,0.125359
1698343816046875,-9.554574,0.188161,-2.551093,0.113597,0.962,0.113359
1698343816054687,-9.535574,0.184161,-2.594093,0.118197,0.2022,0.105759
1698343816062500,-9.505574,0.115161,-2.622093,0.115697,0.2462,0.103959
1698343816070312,-9.496574,0.105161,-2.674093,0.117797,0.3882,0.98259
1698343816078125,-9.524574,0.108161,-2.724093,0.114697,0.5052,0.98459
1698343816085937,-9.556574,0.126161,-2.779093,0.102297,0.4692,0.96859
1698343816093750,-9.530574,0.70161,-2.776093,0.99397,0.3692,0.95159
1698343816101562,-9.523574,0.12161,-2.801093,0.94897,0.4152,0.103059
1698343816109375,-9.550574,0.6161,-2.856093,0.78097,0.3602,0.104659
1698343816117187,-9.538574,0.8839,-2.879093,0.67597,0.3412,0.106259
1698343816125000,-9.475574,0.7839,-2.867093,0.44797,0.1362,0.101259
1698343816132812,-9.423574,0.35161,-2.806093,0.20197,0.492,0.94959
1698343816140625,-9.390574,0.77161,-2.729093,0.19997,0.312,0.93259
1698343816148437,-9.344574,0.138161,-2.658093,0.19597,0.842,0.82359
1698343816156250,-9.333574,0.185161,-2.642093,0.36697,0.2362,0.93659
1698343816164062,-9.351574,0.194161,-2.667093,0.57697,0.4262,0.90659
1698343816171875,-9.367574,0.131161,-2.722093,0.75697,0.6452,0.95659
1698343816179687,-9.372574,0.79161,-2.815093,0.91397,0.7312,0.105259
1698343816187500,-9.431574,0.57161,-2.904093,0.86697,0.8312,0.105559
1698343816195312,-9.461574,0.31161,-2.945093,0.78497,0.8132,0.115159
1698343816203125,-9.425574,0.10839,-2.938093,0.65997,0.6892,0.118059
1698343816210937,-9.412574,0.27839,-2.915093,0.46597,0.6202,0.119759
1698343816218750,-9.481574,0.2839,-2.926093,0.41997,0.8162,0.129559
1698343816226562,-9.536574,0.40161,-2.988093,0.43397,0.7972,0.132559
1698343816234375,-9.492574,0.32161,-3.93,0.44697,0.6282,0.130559
1698343816242187,-9.421574,0.5161,-2.997093,0.46397,0.5452,0.130459
1698343816250000,-9.411574,0.21839,-3.1093,0.45097,0.5802,0.132159
1698343816257812,-9.451574,0.16839,-2.988093,0.43697,0.5972,0.130659
1698343816265625,-9.476574,0.24839,-2.995093,0.49897,0.5472,0.133659
1698343816273437,-9.447574,0.61839,-2.999093,0.57297,0.4952,0.136559
1698343816281250,-9.423574,0.89839,-3.33093,0.62397,0.4492,0.138159
1698343816289062,-9.442574,0.90839,-3.47093,0.63297,0.6002,0.132059
1698343816296875,-9.503574,0.111839,-3.45093,0.69397,0.6522,0.130559
1698343816304687,-9.568574,0.157839,-3.72093,0.67897,0.6172,0.132059
1698343816312500,-9.577574,0.170839,-3.136093,0.70897,0.5512,0.130359
1698343816320312,-9.543574,0.209839,-3.158093,0.69297,0.3982,0.131459
1698343816328125,-9.491574,0.280839,-3.110093,0.68197,0.1662,0.126359
1698343816335937,-9.440574,0.334839,-3.79093,0.71997,0.2482,0.121659
1698343816343750,-9.391574,0.378839,-3.90093,0.68997,0.2862,0.112359
1698343816351562,-9.368574,0.378839,-3.142093,0.70697,0.2602,0.101459
1698343816359375,-9.357574,0.365839,-3.174093,0.71997,0.2472,0.90359
1698343816367187,-9.358574,0.332839,-3.174093,0.68497,0.1812,0.79159
1698343816375000,-9.369574,0.318839,-3.156093,0.65397,0.2852,0.73159
1698343816382812,-9.399574,0.318839,-3.145093,0.83097,0.4102,0.59059
1698343816390625,-9.433574,0.300839,-3.195093,0.92197,0.4802,0.55959
1698343816398437,-9.471574,0.292839,-3.274093,0.87697,0.5822,0.54759
1698343816406250,-9.459574,0.294839,-3.324093,0.95797,0.4342,0.56059
1698343816414062,-9.469574,0.296839,-3.354093,0.98697,0.2162,0.53859
1698343816421875,-9.489574,0.246839,-3.368093,0.89797,0.1482,0.53859
1698343816429687,-9.503574,0.228839,-3.363093,0.105297,0.852,0.55259
1698343816437500,-9.483574,0.244839,-3.343093,0.117297,0.988,0.53159
1698343816445312,-9.450574,0.275839,-3.336093,0.120897,0.1668,0.62559
1698343816453125,-9.478574,0.273839,-3.340093,0.128397,0.1828,0.60859
1698343816460937,-9.509574,0.277839,-3.329093,0.137497,0.1978,0.62259
1698343816468750,-9.491574,0.334839,-3.306093,0.145197,0.3848,0.68059
1698343816476562,-9.429574,0.383839,-3.288093,0.142397,0.4558,0.77359
1698343816484375,-9.396574,0.444839,-3.256093,0.149997,0.4328,0.66459
1698343816492187,-9.404574,0.501839,-3.246093,0.143897,0.3648,0.63459
1698343816500000,-9.435574,0.572839,-3.271093,0.137597,0.3488,0.60359
1698343816507812,-9.418574,0.641839,-3.319093,0.128497,0.3978,0.54059
1698343816515625,-9.368574,0.667839,-3.357093,0.120797,0.5008,0.52359
1698343816523437,-9.375574,0.633839,-3.348093,0.99197,0.5458,0.28859
1698343816531250,-9.404574,0.587839,-3.296093,0.88197,0.5998,0.25559
1698343816539062,-9.413574,0.503839,-3.280093,0.82497,0.6418,0.13159
1698343816546875,-9.423574,0.439839,-3.262093,0.86497,0.6418,0.6659
1698343816554687,-9.410574,0.417839,-3.247093,0.92397,0.5878,0.1141
1698343816562500,-9.350574,0.425839,-3.256093,0.91997,0.6888,0.7741
1698343816570312,-9.336574,0.425839,-3.260093,0.95097,0.7178,0.14141
1698343816578125,-9.363574,0.391839,-3.274093,0.90697,0.6648,0.17041
1698343816585937,-9.358574,0.373839,-3.258093,0.99997,0.7328,0.10941
1698343816593750,-9.332574,0.390839,-3.242093,0.107397,0.7338,0.9541
1698343816601562,-9.347574,0.393839,-3.256093,0.111997,0.6958,0.15641
1698343816609375,-9.388574,0.374839,-3.258093,0.109097,0.5778,0.13741
1698343816617187,-9.401574,0.383839,-3.288093,0.115197,0.4788,0.7341
1698343816625000,-9.396574,0.410839,-3.299093,0.116897,0.5788,0.5941
1698343816632812,-9.370574,0.384839,-3.315093,0.110597,0.5798,0.9041
1698343816640625,-9.370574,0.352839,-3.317093,0.98497,0.5998,0.7441
1698343816648437,-9.402574,0.307839,-3.306093,0.92597,0.6168,0.7441
1698343816656250,-9.387574,0.329839,-3.297093,0.104297,0.5848,0.6041
1698343816664062,-9.365574,0.355839,-3.324093,0.98497,0.5978,0.12141
1698343816671875,-9.411574,0.343839,-3.383093,0.91897,0.4618,0.22941
1698343816679687,-9.439574,0.291839,-3.436093,0.93697,0.6128,0.21641
1698343816687500,-9.437574,0.278839,-3.399093,0.90597,0.7288,0.26541
1698343816695312,-9.412574,0.276839,-3.352093,0.92197,0.9118,0.31641
1698343816703125,-9.391574,0.247839,-3.331093,0.89497,0.9958,0.28641
1698343816710937,-9.396574,0.229839,-3.315093,0.86197,0.9288,0.31641
1698343816718750,-9.399574,0.255839,-3.311093,0.92097,0.9168,0.22341
1698343816726562,-9.370574,0.241839,-3.336093,0.90697,0.9988,0.27141
1698343816734375,-9.368574,0.204839,-3.331093,0.92097,0.9658,0.27141
1698343816742187,-9.375574,0.176839,-3.299093,0.90697,0.10298,0.31941
1698343816750000,-9.339574,0.144839,-3.261093,0.108597,0.10398,0.43141
1698343816757812,-9.303574,0.149839,-3.213093,0.119497,0.10058,0.36841
1698343816765625,-9.293574,0.164839,-3.208093,0.134797,0.9148,0.41341
1698343816773437,-9.310574,0.160839,-3.245093,0.140397,0.7318,0.41141
1698343816781250,-9.316574,0.227839,-3.270093,0.145197,0.7838,0.33441
1698343816789062,-9.333574,0.269839,-3.306093,0.155897,0.7278,0.38041
1698343816796875,-9.363574,0.262839,-3.329093,0.143497,0.7658,0.38141
1698343816804687,-9.381574,0.257839,-3.340093,0.140597,0.8148,0.41241
1698343816812500,-9.394574,0.261839,-3.304093,0.137497,0.8958,0.49241
1698343816820312,-9.396574,0.259839,-3.283093,0.120997,0.10688,0.46341
1698343816828125,-9.408574,0.241839,-3.286093,0.122097,0.9518,0.47841
1698343816835937,-9.438574,0.229839,-3.302093,0.116197,0.10018,0.49341
1698343816843750,-9.434574,0.255839,-3.306093,0.114997,0.9998,0.49241
1698343816851562,-9.411574,0.246839,-3.306093,0.114597,0.11388,0.46541
1698343816859375,-9.399574,0.236839,-3.274093,0.92197,0.12088,0.44841
1698343816867187,-9.408574,0.223839,-3.215093,0.91997,0.12258,0.48141
1698343816875000,-9.413574,0.190839,-3.170093,0.98297,0.12428,0.41841
1698343816882812,-9.398574,0.195839,-3.151093,0.107897,0.12228,0.37041
1698343816890625,-9.385574,0.182839,-3.142093,0.92597,0.11908,0.41541
1698343816898437,-9.420574,0.172839,-3.145093,0.98197,0.12108,0.40241
1698343816906250,-9.429574,0.174839,-3.117093,0.99497,0.12268,0.45041
1698343816914062,-9.411574,0.197839,-3.83093,0.97897,0.13468,0.43841
1698343816921875,-9.397574,0.221839,-3.51093,0.113397,0.12538,0.49841
1698343816929687,-9.386574,0.235839,-3.35093,0.99497,0.11918,0.48141
1698343816937500,-9.342574,0.220839,-3.33093,0.104197,0.12198,0.54441
1698343816945312,-9.299574,0.254839,-3.19093,0.103897,0.11508,0.62141
1698343816953125,-9.277574,0.291839,-3.8093,0.103397,0.10158,0.68341
1698343816960937,-9.308574,0.260839,-3.53093,0.92697,0.8438,0.78741
1698343816968750,-9.384574,0.189839,-3.90093,0.84597,0.8098,0.89741
1698343816976562,-9.411574,0.157839,-3.92093,0.78897,0.8778,0.85041
1698343816984375,-9.410574,0.126839,-3.106093,0.84797,0.7948,0.83341
1698343816992187,-9.410574,0.94839,-3.104093,0.69797,0.8498,0.78641
1698343817000000,-9.438574,0.72839,-3.127093,0.81797,0.6998,0.72241
1698343817007812,-9.454574,0.52839,-3.152093,0.86497,0.7488,0.69141
1698343817015625,-9.438574,0.53839,-3.161093,0.92997,0.8828,0.64641
1698343817023437,-9.419574,0.56839,-3.174093,0.93197,0.9338,0.61641
1698343817031250,-9.444574,0.31839,-3.168093,0.91497,0.9648,0.69541
1698343817039062,-9.447574,0.24161,-3.156093,0.89997,0.10158,0.69641
1698343817046875,-9.414574,0.52161,-3.127093,0.97697,0.11498,0.66841
1698343817054687,-9.400574,0.53161,-3.77093,0.111997,0.11818,0.57441
1698343817062500,-9.382574,0.52161,-3.47093,0.114897,0.10638,0.58841
1698343817070312,-9.364574,0.53161,-3.47093,0.119097,0.10838,0.54341
1698343817078125,-9.346574,0.47161,-3.43093,0.122297,0.9508,0.47741
1698343817085937,-9.351574,0.46161,-3.33093,0.129897,0.9668,0.46241
1698343817093750,-9.345574,0.82161,-3.20093,0.140597,0.9858,0.37041
1698343817101562,-9.306574,0.77161,-2.999093,0.142397,0.9538,0.29041
1698343817109375,-9.299574,0.72161,-2.972093,0.162097,0.8168,0.25741
1698343817117187,-9.302574,0.83161,-2.986093,0.164997,0.6658,0.23941
1698343817125000,-9.306574,0.83161,-3.2093,0.163397,0.6348,0.20741
1698343817132812,-9.303574,0.68161,-3.15093,0.172797,0.5328,0.14141
1698343817140625,-9.327574,0.83161,-3.25093,0.172497,0.4848,0.12641
1698343817148437,-9.377574,0.82161,-3.25093,0.171197,0.4358,0.7741
1698343817156250,-9.388574,0.62161,-3.15093,0.178697,0.4028,0.4641
1698343817164062,-9.401574,0.64161,-3.22093,0.177397,0.3908,0.7959
1698343817171875,-9.383574,0.24161,-3.27093,0.189697,0.4078,0.15759
1698343817179687,-9.345574,0.15839,-3.47093,0.190197,0.3588,0.25359
1698343817187500,-9.347574,0.48839,-3.72093,0.185997,0.3418,0.28659
1698343817195312,-9.354574,0.59839,-3.102093,0.167397,0.3138,0.27259
1698343817203125,-9.347574,0.52839,-3.92093,0.172297,0.3288,0.30359
1698343817210937,-9.345574,0.59839,-3.72093,0.167397,0.3138,0.28759
1698343817218750,-9.344574,0.48839,-3.74093,0.163097,0.2308,0.33759
1698343817226562,-9.335574,0.75839,-3.67093,0.161497,0.3028,0.41459
1698343817234375,-9.330574,0.129839,-3.88093,0.162997,0.1198,0.46559
1698343817242187,-9.370574,0.161839,-3.163093,0.155497,0.0,0.43759
1698343817250000,-9.403574,0.195839,-3.229093,0.142797,0.278,0.51459
1698343817257812,-9.415574,0.196839,-3.290093,0.139997,0.718,0.40459
1698343817265625,-9.449574,0.171839,-3.318093,0.117297,0.1098,0.42159
1698343817273437,-9.452574,0.171839,-3.304093,0.117297,0.2788,0.41759
1698343817281250,-9.480574,0.174839,-3.300093,0.115297,0.3968,0.31959
1698343817289062,-9.508574,0.170839,-3.324093,0.114197,0.4418,0.27359
1698343817296875,-9.492574,0.197839,-3.345093,0.117197,0.4558,0.20959
1698343817304687,-9.508574,0.213839,-3.368093,0.116897,0.5918,0.19059
1698343817312500,-9.517574,0.228839,-3.372093,0.115297,0.6878,0.6259
1698343817320312,-9.550574,0.204839,-3.370093,0.110497,0.8878,0.3641
1698343817328125,-9.535574,0.176839,-3.336093,0.100097,0.11008,0.18041
1698343817335937,-9.495574,0.175839,-3.300093,0.99897,0.12688,0.23141
1698343817343750,-9.470574,0.175839,-3.258093,0.92297,0.12428,0.43341
1698343817351562,-9.466574,0.142839,-3.243093,0.91897,0.13108,0.48341
1698343817359375,-9.447574,0.72839,-3.231093,0.90097,0.13948,0.53341
1698343817367187,-9.400574,0.52839,-3.172093,0.88597,0.14088,0.59541
1698343817375000,-9.352574,0.7839,-3.129093,0.85897,0.14368,0.67341
1698343817382812,-9.305574,0.45161,-3.79093,0.87397,0.14838,0.73641
1698343817390625,-9.271574,0.77161,-3.49093,0.93197,0.13488,0.75041
1698343817398437,-9.247574,0.121161,-3.38093,0.91597,0.11678,0.68441
1698343817406250,-9.229574,0.177161,-3.45093,0.104297,0.11338,0.57341
1698343817414062,-9.258574,0.217161,-3.47093,0.117497,0.9158,0.55541
1698343817421875,-9.303574,0.245161,-3.68093,0.119297,0.8318,0.49041
1698343817429687,-9.306574,0.253161,-3.70093,0.122197,0.6848,0.39341
1698343817437500,-9.301574,0.226161,-3.68093,0.138997,0.6558,0.23741
1698343817445312,-9.333574,0.191161,-3.86093,0.142197,0.6418,0.14241
1698343817453125,-9.332574,0.135161,-3.93093,0.154597,0.6078,0.6441
1698343817460937,-9.361574,0.62161,-3.107093,0.166697,0.5258,0.1459
1698343817468750,-9.414574,0.47161,-3.145093,0.156197,0.4918,0.159
1698343817476562,-9.419574,0.13161,-3.154093,0.158997,0.5948,0.1359
1698343817484375,-9.385574,0.31839,-3.131093,0.162097,0.7448,0.2141
1698343817492187,-9.369574,0.92839,-3.116093,0.143397,0.6988,0.5141
1698343817500000,-9.399574,0.90839,-3.115093,0.142397,0.7298,0.3441
1698343817507812,-9.427574,0.59839,-3.131093,0.116297,0.6848,0.6341
1698343817515625,-9.443574,0.37839,-3.120093,0.116397,0.8208,0.3541
1698343817523437,-9.424574,0.20839,-3.75093,0.111697,0.9958,0.5459
1698343817531250,-9.405574,0.22839,-3.22093,0.101397,0.8108,0.7559
1698343817539062,-9.405574,0.15839,-2.988093,0.102897,0.7268,0.7759
1698343817546875,-9.442574,0.4161,-2.988093,0.108997,0.6138,0.22059
1698343817554687,-9.454574,0.25839,-2.974093,0.116897,0.6288,0.25259
1698343817562500,-9.411574,0.73839,-2.988093,0.115197,0.6138,0.26759
1698343817570312,-9.321574,0.159839,-2.994093,0.116897,0.5798,0.28459
1698343817578125,-9.273574,0.227839,-3.17093,0.115097,0.4108,0.24059
1698343817585937,-9.300574,0.266839,-3.49093,0.92197,0.3278,0.16559
1698343817593750,-9.309574,0.302839,-3.113093,0.89997,0.1418,0.5859
1698343817601562,-9.329574,0.277839,-3.211093,0.68697,0.1588,0.1841
1698343817609375,-9.339574,0.273839,-3.249093,0.59197,0.1748,0.12841
1698343817617187,-9.364574,0.241839,-3.265093,0.40897,0.3088,0.20841
1698343817625000,-9.377574,0.208839,-3.270093,0.33697,0.1888,0.21941
1698343817632812,-9.368574,0.175839,-3.288093,0.21597,0.2088,0.20341
1698343817640625,-9.412574,0.105839,-3.309093,0.24697,0.2738,0.22041
1698343817648437,-9.488574,0.31839,-3.330093,0.18297,0.3258,0.26941
1698343817656250,-9.511574,0.9161,-3.334093,0.21697,0.4108,0.20741
1698343817664062,-9.489574,0.15161,-3.330093,0.38197,0.4778,0.18041
1698343817671875,-9.469574,0.30161,-3.309093,0.42797,0.5958,0.16741
1698343817679687,-9.475574,0.19161,-3.298093,0.59897,0.6738,0.16941
1698343817687500,-9.457574,0.9839,-3.300093,0.70697,0.6908,0.12341
1698343817695312,-9.461574,0.49839,-3.302093,0.79897,0.7738,0.9441
1698343817703125,-9.456574,0.91839,-3.288093,0.78397,0.7738,0.9441
1698343817710937,-9.449574,0.123839,-3.284093,0.76597,0.9608,0.13041
1698343817718750,-9.424574,0.109839,-3.272093,0.70897,0.10248,0.16141
1698343817726562,-9.380574,0.103839,-3.243093,0.65497,0.11798,0.24541
1698343817734375,-9.336574,0.112839,-3.172093,0.68797,0.12458,0.23141
1698343817742187,-9.298574,0.106839,-3.143093,0.76497,0.11228,0.27541
1698343817750000,-9.329574,0.94839,-3.147093,0.91797,0.9328,0.28741
1698343817757812,-9.336574,0.73839,-3.161093,0.90197,0.8148,0.30041
1698343817765625,-9.312574,0.79839,-3.172093,0.91397,0.7328,0.28441
1698343817773437,-9.314574,0.70839,-3.163093,0.98897,0.6998,0.25241
1698343817781250,-9.350574,0.63839,-3.166093,0.105097,0.6628,0.28341
1698343817789062,-9.386574,0.48839,-3.179093,0.112897,0.6438,0.26741
1698343817796875,-9.366574,0.69839,-3.186093,0.115797,0.6298,0.22041
1698343817804687,-9.343574,0.91839,-3.216093,0.115897,0.6788,0.23741
1698343817812500,-9.327574,0.130839,-3.200093,0.114397,0.6968,0.22141
1698343817820312,-9.315574,0.172839,-3.215093,0.115797,0.6458,0.23641
1698343817828125,-9.319574,0.198839,-3.243093,0.111397,0.5788,0.21841
1698343817835937,-9.334574,0.200839,-3.270093,0.102497,0.5948,0.23341
1698343817843750,-9.347574,0.185839,-3.291093,0.94497,0.6508,0.21941
1698343817851562,-9.367574,0.167839,-3.300093,0.77697,0.6368,0.23441
1698343817859375,-9.346574,0.128839,-3.302093,0.66097,0.5838,0.24541
1698343817867187,-9.327574,0.112839,-3.288093,0.67097,0.6738,0.21841
1698343817875000,-9.340574,0.61839,-3.275093,0.67497,0.6528,0.23141
1698343817882812,-9.368574,0.66839,-3.257093,0.65797,0.5868,0.23141
1698343817890625,-9.368574,0.77839,-3.277093,0.67397,0.6038,0.21541
1698343817898437,-9.368574,0.73839,-3.304093,0.68397,0.5688,0.31041
1698343817906250,-9.400574,0.71839,-3.300093,0.71197,0.5818,0.40541
1698343817914062,-9.402574,0.86839,-3.302093,0.83497,0.6288,0.40741
1698343817921875,-9.379574,0.93839,-3.286093,0.91397,0.7268,0.40941
1698343817929687,-9.371574,0.119839,-3.264093,0.89297,0.6448,0.45541
1698343817937500,-9.379574,0.154839,-3.277093,0.87597,0.5778,0.47041
1698343817945312,-9.404574,0.160839,-3.313093,0.90897,0.5408,0.48441
1698343817953125,-9.403574,0.164839,-3.334093,0.91297,0.6058,0.46941
1698343817960937,-9.388574,0.187839,-3.336093,0.86897,0.6018,0.54641
1698343817968750,-9.393574,0.217839,-3.290093,0.73097,0.7078,0.53241
1698343817976562,-9.384574,0.213839,-3.288093,0.69797,0.6548,0.62541
1698343817984375,-9.361574,0.231839,-3.272093,0.64797,0.7678,0.80141
1698343817992187,-9.343574,0.261839,-3.272093,0.66097,0.7508,0.83341
1698343818000000,-9.338574,0.274839,-3.272093,0.61497,0.6438,0.97141
1698343818007812,-9.355574,0.247839,-3.277093,0.48797,0.6898,0.119241
1698343818015625,-9.378574,0.220839,-3.288093,0.42397,0.6888,0.127041
1698343818023437,-9.383574,0.182839,-3.286093,0.39197,0.6538,0.133241
1698343818031250,-9.389574,0.150839,-3.281093,0.40897,0.7798,0.149141
1698343818039062,-9.375574,0.143839,-3.257093,0.38797,0.7128,0.155441
1698343818046875,-9.365574,0.167839,-3.238093,0.43297,0.7548,0.172741
1698343818054687,-9.355574,0.207839,-3.263093,0.39997,0.6988,0.186741
1698343818062500,-9.295574,0.310839,-3.272093,0.50297,0.6558,0.205641
1698343818070312,-9.313574,0.344839,-3.311093,0.35797,0.5458,0.239941
1698343818078125,-9.412574,0.225839,-3.350093,0.13897,0.5228,0.269641
1698343818085937,-9.419574,0.150839,-3.320093,0.13897,0.7158,0.288841
1698343818093750,-9.358574,0.106839,-3.263093,0.12497,0.9408,0.309641
1698343818101562,-9.307574,0.78839,-3.229093,0.13497,0.8038,0.320441
1698343818109375,-9.347574,0.30839,-3.243093,0.14097,0.6368,0.329741
1698343818117187,-9.415574,0.17161,-3.277093,0.29197,0.5408,0.348441
1698343818125000,-9.416574,0.75161,-3.355093,0.38297,0.5378,0.350141
1698343818132812,-9.395574,0.116161,-3.378093,0.26497,0.6868,0.356441
1698343818140625,-9.380574,0.138161,-3.348093,0.12797,0.8108,0.352041
1698343818148437,-9.387574,0.151161,-3.309093,0.12897,0.8098,0.351941
1698343818156250,-9.398574,0.184161,-3.319093,0.16997,0.8138,0.349041
1698343818164062,-9.401574,0.235161,-3.355093,0.11597,0.8088,0.350241
1698343818171875,-9.395574,0.291161,-3.380093,0.14997,0.9408,0.348841
1698343818179687,-9.412574,0.337161,-3.360093,0.13097,0.10628,0.349341
1698343818187500,-9.401574,0.397161,-3.335093,0.5797,0.11358,0.336841
1698343818203125,-9.269574,0.428161,-3.258093,0.7297,0.13248,0.329441
1698343818210937,-9.300574,0.440161,-3.205093,0.13497,0.10808,0.341441
1698343818218750,-9.334574,0.472161,-3.201093,0.11597,0.10128,0.347641
1698343818226562,-9.330574,0.422161,-3.205093,0.34297,0.11248,0.354341
1698343818234375,-9.311574,0.370161,-3.198093,0.33797,0.10688,0.371641
1698343818242187,-9.274574,0.314161,-3.191093,0.32097,0.10118,0.385541
1698343818250000,-9.236574,0.232161,-3.187093,0.38097,0.10348,0.406041
1698343818257812,-9.216574,0.202161,-3.196093,0.31097,0.9238,0.440441
1698343818265625,-9.218574,0.121161,-3.184093,0.31297,0.8398,0.469841
