time,Acceleration X (m/s^2),Acceleration Y (m/s^2),Acceleration Z (m/s^2),Angular Velocity X (rad/s),Angular Velocity Y (rad/s),Angular Velocity Z (rad/s)
1698344323703125,-9.909311,-0.093793,,,,
1698344323710937,-9.913311,0.801286,0.794167,0.104393,0.62489,0.19946
1698344323718750,-9.892311,0.777286,0.792167,0.115493,0.73689,0.22946
1698344323726562,-9.876311,0.765286,0.794167,0.116793,0.68789,0.21446
1698344323734375,-9.883311,0.761286,0.796167,0.115493,0.85489,0.19546
1698344323742187,-9.876311,0.732286,0.815167,0.116993,0.86989,0.17946
1698344323757812,-9.857311,0.682286,0.831167,0.115293,0.83389,0.8546
1698344323765625,-9.889311,0.681286,0.851167,0.103093,0.87089,0.10146
1698344323773437,-9.916311,0.692286,0.874167,0.104693,0.92689,0.19346
1698344323781250,-9.898311,0.708286,0.897167,0.101893,0.94189,0.22646
1698344323804687,-9.805311,0.674286,0.887167,0.95593,0.81589,0.29046
1698344323812500,-9.803311,0.682286,0.890167,0.94193,0.79389,0.24546
1698344323820312,-9.816311,0.657286,0.876167,0.92493,0.74389,0.23046
1698344323828125,-9.838311,0.660286,0.874167,0.89493,0.70889,0.20046
1698344323835937,-9.841311,0.689286,0.872167,0.71293,0.67889,0.23346
1698344323843750,-9.850311,0.689286,0.865167,0.71093,0.69589,0.20146
1698344323851562,-9.861311,0.671286,0.849167,0.71093,0.61189,0.20346
1698344323859375,-9.866311,0.658286,0.853167,0.70893,0.62889,0.15546
1698344323867187,-9.861311,0.662286,0.822167,0.71093,0.71189,0.18546
1698344323875000,-9.888311,0.681286,0.822167,0.70993,0.55589,0.11146
1698344323882812,-9.889311,0.685286,0.806167,0.70893,0.67689,0.12346
1698344323890625,-9.883311,0.700286,0.801167,0.70593,0.68189,0.13746
1698344323898437,-9.908311,0.693286,0.789167,0.70593,0.64789,0.12246
1698344323906250,-9.918311,0.676286,0.774167,0.70693,0.69189,0.4346
1698344323914062,-9.905311,0.691286,0.780167,0.70993,0.71589,0.20046
1698344323921875,-9.881311,0.711286,0.778167,0.70693,0.69789,0.13746
1698344323929687,-9.892311,0.708286,0.785167,0.70493,0.69789,0.10546
1698344323937500,-9.905311,0.723286,0.798167,0.70893,0.68089,0.16946
1698344323945312,-9.892311,0.718286,0.796167,0.69493,0.79789,0.16746
1698344323953125,-9.860311,0.720286,0.808167,0.71193,0.74689,0.20046
1698344323960937,-9.842311,0.728286,0.821167,0.69493,0.86689,0.18146
1698344323968750,-9.855311,0.711286,0.819167,0.74193,0.86589,0.21246
1698344323976562,-9.877311,0.705286,0.822167,0.74493,0.71189,0.26446
1698344323984375,-9.871311,0.704286,0.835167,0.69593,0.82089,0.29246
1698344323992187,-9.869311,0.718286,0.849167,0.80293,0.70289,0.34146
1698344324000000,-9.858311,0.715286,0.853167,0.91093,0.69889,0.34046
1698344324007812,-9.842311,0.708286,0.840167,0.95593,0.69889,0.32446
1698344324015625,-9.828311,0.702286,0.837167,0.91293,0.66789,0.42046
1698344324023437,-9.814311,0.717286,0.831167,0.89593,0.63089,0.32746
1698344324031250,-9.821311,0.704286,0.826167,0.95493,0.59889,0.34246
1698344324039062,-9.814311,0.686286,0.824167,0.103493,0.61289,0.40546
1698344324046875,-9.798311,0.688286,0.812167,0.104893,0.59489,0.37446
1698344324054687,-9.812311,0.697286,0.821167,0.110993,0.56089,0.39046
1698344324062500,-9.821311,0.706286,0.821167,0.119893,0.50589,0.29646
1698344324070312,-9.841311,0.675286,0.812167,0.116793,0.44089,0.32946
1698344324078125,-9.877311,0.633286,0.792167,0.116793,0.43989,0.29746
1698344324085937,-9.860311,0.625286,0.779167,0.111093,0.48689,0.33046
1698344324093750,-9.854311,0.625286,0.790167,0.115493,0.45389,0.31446
1698344324101562,-9.845311,0.626286,0.778167,0.119993,0.53989,0.32746
1698344324109375,-9.856311,0.614286,0.781167,0.118593,0.48489,0.28246
1698344324117187,-9.875311,0.620286,0.778167,0.119693,0.52389,0.26346
1698344324125000,-9.877311,0.629286,0.778167,0.119893,0.45089,0.23546
1698344324132812,-9.917311,0.585286,0.778167,0.119793,0.47289,0.29646
1698344324140625,-9.917311,0.583286,0.769167,0.119893,0.53989,0.27946
1698344324148437,-9.917311,0.596286,0.778167,0.119893,0.52589,0.32646
1698344324156250,-9.951311,0.550286,0.762167,0.119993,0.50889,0.35846
1698344324164062,-9.932311,0.539286,0.749167,0.119993,0.57089,0.27946
1698344324171875,-9.926311,0.563286,0.774167,0.119793,0.56889,0.20046
1698344324179687,-9.915311,0.569286,0.781167,0.117993,0.62189,0.16746
1698344324187500,-9.946311,0.527286,0.785167,0.119293,0.69889,0.754
1698344324195312,-9.967311,0.520286,0.806167,0.122093,0.67889,0.8654
1698344324203125,-9.902311,0.523286,0.813167,0.118193,0.70889,0.2154
1698344324210937,-9.827311,0.495286,0.799167,0.121193,0.87889,0.2554
1698344324218750,-9.753311,0.480286,0.788167,0.103893,0.73189,0.10154
1698344324226562,-9.753311,0.509286,0.792167,0.91593,0.66089,0.22354
1698344324234375,-9.812311,0.546286,0.817167,0.94693,0.62489,0.23854
1698344324242187,-9.865311,0.569286,0.817167,0.93193,0.62589,0.20754
1698344324250000,-9.860311,0.598286,0.808167,0.96493,0.55889,0.12654
1698344324257812,-9.833311,0.620286,0.774167,0.81393,0.57789,0.10954
1698344324265625,-9.881311,0.632286,0.790167,0.76693,0.58089,0.11054
1698344324273437,-9.893311,0.654286,0.751167,0.76593,0.48389,0.4654
1698344324281250,-9.920311,0.661286,0.746167,0.84393,0.43789,0.7946
1698344324289062,-9.922311,0.659286,0.724167,0.81593,0.59089,0.12446
1698344324296875,-9.900311,0.679286,0.710167,0.78393,0.53689,0.4746
1698344324304687,-9.886311,0.694286,0.719167,0.84593,0.53489,0.4746
1698344324312500,-9.880311,0.714286,0.710167,0.87493,0.63889,0.5946
1698344324320312,-9.906311,0.711286,0.721167,0.91893,0.72289,0.4146
1698344324328125,-9.900311,0.715286,0.740167,0.87693,0.76789,0.454
1698344324335937,-9.876311,0.723286,0.751167,0.101193,0.72989,0.5254
1698344324343750,-9.880311,0.729286,0.778167,0.99793,0.90189,0.646
1698344324351562,-9.857311,0.711286,0.785167,0.104293,0.88189,0.7254
1698344324359375,-9.848311,0.695286,0.799167,0.116493,0.76489,0.746
1698344324367187,-9.844311,0.686286,0.812167,0.122593,0.84989,0.2146
1698344324375000,-9.862311,0.718286,0.830167,0.117993,0.80089,0.3846
1698344324382812,-9.882311,0.712286,0.851167,0.119693,0.81589,0.5446
1698344324390625,-9.855311,0.700286,0.846167,0.118093,0.71789,0.8746
1698344324398437,-9.818311,0.651286,0.824167,0.119693,0.66289,0.5746
1698344324406250,-9.822311,0.621286,0.799167,0.118093,0.64989,0.8846
1698344324414062,-9.845311,0.617286,0.808167,0.119493,0.61989,0.12046
1698344324421875,-9.882311,0.610286,0.790167,0.119293,0.66989,0.8746
1698344324429687,-9.899311,0.564286,0.753167,0.118193,0.63889,0.21446
1698344324437500,-9.908311,0.542286,0.737167,0.94993,0.61289,0.19946
1698344324445312,-9.914311,0.533286,0.740167,0.95193,0.70889,0.13546
1698344324453125,-9.894311,0.522286,0.719167,0.92093,0.67689,0.13646
1698344324460937,-9.890311,0.530286,0.712167,0.82793,0.69689,0.15146
1698344324468750,-9.912311,0.556286,0.724167,0.73893,0.68089,0.16946
1698344324476562,-9.893311,0.577286,0.724167,0.87093,0.70789,0.2546
1698344324484375,-9.884311,0.597286,0.742167,0.86993,0.69189,0.946
1698344324492187,-9.873311,0.619286,0.742167,0.89993,0.66789,0.11554
1698344324500000,-9.880311,0.646286,0.748167,0.88193,0.68189,0.22554
1698344324507812,-9.878311,0.682286,0.764167,0.94593,0.72989,0.21054
1698344324515625,-9.881311,0.697286,0.769167,0.95993,0.77989,0.22754
1698344324523437,-9.882311,0.709286,0.774167,0.106993,0.74089,0.21054
1698344324531250,-9.880311,0.700286,0.767167,0.112893,0.79289,0.22854
1698344324539062,-9.899311,0.714286,0.762167,0.117693,0.74389,0.13354
1698344324546875,-9.889311,0.700286,0.762167,0.116193,0.76189,0.11854
1698344324554687,-9.855311,0.700286,0.749167,0.119493,0.71389,0.654
1698344324562500,-9.880311,0.691286,0.755167,0.120893,0.68089,0.654
1698344324570312,-9.903311,0.667286,0.728167,0.119593,0.82089,0.10046
1698344324578125,-9.909311,0.639286,0.730167,0.118393,0.72089,0.19746
1698344324585937,-9.891311,0.622286,0.719167,0.119793,0.72289,0.21246
1698344324593750,-9.890311,0.605286,0.717167,0.121393,0.68489,0.18246
1698344324601562,-9.890311,0.614286,0.740167,0.118393,0.73989,0.24346
1698344324609375,-9.890311,0.614286,0.742167,0.119893,0.83989,0.21046
1698344324617187,-9.888311,0.611286,0.744167,0.119993,0.80489,0.21146
1698344324625000,-9.863311,0.604286,0.746167,0.118493,0.73889,0.24446
1698344324632812,-9.818311,0.608286,0.742167,0.121393,0.80289,0.16446
1698344324640625,-9.842311,0.604286,0.753167,0.122893,0.80089,0.13246
1698344324648437,-9.858311,0.584286,0.753167,0.119493,0.83389,0.3746
1698344324656250,-9.842311,0.589286,0.747167,0.119693,0.78089,0.3946
1698344324664062,-9.867311,0.580286,0.742167,0.121193,0.76189,0.754
1698344324671875,-9.887311,0.588286,0.749167,0.121193,0.82389,0.7054
1698344324679687,-9.876311,0.580286,0.731167,0.119493,0.82589,0.8754
1698344324687500,-9.919311,0.576286,0.742167,0.119593,0.84489,0.4054
1698344324695312,-9.921311,0.559286,0.728167,0.114993,0.81189,0.5554
1698344324703125,-9.911311,0.559286,0.726167,0.98393,0.79489,0.5254
1698344324710937,-9.905311,0.567286,0.719167,0.98193,0.78289,0.3854
1698344324718750,-9.903311,0.561286,0.717167,0.101293,0.89889,0.5654
1698344324726562,-9.913311,0.551286,0.710167,0.97893,0.86789,0.10354
1698344324734375,-9.955311,0.583286,0.746167,0.95093,0.79989,0.6954
1698344324742187,-9.954311,0.594286,0.751167,0.99693,0.93589,0.4254
1698344324750000,-9.889311,0.552286,0.729167,0.102993,0.97889,0.8854
1698344324757812,-9.879311,0.548286,0.742167,0.104593,0.98889,0.16654
1698344324765625,-9.885311,0.553286,0.742167,0.107193,0.102789,0.18554
1698344324773437,-9.858311,0.569286,0.760167,0.99493,0.94189,0.24554
1698344324781250,-9.879311,0.627286,0.794167,0.93493,0.104289,0.24654
1698344324789062,-9.900311,0.665286,0.831167,0.98093,0.109389,0.23254
1698344324796875,-9.855311,0.682286,0.853167,0.105393,0.106389,0.21854
1698344324804687,-9.814311,0.695286,0.865167,0.111593,0.97389,0.26354
1698344324812500,-9.774311,0.699286,0.860167,0.117593,0.93789,0.31054
1698344324820312,-9.771311,0.692286,0.860167,0.119093,0.88289,0.37154
1698344324828125,-9.803311,0.679286,0.840167,0.117293,0.75189,0.36954
1698344324835937,-9.834311,0.675286,0.822167,0.119093,0.74889,0.33654
1698344324843750,-9.834311,0.671286,0.790167,0.115993,0.70189,0.30454
1698344324851562,-9.875311,0.669286,0.783167,0.112893,0.66789,0.31954
1698344324859375,-9.888311,0.683286,0.778167,0.116193,0.68389,0.27254
1698344324867187,-9.891311,0.678286,0.751167,0.112993,0.68989,0.21054
1698344324875000,-9.893311,0.663286,0.751167,0.116193,0.70789,0.16354
1698344324882812,-9.898311,0.658286,0.737167,0.108693,0.71289,0.8454
1698344324890625,-9.898311,0.674286,0.726167,0.105693,0.79689,0.8654
1698344324898437,-9.916311,0.679286,0.726167,0.101293,0.85189,0.746
1698344324906250,-9.909311,0.688286,0.733167,0.102993,0.91989,0.3746
1698344324914062,-9.905311,0.705286,0.739167,0.115093,0.90189,0.5246
1698344324921875,-9.896311,0.717286,0.749167,0.119893,0.95089,0.9846
1698344324929687,-9.882311,0.718286,0.760167,0.118393,0.93589,0.11446
1698344324937500,-9.875311,0.705286,0.781167,0.120093,0.101889,0.14446
1698344324945312,-9.853311,0.700286,0.790167,0.118293,0.93589,0.9846
1698344324953125,-9.889311,0.690286,0.817167,0.130493,0.96289,0.1946
1698344324960937,-9.893311,0.674286,0.819167,0.142893,0.101789,0.17346
1698344324968750,-9.859311,0.678286,0.853167,0.142693,0.96589,0.12746
1698344324976562,-9.850311,0.683286,0.867167,0.145893,0.92389,0.3546
1698344324984375,-9.845311,0.662286,0.874167,0.159493,0.100389,0.3054
1698344324992187,-9.816311,0.637286,0.869167,0.145693,0.92589,0.1846
1698344325000000,-9.793311,0.624286,0.881167,0.160793,0.93589,0.6054
1698344325007812,-9.800311,0.630286,0.885167,0.157493,0.73689,0.5754
1698344325015625,-9.807311,0.630286,0.867167,0.166693,0.76589,0.12054
1698344325023437,-9.805311,0.607286,0.844167,0.161793,0.70189,0.12054
1698344325031250,-9.806311,0.583286,0.826167,0.146493,0.70389,0.15054
1698344325039062,-9.772311,0.570286,0.794167,0.141893,0.61589,0.22654
1698344325046875,-9.820311,0.588286,0.787167,0.143193,0.54889,0.27254
1698344325054687,-9.882311,0.619286,0.815167,0.132393,0.56989,0.24154
1698344325062500,-9.864311,0.643286,0.787167,0.118793,0.55989,0.16254
1698344325070312,-9.876311,0.639286,0.773167,0.118793,0.59689,0.8454
1698344325078125,-9.884311,0.638286,0.755167,0.117893,0.56289,0.1246
1698344325085937,-9.895311,0.661286,0.741167,0.118693,0.57089,0.4046
1698344325093750,-9.880311,0.678286,0.744167,0.116393,0.61689,0.5746
1698344325101562,-9.887311,0.696286,0.742167,0.112093,0.59889,0.9046
1698344325109375,-9.917311,0.695286,0.744167,0.119193,0.63589,0.7146
1698344325117187,-9.894311,0.700286,0.739167,0.118193,0.65489,0.18246
1698344325125000,-9.913311,0.724286,0.741167,0.119393,0.62389,0.19746
1698344325132812,-9.918311,0.749286,0.746167,0.119493,0.72389,0.18046
1698344325140625,-9.888311,0.751286,0.769167,0.119693,0.70589,0.19746
1698344325148437,-9.879311,0.740286,0.769167,0.127193,0.73789,0.16446
1698344325156250,-9.858311,0.720286,0.780167,0.142493,0.76689,0.14646
1698344325164062,-9.872311,0.717286,0.780167,0.137793,0.75189,0.13146
1698344325171875,-9.878311,0.698286,0.787167,0.148493,0.78089,0.9846
1698344325179687,-9.849311,0.695286,0.783167,0.146993,0.77889,0.5246
1698344325187500,-9.847311,0.661286,0.778167,0.151093,0.64589,0.3746
1698344325195312,-9.860311,0.644286,0.780167,0.160293,0.68889,0.5754
1698344325203125,-9.848311,0.627286,0.776167,0.164693,0.69089,0.2654
1698344325210937,-9.842311,0.620286,0.767167,0.153893,0.64289,0.2554
1698344325218750,-9.841311,0.596286,0.751167,0.156993,0.58889,0.7154
1698344325226562,-9.841311,0.583286,0.742167,0.144993,0.67789,0.954
1698344325234375,-9.846311,0.590286,0.744167,0.144793,0.62489,0.8654
1698344325242187,-9.868311,0.601286,0.719167,0.141793,0.57589,0.5454
1698344325250000,-9.882311,0.618286,0.717167,0.137493,0.64289,0.3854
1698344325257812,-9.902311,0.614286,0.726167,0.136093,0.66089,0.754
1698344325265625,-9.898311,0.635286,0.723167,0.131293,0.72889,0.5654
1698344325273437,-9.899311,0.641286,0.732167,0.118793,0.68389,0.3954
1698344325281250,-9.910311,0.671286,0.737167,0.119293,0.69989,0.846
1698344325289062,-9.917311,0.682286,0.741167,0.119093,0.76589,0.4054
1698344325296875,-9.917311,0.687286,0.744167,0.117793,0.73289,0.746
1698344325304687,-9.894311,0.695286,0.739167,0.119293,0.71889,0.7046
1698344325312500,-9.864311,0.696286,0.742167,0.120993,0.71589,0.2346
1698344325320312,-9.872311,0.691286,0.744167,0.120793,0.68389,0.2346
1698344325328125,-9.913311,0.727286,0.778167,0.129793,0.66489,0.746
1698344325335937,-9.890311,0.731286,0.787167,0.137493,0.74789,0.2146
1698344325343750,-9.858311,0.717286,0.787167,0.143593,0.76289,0.446
1698344325351562,-9.865311,0.690286,0.778167,0.143593,0.71089,0.954
1698344325359375,-9.875311,0.658286,0.767167,0.142393,0.72289,0.3954
1698344325367187,-9.852311,0.653286,0.758167,0.146793,0.68889,0.5554
1698344325375000,-9.858311,0.681286,0.776167,0.146493,0.65689,0.10254
1698344325382812,-9.878311,0.696286,0.787167,0.143493,0.66789,0.18054
1698344325390625,-9.855311,0.682286,0.789167,0.146593,0.75289,0.16754
1698344325398437,-9.803311,0.674286,0.776167,0.141993,0.67589,0.5554
1698344325406250,-9.780311,0.663286,0.758167,0.143393,0.62089,0.14854
1698344325414062,-9.800311,0.661286,0.744167,0.141993,0.55289,0.13054
1698344325421875,-9.828311,0.659286,0.739167,0.143293,0.57389,0.10154
1698344325429687,-9.846311,0.666286,0.717167,0.126693,0.52889,0.2054
1698344325437500,-9.873311,0.676286,0.696167,0.123693,0.49289,0.6554
1698344325445312,-9.880311,0.653286,0.680167,0.120593,0.58089,0.2054
1698344325453125,-9.901311,0.640286,0.664167,0.117593,0.51889,0.7446
1698344325460937,-9.913311,0.645286,0.637167,0.118093,0.56789,0.13746
1698344325468750,-9.950311,0.670286,0.635167,0.119593,0.58789,0.18346
1698344325476562,-9.976311,0.660286,0.618167,0.106993,0.59489,0.21446
1698344325484375,-9.978311,0.654286,0.612167,0.108893,0.64389,0.24546
1698344325492187,-9.986311,0.662286,0.605167,0.121493,0.69089,0.29146
1698344325500000,-9.962311,0.652286,0.614167,0.118193,0.82689,0.24146
1698344325507812,-9.955311,0.668286,0.632167,0.118393,0.87889,0.28746
1698344325515625,-9.954311,0.648286,0.646167,0.123193,0.95789,0.25546
1698344325523437,-9.942311,0.633286,0.658167,0.120093,0.95589,0.22446
1698344325531250,-9.902311,0.638286,0.669167,0.136693,0.99089,0.23646
1698344325539062,-9.897311,0.620286,0.692167,0.141393,0.106989,0.18846
1698344325546875,-9.893311,0.607286,0.705167,0.132193,0.95389,0.19146
1698344325554687,-9.881311,0.583286,0.712167,0.147493,0.104789,0.14146
1698344325562500,-9.888311,0.580286,0.744167,0.145793,0.99989,0.14246
1698344325570312,-9.863311,0.557286,0.742167,0.144193,0.113389,0.7646
1698344325578125,-9.836311,0.541286,0.753167,0.139393,0.106789,0.6146
1698344325585937,-9.806311,0.516286,0.746167,0.135993,0.99989,0.1554
1698344325593750,-9.807311,0.496286,0.744167,0.139293,0.92689,0.6054
1698344325601562,-9.826311,0.512286,0.760167,0.122493,0.91389,0.5854
1698344325609375,-9.835311,0.528286,0.762167,0.117793,0.93189,0.7554
1698344325617187,-9.843311,0.536286,0.753167,0.120493,0.89989,0.9154
1698344325625000,-9.843311,0.538286,0.746167,0.105393,0.83689,0.2554
1698344325632812,-9.867311,0.550286,0.746167,0.103893,0.81889,0.5654
1698344325640625,-9.879311,0.563286,0.742167,0.97693,0.80489,0.4054
1698344325648437,-9.900311,0.560286,0.739167,0.89793,0.74389,0.746
1698344325656250,-9.918311,0.575286,0.730167,0.85593,0.79389,0.2346
1698344325664062,-9.911311,0.608286,0.737167,0.90093,0.80489,0.8654
1698344325671875,-9.920311,0.629286,0.737167,0.82693,0.83989,0.3954
1698344325679687,-9.924311,0.628286,0.733167,0.87593,0.86989,0.3954
1698344325687500,-9.902311,0.633286,0.746167,0.96493,0.97289,0.2754
1698344325695312,-9.902311,0.659286,0.751167,0.92193,0.90089,0.3954
1698344325703125,-9.894311,0.651286,0.746167,0.88593,0.90589,0.7354
1698344325710937,-9.891311,0.653286,0.778167,0.96593,0.97289,0.1154
1698344325718750,-9.865311,0.659286,0.773167,0.97693,0.100689,0.6054
1698344325726562,-9.852311,0.662286,0.783167,0.107393,0.94689,0.7354
1698344325734375,-9.846311,0.653286,0.787167,0.111693,0.89689,0.12054
1698344325742187,-9.832311,0.651286,0.803167,0.105893,0.87989,0.7154
1698344325750000,-9.819311,0.645286,0.810167,0.111693,0.91689,0.5854
1698344325757812,-9.820311,0.633286,0.801167,0.118093,0.86089,0.7254
1698344325765625,-9.839311,0.626286,0.806167,0.119393,0.81389,0.5654
1698344325773437,-9.840311,0.625286,0.801167,0.118093,0.74089,0.6854
1698344325781250,-9.840311,0.617286,0.792167,0.119393,0.67689,0.5254
1698344325789062,-9.840311,0.613286,0.778167,0.111793,0.74389,0.10154
1698344325796875,-9.843311,0.597286,0.781167,0.101093,0.69789,0.6854
1698344325804687,-9.841311,0.588286,0.771167,0.96293,0.70089,0.8454
1698344325812500,-9.847311,0.584286,0.771167,0.93293,0.70189,0.6854
1698344325820312,-9.861311,0.597286,0.776167,0.93393,0.69989,0.6754
1698344325828125,-9.836311,0.593286,0.765167,0.73593,0.71989,0.8254
1698344325835937,-9.852311,0.606286,0.762167,0.70693,0.70789,0.1246
1698344325843750,-9.861311,0.606286,0.767167,0.69093,0.62589,0.2946
1698344325851562,-9.859311,0.611286,0.758167,0.70593,0.57289,0.0
1698344325859375,-9.859311,0.622286,0.744167,0.70593,0.57789,0.7746
1698344325867187,-9.859311,0.626286,0.739167,0.70493,0.57689,0.4546
1698344325875000,-9.879311,0.623286,0.737167,0.70993,0.62489,0.12446
1698344325882812,-9.882311,0.642286,0.726167,0.70693,0.66289,0.10646
1698344325890625,-9.873311,0.640286,0.730167,0.69293,0.57989,0.15646
1698344325898437,-9.859311,0.651286,0.712167,0.67793,0.64889,0.18646
1698344325906250,-9.850311,0.633286,0.705167,0.70893,0.59889,0.20246
1698344325914062,-9.857311,0.647286,0.708167,0.74093,0.62889,0.18646
1698344325921875,-9.903311,0.657286,0.742167,0.68993,0.63689,0.23246
1698344325929687,-9.916311,0.660286,0.744167,0.73693,0.58189,0.18646
1698344325937500,-9.886311,0.631286,0.726167,0.80193,0.59689,0.23346
1698344325945312,-9.872311,0.605286,0.710167,0.77193,0.57789,0.23546
1698344325953125,-9.872311,0.586286,0.712167,0.75193,0.59889,0.18546
1698344325960937,-9.884311,0.597286,0.703167,0.78293,0.58189,0.20146
1698344325968750,-9.882311,0.606286,0.717167,0.81193,0.64689,0.15246
1698344325976562,-9.903311,0.621286,0.744167,0.77993,0.66389,0.12046
1698344325984375,-9.875311,0.622286,0.742167,0.70493,0.57989,0.12346
1698344325992187,-9.838311,0.604286,0.726167,0.75293,0.62889,0.12246
1698344326000000,-9.820311,0.606286,0.717167,0.75093,0.57689,0.7646
1698344326007812,-9.818311,0.583286,0.715167,0.70693,0.59489,0.10846
1698344326015625,-9.841311,0.590286,0.703167,0.70293,0.49489,0.7846
1698344326023437,-9.861311,0.593286,0.687167,0.70493,0.49589,0.12546
1698344326031250,-9.875311,0.601286,0.662167,0.70393,0.46489,0.15746
1698344326039062,-9.904311,0.588286,0.646167,0.68993,0.48389,0.20446
1698344326046875,-9.934311,0.575286,0.607167,0.70393,0.48589,0.23446
1698344326054687,-9.950311,0.582286,0.587167,0.72093,0.53789,0.29646
1698344326062500,-9.952311,0.583286,0.560167,0.69293,0.50189,0.28346
1698344326070312,-9.967311,0.572286,0.560167,0.70793,0.51789,0.26646
1698344326078125,-9.965311,0.577286,0.544167,0.70993,0.58489,0.29746
1698344326085937,-9.963311,0.586286,0.548167,0.70993,0.63489,0.28046
1698344326093750,-9.965311,0.610286,0.560167,0.71093,0.68589,0.29546
1698344326101562,-9.958311,0.622286,0.585167,0.71293,0.68189,0.28046
1698344326109375,-9.949311,0.630286,0.598167,0.69693,0.85289,0.27646
1698344326117187,-9.921311,0.627286,0.607167,0.70893,0.85689,0.29046
1698344326125000,-9.886311,0.627286,0.630167,0.78793,0.91889,0.27346
1698344326132812,-9.896311,0.620286,0.635167,0.80093,0.85389,0.29046
1698344326140625,-9.889311,0.608286,0.639167,0.90693,0.90189,0.25646
1698344326148437,-9.880311,0.608286,0.673167,0.95293,0.81889,0.30546
1698344326156250,-9.880311,0.615286,0.696167,0.95293,0.79989,0.27446
1698344326164062,-9.862311,0.596286,0.696167,0.93593,0.75189,0.29046
1698344326171875,-9.839311,0.572286,0.687167,0.101293,0.78189,0.27446
1698344326179687,-9.838311,0.547286,0.676167,0.102893,0.76589,0.29046
1698344326187500,-9.841311,0.536286,0.662167,0.113293,0.74389,0.21146
1698344326195312,-9.861311,0.536286,0.664167,0.100993,0.71089,0.14946
1698344326203125,-9.861311,0.532286,0.655167,0.91793,0.69689,0.16646
1698344326210937,-9.872311,0.523286,0.642167,0.96193,0.64589,0.15046
1698344326218750,-9.891311,0.532286,0.635167,0.88393,0.57889,0.10546
1698344326226562,-9.931311,0.542286,0.626167,0.84293,0.64789,0.18346
1698344326234375,-9.929311,0.535286,0.605167,0.90393,0.59689,0.20046
1698344326242187,-9.926311,0.542286,0.596167,0.84293,0.63089,0.18446
1698344326250000,-9.940311,0.549286,0.589167,0.73593,0.58489,0.21746
1698344326257812,-9.940311,0.562286,0.578167,0.69193,0.73589,0.21446
1698344326265625,-9.945311,0.585286,0.578167,0.70793,0.70189,0.23146
1698344326273437,-9.928311,0.638286,0.596167,0.78393,0.75189,0.22946
1698344326281250,-9.916311,0.685286,0.605167,0.92393,0.77989,0.22846
1698344326289062,-9.934311,0.736286,0.616167,0.98293,0.93289,0.23946
1698344326296875,-9.889311,0.771286,0.614167,0.111993,0.89689,0.25546
1698344326304687,-9.880311,0.818286,0.621167,0.133493,0.92189,0.19146
1698344326312500,-9.885311,0.872286,0.641167,0.159593,0.88389,0.23746
1698344326320312,-9.897311,0.912286,0.664167,0.174693,0.91389,0.18846
1698344326328125,-9.918311,1.286,0.721167,0.200693,0.92189,0.17146
1698344326335937,-9.892311,1.196286,0.861167,0.244493,0.88089,0.12146
1698344326343750,-9.739311,1.449286,0.977167,0.306993,0.91389,0.2246
1698344326351562,-9.602311,1.542286,0.974167,0.387193,0.72389,0.12154
1698344326359375,-9.619311,1.463286,0.899167,0.466493,0.53189,0.24654
1698344326367187,-9.686311,1.329286,0.802167,0.532693,0.32689,0.48354
1698344326375000,-9.757311,1.264286,0.736167,0.590493,0.9589,0.48254
1698344326382812,-9.834311,1.335286,0.733167,0.642593,0.1189,0.56154
1698344326390625,-9.837311,1.479286,0.751167,0.703193,0.7311,0.70554
1698344326398437,-9.795311,1.557286,0.726167,0.773093,0.7311,0.77354
1698344326406250,-9.783311,1.521286,0.665167,0.848793,0.21611,0.101154
1698344326414062,-9.759311,1.436286,0.601167,0.914093,0.26611,0.109354
1698344326421875,-9.744311,1.440286,0.592167,0.971793,0.35211,0.125254
1698344326429687,-9.736311,1.567286,0.660167,-1.38693,0.46811,0.128654
1698344326437500,-9.667311,1.766286,0.755167,-1.120693,0.49111,0.146454
1698344326445312,-9.562311,1.936286,0.859167,-1.207393,0.51411,0.156354
1698344326453125,-9.451311,2.118286,0.893167,-1.312393,0.66211,0.175554
1698344326460937,-9.427311,2.198286,0.861167,-1.427693,0.97911,0.194554
1698344326468750,-9.461311,2.190286,0.772167,-1.543293,0.122611,0.204154
1698344326476562,-9.527311,2.143286,0.654167,-1.659993,0.142511,0.223554
1698344326484375,-9.614311,2.100286,0.563167,-1.768093,0.167111,0.233054
1698344326492187,-9.605311,2.61286,0.433167,-1.863893,0.193511,0.250354
1698344326500000,-9.608311,1.927286,0.270167,-1.962393,0.216011,0.261654
1698344326507812,-9.741311,1.713286,0.127167,-2.27793,0.236011,0.264754
1698344326515625,-9.852311,1.568286,0.61167,-2.72193,0.242211,0.266454
1698344326523437,-9.890311,1.575286,0.22167,-2.116593,0.243211,0.263554
1698344326531250,-9.906311,1.548286,0.15167,-2.145493,0.240411,0.265354
1698344326539062,-9.914311,1.497286,0.4833,-2.188293,0.239311,0.256254
1698344326546875,-9.918311,1.561286,0.20833,-2.227893,0.227911,0.249054
1698344326554687,-9.931311,1.549286,0.63833,-2.255693,0.226411,0.238154
1698344326562500,-9.938311,1.382286,0.165833,-2.277293,0.216711,0.233754
1698344326570312,-9.908311,1.186286,0.263833,-2.292793,0.213711,0.230754
1698344326578125,-9.882311,1.65286,0.340833,-2.294193,0.211811,0.229254
1698344326585937,-9.890311,0.915286,0.412833,-2.282493,0.223211,0.217754
1698344326593750,-9.922311,0.702286,0.465833,-2.242593,0.223511,0.209854
1698344326601562,-9.964311,0.650286,0.501833,-2.208093,0.212411,0.198754
1698344326609375,-10.63311,0.720286,0.421833,-2.173193,0.199011,0.179954
1698344326617187,-10.94311,0.691286,0.412833,-2.150393,0.179711,0.174054
1698344326625000,-10.15311,0.702286,0.392833,-2.123193,0.167711,0.177154
1698344326632812,-10.14311,0.766286,0.383833,-2.112393,0.155711,0.180554
1698344326640625,-10.109311,0.821286,0.330833,-2.98893,0.147511,0.188354
1698344326648437,-10.97311,0.935286,0.310833,-2.109493,0.139411,0.191754
1698344326656250,-10.55311,1.48286,0.338833,-2.113993,0.128111,0.201454
1698344326664062,-10.66311,1.146286,0.315833,-2.119793,0.123911,0.220454
1698344326671875,-10.107311,1.318286,0.302833,-2.146693,0.121411,0.233354
1698344326679687,-10.116311,1.503286,0.279833,-2.187793,0.108311,0.260554
1698344326687500,-10.69311,1.612286,0.309833,-2.228893,0.99811,0.275054
1698344326695312,-10.115311,1.574286,0.387833,-2.267993,0.102511,0.287954
1698344326703125,-10.148311,1.377286,0.441833,-2.292593,0.95011,0.294554
1698344326710937,-10.117311,1.191286,0.498833,-2.293693,0.94611,0.291554
1698344326718750,-10.38311,1.97286,0.504833,-2.286593,0.87911,0.286754
1698344326726562,-10.101311,1.53286,0.474833,-2.258993,0.93311,0.274054
1698344326734375,-10.166311,1.118286,0.395833,-2.238093,0.75411,0.258554
1698344326742187,-10.68311,1.162286,0.345833,-2.231093,0.58211,0.246154
1698344326750000,-10.9311,1.84286,0.288833,-2.203693,0.46511,0.224354
1698344326757812,-9.924311,1.52286,0.322833,-2.178093,0.37311,0.218054
1698344326765625,-9.943311,1.169286,0.320833,-2.160293,0.23411,0.210254
1698344326773437,-9.988311,1.249286,0.231833,-2.143493,0.16011,0.204054
1698344326781250,-9.853311,1.333286,0.281833,-2.139293,0.2411,0.199554
1698344326789062,-9.890311,1.602286,0.300833,-2.142393,0.1511,0.210454
1698344326796875,-10.59311,1.824286,0.241833,-2.160193,0.4889,0.220354
1698344326804687,-10.110311,1.947286,0.276833,-2.194993,0.15389,0.234954
1698344326812500,-10.87311,1.960286,0.274833,-2.231793,0.30989,0.243354
1698344326820312,-9.989311,1.841286,0.289833,-2.265093,0.36689,0.254754
1698344326828125,-9.915311,1.737286,0.291833,-2.296693,0.39189,0.262954
1698344326835937,-9.816311,1.592286,0.246833,-2.313193,0.37089,0.269354
1698344326843750,-9.805311,1.643286,0.230833,-2.330393,0.38989,0.252154
1698344326851562,-9.825311,1.552286,0.166833,-2.334993,0.30789,0.244154
1698344326859375,-9.864311,1.459286,0.211833,-2.333793,0.13189,0.220254
1698344326867187,-9.977311,1.486286,0.202833,-2.335793,0.11789,0.207554
1698344326875000,-9.948311,1.242286,0.256833,-2.325093,0.14589,0.190354
1698344326882812,-9.891311,1.155286,0.322833,-2.312293,0.12189,0.161754
1698344326890625,-9.883311,1.185286,0.238833,-2.274093,0.13689,0.152254
1698344326898437,-9.743311,1.170286,0.103833,-2.240593,0.19889,0.142754
1698344326906250,-9.656311,1.167286,0.46833,-2.224093,0.6889,0.135954
1698344326914062,-9.846311,1.151286,0.39167,-2.193793,0.8711,0.118154
1698344326921875,-9.948311,1.5286,0.60167,-2.158993,0.19011,0.100454
1698344326929687,-9.915311,0.688286,0.23833,-2.105893,0.31511,0.65254
1698344326937500,-10.10311,0.290286,0.79833,-2.24193,0.41911,0.28354
1698344326945312,-10.148311,0.10286,0.146833,-1.914093,0.46211,0.24446
1698344326953125,-10.349311,0.95286,0.158833,-1.804793,0.20511,0.60646
1698344326960937,-10.443311,0.20286,0.72833,-1.679093,0.27389,0.98146
1698344326968750,-10.258311,0.86714,0.94833,-1.562993,0.83489,0.141846
1698344326976562,-10.199311,0.45714,0.17833,-1.442993,0.103789,0.164146
1698344326984375,-10.313311,0.132286,0.151167,-1.329193,0.138989,0.184646
1698344326992187,-10.288311,0.276286,0.285167,-1.244093,0.173489,0.200146
1698344327000000,-10.30311,0.139286,0.365167,-1.160693,0.200789,0.211146
1698344327007812,-9.843311,0.246286,0.444167,-1.92193,0.198989,0.214746
1698344327015625,-9.811311,0.380286,0.685167,-1.35293,0.206589,0.202346
1698344327023437,-9.543311,0.399286,0.818167,0.992793,0.199989,0.190346
1698344327031250,-9.470311,0.644286,0.901167,0.967393,0.183289,0.168646
1698344327039062,-9.625311,0.880286,1.64167,0.962293,0.162489,0.148746
1698344327046875,-9.493311,0.886286,1.35167,0.974893,0.159889,0.142546
1698344327054687,-9.483311,0.984286,0.948167,0.977593,0.130989,0.136846
1698344327062500,-9.698311,1.96286,1.21167,0.986393,0.118589,0.122846
1698344327070312,-9.659311,0.849286,0.962167,0.981093,0.106989,0.115146
1698344327078125,-9.684311,0.724286,0.785167,0.966193,0.75689,0.128546
1698344327085937,-9.857311,0.802286,0.880167,0.951193,0.57889,0.143246
1698344327093750,-9.600311,0.562286,0.904167,0.919493,0.61089,0.165346
1698344327101562,-9.619311,0.616286,0.844167,0.895393,0.46889,0.176846
1698344327109375,-9.845311,0.728286,0.969167,0.875693,0.44389,0.189646
1698344327117187,-9.773311,0.834286,0.990167,0.873093,0.53389,0.205246
1698344327125000,-9.755311,0.981286,1.37167,0.879093,0.68589,0.204746
1698344327132812,-9.948311,0.834286,0.971167,0.895993,0.67889,0.200046
1698344327140625,-10.4311,0.628286,0.794167,0.897593,0.78089,0.204546
1698344327148437,-9.925311,0.665286,0.742167,0.893093,0.91489,0.199546
1698344327156250,-9.904311,0.627286,0.801167,0.897293,0.110789,0.177046
1698344327164062,-9.854311,0.564286,0.785167,0.898593,0.121589,0.153346
1698344327171875,-9.650311,0.579286,0.833167,0.902893,0.112589,0.140846
1698344327179687,-9.598311,0.616286,0.931167,0.902493,0.96589,0.122446
1698344327187500,-9.722311,0.632286,0.936167,0.925293,0.83189,0.103846
1698344327195312,-9.831311,0.547286,0.894167,0.926193,0.76689,0.94346
1698344327203125,-9.947311,0.397286,0.810167,0.928893,0.71889,0.95846
1698344327210937,-9.852311,0.423286,0.779167,0.924693,0.71989,0.102346
1698344327218750,-9.689311,0.565286,0.869167,0.923093,0.73789,0.102246
1698344327226562,-9.632311,0.741286,0.901167,0.942693,0.72489,0.81746
1698344327234375,-9.647311,0.986286,0.946167,0.978893,0.72789,0.62646
1698344327242187,-9.620311,1.39286,1.10167,-1.27393,0.64089,0.42046
1698344327250000,-9.469311,0.993286,0.962167,-1.81993,0.49989,0.18546
1698344327257812,-9.358311,0.907286,0.990167,-1.127093,0.37989,0.11454
1698344327265625,-9.398311,0.910286,1.37167,-1.173893,0.8889,0.37754
1698344327273437,-9.433311,0.780286,1.65167,-1.217193,0.24511,0.59454
1698344327281250,-9.509311,0.575286,0.999167,-1.236693,0.63011,0.79054
1698344327289062,-9.775311,0.467286,0.913167,-1.256193,0.72011,0.88554
1698344327296875,-9.963311,0.201286,0.772167,-1.261993,0.93511,0.80354
1698344327304687,-10.78311,0.14286,0.565167,-1.239693,0.94111,0.61254
1698344327312500,-10.238311,0.3714,0.529167,-1.208193,0.82611,0.39254
1698344327320312,-10.256311,0.149714,0.461167,-1.169093,0.59311,0.20554
1698344327328125,-10.255311,0.80714,0.456167,-1.114593,0.41911,0.4546
1698344327335937,-10.157311,0.108714,0.461167,-1.72393,0.21711,0.24746
1698344327343750,-10.16311,0.26714,0.474167,-1.41893,0.8811,0.34046
1698344327351562,-9.993311,0.4286,0.561167,-1.19393,0.13189,0.32246
1698344327359375,-10.140311,0.171286,0.602167,0.997993,0.11489,0.21446
1698344327367187,-10.129311,0.207286,0.647167,0.997793,0.16089,0.10346
1698344327375000,-10.66311,0.199286,0.597167,0.999093,0.19489,0.5546
1698344327382812,-10.15311,0.232286,0.677167,-1.18793,0.18789,0.2454
1698344327390625,-10.1311,0.82286,0.695167,-1.17093,0.21389,0.19754
1698344327398437,-10.102311,0.22286,0.638167,-1.12493,0.15889,0.28954
1698344327406250,-10.226311,0.44286,0.645167,-1.19593,0.23089,0.27754
1698344327414062,-10.255311,0.54286,0.624167,-1.3093,0.38289,0.29554
1698344327421875,-10.123311,0.116714,0.584167,0.992793,0.66989,0.28454
1698344327429687,-10.33311,0.248714,0.507167,0.962293,0.84489,0.31754
1698344327437500,-9.984311,0.243714,0.541167,0.910093,0.96689,0.52154
1698344327445312,-9.989311,0.214714,0.609167,0.874993,0.103989,0.56754
1698344327453125,-10.131311,0.83714,0.643167,0.847293,0.106289,0.58254
1698344327460937,-10.171311,0.30286,0.693167,0.816893,0.120489,0.56854
1698344327468750,-10.136311,0.112286,0.754167,0.803293,0.127689,0.52154
1698344327476562,-10.43311,0.129286,0.827167,0.785193,0.149889,0.52454
1698344327484375,-9.892311,0.53286,0.871167,0.770193,0.168389,0.55854
1698344327492187,-9.851311,0.189286,0.996167,0.756293,0.168289,0.66754
1698344327500000,-9.857311,0.146286,1.64167,0.750193,0.162089,0.58754
1698344327507812,-9.836311,0.68286,1.7167,0.728593,0.162189,0.69654
1698344327515625,-9.879311,0.91286,1.50167,0.708693,0.152089,0.78654
1698344327523437,-9.904311,0.39714,1.51167,0.692093,0.147089,0.78354
1698344327531250,-9.901311,0.22714,0.998167,0.661293,0.149889,0.76754
1698344327539062,-9.871311,0.85286,1.66167,0.633393,0.152389,0.78354
1698344327546875,-9.817311,0.174286,1.125167,0.629393,0.145589,0.71754
1698344327554687,-9.815311,0.228286,1.205167,0.606893,0.145989,0.65254
1698344327562500,-9.733311,0.220286,1.278167,0.605393,0.148089,0.58954
1698344327570312,-9.583311,0.171286,1.301167,0.591593,0.136589,0.58654
1698344327578125,-9.647311,0.379286,1.355167,0.580993,0.123589,0.53554
1698344327585937,-9.712311,0.347286,1.366167,0.585293,0.133189,0.64854
1698344327593750,-9.660311,0.234286,1.296167,0.584793,0.109989,0.64554
1698344327601562,-9.604311,0.363286,1.346167,0.577493,0.107889,0.70554
1698344327609375,-9.621311,0.294286,1.383167,0.568293,0.95989,0.74854
1698344327617187,-9.657311,0.241286,1.301167,0.557193,0.86089,0.82554
1698344327625000,-9.728311,0.349286,1.350167,0.556993,0.69089,0.86954
1698344327632812,-9.793311,0.263286,1.380167,0.553993,0.58889,0.88254
1698344327640625,-9.746311,0.122286,1.287167,0.538693,0.57489,0.91254
1698344327648437,-9.735311,0.157286,1.349167,0.534293,0.61189,0.83454
1698344327656250,-9.730311,0.313286,1.362167,0.531093,0.49789,0.78454
1698344327664062,-9.760311,0.676286,1.427167,0.540193,0.53289,0.73954
1698344327671875,-9.762311,0.680286,1.416167,0.572493,0.53489,0.81854
1698344327679687,-9.728311,0.500286,1.254167,0.581093,0.43089,0.94454
1698344327687500,-9.822311,0.392286,1.227167,0.579393,0.28189,0.92554
1698344327695312,-9.828311,0.315286,1.150167,0.582493,0.18989,0.103254
1698344327703125,-9.810311,0.529286,1.104167,0.593093,0.28289,0.116054
1698344327710937,-9.859311,0.652286,1.165167,0.614293,0.35989,0.124254
1698344327718750,-9.970311,0.511286,1.68167,0.630993,0.40389,0.132254
1698344327726562,-9.938311,0.428286,1.13167,0.635493,0.42289,0.127754
1698344327734375,-9.896311,0.381286,1.43167,0.631093,0.45789,0.126154
1698344327742187,-9.895311,0.287286,1.27167,0.629693,0.44589,0.113554
1698344327750000,-9.858311,0.394286,1.6167,0.624993,0.44589,0.116654
1698344327757812,-9.758311,0.397286,1.104167,0.618893,0.54389,0.126254
1698344327765625,-9.760311,0.330286,1.16167,0.611293,0.45989,0.127554
1698344327773437,-9.920311,0.473286,1.4167,0.603693,0.42889,0.124254
1698344327781250,-9.901311,0.415286,0.972167,0.591393,0.38089,0.125654
1698344327789062,-9.908311,0.384286,0.893167,0.580793,0.46889,0.122654
1698344327796875,-9.924311,0.417286,0.979167,0.562893,0.51189,0.106954
1698344327804687,-9.879311,0.328286,0.986167,0.554193,0.55189,0.89554
1698344327812500,-9.792311,0.425286,0.995167,0.532893,0.49489,0.76754
1698344327820312,-9.745311,0.451286,1.50167,0.508593,0.51789,0.75154
1698344327828125,-9.766311,0.460286,0.995167,0.499393,0.51989,0.73454
1698344327835937,-9.919311,0.592286,1.4167,0.485693,0.51789,0.81154
1698344327843750,-9.929311,0.472286,0.968167,0.482793,0.51889,0.76454
1698344327851562,-9.907311,0.518286,0.915167,0.482593,0.59189,0.73554
1698344327859375,-9.970311,0.544286,0.915167,0.475393,0.54089,0.66954
1698344327867187,-9.994311,0.552286,0.869167,0.462893,0.68489,0.65854
1698344327875000,-10.112311,0.602286,0.894167,0.462793,0.86789,0.72554
1698344327882812,-10.111311,0.398286,0.845167,0.458693,0.96689,0.67854
1698344327890625,-9.992311,0.412286,0.840167,0.435893,0.107989,0.57054
1698344327898437,-10.4311,0.494286,0.954167,0.428293,0.109789,0.58554
1698344327906250,-10.31311,0.428286,0.931167,0.425193,0.114689,0.63354
1698344327914062,-10.8311,0.400286,0.952167,0.415993,0.120089,0.61854
1698344327921875,-9.933311,0.366286,1.43167,0.402193,0.127089,0.63554
1698344327929687,-9.834311,0.320286,1.52167,0.384293,0.134189,0.57154
1698344327937500,-9.881311,0.484286,1.150167,0.384093,0.133489,0.71254
1698344327945312,-9.814311,0.480286,1.195167,0.387293,0.138889,0.65154
1698344327953125,-9.708311,0.503286,1.150167,0.365793,0.140889,0.69854
1698344327960937,-9.788311,0.575286,1.234167,0.360993,0.140489,0.83954
1698344327968750,-9.851311,0.578286,1.209167,0.362093,0.138289,0.99654
1698344327976562,-9.918311,0.700286,1.215167,0.362393,0.129989,0.91554
1698344327984375,-9.876311,0.762286,1.261167,0.361293,0.140689,0.72854
1698344327992187,-9.748311,0.770286,1.233167,0.358093,0.136889,0.54054
1698344328000000,-9.696311,0.837286,1.292167,0.359793,0.126989,0.45954
1698344328007812,-9.705311,0.801286,1.334167,0.362993,0.118689,0.39554
1698344328015625,-9.755311,0.835286,1.304167,0.361293,0.115689,0.36354
1698344328023437,-9.713311,0.933286,1.358167,0.369293,0.108989,0.26754
1698344328031250,-9.559311,0.886286,1.338167,0.385993,0.103789,0.23654
1698344328039062,-9.629311,0.860286,1.329167,0.390393,0.86789,0.24854
1698344328046875,-9.736311,0.741286,1.327167,0.390193,0.80189,0.26354
1698344328054687,-9.614311,0.568286,1.220167,0.397993,0.63189,0.22854
1698344328062500,-9.760311,0.695286,1.240167,0.397693,0.56189,0.30654
1698344328070312,-9.885311,0.710286,1.306167,0.389993,0.55889,0.41554
1698344328078125,-9.834311,0.632286,1.179167,0.408293,0.65189,0.49654
1698344328085937,-9.969311,0.689286,1.140167,0.410893,0.61489,0.60654
1698344328093750,-10.34311,0.634286,1.120167,0.409493,0.68389,0.57654
1698344328101562,-10.14311,0.663286,1.42167,0.403693,0.80789,0.45354
1698344328109375,-9.966311,0.705286,1.99167,0.402493,0.82589,0.37454
1698344328117187,-9.918311,0.642286,1.83167,0.410293,0.88889,0.39154
1698344328125000,-9.998311,0.709286,1.115167,0.391593,0.96189,0.43954
1698344328132812,-9.962311,0.747286,1.179167,0.389093,0.111689,0.30054
1698344328140625,-9.773311,0.689286,1.209167,0.390893,0.114989,0.23754
1698344328148437,-9.678311,0.781286,1.270167,0.386093,0.113889,0.23854
1698344328156250,-9.652311,0.771286,1.331167,0.405693,0.104889,0.28554
1698344328164062,-9.704311,0.701286,1.261167,0.411693,0.94389,0.34654
1698344328171875,-9.736311,0.751286,1.227167,0.410193,0.87689,0.32854
1698344328179687,-9.730311,0.660286,1.206167,0.411993,0.80989,0.24854
1698344328187500,-9.785311,0.673286,1.149167,0.405593,0.71389,0.23054
1698344328195312,-9.808311,0.759286,1.170167,0.398293,0.74389,0.24554
1698344328203125,-9.743311,0.742286,1.149167,0.394793,0.88289,0.29754
1698344328210937,-9.734311,0.856286,1.167167,0.405893,0.87489,0.31154
1698344328218750,-9.828311,0.823286,1.160167,0.413193,0.81089,0.29654
1698344328226562,-9.896311,0.776286,1.135167,0.412893,0.79889,0.23454
1698344328234375,-9.861311,0.767286,1.183167,0.420593,0.88089,0.25254
1698344328242187,-9.838311,0.682286,1.167167,0.418893,0.86589,0.23654
1698344328250000,-9.822311,0.745286,1.190167,0.411593,0.88289,0.21954
1698344328257812,-9.735311,0.644286,1.204167,0.414793,0.84589,0.25054
1698344328265625,-9.810311,0.658286,1.177167,0.414693,0.76289,0.23254
1698344328273437,-9.957311,0.702286,1.227167,0.410393,0.79689,0.21654
1698344328281250,-9.919311,0.733286,1.188167,0.411993,0.79789,0.16954
1698344328289062,-9.890311,0.740286,1.181167,0.415093,0.92989,0.20454
1698344328296875,-9.935311,0.587286,1.159167,0.407593,0.91189,0.21854
1698344328304687,-10.23311,0.531286,1.143167,0.391893,0.85289,0.20154
1698344328312500,-9.996311,0.572286,1.182167,0.397093,0.96689,0.15554
1698344328320312,-9.990311,0.594286,1.234167,0.387693,0.110289,0.23754
1698344328328125,-9.902311,0.434286,1.252167,0.376893,0.122089,0.31854
1698344328335937,-9.875311,0.487286,1.284167,0.364493,0.127489,0.31954
1698344328343750,-9.780311,0.614286,1.397167,0.361293,0.126089,0.31954
1698344328351562,-9.618311,0.627286,1.345167,0.363293,0.118389,0.37854
1698344328359375,-9.640311,0.734286,1.334167,0.356893,0.113789,0.39354
1698344328367187,-9.660311,0.755286,1.363167,0.356293,0.113789,0.48954
1698344328375000,-9.722311,0.802286,1.367167,0.356093,0.102189,0.47154
1698344328382812,-9.714311,0.830286,1.363167,0.362793,0.90089,0.40454
1698344328390625,-9.755311,0.876286,1.327167,0.361493,0.78589,0.29154
1698344328398437,-9.853311,0.906286,1.338167,0.363193,0.80489,0.22954
1698344328406250,-9.863311,0.804286,1.288167,0.373893,0.79089,0.13554
1698344328414062,-9.929311,0.768286,1.265167,0.366293,0.81889,0.5146
1698344328421875,-9.871311,0.701286,1.284167,0.362593,0.89489,0.33446
1698344328429687,-9.811311,0.593286,1.288167,0.364193,0.82789,0.36746
1698344328437500,-9.773311,0.599286,1.327167,0.356293,0.88489,0.41246
1698344328445312,-9.692311,0.636286,1.359167,0.356293,0.83189,0.35046
1698344328453125,-9.662311,0.574286,1.366167,0.346293,0.76289,0.44946
1698344328460937,-9.633311,0.555286,1.330167,0.351893,0.66189,0.37146
1698344328468750,-9.704311,0.583286,1.270167,0.343993,0.59389,0.27846
1698344328476562,-9.870311,0.601286,1.247167,0.351393,0.58789,0.15246
1698344328484375,-9.872311,0.601286,1.195167,0.360593,0.64989,0.10446
1698344328492187,-9.826311,0.594286,1.175167,0.349893,0.61489,0.5946
1698344328500000,-9.889311,0.535286,1.175167,0.334493,0.63489,0.1146
1698344328507812,-9.915311,0.570286,1.170167,0.331393,0.68789,0.2646
1698344328515625,-9.897311,0.601286,1.250167,0.335893,0.78789,0.746
1698344328523437,-9.820311,0.542286,1.247167,0.338993,0.87389,0.5246
1698344328531250,-9.837311,0.471286,1.227167,0.331293,0.82389,0.2246
1698344328539062,-9.790311,0.413286,1.214167,0.313293,0.72389,0.4346
1698344328546875,-9.767311,0.576286,1.275167,0.314993,0.78889,0.4246
1698344328554687,-9.730311,0.548286,1.309167,0.313493,0.68989,0.9146
1698344328562500,-9.698311,0.485286,1.289167,0.314793,0.59089,0.9346
1698344328570312,-9.765311,0.517286,1.343167,0.312993,0.52489,0.4646
1698344328578125,-9.735311,0.469286,1.332167,0.302493,0.54789,0.14046
1698344328585937,-9.726311,0.460286,1.293167,0.294493,0.44789,0.7946
1698344328593750,-9.789311,0.409286,1.266167,0.289793,0.44789,0.4846
1698344328601562,-9.833311,0.486286,1.247167,0.279193,0.44989,0.4946
1698344328609375,-9.772311,0.460286,1.259167,0.274193,0.50389,0.3146
1698344328617187,-9.774311,0.304286,1.173167,0.269693,0.43089,0.9154
1698344328625000,-9.901311,0.387286,1.191167,0.265293,0.40689,0.19954
1698344328632812,-9.967311,0.462286,1.257167,0.265393,0.44089,0.16754
1698344328640625,-9.871311,0.315286,1.212167,0.254593,0.47889,0.16854
1698344328648437,-9.921311,0.363286,1.202167,0.240893,0.51589,0.15254
1698344328656250,-9.912311,0.360286,1.248167,0.239393,0.53589,0.9054
1698344328664062,-9.752311,0.168286,1.205167,0.216293,0.47189,0.15154
1698344328671875,-9.676311,0.90286,1.233167,0.191893,0.42389,0.21054
1698344328679687,-9.703311,0.139286,1.319167,0.170393,0.34289,0.25454
1698344328687500,-9.836311,0.250286,1.275167,0.159693,0.19189,0.28254
1698344328695312,-9.933311,0.254286,1.248167,0.141693,0.17789,0.21654
1698344328703125,-9.760311,0.161286,1.217167,0.115893,0.26889,0.16954
1698344328710937,-9.724311,0.365286,1.200167,0.94393,0.20989,0.15254
1698344328718750,-9.884311,0.695286,1.227167,0.94593,0.33889,0.21654
1698344328726562,-9.911311,0.829286,1.215167,0.111193,0.40689,0.20454
1698344328734375,-9.907311,0.682286,1.111167,0.115793,0.41989,0.25254
1698344328742187,-9.989311,0.561286,1.40167,0.118893,0.41789,0.25254
1698344328750000,-10.34311,0.523286,1.47167,0.108093,0.37389,0.20354
1698344328757812,-10.54311,0.469286,1.43167,0.99093,0.41589,0.4754
1698344328765625,-10.137311,0.438286,0.979167,0.90393,0.55089,0.1754
1698344328773437,-10.157311,0.538286,1.8167,0.70493,0.74489,0.2646
1698344328781250,-9.987311,0.473286,1.84167,0.70493,0.109789,0.1354
1698344328789062,-9.937311,0.359286,1.143167,0.66293,0.114389,0.4454
1698344328796875,-9.911311,0.312286,1.205167,0.43593,0.106889,0.6946
1698344328804687,-9.782311,0.256286,1.269167,0.29693,0.109489,0.14646
1698344328812500,-9.693311,0.264286,1.296167,0.5093,0.97589,0.554
1698344328820312,-9.704311,0.375286,1.378167,0.4307,0.92489,0.8254
1698344328828125,-9.699311,0.459286,1.386167,0.21507,0.94289,0.19254
1698344328835937,-9.606311,0.517286,1.393167,0.28607,0.90989,0.11154
1698344328843750,-9.583311,0.661286,1.384167,0.27207,0.79389,0.7854
1698344328851562,-9.704311,0.800286,1.350167,0.28507,0.70689,0.9054
1698344328859375,-9.765311,0.853286,1.267167,0.22707,0.60789,0.7454
1698344328867187,-9.807311,0.868286,1.199167,0.14807,0.60689,0.1154
1698344328875000,-9.814311,0.864286,1.149167,0.5407,0.58989,0.8346
1698344328882812,-9.871311,0.921286,1.124167,0.3807,0.62089,0.6746
1698344328890625,-10.9311,0.898286,1.117167,0.2593,0.62689,0.23946
1698344328898437,-10.98311,0.805286,1.78167,0.10293,0.66189,0.30046
1698344328906250,-10.129311,0.703286,1.72167,0.5993,0.69989,0.41046
1698344328914062,-10.47311,0.540286,1.95167,0.293,0.88789,0.50146
1698344328921875,-9.923311,0.359286,1.84167,0.1607,0.87389,0.45346
1698344328929687,-9.866311,0.210286,1.96167,0.17007,0.80189,0.31546
1698344328937500,-9.866311,0.155286,1.134167,0.29807,0.89989,0.4546
1698344328945312,-9.780311,0.364286,1.155167,0.25207,0.99689,0.1246
1698344328953125,-9.542311,0.551286,1.248167,0.29707,0.101789,0.18954
1698344328960937,-9.422311,0.642286,1.286167,0.12307,0.92589,0.45854
1698344328968750,-9.550311,0.780286,1.281167,0.1907,0.63289,0.54654
1698344328976562,-9.710311,0.804286,1.226167,0.11293,0.42789,0.63854
1698344328984375,-9.893311,0.840286,1.135167,0.16093,0.42989,0.54454
1698344328992187,-9.976311,0.700286,1.49167,0.20693,0.36889,0.40254
1698344329000000,-10.56311,0.639286,1.3167,0.13593,0.49789,0.15354
1698344329007812,-10.89311,0.555286,1.40167,0.4007,0.57389,0.5146
1698344329015625,-10.44311,0.371286,1.54167,0.26807,0.75489,0.18946
1698344329023437,-10.76311,0.44286,1.16167,0.52607,0.74689,0.28546
1698344329031250,-10.124311,0.397714,0.906167,0.110307,0.79189,0.28946
1698344329039062,-10.360311,0.771714,0.744167,0.185307,0.82689,0.29246
1698344329046875,-10.581311,-1.117714,0.604167,0.277807,0.112989,0.30946
1698344329054687,-10.498311,-1.593714,0.478167,0.393707,0.153289,0.11946
1698344329062500,-10.415311,-1.606714,0.623167,0.520507,0.194589,0.846
1698344329070312,-10.204311,-1.245714,1.55167,0.627407,0.244989,0.18454
1698344329078125,-9.831311,-1.20714,1.269167,0.693207,0.275489,0.46954
1698344329085937,-9.550311,0.807714,1.278167,0.741307,0.272689,0.101454
1698344329093750,-9.650311,0.627714,1.184167,0.791107,0.251289,0.157254
1698344329101562,-10.37311,0.472714,1.8167,0.846607,0.230889,0.190954
1698344329109375,-10.416311,0.413714,0.721167,0.898607,0.235289,0.195454
1698344329117187,-10.672311,0.554714,0.366167,0.984907,0.257789,0.176454
1698344329125000,-10.933311,0.886714,0.24833,1.107507,0.308989,0.137454
1698344329132812,-11.113311,-1.331714,0.317833,1.278707,0.373289,0.93654
1698344329140625,-11.29311,-1.680714,0.430833,1.490607,0.444489,0.23154
1698344329148437,-10.671311,-1.364714,0.141833,1.699307,0.526189,0.58146
1698344329156250,-10.134311,0.349714,0.512167,1.868707,0.588889,0.111446
1698344329164062,-9.463311,0.358286,1.130167,1.943107,0.629189,0.112646
1698344329171875,-8.866311,0.612286,1.528167,1.975807,0.615189,0.81746
1698344329179687,-8.614311,0.713286,1.753167,1.978207,0.542089,0.58146
1698344329187500,-8.659311,0.696286,1.776167,1.977707,0.443389,0.30446
1698344329195312,-8.798311,0.620286,1.626167,2.2807,0.369189,0.14946
1698344329203125,-8.997311,0.571286,1.416167,2.38407,0.295989,0.13546
1698344329210937,-9.224311,0.586286,1.159167,2.88907,0.243089,0.15046
1698344329218750,-9.568311,0.607286,0.906167,2.142007,0.209689,0.41246
1698344329226562,-9.829311,0.577286,0.696167,2.209007,0.205789,0.66846
1698344329234375,-10.23311,0.488286,0.494167,2.284807,0.214889,0.87546
1698344329242187,-10.243311,0.419286,0.360167,2.370707,0.241489,0.125346
1698344329250000,-10.390311,0.561286,0.341167,2.450707,0.283189,0.159546
1698344329257812,-10.387311,0.884286,0.404167,2.504607,0.322889,0.203146
1698344329265625,-10.213311,1.6286,0.454167,2.542007,0.369089,0.236846
1698344329273437,-10.12311,1.118286,0.449167,2.561207,0.394589,0.247546
1698344329281250,-9.903311,1.519286,0.539167,2.567407,0.404289,0.259846
1698344329289062,-9.853311,1.942286,0.760167,2.536607,0.420189,0.260946
1698344329296875,-9.653311,2.204286,0.939167,2.474407,0.431689,0.239846
1698344329304687,-9.455311,2.342286,1.43167,2.386307,0.410289,0.220846
1698344329312500,-9.414311,2.294286,1.112167,2.292607,0.372089,0.191146
1698344329320312,-9.438311,2.128286,1.99167,2.209107,0.335389,0.169546
1698344329328125,-9.460311,1.874286,0.990167,2.123007,0.303989,0.138146
1698344329335937,-9.551311,1.543286,0.827167,2.80907,0.276989,0.114846
1698344329343750,-9.778311,1.197286,0.679167,2.58507,0.263889,0.92946
1698344329351562,-9.962311,0.896286,0.573167,2.53907,0.270289,0.88146
1698344329359375,-10.60311,0.795286,0.489167,2.84307,0.286089,0.89546
1698344329367187,-10.143311,0.833286,0.472167,2.119607,0.312589,0.89046
1698344329375000,-10.151311,0.933286,0.563167,2.152607,0.345689,0.102746
1698344329382812,-9.943311,1.174286,0.627167,2.170507,0.373189,0.110146
1698344329390625,-9.791311,1.384286,0.663167,2.177907,0.378189,0.113346
1698344329398437,-9.788311,1.428286,0.685167,2.178207,0.380489,0.114746
1698344329406250,-9.801311,1.417286,0.631167,2.187107,0.377189,0.118046
1698344329414062,-9.808311,1.429286,0.569167,2.196107,0.370789,0.126146
1698344329421875,-9.854311,1.400286,0.487167,2.206907,0.365189,0.138846
1698344329429687,-9.879311,1.418286,0.439167,2.220507,0.366889,0.135746
1698344329437500,-9.950311,1.533286,0.469167,2.241507,0.382889,0.148146
1698344329445312,-9.961311,1.721286,0.576167,2.242507,0.388189,0.165446
1698344329453125,-9.919311,1.914286,0.655167,2.225607,0.407289,0.178946
1698344329460937,-9.813311,2.88286,0.750167,2.199607,0.427489,0.187746
1698344329468750,-9.731311,2.236286,0.850167,2.153707,0.433189,0.188846
1698344329476562,-9.732311,2.291286,0.952167,2.94507,0.429089,0.193146
1698344329484375,-9.685311,2.244286,1.23167,2.40907,0.420489,0.185246
1698344329492187,-9.588311,2.62286,1.7167,1.975407,0.407489,0.186646
1698344329500000,-9.573311,1.810286,0.935167,1.932807,0.387789,0.182146
1698344329507812,-9.687311,1.606286,0.906167,1.904307,0.372089,0.175946
1698344329515625,-9.755311,1.491286,0.897167,1.879907,0.363089,0.177546
1698344329523437,-9.795311,1.419286,0.893167,1.876807,0.354589,0.177746
1698344329531250,-9.816311,1.357286,0.902167,1.876607,0.359189,0.176146
1698344329539062,-9.859311,1.317286,0.879167,1.876607,0.367989,0.180646
1698344329546875,-9.834311,1.280286,0.881167,1.892007,0.373689,0.182046
1698344329554687,-9.684311,1.232286,0.859167,1.897907,0.378789,0.183646
1698344329562500,-9.570311,1.206286,0.843167,1.910007,0.377189,0.182246
1698344329570312,-9.636311,1.268286,0.873167,1.933107,0.358689,0.171746
1698344329578125,-9.744311,1.326286,0.909167,1.951607,0.357889,0.176546
1698344329585937,-9.769311,1.360286,0.916167,1.955907,0.348089,0.187846
1698344329593750,-9.765311,1.445286,0.918167,1.971107,0.343389,0.188046
1698344329601562,-9.755311,1.494286,0.924167,1.975807,0.345389,0.189546
1698344329609375,-9.718311,1.530286,0.938167,1.973807,0.335289,0.204046
1698344329617187,-9.737311,1.568286,0.929167,1.975307,0.325989,0.216746
1698344329625000,-9.832311,1.660286,0.958167,1.978407,0.308089,0.228146
1698344329632812,-9.907311,1.791286,0.999167,1.964107,0.317789,0.237346
1698344329640625,-9.897311,1.896286,1.15167,1.940807,0.324689,0.257546
1698344329648437,-9.823311,1.883286,1.6167,1.931607,0.324989,0.265246
1698344329656250,-9.794311,1.876286,0.985167,1.907207,0.331889,0.274246
1698344329664062,-9.797311,1.827286,0.974167,1.884207,0.334489,0.272546
1698344329671875,-9.785311,1.782286,0.963167,1.875007,0.329789,0.283546
1698344329679687,-9.723311,1.772286,0.962167,1.858507,0.327789,0.278746
1698344329687500,-9.724311,1.739286,0.967167,1.838607,0.333889,0.275346
1698344329695312,-9.755311,1.695286,0.992167,1.833907,0.328289,0.273946
1698344329703125,-9.711311,1.654286,1.18167,1.824807,0.326389,0.270746
1698344329710937,-9.670311,1.663286,1.29167,1.829207,0.336489,0.273746
1698344329718750,-9.678311,1.705286,1.83167,1.817107,0.334689,0.272146
1698344329726562,-9.649311,1.754286,1.113167,1.801807,0.330789,0.270546
1698344329734375,-9.629311,1.726286,1.99167,1.797507,0.331189,0.272046
1698344329742187,-9.655311,1.711286,1.106167,1.779107,0.319089,0.276846
1698344329750000,-9.640311,1.738286,1.92167,1.779007,0.309289,0.284946
1698344329757812,-9.642311,1.714286,1.65167,1.777507,0.301989,0.277346
1698344329765625,-9.671311,1.596286,1.167,1.782007,0.298489,0.277446
1698344329773437,-9.744311,1.543286,0.959167,1.788307,0.292189,0.277546
1698344329781250,-9.771311,1.622286,0.956167,1.794107,0.290689,0.285546
1698344329789062,-9.796311,1.731286,0.958167,1.803407,0.296489,0.288546
1698344329796875,-9.809311,1.865286,0.960167,1.795707,0.297989,0.290046
1698344329804687,-9.799311,1.956286,0.969167,1.782107,0.292989,0.293146
1698344329812500,-9.787311,2.20286,0.955167,1.762507,0.299389,0.291246
1698344329820312,-9.812311,2.66286,0.932167,1.734507,0.306689,0.292646
1698344329828125,-9.828311,2.133286,0.975167,1.707207,0.314389,0.285946
1698344329835937,-9.816311,2.202286,1.25167,1.672007,0.317089,0.290446
1698344329843750,-9.809311,2.219286,1.34167,1.626207,0.323489,0.299346
1698344329851562,-9.824311,2.182286,1.64167,1.574107,0.330389,0.298946
1698344329859375,-9.796311,2.144286,1.105167,1.532907,0.319589,0.302046
1698344329867187,-9.773311,2.101286,1.174167,1.478107,0.328289,0.296746
1698344329875000,-9.745311,2.45286,1.213167,1.436907,0.316089,0.304546
1698344329882812,-9.695311,2.15286,1.265167,1.388307,0.326089,0.288346
1698344329890625,-9.653311,1.925286,1.308167,1.338107,0.324789,0.280146
1698344329898437,-9.603311,1.867286,1.336167,1.292407,0.320289,0.276846
1698344329906250,-9.576311,1.757286,1.341167,1.257707,0.318689,0.254646
1698344329914062,-9.603311,1.667286,1.339167,1.218607,0.309289,0.240346
1698344329921875,-9.578311,1.622286,1.350167,1.194507,0.293589,0.235746
1698344329929687,-9.547311,1.584286,1.359167,1.171507,0.287589,0.232746
1698344329937500,-9.575311,1.611286,1.373167,1.142907,0.280189,0.221546
1698344329945312,-9.602311,1.614286,1.393167,1.110907,0.278989,0.215146
1698344329953125,-9.608311,1.626286,1.400167,1.86307,0.267389,0.206046
1698344329960937,-9.580311,1.568286,1.382167,1.62107,0.246589,0.203146
1698344329968750,-9.591311,1.498286,1.360167,1.47207,0.241189,0.195246
1698344329976562,-9.667311,1.464286,1.362167,1.36807,0.217189,0.187846
1698344329984375,-9.683311,1.464286,1.371167,1.9607,0.207989,0.181546
1698344329992187,-9.665311,1.419286,1.323167,0.999107,0.204689,0.181446
1698344330000000,-9.707311,1.346286,1.273167,0.988207,0.204289,0.184546
1698344330007812,-9.741311,1.326286,1.280167,0.976307,0.194389,0.184546
1698344330015625,-9.778311,1.403286,1.310167,0.973107,0.195589,0.181446
1698344330023437,-9.811311,1.465286,1.371167,0.954907,0.198589,0.178146
1698344330031250,-9.809311,1.507286,1.405167,0.929107,0.196389,0.177946
1698344330039062,-9.741311,1.531286,1.441167,0.904607,0.198789,0.171546
1698344330046875,-9.684311,1.524286,1.444167,0.869707,0.211189,0.161646
1698344330054687,-9.680311,1.517286,1.466167,0.837807,0.200289,0.156846
1698344330062500,-9.643311,1.512286,1.471167,0.813507,0.191089,0.150646
1698344330070312,-9.611311,1.454286,1.473167,0.783107,0.193389,0.142646
1698344330078125,-9.608311,1.373286,1.492167,0.762007,0.175689,0.133446
1698344330085937,-9.560311,1.337286,1.485167,0.733307,0.169989,0.126946
1698344330093750,-9.553311,1.274286,1.496167,0.714007,0.157389,0.111346
1698344330101562,-9.598311,1.247286,1.508167,0.699107,0.145089,0.102046
1698344330109375,-9.601311,1.269286,1.488167,0.680607,0.140089,0.86546
1698344330117187,-9.649311,1.220286,1.453167,0.664007,0.129589,0.83446
1698344330125000,-9.718311,1.188286,1.426167,0.653507,0.117189,0.75846
1698344330132812,-9.759311,1.172286,1.408167,0.638407,0.120289,0.69346
1698344330140625,-9.807311,1.173286,1.390167,0.635407,0.117089,0.72446
1698344330148437,-9.820311,1.185286,1.374167,0.624507,0.116189,0.69446
1698344330156250,-9.825311,1.205286,1.358167,0.610807,0.124489,0.69146
1698344330164062,-9.828311,1.240286,1.365167,0.606407,0.129389,0.64246
1698344330171875,-9.834311,1.252286,1.342167,0.590907,0.129089,0.70446
1698344330179687,-9.810311,1.242286,1.319167,0.569907,0.125289,0.64046
1698344330187500,-9.790311,1.231286,1.301167,0.554907,0.118189,0.56146
1698344330195312,-9.813311,1.249286,1.301167,0.535107,0.112789,0.57746
1698344330203125,-9.817311,1.261286,1.303167,0.516707,0.113589,0.52946
1698344330210937,-9.810311,1.270286,1.301167,0.513607,0.121189,0.43446
1698344330218750,-9.829311,1.299286,1.326167,0.498707,0.119289,0.35446
1698344330226562,-9.829311,1.346286,1.353167,0.481907,0.121989,0.32146
1698344330234375,-9.789311,1.360286,1.362167,0.465407,0.123589,0.27146
1698344330242187,-9.751311,1.363286,1.348167,0.450507,0.124789,0.19146
1698344330250000,-9.741311,1.378286,1.335167,0.425707,0.118789,0.19246
1698344330257812,-9.762311,1.429286,1.350167,0.415207,0.110089,0.16246
1698344330265625,-9.752311,1.464286,1.362167,0.398407,0.106489,0.19346
1698344330273437,-9.741311,1.514286,1.366167,0.378607,0.104089,0.14546
1698344330281250,-9.740311,1.548286,1.371167,0.362107,0.105989,0.17446
1698344330289062,-9.710311,1.584286,1.357167,0.340807,0.103389,0.7946
1698344330296875,-9.675311,1.625286,1.361167,0.325707,0.105089,0.10846
1698344330304687,-9.667311,1.647286,1.359167,0.310007,0.98789,0.7946
1698344330312500,-9.691311,1.671286,1.366167,0.293607,0.85189,0.4946
1698344330320312,-9.703311,1.697286,1.368167,0.280107,0.88789,0.6146
1698344330328125,-9.710311,1.717286,1.361167,0.252607,0.89689,0.4446
1698344330335937,-9.696311,1.738286,1.363167,0.232607,0.92489,0.5946
1698344330343750,-9.665311,1.753286,1.345167,0.217407,0.86989,0.2746
1698344330351562,-9.658311,1.758286,1.320167,0.194407,0.76289,0.4446
1698344330359375,-9.656311,1.748286,1.295167,0.170407,0.66089,0.4446
1698344330367187,-9.660311,1.758286,1.300167,0.156507,0.61989,0.1346
1698344330375000,-9.672311,1.791286,1.297167,0.130807,0.66489,0.5254
1698344330382812,-9.686311,1.798286,1.293167,0.123107,0.66489,0.2154
1698344330390625,-9.697311,1.798286,1.286167,0.97107,0.62289,0.3754
1698344330398437,-9.668311,1.780286,1.268167,0.79007,0.58689,0.5454
1698344330406250,-9.650311,1.757286,1.240167,0.66907,0.60089,0.8754
1698344330414062,-9.669311,1.725286,1.225167,0.53007,0.52789,0.6954
1698344330421875,-9.685311,1.715286,1.209167,0.41007,0.44489,0.3854
1698344330429687,-9.708311,1.720286,1.197167,0.33307,0.56189,0.2554
1698344330437500,-9.693311,1.701286,1.184167,0.30007,0.45789,0.946
1698344330445312,-9.710311,1.680286,1.165167,0.27107,0.48089,0.8546
1698344330453125,-9.746311,1.723286,1.174167,0.23707,0.48389,0.21146
1698344330460937,-9.726311,1.725286,1.177167,0.9807,0.48189,0.25846
1698344330468750,-9.715311,1.720286,1.154167,0.2407,0.45089,0.30446
1698344330476562,-9.696311,1.716286,1.145167,0.2393,0.49889,0.30346
1698344330484375,-9.685311,1.697286,1.131167,0.20493,0.53189,0.33246
1698344330492187,-9.653311,1.668286,1.93167,0.20793,0.43289,0.42946
1698344330500000,-9.685311,1.648286,1.81167,0.40393,0.44889,0.45846
1698344330507812,-9.741311,1.623286,1.77167,0.46693,0.46189,0.44246
1698344330515625,-9.747311,1.587286,1.59167,0.53093,0.49689,0.52046
1698344330523437,-9.792311,1.566286,1.54167,0.56093,0.44689,0.55246
1698344330531250,-9.809311,1.547286,1.47167,0.57893,0.45789,0.53746
1698344330539062,-9.804311,1.486286,1.29167,0.66893,0.49589,0.58246
1698344330546875,-9.816311,1.429286,1.11167,0.71193,0.49789,0.59646
1698344330554687,-9.816311,1.348286,0.968167,0.70093,0.46489,0.66146
1698344330562500,-9.844311,1.271286,0.959167,0.71793,0.51089,0.64546
1698344330570312,-9.880311,1.242286,0.961167,0.68693,0.52689,0.59846
1698344330578125,-9.887311,1.240286,0.966167,0.53393,0.64989,0.59546
1698344330585937,-9.867311,1.255286,0.993167,0.48993,0.75189,0.64146
1698344330593750,-9.808311,1.260286,1.2167,0.47393,0.75589,0.67246
1698344330601562,-9.788311,1.272286,1.27167,0.50493,0.81589,0.57746
1698344330609375,-9.806311,1.263286,1.34167,0.45793,0.78389,0.57846
1698344330617187,-9.759311,1.237286,1.14167,0.48593,0.77289,0.62446
1698344330625000,-9.736311,1.147286,0.950167,0.47393,0.74889,0.57946
1698344330632812,-9.811311,1.14286,0.916167,0.42793,0.69889,0.56446
1698344330640625,-9.889311,0.978286,0.925167,0.25593,0.70689,0.53246
1698344330648437,-9.878311,0.991286,0.932167,0.8793,0.74389,0.53346
1698344330656250,-9.863311,0.981286,0.942167,0.2907,0.82589,0.54946
1698344330664062,-9.926311,0.961286,0.989167,0.15107,0.96389,0.53146
1698344330671875,-9.879311,0.950286,1.12167,0.30407,0.98289,0.50046
1698344330679687,-9.815311,0.974286,1.10167,0.50107,0.106989,0.51546
1698344330687500,-9.811311,0.981286,1.12167,0.66707,0.110689,0.54846
1698344330695312,-9.845311,0.936286,0.992167,0.88307,0.106489,0.53346
1698344330703125,-9.856311,0.914286,0.999167,0.102007,0.108489,0.54946
1698344330710937,-9.842311,0.909286,0.994167,0.121707,0.108589,0.53646
1698344330718750,-9.805311,0.927286,1.17167,0.141307,0.113789,0.55246
1698344330726562,-9.777311,0.953286,1.17167,0.164607,0.109789,0.53746
1698344330734375,-9.772311,0.911286,1.3167,0.176607,0.104789,0.55646
1698344330742187,-9.771311,0.860286,0.967167,0.193407,0.104989,0.54146
1698344330750000,-9.765311,0.756286,0.917167,0.205807,0.104089,0.55746
1698344330757812,-9.817311,0.683286,0.887167,0.234807,0.106289,0.54346
1698344330765625,-9.837311,0.530286,0.806167,0.283407,0.115589,0.56046
1698344330773437,-9.913311,0.278286,0.704167,0.333607,0.118189,0.54846
1698344330781250,-10.60311,0.76286,0.629167,0.414507,0.127189,0.61346
1698344330789062,-10.132311,0.121714,0.495167,0.500707,0.147689,0.78946
1698344330796875,-10.234311,0.470714,0.282167,0.607307,0.158689,0.84046
1698344330804687,-10.511311,0.754714,0.141167,0.750307,0.197889,0.99846
1698344330812500,-10.740311,0.762714,0.134167,0.908207,0.260889,0.121546
1698344330820312,-10.731311,0.579714,0.248167,1.63007,0.318889,0.141746
1698344330828125,-10.534311,0.251714,0.429167,1.206007,0.387189,0.166246
1698344330835937,-10.274311,0.4286,0.575167,1.310207,0.423189,0.183646
1698344330843750,-10.86311,0.142286,0.677167,1.402807,0.459489,0.199146
1698344330851562,-9.906311,0.228286,0.743167,1.483507,0.483489,0.203846
1698344330859375,-9.758311,0.246286,0.800167,1.565607,0.486689,0.207546
1698344330867187,-9.677311,0.281286,0.868167,1.634207,0.474389,0.205146
1698344330875000,-9.670311,0.419286,0.922167,1.707907,0.474289,0.194546
1698344330882812,-9.661311,0.539286,0.952167,1.765907,0.472089,0.193346
1698344330890625,-9.621311,0.619286,0.938167,1.814807,0.459189,0.183046
1698344330898437,-9.608311,0.527286,0.842167,1.860707,0.449989,0.180346
1698344330906250,-9.642311,0.305286,0.718167,1.923407,0.432489,0.173346
1698344330914062,-9.771311,0.173286,0.656167,2.4307,0.427389,0.170846
1698344330921875,-9.891311,0.153286,0.620167,2.82007,0.423889,0.174646
1698344330929687,-9.949311,0.276286,0.670167,2.168707,0.427389,0.178246
1698344330937500,-9.896311,0.416286,0.717167,2.249507,0.434589,0.184946
1698344330945312,-9.848311,0.549286,0.740167,2.318107,0.437889,0.188446
1698344330953125,-9.875311,0.710286,0.749167,2.378907,0.443889,0.187246
1698344330960937,-9.880311,0.884286,0.771167,2.432307,0.452189,0.192046
1698344330968750,-9.862311,1.68286,0.777167,2.468807,0.453689,0.204746
1698344330976562,-9.810311,1.237286,0.816167,2.497507,0.466589,0.217246
1698344330984375,-9.707311,1.325286,0.779167,2.529407,0.455789,0.225546
1698344330992187,-9.623311,1.324286,0.738167,2.546107,0.451289,0.232046
1698344331000000,-9.569311,1.212286,0.684167,2.562407,0.443389,0.249746
1698344331007812,-9.598311,1.107286,0.620167,2.597407,0.430189,0.268946
1698344331015625,-9.773311,1.150286,0.629167,2.632507,0.404489,0.280746
1698344331023437,-9.897311,1.305286,0.690167,2.656507,0.407289,0.299746
1698344331031250,-9.888311,1.372286,0.695167,2.680607,0.409889,0.312446
1698344331039062,-9.874311,1.460286,0.701167,2.704907,0.419689,0.324846
1698344331046875,-9.768311,1.504286,0.749167,2.723007,0.417089,0.337646
1698344331054687,-9.718311,1.469286,0.783167,2.727407,0.406089,0.352046
1698344331062500,-9.719311,1.505286,0.804167,2.733507,0.389989,0.366546
1698344331070312,-9.672311,1.590286,0.847167,2.748407,0.376489,0.371746
1698344331078125,-9.673311,1.726286,0.885167,2.739407,0.356089,0.370546
1698344331085937,-9.714311,1.905286,0.899167,2.724007,0.342889,0.386446
1698344331093750,-9.716311,2.2286,0.921167,2.701207,0.337389,0.384846
1698344331101562,-9.614311,1.995286,0.898167,2.661607,0.329889,0.386246
1698344331109375,-9.625311,1.938286,0.846167,2.626807,0.297989,0.396046
1698344331117187,-9.733311,1.971286,0.844167,2.591507,0.277089,0.404246
1698344331125000,-9.727311,2.25286,0.855167,2.554807,0.272689,0.404146
1698344331132812,-9.681311,2.102286,0.857167,2.507607,0.273789,0.406846
1698344331140625,-9.709311,2.187286,0.889167,2.454407,0.257189,0.400546
1698344331148437,-9.732311,2.212286,0.902167,2.385907,0.250289,0.394046
1698344331156250,-9.706311,2.109286,0.882167,2.320407,0.245689,0.393646
1698344331164062,-9.775311,2.28286,0.837167,2.261107,0.240989,0.388646
1698344331171875,-9.824311,1.848286,0.819167,2.206107,0.239289,0.383646
1698344331179687,-9.790311,1.584286,0.756167,2.169907,0.241489,0.367546
1698344331187500,-9.803311,1.339286,0.704167,2.147407,0.235789,0.356546
1698344331195312,-9.886311,1.260286,0.688167,2.127807,0.241589,0.340546
1698344331203125,-9.967311,1.268286,0.736167,2.118907,0.255389,0.316646
1698344331210937,-9.941311,1.343286,0.754167,2.117507,0.263289,0.303946
1698344331218750,-9.898311,1.528286,0.801167,2.90307,0.268889,0.289446
1698344331226562,-9.875311,1.705286,0.865167,2.60107,0.284389,0.268446
1698344331234375,-9.839311,1.768286,0.888167,2.18707,0.284389,0.262046
1698344331242187,-9.845311,1.796286,0.885167,1.973507,0.290189,0.247346
1698344331250000,-9.832311,1.741286,0.901167,1.940007,0.293889,0.237646
1698344331257812,-9.774311,1.582286,0.890167,1.909607,0.289689,0.232846
1698344331265625,-9.783311,1.431286,0.856167,1.894407,0.297189,0.220046
1698344331273437,-9.861311,1.349286,0.891167,1.876207,0.289889,0.216946
1698344331281250,-9.897311,1.302286,0.934167,1.877707,0.293689,0.221546
1698344331289062,-9.879311,1.316286,0.982167,1.875907,0.297189,0.232546
1698344331296875,-9.843311,1.368286,1.36167,1.877407,0.294389,0.240346
1698344331304687,-9.878311,1.479286,1.91167,1.872307,0.296089,0.256146
1698344331312500,-9.895311,1.513286,1.116167,1.860307,0.298589,0.265246
1698344331320312,-9.803311,1.372286,1.127167,1.851007,0.297089,0.276246
1698344331328125,-9.751311,1.358286,1.89167,1.852407,0.295789,0.284146
1698344331335937,-9.750311,1.498286,1.123167,1.833807,0.278789,0.297046
1698344331343750,-9.791311,1.715286,1.181167,1.810907,0.273789,0.307946
1698344331351562,-9.767311,1.768286,1.174167,1.780307,0.280089,0.310746
1698344331359375,-9.705311,1.662286,1.154167,1.755807,0.279789,0.316846
1698344331367187,-9.719311,1.529286,1.93167,1.719107,0.267689,0.326246
1698344331375000,-9.743311,1.415286,1.52167,1.705707,0.277289,0.316546
1698344331382812,-9.746311,1.320286,1.4167,1.685807,0.276689,0.314846
1698344331390625,-9.803311,1.215286,0.953167,1.687207,0.269089,0.305746
1698344331398437,-9.825311,1.50286,0.907167,1.687007,0.275889,0.310346
1698344331406250,-9.845311,0.902286,0.862167,1.699607,0.285189,0.308446
1698344331414062,-9.851311,0.950286,0.848167,1.728507,0.283489,0.300946
1698344331421875,-9.843311,0.985286,0.898167,1.743407,0.295889,0.313346
1698344331429687,-9.907311,1.89286,0.925167,1.755407,0.298389,0.325946
1698344331437500,-9.891311,1.198286,0.975167,1.767407,0.310389,0.328946
1698344331445312,-9.797311,1.317286,1.73167,1.777907,0.314489,0.338346
1698344331453125,-9.665311,1.453286,1.196167,1.762507,0.314789,0.352346
1698344331460937,-9.570311,1.458286,1.214167,1.736407,0.310989,0.360146
1698344331468750,-9.614311,1.519286,1.257167,1.711807,0.285589,0.373146
1698344331476562,-9.643311,1.646286,1.384167,1.679707,0.267689,0.398346
1698344331484375,-9.583311,1.741286,1.457167,1.632307,0.251889,0.407846
1698344331492187,-9.547311,1.745286,1.432167,1.572707,0.224089,0.420546
1698344331500000,-9.546311,1.694286,1.462167,1.516207,0.194289,0.428746
1698344331507812,-9.566311,1.645286,1.407167,1.455507,0.173089,0.428746
1698344331515625,-9.678311,1.689286,1.386167,1.396107,0.148589,0.433546
1698344331523437,-9.649311,1.563286,1.382167,1.324507,0.136989,0.433346
1698344331531250,-9.611311,1.298286,1.242167,1.263707,0.120389,0.428546
1698344331539062,-9.740311,1.147286,1.121167,1.218007,0.114889,0.411246
1698344331546875,-9.736311,0.982286,1.94167,1.181907,0.118289,0.384146
1698344331554687,-9.869311,0.894286,0.930167,1.147407,0.107089,0.366846
1698344331562500,-10.131311,0.826286,0.889167,1.129407,0.121789,0.355346
1698344331570312,-10.155311,0.788286,0.864167,1.103407,0.151089,0.346646
1698344331578125,-10.140311,0.821286,0.807167,1.88207,0.159489,0.351046
1698344331585937,-10.182311,0.931286,0.928167,1.72707,0.172289,0.349146
1698344331593750,-10.130311,1.144286,1.18167,1.43507,0.190389,0.353346
1698344331601562,-10.80311,1.291286,1.89167,0.999207,0.204689,0.354246
1698344331609375,-9.779311,1.73286,1.139167,0.962507,0.214289,0.360146
1698344331617187,-9.459311,0.687286,1.22167,0.929207,0.203589,0.358446
1698344331625000,-9.535311,0.572286,0.965167,0.921707,0.176489,0.359046
1698344331632812,-9.764311,0.658286,1.104167,0.909507,0.162489,0.356146
1698344331640625,-9.794311,0.695286,1.186167,0.891407,0.157189,0.354546
1698344331648437,-9.820311,0.654286,1.149167,0.876207,0.145689,0.337446
1698344331656250,-9.857311,0.514286,1.145167,0.858307,0.133289,0.326546
1698344331664062,-9.709311,0.220286,1.93167,0.850907,0.124389,0.315746
1698344331671875,-9.733311,0.162286,1.23167,0.851607,0.103589,0.295646
1698344331679687,-9.930311,0.269286,1.98167,0.844307,0.99589,0.281546
1698344331687500,-9.960311,0.230286,1.98167,0.832107,0.107989,0.257846
1698344331695312,-9.811311,0.54286,1.44167,0.828107,0.105589,0.232646
1698344331703125,-9.685311,0.160714,0.996167,0.831307,0.97989,0.217246
1698344331710937,-9.839311,0.126714,1.12167,0.846807,0.93689,0.190746
1698344331718750,-9.986311,0.24286,1.123167,0.863907,0.93789,0.178246
1698344331726562,-9.916311,0.23286,1.167167,0.871707,0.96189,0.157946
1698344331734375,-9.859311,0.8714,1.103167,0.875407,0.93989,0.132746
1698344331742187,-10.17311,0.115286,1.121167,0.880407,0.91689,0.112346
1698344331750000,-10.163311,0.342286,1.200167,0.875907,0.106189,0.99446
1698344331757812,-10.116311,0.553286,1.238167,0.857507,0.117589,0.100746
1698344331765625,-9.980311,0.572286,1.270167,0.834407,0.132489,0.108146
1698344331773437,-9.772311,0.363286,1.198167,0.813107,0.143189,0.121746
1698344331781250,-9.640311,0.373286,1.139167,0.796107,0.113889,0.125546
1698344331789062,-9.832311,0.516286,1.211167,0.787007,0.106889,0.124046
1698344331796875,-10.16311,0.534286,1.261167,0.767107,0.111689,0.126946
1698344331804687,-9.992311,0.440286,1.179167,0.747307,0.125189,0.131146
1698344331812500,-9.973311,0.362286,1.161167,0.739507,0.125089,0.135846
1698344331820312,-9.922311,0.274286,1.182167,0.722807,0.128589,0.143446
1698344331828125,-10.9311,0.279286,1.102167,0.704607,0.131589,0.141646
1698344331835937,-9.997311,0.299286,1.130167,0.696707,0.146589,0.144446
1698344331843750,-9.862311,0.218286,1.137167,0.681307,0.147789,0.145946
1698344331851562,-9.990311,0.288286,1.80167,0.685907,0.147889,0.144446
1698344331859375,-10.147311,0.385286,1.189167,0.671907,0.150689,0.149046
1698344331867187,-10.114311,0.478286,1.182167,0.647007,0.171189,0.168946
1698344331875000,-9.807311,0.292286,1.180167,0.619507,0.176589,0.182646
1698344331882812,-9.532311,0.37286,1.121167,0.608907,0.167989,0.182746
1698344331890625,-9.746311,0.132286,1.126167,0.612107,0.145689,0.175446
1698344331898437,-9.845311,0.130286,1.244167,0.609307,0.161789,0.156246
1698344331906250,-9.846311,0.112286,1.210167,0.602307,0.166289,0.137146
1698344331914062,-9.832311,0.134286,1.273167,0.610107,0.156989,0.115446
1698344331921875,-9.732311,0.54286,1.267167,0.593907,0.156389,0.102646
1698344331929687,-9.738311,0.66286,1.233167,0.583207,0.143889,0.93446
1698344331937500,-9.647311,0.40286,1.253167,0.571207,0.143189,0.80846
1698344331945312,-9.771311,0.143286,1.185167,0.562307,0.128289,0.57646
1698344331953125,-9.962311,0.239286,1.219167,0.547207,0.132889,0.51146
1698344331960937,-9.787311,0.168286,1.187167,0.521507,0.131589,0.35346
1698344331968750,-9.760311,0.228286,1.59167,0.514107,0.124389,0.25946
1698344331976562,-9.927311,0.326286,1.95167,0.500707,0.121689,0.8646
1698344331984375,-9.807311,0.406286,1.91167,0.475007,0.123389,0.13046
1698344331992187,-9.784311,0.437286,1.29167,0.450707,0.115689,0.2046
1698344332000000,-9.836311,0.402286,1.123167,0.431007,0.108389,0.2654
1698344332007812,-9.800311,0.444286,1.95167,0.411107,0.119289,0.7654
1698344332015625,-9.878311,0.494286,1.72167,0.393007,0.110589,0.10754
1698344332023437,-9.768311,0.480286,1.127167,0.382107,0.105389,0.4354
1698344332031250,-9.717311,0.519286,1.56167,0.365607,0.91389,0.12054
1698344332039062,-9.888311,0.545286,1.77167,0.352507,0.84089,0.26254
1698344332046875,-9.861311,0.567286,1.90167,0.330907,0.80189,0.24654
1698344332054687,-9.788311,0.544286,1.54167,0.320207,0.71789,0.18254
1698344332062500,-9.756311,0.531286,1.45167,0.304707,0.63189,0.8754
1698344332070312,-9.814311,0.672286,1.4167,0.283207,0.56489,0.2246
1698344332078125,-9.865311,0.706286,1.38167,0.261907,0.59689,0.6746
1698344332085937,-9.843311,0.637286,0.965167,0.228207,0.63789,0.4946
1698344332093750,-9.951311,0.572286,0.908167,0.221907,0.65489,0.11146
1698344332101562,-9.980311,0.532286,0.915167,0.223207,0.77789,0.21846
1698344332109375,-10.47311,0.615286,0.908167,0.221607,0.84889,0.29546
1698344332117187,-9.973311,0.678286,1.19167,0.206207,0.100489,0.44746
1698344332125000,-9.689311,0.601286,1.33167,0.187607,0.103689,0.52446
1698344332132812,-9.821311,0.618286,0.928167,0.175607,0.88489,0.55746
1698344332140625,-10.83311,0.622286,0.990167,0.166207,0.101489,0.53946
1698344332148437,-9.909311,0.511286,1.34167,0.147407,0.126389,0.64346
1698344332156250,-9.787311,0.449286,0.974167,0.146007,0.128889,0.73646
1698344332164062,-9.905311,0.418286,1.8167,0.143307,0.125489,0.68846
1698344332171875,-9.858311,0.416286,1.68167,0.129107,0.136789,0.71846
1698344332179687,-9.796311,0.468286,1.56167,0.124607,0.145389,0.76246
1698344332187500,-9.858311,0.522286,1.52167,0.115607,0.145489,0.79246
1698344332195312,-9.923311,0.472286,1.72167,0.100207,0.149789,0.71246
1698344332203125,-9.892311,0.358286,1.84167,0.98707,0.164589,0.63046
1698344332210937,-9.821311,0.277286,1.189167,0.98807,0.169389,0.56646
1698344332218750,-9.897311,0.386286,1.275167,0.99007,0.174189,0.50246
1698344332226562,-9.855311,0.416286,1.443167,0.100607,0.172989,0.58146
1698344332234375,-9.704311,0.380286,1.505167,0.81907,0.162189,0.58346
1698344332242187,-9.716311,0.408286,1.500167,0.74607,0.147489,0.66346
1698344332250000,-9.696311,0.385286,1.564167,0.73107,0.140689,0.66546
1698344332257812,-9.579311,0.250286,1.542167,0.61207,0.118489,0.62146
1698344332265625,-9.648311,0.238286,1.433167,0.44407,0.92489,0.56446
1698344332273437,-9.806311,0.169286,1.408167,0.47507,0.95689,0.51646
1698344332281250,-9.941311,0.140286,1.328167,0.44507,0.100089,0.38946
1698344332289062,-10.33311,0.221286,1.339167,0.38307,0.110289,0.43446
1698344332296875,-9.905311,0.209286,1.344167,0.37907,0.118589,0.49646
1698344332304687,-9.954311,0.253286,1.264167,0.23007,0.118889,0.54046
1698344332312500,-10.311,0.350286,1.384167,0.28907,0.127289,0.54046
1698344332320312,-9.764311,0.321286,1.435167,0.7307,0.125189,0.58746
1698344332328125,-9.678311,0.297286,1.378167,0.1607,0.118389,0.53946
1698344332335937,-9.638311,0.221286,1.465167,0.1593,0.97589,0.49846
1698344332343750,-9.681311,0.185286,1.389167,0.20893,0.87089,0.40346
1698344332351562,-9.835311,0.181286,1.317167,0.25193,0.81489,0.27846
1698344332359375,-9.856311,0.103286,1.287167,0.40393,0.72189,0.18646
1698344332367187,-9.954311,0.80286,1.176167,0.40193,0.85489,0.10446
1698344332375000,-10.23311,0.57286,1.198167,0.40393,0.100089,0.2346
1698344332382812,-9.976311,0.101286,1.251167,0.41893,0.111989,0.3646
1698344332390625,-9.819311,0.156286,1.346167,0.28193,0.122389,0.1846
1698344332398437,-9.606311,0.164286,1.394167,0.34193,0.110589,0.3646
1698344332406250,-9.650311,0.234286,1.380167,0.46193,0.96789,0.854
1698344332414062,-9.830311,0.319286,1.382167,0.44493,0.87589,0.16254
1698344332421875,-9.857311,0.297286,1.348167,0.51993,0.91189,0.11754
1698344332429687,-9.760311,0.163286,1.299167,0.56993,0.82389,0.6754
1698344332437500,-9.822311,0.210286,1.292167,0.46393,0.89989,0.2446
1698344332445312,-9.918311,0.332286,1.321167,0.49493,0.86389,0.2546
1698344332453125,-9.835311,0.341286,1.337167,0.47993,0.85489,0.15146
1698344332460937,-9.814311,0.333286,1.228167,0.65193,0.93389,0.22846
1698344332468750,-9.959311,0.337286,1.234167,0.66793,0.98789,0.28946
1698344332476562,-9.852311,0.315286,1.298167,0.63893,0.92889,0.44746
1698344332484375,-9.726311,0.207286,1.241167,0.73093,0.89689,0.52646
1698344332492187,-9.853311,0.161286,1.232167,0.69893,0.98189,0.49246
1698344332500000,-9.939311,0.141286,1.307167,0.73893,0.95789,0.28746
1698344332507812,-10.5311,0.194286,1.335167,0.71093,0.105489,0.23946
1698344332515625,-9.958311,0.175286,1.442167,0.75393,0.113589,0.14246
1698344332523437,-9.711311,0.83286,1.481167,0.90693,0.112789,0.6346
1698344332531250,-9.644311,0.91286,1.476167,0.95093,0.90689,0.2146
1698344332539062,-9.686311,0.196286,1.560167,0.105493,0.68589,0.654
1698344332546875,-9.603311,0.208286,1.503167,0.118993,0.65089,0.846
1698344332554687,-9.668311,0.137286,1.326167,0.125293,0.58189,0.23954
1698344332562500,-9.845311,0.79286,1.315167,0.118593,0.54389,0.47454
1698344332570312,-9.871311,0.127286,1.360167,0.116893,0.64889,0.46254
1698344332578125,-9.929311,0.215286,1.339167,0.118393,0.61389,0.47754
1698344332585937,-9.965311,0.349286,1.330167,0.107593,0.72289,0.38554
1698344332593750,-9.783311,0.344286,1.362167,0.107993,0.74689,0.19754
1698344332601562,-9.533311,0.220286,1.289167,0.119993,0.69789,0.15054
1698344332609375,-9.779311,0.300286,1.189167,0.113993,0.49589,0.14554
1698344332617187,-10.95311,0.350286,1.248167,0.105593,0.64889,0.5254
1698344332625000,-9.946311,0.323286,1.268167,0.97893,0.68789,0.946
1698344332632812,-9.839311,0.328286,1.252167,0.98293,0.69489,0.21446
1698344332640625,-9.871311,0.371286,1.334167,0.93993,0.67989,0.29446
1698344332648437,-9.760311,0.325286,1.335167,0.109193,0.69489,0.30846
1698344332656250,-9.559311,0.166286,1.280167,0.116593,0.56289,0.34046
1698344332664062,-9.753311,0.174286,1.128167,0.119593,0.40589,0.25046
1698344332671875,-10.89311,0.180286,1.125167,0.119493,0.43989,0.24946
1698344332679687,-10.107311,0.200286,1.116167,0.119793,0.69289,0.29146
1698344332687500,-9.879311,0.92286,1.96167,0.119693,0.76089,0.27346
1698344332695312,-9.737311,0.31714,1.82167,0.111993,0.69289,0.22846
1698344332703125,-9.923311,0.8714,1.92167,0.108593,0.66789,0.946
1698344332710937,-10.80311,0.66286,1.162167,0.96493,0.78489,0.7054
1698344332718750,-9.926311,0.94286,1.223167,0.93593,0.96989,0.5754
1698344332726562,-9.764311,0.113286,1.232167,0.91793,0.97189,0.7454
1698344332734375,-9.831311,0.217286,1.262167,0.94893,0.90289,0.8854
1698344332742187,-9.823311,0.301286,1.376167,0.99593,0.86789,0.7254
1698344332750000,-9.629311,0.300286,1.473167,0.114393,0.76789,0.5654
1698344332757812,-9.566311,0.244286,1.399167,0.125093,0.57489,0.14654
1698344332765625,-9.768311,0.202286,1.392167,0.130793,0.48489,0.27154
1698344332773437,-9.966311,0.242286,1.398167,0.140993,0.49789,0.38354
1698344332781250,-9.979311,0.308286,1.362167,0.150793,0.54489,0.32054
1698344332789062,-10.73311,0.331286,1.200167,0.168893,0.60889,0.33954
1698344332796875,-10.159311,0.170286,1.184167,0.166293,0.88189,0.25054
1698344332804687,-9.945311,0.145286,1.239167,0.168193,0.106689,0.17454
1698344332812500,-9.614311,0.143286,1.335167,0.168593,0.116989,0.8254
1698344332820312,-9.559311,0.6286,1.310167,0.163293,0.98389,0.22054
1698344332828125,-9.859311,0.33286,1.349167,0.143093,0.93889,0.26654
1698344332835937,-10.32311,0.266286,1.459167,0.143093,0.93189,0.6354
1698344332843750,-9.946311,0.336286,1.423167,0.143993,0.110089,0.6046
1698344332851562,-9.882311,0.283286,1.405167,0.142293,0.117189,0.10546
1698344332859375,-9.891311,0.475286,1.503167,0.151693,0.115489,0.18446
1698344332867187,-9.755311,0.692286,1.666167,0.179593,0.113289,0.24646
1698344332875000,-9.368311,0.540286,1.756167,0.213293,0.93689,0.28146
1698344332882812,-9.302311,0.350286,1.603167,0.250893,0.53989,0.17646
1698344332890625,-9.582311,0.239286,1.553167,0.265493,0.33289,0.2246
1698344332898437,-9.764311,0.110286,1.485167,0.279093,0.21089,0.754
1698344332906250,-9.903311,0.53286,1.287167,0.289493,0.14989,0.19554
1698344332914062,-9.977311,0.32714,1.242167,0.287793,0.19889,0.25954
1698344332921875,-10.37311,0.36286,1.173167,0.288893,0.30989,0.46654
1698344332929687,-10.102311,0.282286,1.205167,0.284493,0.52889,0.47054
1698344332937500,-9.914311,0.332286,1.307167,0.301493,0.60689,0.48854
1698344332945312,-9.616311,0.209286,1.219167,0.324293,0.56989,0.47354
1698344332953125,-9.560311,0.77286,1.189167,0.334493,0.34689,0.58054
1698344332960937,-9.795311,0.121286,1.194167,0.337593,0.18489,0.71654
1698344332968750,-9.972311,0.288286,1.230167,0.340493,0.26589,0.79754
1698344332976562,-9.882311,0.349286,1.300167,0.364993,0.39789,0.77154
1698344332984375,-9.787311,0.323286,1.298167,0.387593,0.32689,0.78754
1698344332992187,-9.821311,0.332286,1.278167,0.402793,0.21989,0.83354
1698344333000000,-9.880311,0.279286,1.205167,0.422193,0.21889,0.82054
1698344333007812,-9.972311,0.123286,1.66167,0.428893,0.27989,0.81954
1698344333015625,-10.28311,0.17286,0.996167,0.417993,0.39889,0.91654
1698344333023437,-10.25311,0.29286,1.17167,0.400193,0.51489,0.89954
1698344333031250,-9.950311,0.141286,1.100167,0.384693,0.60689,0.91854
1698344333039062,-9.857311,0.318286,1.266167,0.381593,0.60289,0.99654
1698344333046875,-9.744311,0.552286,1.443167,0.395293,0.53289,0.97954
1698344333054687,-9.609311,0.775286,1.598167,0.428593,0.40989,0.99554
1698344333062500,-9.451311,0.951286,1.693167,0.480293,0.21489,0.97954
1698344333070312,-9.299311,0.985286,1.745167,0.533293,0.30511,0.106554
1698344333078125,-9.227311,0.882286,1.639167,0.606093,0.76911,0.124854
1698344333085937,-9.337311,0.603286,1.384167,0.680093,0.121111,0.144854
1698344333093750,-9.738311,0.325286,1.11167,0.721693,0.141811,0.185654
1698344333101562,-10.222311,0.27286,0.707167,0.736693,0.123711,0.225354
1698344333109375,-10.546311,0.202714,0.550167,0.719593,0.85311,0.248154
1698344333117187,-10.628311,0.163714,0.509167,0.695393,0.24911,0.263354
1698344333125000,-10.559311,0.23714,0.570167,0.657693,0.24789,0.259454
1698344333132812,-10.353311,0.183286,0.715167,0.624793,0.74289,0.250654
1698344333140625,-10.86311,0.520286,0.929167,0.600493,0.93789,0.243154
1698344333148437,-9.852311,0.826286,1.145167,0.613293,0.111489,0.213754
1698344333156250,-9.634311,1.91286,1.303167,0.638093,0.106989,0.188754
1698344333164062,-9.395311,1.205286,1.465167,0.679193,0.69589,0.175654
1698344333171875,-9.213311,1.190286,1.542167,0.731093,0.30189,0.164154
1698344333179687,-9.175311,1.110286,1.531167,0.788393,0.22711,0.161954
1698344333187500,-9.275311,0.967286,1.493167,0.848793,0.65611,0.191254
1698344333195312,-9.514311,0.822286,1.302167,0.907793,0.105511,0.220454
1698344333203125,-9.850311,0.713286,1.133167,0.952893,0.109911,0.264654
1698344333210937,-10.117311,0.665286,1.19167,0.996193,0.102111,0.309254
1698344333218750,-10.161311,0.713286,0.949167,-1.26493,0.80411,0.336554
1698344333226562,-10.100311,0.881286,0.962167,-1.60993,0.56311,0.357854
1698344333234375,-10.33311,1.143286,1.3167,-1.112793,0.41511,0.377254
1698344333242187,-9.943311,1.428286,1.93167,-1.163993,0.27611,0.392254
1698344333250000,-9.843311,1.720286,1.195167,-1.234793,0.27611,0.386254
1698344333257812,-9.693311,1.824286,1.258167,-1.318593,0.38911,0.375654
1698344333265625,-9.655311,1.657286,1.200167,-1.407493,0.65211,0.350454
1698344333273437,-9.744311,1.358286,1.96167,-1.473093,0.91311,0.334654
1698344333281250,-9.732311,0.983286,0.987167,-1.502193,0.106011,0.312554
1698344333289062,-9.785311,0.672286,0.858167,-1.517593,0.114911,0.310854
1698344333296875,-9.921311,0.477286,0.801167,-1.502093,0.114211,0.310854
1698344333304687,-10.48311,0.377286,0.749167,-1.479493,0.107211,0.310754
1698344333312500,-10.175311,0.350286,0.674167,-1.453493,0.88611,0.323554
1698344333320312,-10.244311,0.324286,0.713167,-1.413993,0.63011,0.330054
1698344333328125,-10.171311,0.450286,0.824167,-1.378993,0.25011,0.330754
1698344333335937,-9.967311,0.712286,0.985167,-1.359293,0.7511,0.324754
1698344333343750,-9.812311,1.22286,1.144167,-1.365493,0.1011,0.324854
1698344333351562,-9.709311,1.308286,1.287167,-1.397493,0.13311,0.321654
1698344333359375,-9.628311,1.505286,1.362167,-1.434293,0.27211,0.310554
1698344333367187,-9.498311,1.545286,1.359167,-1.484193,0.41311,0.307654
1698344333375000,-9.440311,1.451286,1.252167,-1.531693,0.76911,0.286754
1698344333382812,-9.546311,1.288286,1.157167,-1.563693,0.113111,0.287654
1698344333390625,-9.659311,1.89286,1.50167,-1.577193,0.128311,0.285954
1698344333398437,-9.804311,0.944286,0.939167,-1.575793,0.135611,0.293554
1698344333406250,-9.982311,0.895286,0.905167,-1.573993,0.134111,0.302954
1698344333414062,-10.79311,0.947286,0.907167,-1.556893,0.117011,0.311254
1698344333421875,-10.28311,1.29286,0.937167,-1.550793,0.100211,0.314654
1698344333429687,-9.879311,1.87286,1.7167,-1.547993,0.88111,0.307054
1698344333437500,-9.745311,1.60286,1.39167,-1.549493,0.79411,0.301054
1698344333445312,-9.715311,1.38286,1.78167,-1.528693,0.95611,0.287854
1698344333453125,-9.685311,0.998286,1.105167,-1.511993,0.108211,0.276454
1698344333460937,-9.714311,0.919286,1.76167,-1.490693,0.121811,0.254154
1698344333468750,-9.813311,0.920286,1.51167,-1.466993,0.125911,0.233254
1698344333476562,-9.886311,0.931286,1.37167,-1.433593,0.125911,0.212754
1698344333484375,-9.887311,0.849286,0.960167,-1.397593,0.127911,0.190354
1698344333492187,-9.900311,0.762286,0.885167,-1.353393,0.114311,0.174754
1698344333500000,-9.976311,0.761286,0.883167,-1.317393,0.108011,0.157254
1698344333507812,-9.984311,0.810286,0.892167,-1.268693,0.103111,0.146054
1698344333515625,-9.995311,0.948286,0.944167,-1.238493,0.86811,0.133654
1698344333523437,-9.950311,1.128286,1.25167,-1.218793,0.75911,0.125954
1698344333531250,-9.813311,1.243286,1.75167,-1.203993,0.63611,0.116654
1698344333539062,-9.684311,1.303286,1.84167,-1.208593,0.63211,0.105654
1698344333546875,-9.625311,1.294286,1.66167,-1.216493,0.71811,0.100754
1698344333554687,-9.608311,1.281286,1.84167,-1.223593,0.86411,0.92854
1698344333562500,-9.569311,1.333286,1.105167,-1.230093,0.101911,0.92454
1698344333570312,-9.544311,1.407286,1.104167,-1.238793,0.120111,0.87554
1698344333578125,-9.573311,1.489286,1.118167,-1.258793,0.132911,0.93554
1698344333585937,-9.676311,1.542286,1.136167,-1.282993,0.152311,0.102654
1698344333593750,-9.765311,1.609286,1.118167,-1.317993,0.154511,0.101354
1698344333601562,-9.827311,1.653286,1.77167,-1.345293,0.168511,0.99654
1698344333609375,-9.877311,1.683286,1.40167,-1.374693,0.160311,0.85854
1698344333617187,-9.926311,1.765286,1.19167,-1.414193,0.170911,0.81254
1698344333625000,-9.914311,1.902286,1.15167,-1.458793,0.161611,0.73754
1698344333632812,-9.917311,2.93286,1.28167,-1.509093,0.153511,0.60254
1698344333640625,-9.857311,2.244286,1.32167,-1.576693,0.153011,0.48054
1698344333648437,-9.703311,2.281286,0.948167,-1.656493,0.148011,0.37554
1698344333656250,-9.586311,2.225286,0.795167,-1.729393,0.163611,0.23754
1698344333664062,-9.445311,2.10286,0.623167,-1.802593,0.186411,0.9654
1698344333671875,-9.363311,1.695286,0.423167,-1.853193,0.210811,0.1646
1698344333679687,-9.459311,1.482286,0.300167,-1.884893,0.246411,0.8446
1698344333687500,-9.533311,1.316286,0.251167,-1.912393,0.272211,0.10346
1698344333695312,-9.640311,1.202286,0.221167,-1.919993,0.286311,0.4446
1698344333703125,-9.855311,1.183286,0.260167,-1.927393,0.283511,0.8254
1698344333710937,-10.36311,1.196286,0.306167,-1.939393,0.277611,0.21054
1698344333718750,-10.103311,1.250286,0.344167,-1.948493,0.242711,0.32854
1698344333726562,-10.95311,1.380286,0.415167,-1.973193,0.205311,0.44754
1698344333734375,-10.86311,1.526286,0.476167,-2.3393,0.195911,0.53154
1698344333742187,-10.29311,1.632286,0.503167,-2.45993,0.169811,0.55554
1698344333750000,-9.955311,1.741286,0.541167,-2.96593,0.164711,0.60654
1698344333757812,-9.846311,1.852286,0.545167,-2.160093,0.155711,0.66154
1698344333765625,-9.698311,1.800286,0.475167,-2.222993,0.167511,0.67754
1698344333773437,-9.670311,1.737286,0.414167,-2.274593,0.180111,0.66254
1698344333781250,-9.731311,1.786286,0.382167,-2.332993,0.197311,0.67654
1698344333789062,-9.804311,1.849286,0.370167,-2.390593,0.203311,0.69554
1698344333796875,-9.855311,1.826286,0.284167,-2.443293,0.211111,0.80954
1698344333804687,-9.901311,1.736286,0.188167,-2.487593,0.211111,0.92054
1698344333812500,-9.909311,1.640286,0.138167,-2.530193,0.202111,0.100454
1698344333820312,-9.839311,1.585286,0.109167,-2.569893,0.207311,0.114654
1698344333828125,-9.812311,1.528286,0.66167,-2.604793,0.213111,0.117954
1698344333835937,-9.829311,1.446286,0.48167,-2.625893,0.221711,0.116354
1698344333843750,-9.839311,1.406286,0.41167,-2.647493,0.215611,0.116554
1698344333851562,-9.772311,1.396286,0.39167,-2.659493,0.217411,0.118254
1698344333859375,-9.691311,1.424286,0.36167,-2.677593,0.219811,0.126154
1698344333867187,-9.667311,1.386286,0.23167,-2.688493,0.218211,0.121554
1698344333875000,-9.701311,1.285286,0.42833,-2.696893,0.216511,0.129754
1698344333882812,-9.706311,1.154286,0.149833,-2.692493,0.230311,0.133954
1698344333890625,-9.741311,0.959286,0.223833,-2.671193,0.228311,0.135454
1698344333898437,-9.828311,0.854286,0.273833,-2.645193,0.229911,0.146154
1698344333906250,-9.914311,0.799286,0.262833,-2.616193,0.217411,0.146254
1698344333914062,-9.986311,0.817286,0.216833,-2.587293,0.215011,0.142954
1698344333921875,-10.24311,0.877286,0.148833,-2.547493,0.189811,0.132454
1698344333929687,-10.31311,0.917286,0.96833,-2.530793,0.177811,0.134154
1698344333937500,-10.54311,0.888286,0.92833,-2.509493,0.168811,0.131054
1698344333945312,-10.101311,0.869286,0.35833,-2.497793,0.152811,0.114054
1698344333953125,-10.60311,0.907286,0.17167,-2.478493,0.143811,0.102954
1698344333960937,-9.997311,0.883286,0.12167,-2.464993,0.131111,0.90654
1698344333968750,-9.973311,0.820286,0.10167,-2.455893,0.127211,0.82854
1698344333976562,-9.979311,0.765286,0.11833,-2.445493,0.121611,0.71854
1698344333984375,-9.981311,0.743286,0.23833,-2.434793,0.126211,0.66954
1698344333992187,-10.7311,0.668286,0.43833,-2.425993,0.120911,0.62254
1698344334000000,-10.37311,0.679286,0.4833,-2.412393,0.115711,0.63854
1698344334007812,-9.978311,0.721286,0.52167,-2.397293,0.107111,0.62254
1698344334015625,-9.904311,0.740286,0.68167,-2.384993,0.100311,0.70254
1698344334023437,-9.908311,0.681286,0.65167,-2.379893,0.102111,0.81254
1698344334031250,-9.935311,0.639286,0.84167,-2.366193,0.96811,0.84454
1698344334039062,-9.951311,0.675286,0.118167,-2.354093,0.91611,0.82854
1698344334046875,-9.992311,0.730286,0.124167,-2.349693,0.86611,0.84454
1698344334054687,-9.999311,0.704286,0.111167,-2.336793,0.83111,0.97154
1698344334062500,-9.972311,0.609286,0.52167,-2.332693,0.76411,0.95554
1698344334070312,-9.928311,0.502286,0.18833,-2.311193,0.87911,0.99954
1698344334078125,-9.906311,0.397286,0.56833,-2.289893,0.79011,0.96854
1698344334085937,-9.950311,0.390286,0.45833,-2.254493,0.78411,0.104554
1698344334093750,-9.984311,0.465286,0.1833,-2.213693,0.78111,0.107254
1698344334101562,-9.989311,0.514286,0.13167,-2.187793,0.65711,0.108954
1698344334109375,-9.947311,0.503286,0.11167,-2.159993,0.63011,0.107354
1698344334117187,-9.926311,0.486286,0.9167,-2.132693,0.64411,0.111854
1698344334125000,-9.917311,0.549286,0.25167,-2.94793,0.51011,0.122654
1698344334132812,-9.916311,0.639286,0.74167,-2.66793,0.47211,0.136854
1698344334140625,-9.899311,0.727286,0.140167,-2.41093,0.33711,0.143154
1698344334148437,-9.834311,0.833286,0.204167,-2.21093,0.20511,0.158954
1698344334156250,-9.808311,0.908286,0.206167,-2.2293,0.28911,0.176054
1698344334164062,-9.780311,0.850286,0.172167,-1.993093,0.32411,0.182254
1698344334171875,-9.773311,0.764286,0.131167,-1.966593,0.31611,0.186954
1698344334179687,-9.801311,0.798286,0.126167,-1.943693,0.34711,0.189854
1698344334187500,-9.886311,0.953286,0.163167,-1.917893,0.40911,0.187954
1698344334195312,-9.964311,1.14286,0.194167,-1.887493,0.35111,0.186254
1698344334203125,-9.936311,0.992286,0.181167,-1.871193,0.33111,0.176654
1698344334210937,-9.937311,0.960286,0.149167,-1.858793,0.26811,0.162754
1698344334218750,-10.13311,0.946286,0.163167,-1.821093,0.20811,0.156254
1698344334226562,-10.74311,0.925286,0.192167,-1.803193,0.16711,0.140454
1698344334234375,-10.20311,0.896286,0.201167,-1.766693,0.3111,0.121754
1698344334242187,-9.987311,0.852286,0.217167,-1.733793,0.211,0.102654
1698344334250000,-9.973311,0.780286,0.238167,-1.689493,0.4889,0.88454
1698344334257812,-9.954311,0.751286,0.281167,-1.647293,0.18189,0.69554
1698344334265625,-9.941311,0.790286,0.327167,-1.604493,0.26189,0.64754
1698344334273437,-9.932311,0.815286,0.370167,-1.562193,0.33989,0.56754
1698344334281250,-9.930311,0.783286,0.386167,-1.526893,0.41789,0.53654
1698344334289062,-9.958311,0.733286,0.407167,-1.478593,0.34389,0.46754
1698344334296875,-9.970311,0.701286,0.407167,-1.445693,0.39989,0.37054
1698344334304687,-9.936311,0.662286,0.389167,-1.401593,0.27889,0.25454
1698344334312500,-9.886311,0.623286,0.357167,-1.360193,0.31389,0.14454
1698344334320312,-9.854311,0.599286,0.341167,-1.310293,0.30789,0.6154
1698344334328125,-9.884311,0.581286,0.318167,-1.252093,0.32389,0.2754
1698344334335937,-9.954311,0.586286,0.305167,-1.206493,0.31689,0.854
1698344334343750,-10.311,0.615286,0.336167,-1.151593,0.36689,0.7246
1698344334351562,-10.43311,0.647286,0.343167,-1.103093,0.41089,0.12246
1698344334359375,-10.52311,0.681286,0.386167,-1.49993,0.67789,0.21446
1698344334367187,-10.28311,0.743286,0.434167,-1.4393,0.90889,0.24346
1698344334375000,-10.34311,0.863286,0.472167,0.957393,0.105589,0.32246
1698344334382812,-10.40311,0.961286,0.547167,0.927293,0.131689,0.42946
1698344334390625,-9.987311,1.25286,0.604167,0.896793,0.156289,0.45646
1698344334398437,-9.928311,1.76286,0.622167,0.860593,0.172189,0.51946
1698344334406250,-9.901311,1.116286,0.641167,0.827493,0.193689,0.69046
1698344334414062,-9.912311,1.173286,0.670167,0.806393,0.213689,0.89046
1698344334421875,-9.919311,1.236286,0.731167,0.781293,0.219789,0.114346
1698344334429687,-9.891311,1.301286,0.777167,0.764393,0.230089,0.137646
1698344334437500,-9.893311,1.349286,0.836167,0.740793,0.238089,0.164446
1698344334445312,-9.880311,1.337286,0.900167,0.722893,0.249489,0.186246
1698344334453125,-9.782311,1.269286,0.934167,0.709493,0.262489,0.208046
1698344334460937,-9.706311,1.238286,0.977167,0.699393,0.272589,0.215946
1698344334468750,-9.735311,1.217286,1.53167,0.685893,0.263889,0.238146
1698344334476562,-9.735311,1.138286,1.121167,0.681193,0.268089,0.248946
1698344334484375,-9.695311,1.74286,1.144167,0.661793,0.262089,0.263446
1698344334492187,-9.678311,1.4286,1.196167,0.661893,0.244589,0.285746
1698344334500000,-9.641311,0.935286,1.235167,0.654693,0.243089,0.293746
1698344334507812,-9.608311,0.816286,1.229167,0.650093,0.226889,0.305146
1698344334515625,-9.604311,0.704286,1.252167,0.636293,0.217189,0.305346
1698344334523437,-9.615311,0.597286,1.252167,0.626693,0.199089,0.304146
1698344334531250,-9.572311,0.487286,1.252167,0.612993,0.189089,0.302946
1698344334539062,-9.537311,0.389286,1.255167,0.588493,0.173989,0.292446
1698344334546875,-9.549311,0.325286,1.253167,0.576393,0.156989,0.289846
1698344334554687,-9.614311,0.273286,1.273167,0.566993,0.144689,0.276046
1698344334562500,-9.633311,0.210286,1.289167,0.559093,0.134389,0.265346
1698344334570312,-9.633311,0.172286,1.305167,0.538993,0.125689,0.248446
1698344334578125,-9.631311,0.176286,1.344167,0.529293,0.118689,0.228146
1698344334585937,-9.579311,0.191286,1.360167,0.521393,0.106289,0.212746
1698344334593750,-9.520311,0.152286,1.344167,0.512993,0.97789,0.193946
1698344334601562,-9.494311,0.96286,1.321167,0.511293,0.88389,0.173846
1698344334609375,-9.466311,0.52286,1.294167,0.504793,0.77089,0.144346
1698344334617187,-9.471311,0.40286,1.283167,0.487093,0.46989,0.127646
1698344334625000,-9.484311,0.43286,1.258167,0.485493,0.32989,0.115446
1698344334632812,-9.516311,0.54286,1.240167,0.462293,0.7489,0.100446
1698344334640625,-9.604311,0.79286,1.253167,0.454793,0.16311,0.99646
1698344334648437,-9.723311,0.122286,1.258167,0.437593,0.38111,0.87546
1698344334656250,-9.730311,0.144286,1.214167,0.435893,0.41211,0.87546
1698344334664062,-9.723311,0.129286,1.164167,0.425393,0.58011,0.92846
1698344334671875,-9.745311,0.98286,1.96167,0.416193,0.71011,0.96246
1698344334679687,-9.832311,0.115286,1.59167,0.409893,0.80911,0.94946
1698344334687500,-9.861311,0.124286,1.23167,0.409893,0.87911,0.90346
1698344334695312,-9.847311,0.107286,0.964167,0.394793,0.98211,0.89246
1698344334703125,-9.858311,0.85286,0.912167,0.386893,0.103011,0.83046
1698344334710937,-9.924311,0.97286,0.893167,0.388493,0.106011,0.92546
1698344334718750,-10.8311,0.150286,0.868167,0.387393,0.102911,0.97246
1698344334726562,-10.65311,0.182286,0.857167,0.388693,0.97911,0.89246
1698344334734375,-10.56311,0.157286,0.827167,0.388693,0.101111,0.94046
1698344334742187,-10.24311,0.123286,0.795167,0.388693,0.94011,0.96946
1698344334750000,-10.6311,0.116286,0.757167,0.386993,0.80811,0.87246
1698344334757812,-9.963311,0.100286,0.736167,0.391493,0.79411,0.82446
1698344334765625,-9.933311,0.59286,0.716167,0.402193,0.76311,0.80746
1698344334773437,-9.974311,0.37286,0.700167,0.409493,0.76411,0.75846
1698344334781250,-9.987311,0.20286,0.704167,0.412593,0.71811,0.69546
1698344334789062,-9.950311,0.11286,0.693167,0.412993,0.62011,0.74146
1698344334796875,-9.926311,0.7286,0.693167,0.427693,0.53411,0.68946
1698344334804687,-9.930311,0.5286,0.695167,0.430693,0.57211,0.61246
1698344334812500,-9.859311,0.714,0.680167,0.432593,0.52811,0.59646
1698344334820312,-9.803311,0.38714,0.657167,0.436793,0.40711,0.54546
1698344334828125,-9.788311,0.64714,0.645167,0.442993,0.52911,0.54846
1698344334835937,-9.796311,0.81714,0.645167,0.439393,0.50711,0.53046
1698344334843750,-9.802311,0.92714,0.643167,0.436393,0.56211,0.43846
1698344334851562,-9.774311,0.116714,0.611167,0.433593,0.58411,0.39346
1698344334859375,-9.738311,0.139714,0.598167,0.428793,0.68011,0.41046
1698344334867187,-9.769311,0.142714,0.573167,0.418393,0.72811,0.49146
1698344334875000,-9.814311,0.188714,0.555167,0.410893,0.71611,0.41446
1698344334882812,-9.824311,0.210714,0.516167,0.409393,0.76611,0.44746
1698344334890625,-9.834311,0.210714,0.484167,0.389493,0.82111,0.54246
1698344334898437,-9.854311,0.205714,0.464167,0.388193,0.80811,0.54346
1698344334906250,-9.854311,0.239714,0.432167,0.381793,0.91911,0.56046
1698344334914062,-9.883311,0.285714,0.366167,0.365093,0.93411,0.56246
1698344334921875,-9.946311,0.338714,0.336167,0.363393,0.91611,0.54546
1698344334929687,-9.950311,0.355714,0.314167,0.360593,0.91711,0.57846
1698344334937500,-9.978311,0.344714,0.304167,0.343593,0.89211,0.57746
1698344334945312,-10.19311,0.333714,0.279167,0.341993,0.84011,0.59246
1698344334953125,-10.60311,0.326714,0.270167,0.340393,0.82211,0.59146
1698344334960937,-10.50311,0.319714,0.257167,0.339093,0.75811,0.55946
1698344334968750,-10.18311,0.334714,0.204167,0.337793,0.69111,0.59046
1698344334976562,-9.987311,0.369714,0.202167,0.337593,0.70711,0.54246
1698344334984375,-9.986311,0.375714,0.184167,0.334693,0.69111,0.55946
1698344334992187,-10.47311,0.367714,0.179167,0.328693,0.60911,0.54246
1698344335000000,-10.70311,0.392714,0.179167,0.320893,0.51911,0.52446
1698344335007812,-10.64311,0.386714,0.175167,0.319093,0.51811,0.49246
1698344335015625,-10.59311,0.383714,0.179167,0.316193,0.47211,0.42946
1698344335023437,-10.46311,0.360714,0.195167,0.314393,0.38511,0.42646
1698344335031250,-10.25311,0.347714,0.204167,0.314793,0.39111,0.39746
1698344335039062,-9.989311,0.351714,0.200167,0.314693,0.40511,0.41246
1698344335046875,-9.955311,0.318714,0.197167,0.314793,0.32111,0.42646
1698344335054687,-9.942311,0.329714,0.211167,0.314593,0.36911,0.44246
1698344335062500,-9.933311,0.309714,0.204167,0.314893,0.35311,0.49046
1698344335070312,-9.925311,0.278714,0.204167,0.314793,0.29811,0.51946
1698344335078125,-9.924311,0.269714,0.209167,0.314893,0.39011,0.42846
1698344335085937,-9.920311,0.256714,0.197167,0.314693,0.35011,0.48946
1698344335093750,-9.948311,0.231714,0.181167,0.314493,0.33411,0.44146
1698344335101562,-9.978311,0.199714,0.174167,0.314693,0.33411,0.45746
1698344335109375,-9.969311,0.157714,0.172167,0.313093,0.25211,0.40846
1698344335117187,-9.975311,0.97714,0.156167,0.317593,0.21811,0.40746
1698344335125000,-10.12311,0.55714,0.151167,0.322093,0.16911,0.38946
1698344335140625,-9.985311,0.23714,0.94167,0.336093,0.15311,0.46746
1698344335148437,-10.42311,0.57286,0.96167,0.351493,0.10411,0.52846
1698344335156250,-10.86311,0.142286,0.98167,0.365393,0.1189,0.55646
1698344335164062,-10.99311,0.222286,0.62167,0.377693,0.10189,0.72646
1698344335171875,-10.136311,0.294286,0.59167,0.391693,0.23589,0.80146
1698344335179687,-10.189311,0.369286,0.48167,0.413693,0.30489,0.101946
1698344335187500,-10.239311,0.464286,0.54167,0.444793,0.50689,0.123346
1698344335195312,-10.243311,0.537286,0.41167,0.475593,0.67489,0.138446
1698344335203125,-10.207311,0.604286,0.16167,0.496293,0.82889,0.166346
1698344335210937,-10.185311,0.655286,0.4167,0.531993,0.106789,0.195446
1698344335218750,-10.138311,0.670286,0.16833,0.555293,0.114189,0.221846
1698344335226562,-10.82311,0.701286,0.20833,0.571193,0.127089,0.257546
1698344335234375,-10.37311,0.778286,0.20833,0.612893,0.129189,0.290246
1698344335242187,-10.10311,0.855286,0.19167,0.637693,0.127389,0.334046
1698344335250000,-9.975311,0.907286,0.31167,0.667793,0.139089,0.366746
1698344335257812,-10.1311,0.990286,0.69167,0.695893,0.141489,0.402646
1698344335265625,-10.95311,1.206286,0.144167,0.749593,0.142689,0.444546
