time,Acceleration X (m/s^2),Acceleration Y (m/s^2),Acceleration Z (m/s^2),Angular Velocity X (rad/s),Angular Velocity Y (rad/s),Angular Velocity Z (rad/s)
1698343987703125,-9.358266,2.57618,-2.208284,-0.140462,,
1698343987710937,-9.347266,2.57018,-2.181284,0.140162,0.84894,0.13382
1698343987718750,-9.349266,2.56618,-2.178284,0.141862,0.88394,0.8682
1698343987726562,-9.347266,2.56618,-2.190284,0.140462,0.88394,0.7082
1698343987734375,-9.337266,2.57118,-2.190284,0.136062,0.98594,0.5682
1698343987742187,-9.328266,2.57618,-2.174284,0.124062,0.105194,0.10382
1698343987757812,-9.351266,2.60018,-2.112284,0.123962,0.103394,0.15082
1698343987765625,-9.340266,2.60018,-2.94284,0.119162,0.101994,0.13482
1698343987773437,-9.315266,2.62018,-2.99284,0.116562,0.105394,0.8782
1698343987781250,-9.308266,2.62918,-2.83284,0.114962,0.110394,0.10382
1698343987804687,-9.323266,2.62818,-2.28284,0.114762,0.83294,0.18318
1698343987812500,-9.309266,2.58718,-2.44284,0.119462,0.65194,0.31218
1698343987820312,-9.317266,2.54118,-2.60284,0.128662,0.61694,0.32818
1698343987828125,-9.333266,2.50318,-2.99284,0.124062,0.58994,0.45418
1698343987835937,-9.359266,2.47518,-2.128284,0.116662,0.54094,0.47218
1698343987843750,-9.368266,2.42718,-2.144284,0.121062,0.57594,0.50218
1698343987851562,-9.394266,2.40418,-2.169284,0.110562,0.53894,0.42618
1698343987859375,-9.403266,2.38218,-2.178284,0.104562,0.64294,0.45518
1698343987867187,-9.373266,2.35018,-2.185284,0.109162,0.80994,0.43518
1698343987875000,-9.363266,2.32418,-2.178284,0.115462,0.73794,0.40618
1698343987882812,-9.372266,2.32218,-2.175284,0.95562,0.72394,0.37618
1698343987890625,-9.379266,2.31518,-2.175284,0.90962,0.70794,0.36118
1698343987898437,-9.379266,2.28618,-2.178284,0.90862,0.73694,0.26618
1698343987906250,-9.381266,2.28718,-2.198284,0.92362,0.71594,0.18918
1698343987914062,-9.384266,2.32818,-2.217284,0.87562,0.80294,0.17018
1698343987921875,-9.384266,2.35318,-2.205284,0.82762,0.88394,0.5918
1698343987929687,-9.376266,2.36818,-2.201284,0.84362,0.92094,0.15218
1698343987937500,-9.346266,2.39918,-2.169284,0.82962,0.89994,0.5918
1698343987945312,-9.317266,2.40818,-2.139284,0.93462,0.94694,0.918
1698343987953125,-9.324266,2.43718,-2.153284,0.90562,0.86294,0.4418
1698343987960937,-9.362266,2.47018,-2.176284,0.91362,0.71494,0.2918
1698343987968750,-9.375266,2.49318,-2.201284,0.105462,0.74294,0.1318
1698343987976562,-9.399266,2.49218,-2.221284,0.110562,0.75594,0.3018
1698343987984375,-9.401266,2.49518,-2.237284,0.103262,0.77794,0.14018
1698343987992187,-9.376266,2.49718,-2.230284,0.110762,0.84494,0.15318
1698343988000000,-9.347266,2.48918,-2.214284,0.116762,0.96194,0.13418
1698343988007812,-9.340266,2.49918,-2.187284,0.110962,0.101194,0.13418
1698343988015625,-9.347266,2.55818,-2.169284,0.97562,0.97594,0.9018
1698343988023437,-9.328266,2.59418,-2.139284,0.106262,0.99594,0.11918
1698343988031250,-9.275266,2.56918,-2.105284,0.114162,0.111394,0.17918
1698343988039062,-9.203266,2.53118,-2.57284,0.119862,0.116494,0.16118
1698343988046875,-9.166266,2.50618,-2.39284,0.119562,0.83994,0.4218
1698343988054687,-9.200266,2.51418,-2.69284,0.115062,0.50094,0.1918
1698343988062500,-9.268266,2.53118,-2.103284,0.116562,0.31694,0.5518
1698343988070312,-9.306266,2.53218,-2.160284,0.115162,0.18494,0.13618
1698343988078125,-9.331266,2.51418,-2.201284,0.116762,0.27094,0.18218
1698343988085937,-9.319266,2.50618,-2.221284,0.115462,0.38894,0.19518
1698343988093750,-9.316266,2.49518,-2.217284,0.105662,0.41094,0.17818
1698343988101562,-9.315266,2.47818,-2.219284,0.95362,0.19594,0.26318
1698343988109375,-9.319266,2.47018,-2.251284,0.92662,0.17794,0.28018
1698343988117187,-9.326266,2.45218,-2.298284,0.92462,0.16394,0.31118
1698343988125000,-9.342266,2.42918,-2.365284,0.95462,0.18394,0.37318
1698343988132812,-9.385266,2.40918,-2.415284,0.86062,0.20394,0.37218
1698343988140625,-9.402266,2.40618,-2.430284,0.80362,0.35094,0.29218
1698343988148437,-9.400266,2.39518,-2.430284,0.77462,0.48494,0.27418
1698343988156250,-9.427266,2.42318,-2.430284,0.69962,0.58494,0.24118
1698343988164062,-9.427266,2.46118,-2.410284,0.68362,0.69794,0.12918
1698343988171875,-9.400266,2.47818,-2.364284,0.82262,0.74894,0.20618
1698343988179687,-9.351266,2.47518,-2.342284,0.94362,0.83394,0.25018
1698343988187500,-9.333266,2.47418,-2.317284,0.89562,0.89894,0.15418
1698343988195312,-9.356266,2.49318,-2.285284,0.104862,0.71094,0.17318
1698343988203125,-9.350266,2.50318,-2.287284,0.113062,0.67094,0.17518
1698343988210937,-9.312266,2.49718,-2.285284,0.128062,0.68694,0.18918
1698343988218750,-9.290266,2.45118,-2.266284,0.145062,0.69594,0.14118
1698343988226562,-9.291266,2.42118,-2.266284,0.144662,0.61494,0.14218
1698343988234375,-9.323266,2.43918,-2.278284,0.156762,0.42994,0.19218
1698343988242187,-9.366266,2.42618,-2.305284,0.167262,0.41094,0.17618
1698343988250000,-9.401266,2.42418,-2.348284,0.164862,0.42394,0.17818
1698343988257812,-9.428266,2.41518,-2.387284,0.166262,0.47694,0.22318
1698343988265625,-9.390266,2.38218,-2.392284,0.166162,0.61294,0.21918
1698343988273437,-9.319266,2.34218,-2.359284,0.164862,0.81394,0.20018
1698343988281250,-9.302266,2.32718,-2.337284,0.164262,0.84994,0.16618
1698343988289062,-9.334266,2.33818,-2.317284,0.144362,0.70394,0.18618
1698343988296875,-9.342266,2.35418,-2.319284,0.139962,0.70094,0.14018
1698343988304687,-9.341266,2.35418,-2.323284,0.148762,0.68394,0.12318
1698343988312500,-9.352266,2.33318,-2.314284,0.145562,0.70094,0.9118
1698343988320312,-9.356266,2.32918,-2.294284,0.141062,0.75294,0.10618
1698343988328125,-9.348266,2.33818,-2.312284,0.137862,0.75294,0.5918
1698343988335937,-9.345266,2.35118,-2.312284,0.119762,0.77494,0.10718
1698343988343750,-9.345266,2.37018,-2.294284,0.115362,0.74094,0.12418
1698343988351562,-9.323266,2.35518,-2.289284,0.116562,0.72194,0.4518
1698343988359375,-9.313266,2.35118,-2.282284,0.116662,0.62094,0.6318
1698343988367187,-9.311266,2.35518,-2.305284,0.116662,0.60494,0.8018
1698343988375000,-9.336266,2.36718,-2.321284,0.115062,0.47294,0.13018
1698343988382812,-9.366266,2.39518,-2.342284,0.116862,0.57194,0.12818
1698343988390625,-9.372266,2.40218,-2.367284,0.112462,0.62594,0.19018
1698343988398437,-9.363266,2.39518,-2.364284,0.106462,0.66294,0.25318
1698343988406250,-9.364266,2.39418,-2.362284,0.113862,0.66194,0.23618
1698343988414062,-9.344266,2.39118,-2.358284,0.113762,0.71194,0.20318
1698343988421875,-9.309266,2.36718,-2.353284,0.116862,0.69394,0.20318
1698343988429687,-9.305266,2.33318,-2.353284,0.115062,0.67794,0.17218
1698343988437500,-9.298266,2.29718,-2.357284,0.118662,0.68394,0.4818
1698343988445312,-9.292266,2.31818,-2.396284,0.110562,0.63794,0.4818
1698343988453125,-9.333266,2.34318,-2.396284,0.99862,0.63494,0.7682
1698343988460937,-9.336266,2.36018,-2.394284,0.99662,0.63894,0.1482
1698343988468750,-9.300266,2.39418,-2.360284,0.90662,0.68894,0.6182
1698343988476562,-9.296266,2.41918,-2.355284,0.92362,0.65294,0.5982
1698343988484375,-9.309266,2.46218,-2.360284,0.90962,0.58394,0.7382
1698343988492187,-9.308266,2.47118,-2.376284,0.93462,0.58894,0.4482
1698343988500000,-9.296266,2.47418,-2.396284,0.95362,0.60494,0.318
1698343988507812,-9.280266,2.44518,-2.390284,0.98362,0.60594,0.1818
1698343988515625,-9.291266,2.43718,-2.404284,0.90162,0.57994,0.4918
1698343988523437,-9.298266,2.42018,-2.417284,0.87662,0.54594,0.13018
1698343988531250,-9.307266,2.40718,-2.444284,0.93762,0.54394,0.11418
1698343988539062,-9.327266,2.39918,-2.469284,0.87862,0.56294,0.16118
1698343988546875,-9.345266,2.36618,-2.478284,0.89762,0.59794,0.25518
1698343988554687,-9.362266,2.35118,-2.496284,0.83762,0.54794,0.24218
1698343988562500,-9.399266,2.35118,-2.505284,0.73162,0.60394,0.31918
1698343988570312,-9.435266,2.36018,-2.524284,0.69962,0.62294,0.31918
1698343988578125,-9.420266,2.34218,-2.528284,0.73062,0.77394,0.31518
1698343988585937,-9.396266,2.31118,-2.510284,0.73562,0.85794,0.39318
1698343988593750,-9.378266,2.29218,-2.503284,0.73262,0.94594,0.40618
1698343988601562,-9.376266,2.29318,-2.494284,0.68962,0.98194,0.46818
1698343988609375,-9.382266,2.28118,-2.469284,0.67362,0.89994,0.50218
1698343988617187,-9.395266,2.26218,-2.485284,0.70562,0.92794,0.42318
1698343988625000,-9.386266,2.25618,-2.480284,0.72162,0.95894,0.39118
1698343988632812,-9.363266,2.23618,-2.450284,0.73862,0.102294,0.34318
1698343988640625,-9.368266,2.22118,-2.421284,0.83962,0.101994,0.24718
1698343988648437,-9.372266,2.21718,-2.409284,0.76462,0.96894,0.23318
1698343988656250,-9.358266,2.23318,-2.389284,0.77162,0.108994,0.16518
1698343988664062,-9.337266,2.23718,-2.364284,0.93762,0.118294,0.5218
1698343988671875,-9.307266,2.22918,-2.348284,0.91162,0.109494,0.2418
1698343988679687,-9.269266,2.22718,-2.319284,0.96762,0.114694,0.618
1698343988687500,-9.225266,2.23918,-2.296284,0.110962,0.101894,0.5282
1698343988695312,-9.217266,2.21118,-2.273284,0.107162,0.97394,0.5482
1698343988703125,-9.261266,2.20418,-2.289284,0.112262,0.65194,0.3318
1698343988710937,-9.325266,2.21118,-2.350284,0.101362,0.47094,0.3718
1698343988718750,-9.376266,2.19718,-2.403284,0.109362,0.40394,0.13318
1698343988726562,-9.408266,2.15018,-2.466284,0.92062,0.36094,0.13318
1698343988734375,-9.427266,2.13218,-2.519284,0.90562,0.51394,0.14518
1698343988742187,-9.423266,2.13718,-2.516284,0.68462,0.60194,0.24118
1698343988750000,-9.421266,2.13918,-2.505284,0.68462,0.73894,0.26918
1698343988757812,-9.415266,2.15218,-2.494284,0.66762,0.89094,0.23418
1698343988765625,-9.397266,2.15418,-2.469284,0.65462,0.97594,0.28018
1698343988773437,-9.397266,2.14818,-2.460284,0.65262,0.77394,0.26818
1698343988781250,-9.429266,2.17718,-2.492284,0.57462,0.74394,0.28518
1698343988789062,-9.436266,2.18218,-2.505284,0.65362,0.89194,0.26618
1698343988796875,-9.409266,2.19718,-2.501284,0.68462,0.112794,0.27618
1698343988804687,-9.370266,2.21018,-2.448284,0.65562,0.119194,0.22818
1698343988812500,-9.359266,2.22718,-2.398284,0.66862,0.125794,0.16318
1698343988820312,-9.355266,2.24618,-2.339284,0.68162,0.120994,0.17918
1698343988828125,-9.339266,2.25418,-2.318284,0.89962,0.109994,0.16618
1698343988835937,-9.344266,2.25818,-2.319284,0.101662,0.101394,0.11918
1698343988843750,-9.341266,2.23118,-2.328284,0.112162,0.92494,0.5718
1698343988851562,-9.334266,2.22018,-2.344284,0.116662,0.78894,0.4418
1698343988859375,-9.331266,2.21018,-2.355284,0.117862,0.85894,0.5718
1698343988867187,-9.334266,2.19118,-2.366284,0.121462,0.70294,0.6218
1698343988875000,-9.330266,2.18818,-2.380284,0.117962,0.68694,0.1418
1698343988882812,-9.336266,2.18918,-2.382284,0.118162,0.70694,0.9318
1698343988890625,-9.384266,2.20318,-2.405284,0.118262,0.68694,0.6218
1698343988898437,-9.414266,2.23918,-2.423284,0.114962,0.70594,0.4618
1698343988906250,-9.395266,2.23018,-2.428284,0.121562,0.95394,0.2518
1698343988914062,-9.343266,2.20018,-2.416284,0.119762,0.102094,0.2382
1698343988921875,-9.323266,2.21318,-2.389284,0.122662,0.93094,0.14782
1698343988929687,-9.344266,2.25418,-2.380284,0.118162,0.86694,0.8282
1698343988937500,-9.366266,2.28318,-2.391284,0.121162,0.82894,0.16082
1698343988945312,-9.380266,2.28818,-2.407284,0.119762,0.76594,0.6482
1698343988953125,-9.385266,2.29018,-2.417284,0.119762,0.84994,0.6682
1698343988960937,-9.389266,2.31118,-2.416284,0.118562,0.84694,0.8082
1698343988968750,-9.381266,2.32818,-2.419284,0.116762,0.90294,0.3682
1698343988976562,-9.353266,2.33718,-2.401284,0.115562,0.91894,0.382
1698343988984375,-9.315266,2.33918,-2.364284,0.130762,0.94894,0.2182
1698343988992187,-9.326266,2.33918,-2.357284,0.133762,0.84994,0.2718
1698343989000000,-9.328266,2.35118,-2.375284,0.137062,0.74294,0.1682
1698343989007812,-9.335266,2.35718,-2.387284,0.142962,0.69594,0.3018
1698343989015625,-9.336266,2.35618,-2.414284,0.146462,0.67394,0.3218
1698343989023437,-9.342266,2.35818,-2.426284,0.138562,0.76194,0.1418
1698343989031250,-9.352266,2.35418,-2.419284,0.150462,0.84994,0.8818
1698343989039062,-9.347266,2.34818,-2.405284,0.150762,0.88494,0.16718
1698343989046875,-9.329266,2.33918,-2.398284,0.152162,0.88394,0.11918
1698343989054687,-9.331266,2.33218,-2.373284,0.150762,0.76794,0.18518
1698343989062500,-9.369266,2.33218,-2.387284,0.150662,0.76994,0.21618
1698343989070312,-9.382266,2.33818,-2.401284,0.160162,0.78294,0.23218
1698343989078125,-9.379266,2.33518,-2.392284,0.149162,0.90494,0.19718
1698343989085937,-9.373266,2.33118,-2.385284,0.138962,0.99294,0.29118
1698343989093750,-9.375266,2.31818,-2.369284,0.145162,0.100594,0.25918
1698343989101562,-9.398266,2.31118,-2.362284,0.142062,0.93994,0.26118
1698343989109375,-9.389266,2.31818,-2.355284,0.140562,0.90794,0.30918
1698343989117187,-9.367266,2.30118,-2.355284,0.145062,0.104694,0.38318
1698343989125000,-9.359266,2.26318,-2.348284,0.146562,0.97594,0.32218
1698343989132812,-9.359266,2.24518,-2.348284,0.152462,0.94094,0.29118
1698343989140625,-9.348266,2.25018,-2.355284,0.143362,0.94094,0.27618
1698343989148437,-9.350266,2.22718,-2.334284,0.138662,0.91094,0.30818
1698343989156250,-9.368266,2.22518,-2.334284,0.135662,0.84494,0.32518
1698343989164062,-9.370266,2.21218,-2.339284,0.135662,0.82694,0.29418
1698343989171875,-9.357266,2.21318,-2.350284,0.136862,0.75894,0.26418
1698343989179687,-9.376266,2.21318,-2.348284,0.119062,0.74294,0.28318
1698343989187500,-9.372266,2.21918,-2.343284,0.121962,0.84394,0.26418
1698343989195312,-9.364266,2.22418,-2.348284,0.115562,0.94994,0.27618
1698343989203125,-9.375266,2.23218,-2.353284,0.114062,0.88194,0.26218
1698343989210937,-9.388266,2.23218,-2.346284,0.117262,0.87994,0.26318
1698343989218750,-9.382266,2.25018,-2.348284,0.118862,0.94394,0.21518
1698343989226562,-9.366266,2.25418,-2.364284,0.115662,0.98294,0.26018
1698343989234375,-9.346266,2.24018,-2.353284,0.117062,0.98294,0.26018
1698343989242187,-9.352266,2.25018,-2.349284,0.108862,0.93694,0.22818
1698343989250000,-9.367266,2.27318,-2.335284,0.101562,0.88294,0.18418
1698343989257812,-9.381266,2.27818,-2.332284,0.104762,0.103394,0.19718
1698343989265625,-9.391266,2.27918,-2.314284,0.115662,0.98094,0.22918
1698343989273437,-9.403266,2.27918,-2.307284,0.117162,0.91394,0.24618
1698343989281250,-9.405266,2.27918,-2.314284,0.117362,0.92994,0.24618
1698343989289062,-9.384266,2.28618,-2.316284,0.117562,0.103094,0.27618
1698343989296875,-9.392266,2.31518,-2.319284,0.117462,0.109794,0.25818
1698343989304687,-9.374266,2.32518,-2.285284,0.117062,0.113294,0.22518
1698343989312500,-9.331266,2.31318,-2.246284,0.115762,0.113594,0.30418
1698343989320312,-9.282266,2.28218,-2.207284,0.117662,0.114894,0.28918
1698343989328125,-9.268266,2.26318,-2.175284,0.116462,0.94894,0.38918
1698343989335937,-9.277266,2.22418,-2.168284,0.128362,0.67794,0.37818
1698343989343750,-9.317266,2.19818,-2.207284,0.135962,0.42594,0.43018
1698343989351562,-9.365266,2.15818,-2.268284,0.134162,0.37894,0.46118
1698343989359375,-9.398266,2.11918,-2.334284,0.129862,0.31394,0.52718
1698343989367187,-9.429266,2.7718,-2.393284,0.118962,0.38294,0.49418
1698343989375000,-9.449266,2.3118,-2.430284,0.109762,0.44894,0.41518
1698343989382812,-9.444266,2.18,-2.429284,0.97962,0.56994,0.47618
1698343989390625,-9.433266,1.99918,-2.443284,0.91762,0.67394,0.47418
1698343989398437,-9.453266,2.418,-2.441284,0.68562,0.62294,0.35118
1698343989406250,-9.458266,2.1018,-2.434284,0.78962,0.65294,0.27018
1698343989414062,-9.454266,2.2218,-2.446284,0.71462,0.75394,0.23718
1698343989421875,-9.448266,2.4118,-2.455284,0.69662,0.78794,0.18918
1698343989429687,-9.445266,2.7518,-2.439284,0.71362,0.93494,0.12318
1698343989437500,-9.430266,2.9018,-2.418284,0.72862,0.109894,0.4118
1698343989445312,-9.430266,2.9418,-2.378284,0.67662,0.111494,0.8582
1698343989453125,-9.412266,2.10718,-2.343284,0.83162,0.112594,0.11782
1698343989460937,-9.388266,2.12218,-2.325284,0.92062,0.107294,0.14882
1698343989468750,-9.380266,2.14618,-2.327284,0.95562,0.101794,0.16182
1698343989476562,-9.384266,2.16918,-2.318284,0.97962,0.98494,0.22582
1698343989484375,-9.402266,2.18118,-2.318284,0.107362,0.100294,0.13282
1698343989492187,-9.384266,2.18018,-2.314284,0.114962,0.81694,0.9782
1698343989500000,-9.387266,2.13118,-2.307284,0.119462,0.68394,0.4782
1698343989507812,-9.403266,2.11418,-2.316284,0.119462,0.66594,0.6282
1698343989515625,-9.431266,2.8218,-2.345284,0.121462,0.59394,0.9182
1698343989523437,-9.432266,2.7718,-2.391284,0.119662,0.74794,0.7982
1698343989531250,-9.432266,2.6318,-2.396284,0.119662,0.84694,0.12982
1698343989539062,-9.429266,2.5218,-2.393284,0.113362,0.87894,0.22482
1698343989546875,-9.397266,2.4318,-2.368284,0.107262,0.93094,0.24082
1698343989554687,-9.365266,2.4318,-2.352284,0.104462,0.92994,0.22382
1698343989562500,-9.384266,2.4918,-2.345284,0.93562,0.84894,0.23782
1698343989570312,-9.400266,2.7618,-2.357284,0.91862,0.86394,0.30082
1698343989578125,-9.398266,2.11418,-2.361284,0.87362,0.89694,0.33282
1698343989585937,-9.394266,2.11118,-2.346284,0.73462,0.88794,0.25382
1698343989593750,-9.389266,2.13418,-2.348284,0.73862,0.93794,0.22282
1698343989601562,-9.369266,2.14718,-2.343284,0.73662,0.95494,0.23882
1698343989609375,-9.375266,2.17518,-2.341284,0.68762,0.87394,0.23782
1698343989617187,-9.386266,2.18018,-2.341284,0.68862,0.87494,0.20682
1698343989625000,-9.405266,2.19618,-2.344284,0.73462,0.75994,0.10982
1698343989632812,-9.434266,2.20318,-2.357284,0.75062,0.74094,0.12482
1698343989640625,-9.433266,2.19018,-2.378284,0.85962,0.73794,0.12482
1698343989648437,-9.431266,2.17418,-2.398284,0.93662,0.82294,0.8082
1698343989656250,-9.433266,2.16618,-2.398284,0.93662,0.80794,0.3282
1698343989664062,-9.435266,2.13918,-2.391284,0.93962,0.94094,0.3482
1698343989671875,-9.433266,2.13018,-2.387284,0.101362,0.102594,0.682
1698343989679687,-9.425266,2.11518,-2.377284,0.112362,0.96994,0.2082
1698343989687500,-9.411266,2.9318,-2.375284,0.114062,0.93294,0.5082
1698343989695312,-9.431266,2.8418,-2.350284,0.117162,0.94994,0.3582
1698343989703125,-9.430266,2.8018,-2.359284,0.115062,0.100594,0.2382
1698343989710937,-9.427266,2.8318,-2.348284,0.118262,0.96894,0.5382
1698343989718750,-9.405266,2.6918,-2.341284,0.116662,0.98694,0.5382
1698343989726562,-9.395266,2.7018,-2.323284,0.115262,0.96794,0.6882
1698343989734375,-9.419266,2.8718,-2.330284,0.116362,0.97094,0.8582
1698343989742187,-9.433266,2.10718,-2.327284,0.114862,0.91894,0.9982
1698343989750000,-9.430266,2.10318,-2.343284,0.125662,0.91594,0.10082
1698343989757812,-9.420266,2.11118,-2.355284,0.119262,0.96894,0.11782
1698343989765625,-9.415266,2.11818,-2.357284,0.122162,0.94894,0.19682
1698343989773437,-9.411266,2.12718,-2.348284,0.128462,0.98294,0.13382
1698343989781250,-9.397266,2.13018,-2.337284,0.119162,0.102094,0.10382
1698343989789062,-9.386266,2.13718,-2.328284,0.116062,0.95294,0.13382
1698343989796875,-9.384266,2.14618,-2.328284,0.114662,0.100194,0.16582
1698343989804687,-9.383266,2.14218,-2.314284,0.122662,0.96794,0.6982
1698343989812500,-9.389266,2.14818,-2.314284,0.120462,0.97094,0.13482
1698343989820312,-9.409266,2.16918,-2.323284,0.125462,0.98294,0.14982
1698343989828125,-9.411266,2.16018,-2.312284,0.125562,0.104994,0.13482
1698343989835937,-9.397266,2.13618,-2.305284,0.133262,0.108294,0.12082
1698343989843750,-9.397266,2.13618,-2.318284,0.134862,0.104894,0.10382
1698343989851562,-9.412266,2.12518,-2.307284,0.128962,0.99794,0.10182
1698343989859375,-9.403266,2.11818,-2.314284,0.138062,0.94794,0.6982
1698343989867187,-9.371266,2.11218,-2.323284,0.130662,0.96894,0.2418
1698343989875000,-9.394266,2.10518,-2.323284,0.138162,0.94894,0.2282
1698343989882812,-9.406266,2.13318,-2.316284,0.125662,0.93794,0.682
1698343989890625,-9.400266,2.14218,-2.303284,0.124162,0.97494,0.5418
1698343989898437,-9.401266,2.11818,-2.291284,0.122762,0.95794,0.7118
1698343989906250,-9.407266,2.11018,-2.277284,0.121662,0.88694,0.5918
1698343989914062,-9.420266,2.10618,-2.305284,0.129962,0.85694,0.4018
1698343989921875,-9.432266,2.8118,-2.325284,0.136762,0.87094,0.12018
1698343989929687,-9.439266,2.6718,-2.318284,0.136462,0.93594,0.2418
1698343989937500,-9.444266,2.7818,-2.332284,0.119662,0.97294,0.818
1698343989945312,-9.423266,2.8918,-2.325284,0.116762,0.110794,0.2118
1698343989953125,-9.389266,2.8218,-2.284284,0.124262,0.113894,0.2682
1698343989960937,-9.343266,2.7418,-2.245284,0.123262,0.108094,0.10182
1698343989968750,-9.357266,2.7318,-2.214284,0.123962,0.96494,0.18082
1698343989976562,-9.389266,2.8918,-2.227284,0.117962,0.82994,0.16082
1698343989984375,-9.430266,2.11018,-2.280284,0.137662,0.65994,0.12682
1698343989992187,-9.442266,2.12318,-2.330284,0.140462,0.70794,0.20782
1698343990000000,-9.460266,2.10018,-2.357284,0.129762,0.69894,0.9682
1698343990007812,-9.472266,2.10118,-2.355284,0.116062,0.90094,0.16382
1698343990015625,-9.451266,2.9618,-2.341284,0.114462,0.100094,0.21282
1698343990023437,-9.426266,2.10518,-2.328284,0.110162,0.111794,0.21482
1698343990031250,-9.415266,2.10218,-2.316284,0.116062,0.106694,0.22982
1698343990039062,-9.426266,2.10418,-2.305284,0.116062,0.101594,0.24482
1698343990046875,-9.462266,2.14418,-2.346284,0.111862,0.101394,0.22682
1698343990054687,-9.465266,2.16818,-2.344284,0.111662,0.103194,0.24382
1698343990062500,-9.449266,2.18618,-2.346284,0.116462,0.112994,0.26182
1698343990070312,-9.443266,2.19618,-2.319284,0.114862,0.121694,0.23282
1698343990078125,-9.416266,2.21418,-2.282284,0.113262,0.131794,0.25082
1698343990085937,-9.407266,2.25918,-2.234284,0.116662,0.137994,0.31382
1698343990093750,-9.408266,2.27418,-2.178284,0.117862,0.133194,0.29782
1698343990101562,-9.387266,2.27518,-2.162284,0.133062,0.123094,0.23382
1698343990109375,-9.377266,2.27718,-2.150284,0.147962,0.117894,0.25082
1698343990117187,-9.393266,2.28418,-2.139284,0.143462,0.106194,0.21582
1698343990125000,-9.391266,2.25418,-2.143284,0.157662,0.102294,0.19882
1698343990132812,-9.395266,2.21618,-2.141284,0.166662,0.92094,0.18182
1698343990140625,-9.402266,2.18818,-2.162284,0.163462,0.95894,0.15182
1698343990148437,-9.416266,2.16918,-2.196284,0.163462,0.85994,0.10282
1698343990156250,-9.439266,2.17818,-2.214284,0.160162,0.90894,0.18282
1698343990164062,-9.446266,2.17518,-2.225284,0.146662,0.94894,0.8782
1698343990171875,-9.415266,2.14618,-2.214284,0.145062,0.104394,0.23182
1698343990179687,-9.377266,2.13918,-2.195284,0.140562,0.104294,0.24682
1698343990187500,-9.388266,2.14618,-2.170284,0.137562,0.97594,0.24482
1698343990195312,-9.414266,2.17118,-2.166284,0.117362,0.91094,0.33682
1698343990203125,-9.407266,2.17318,-2.171284,0.117462,0.101094,0.33882
1698343990210937,-9.391266,2.19418,-2.180284,0.116062,0.99094,0.38482
1698343990218750,-9.409266,2.20718,-2.175284,0.114362,0.85994,0.33482
1698343990226562,-9.423266,2.23118,-2.184284,0.106462,0.92594,0.43082
1698343990234375,-9.423266,2.25418,-2.196284,0.112962,0.99594,0.32182
1698343990242187,-9.403266,2.28018,-2.200284,0.103762,0.101494,0.32182
1698343990250000,-9.387266,2.29418,-2.196284,0.105362,0.96094,0.36782
1698343990257812,-9.381266,2.30418,-2.182284,0.106862,0.94794,0.28882
1698343990265625,-9.374266,2.31818,-2.175284,0.113162,0.96394,0.25782
1698343990273437,-9.395266,2.34018,-2.198284,0.116062,0.93194,0.22682
1698343990281250,-9.431266,2.33718,-2.209284,0.114762,0.77694,0.25382
1698343990289062,-9.437266,2.33318,-2.214284,0.118162,0.86494,0.12982
1698343990296875,-9.411266,2.33118,-2.226284,0.119262,0.100494,0.8782
1698343990304687,-9.412266,2.32118,-2.216284,0.116662,0.95094,0.8482
1698343990312500,-9.413266,2.32518,-2.207284,0.119462,0.97394,0.782
1698343990320312,-9.415266,2.31618,-2.196284,0.122562,0.93894,0.682
1698343990328125,-9.386266,2.30418,-2.180284,0.117862,0.107794,0.2018
1698343990335937,-9.379266,2.30018,-2.169284,0.125662,0.100594,0.718
1698343990343750,-9.395266,2.29318,-2.166284,0.133262,0.83694,0.2618
1698343990351562,-9.413266,2.26918,-2.166284,0.134662,0.88694,0.818
1698343990359375,-9.417266,2.25118,-2.175284,0.131762,0.98594,0.2482
1698343990367187,-9.420266,2.24818,-2.178284,0.140462,0.92094,0.882
1698343990375000,-9.430266,2.24518,-2.175284,0.136062,0.91694,0.8682
1698343990382812,-9.434266,2.22618,-2.175284,0.121262,0.91794,0.5282
1698343990390625,-9.442266,2.23118,-2.166284,0.123662,0.86894,0.10082
1698343990398437,-9.426266,2.22418,-2.178284,0.118962,0.89994,0.19582
1698343990406250,-9.419266,2.23118,-2.171284,0.116162,0.99894,0.22782
1698343990414062,-9.406266,2.23518,-2.152284,0.121262,0.97594,0.24182
1698343990421875,-9.393266,2.23418,-2.143284,0.116362,0.97994,0.22682
1698343990429687,-9.380266,2.25618,-2.157284,0.111762,0.96094,0.30482
1698343990437500,-9.376266,2.28518,-2.148284,0.107162,0.92794,0.30382
1698343990445312,-9.383266,2.31618,-2.134284,0.114862,0.87694,0.27082
1698343990453125,-9.384266,2.33318,-2.123284,0.100662,0.96694,0.28982
1698343990460937,-9.367266,2.34118,-2.118284,0.111862,0.94094,0.33482
1698343990468750,-9.368266,2.35118,-2.105284,0.112862,0.86094,0.31882
1698343990476562,-9.361266,2.35318,-2.102284,0.116062,0.84194,0.33382
1698343990484375,-9.365266,2.35718,-2.111284,0.116362,0.78694,0.36282
1698343990492187,-9.356266,2.34718,-2.116284,0.114762,0.69094,0.28282
1698343990500000,-9.359266,2.34918,-2.130284,0.116062,0.69194,0.29982
1698343990507812,-9.363266,2.36518,-2.143284,0.111562,0.64094,0.29782
1698343990515625,-9.404266,2.38818,-2.132284,0.113262,0.59294,0.20182
1698343990523437,-9.411266,2.37418,-2.130284,0.111362,0.61394,0.18782
1698343990531250,-9.388266,2.36118,-2.141284,0.108762,0.60194,0.4582
1698343990539062,-9.370266,2.34318,-2.139284,0.113562,0.66894,0.0
1698343990546875,-9.397266,2.32918,-2.141284,0.107262,0.57094,0.218
1698343990554687,-9.406266,2.33718,-2.153284,0.108962,0.55394,0.3418
1698343990562500,-9.410266,2.32318,-2.167284,0.106562,0.65894,0.3282
1698343990570312,-9.386266,2.32218,-2.155284,0.110062,0.74194,0.1318
1698343990578125,-9.381266,2.30218,-2.141284,0.93162,0.68994,0.9482
1698343990585937,-9.358266,2.30818,-2.139284,0.91862,0.68994,0.6282
1698343990593750,-9.315266,2.29318,-2.127284,0.92062,0.67194,0.6182
1698343990601562,-9.287266,2.26818,-2.127284,0.105662,0.54894,0.10682
1698343990609375,-9.334266,2.26918,-2.139284,0.98162,0.36494,0.8582
1698343990617187,-9.368266,2.27218,-2.196284,0.94962,0.19694,0.9782
1698343990625000,-9.403266,2.28318,-2.250284,0.107262,0.24594,0.6882
1698343990632812,-9.432266,2.27918,-2.298284,0.96262,0.18194,0.9882
1698343990640625,-9.439266,2.27918,-2.346284,0.90262,0.28594,0.5282
1698343990648437,-9.427266,2.27318,-2.360284,0.92162,0.53594,0.7382
1698343990656250,-9.409266,2.26618,-2.353284,0.92162,0.56894,0.8982
1698343990664062,-9.403266,2.28318,-2.332284,0.88862,0.56994,0.12182
1698343990671875,-9.415266,2.29418,-2.326284,0.84062,0.57294,0.9082
1698343990679687,-9.428266,2.29718,-2.346284,0.90262,0.52094,0.7482
1698343990687500,-9.435266,2.29218,-2.383284,0.91762,0.60294,0.13882
1698343990695312,-9.428266,2.28618,-2.389284,0.87462,0.65694,0.4482
1698343990703125,-9.438266,2.29718,-2.371284,0.87262,0.74094,0.9482
1698343990710937,-9.408266,2.28718,-2.355284,0.91862,0.90794,0.9882
1698343990718750,-9.381266,2.29118,-2.317284,0.90562,0.96094,0.3682
1698343990726562,-9.375266,2.31918,-2.299284,0.88562,0.94794,0.2182
1698343990734375,-9.366266,2.32918,-2.276284,0.90562,0.94694,0.2618
1698343990742187,-9.361266,2.33118,-2.246284,0.102762,0.85894,0.1118
1698343990750000,-9.335266,2.29318,-2.232284,0.105962,0.72394,0.6218
1698343990757812,-9.340266,2.26818,-2.232284,0.105862,0.77794,0.10718
1698343990765625,-9.347266,2.24618,-2.248284,0.102562,0.71194,0.7718
1698343990773437,-9.353266,2.22218,-2.264284,0.115062,0.57494,0.14318
1698343990781250,-9.359266,2.19318,-2.291284,0.95262,0.64594,0.14318
1698343990789062,-9.404266,2.19018,-2.316284,0.105962,0.59094,0.9618
1698343990796875,-9.418266,2.19118,-2.344284,0.98162,0.64394,0.7918
1698343990804687,-9.381266,2.18518,-2.330284,0.90762,0.76094,0.4618
1698343990812500,-9.358266,2.16018,-2.323284,0.95462,0.75794,0.3118
1698343990820312,-9.372266,2.15618,-2.318284,0.89162,0.72594,0.0
1698343990828125,-9.386266,2.17818,-2.307284,0.89162,0.69294,0.3218
1698343990835937,-9.395266,2.17618,-2.332284,0.83062,0.62694,0.3418
1698343990843750,-9.400266,2.16818,-2.337284,0.74862,0.68294,0.1618
1698343990851562,-9.397266,2.15618,-2.348284,0.69062,0.68094,0.218
1698343990859375,-9.400266,2.15718,-2.353284,0.65862,0.65094,0.3318
1698343990867187,-9.405266,2.18218,-2.355284,0.67262,0.75094,0.1518
1698343990875000,-9.417266,2.19118,-2.360284,0.67262,0.69994,0.1482
1698343990882812,-9.412266,2.19318,-2.353284,0.67262,0.71394,0.6182
1698343990890625,-9.407266,2.20018,-2.346284,0.67562,0.74694,0.3082
1698343990898437,-9.398266,2.19318,-2.373284,0.65662,0.68294,0.3082
1698343990906250,-9.414266,2.21818,-2.382284,0.67562,0.77994,0.4682
1698343990914062,-9.408266,2.23118,-2.394284,0.76362,0.91594,0.5182
1698343990921875,-9.413266,2.25018,-2.385284,0.76162,0.96694,0.6982
1698343990929687,-9.422266,2.27118,-2.360284,0.79362,0.98094,0.8482
1698343990937500,-9.422266,2.29818,-2.355284,0.91762,0.89194,0.9882
1698343990945312,-9.416266,2.31818,-2.330284,0.90062,0.94394,0.11582
1698343990953125,-9.420266,2.32518,-2.319284,0.104362,0.105594,0.8682
1698343990960937,-9.386266,2.33418,-2.296284,0.108962,0.102494,0.782
1698343990968750,-9.367266,2.32318,-2.280284,0.116762,0.100694,0.2418
1698343990976562,-9.361266,2.31318,-2.262284,0.122462,0.87294,0.1018
1698343990984375,-9.360266,2.27118,-2.273284,0.136462,0.81794,0.2718
1698343990992187,-9.369266,2.23918,-2.275284,0.139062,0.66594,0.1882
1698343991000000,-9.378266,2.23318,-2.310284,0.142262,0.69794,0.1882
1698343991007812,-9.398266,2.22718,-2.323284,0.142362,0.71494,0.282
1698343991015625,-9.416266,2.22318,-2.335284,0.136162,0.68294,0.1782
1698343991023437,-9.409266,2.20718,-2.332284,0.139362,0.89794,0.6982
1698343991031250,-9.384266,2.20218,-2.314284,0.131662,0.93494,0.5482
1698343991039062,-9.368266,2.19118,-2.307284,0.126962,0.91794,0.8582
1698343991046875,-9.367266,2.19018,-2.300284,0.116762,0.98194,0.13182
1698343991054687,-9.366266,2.19718,-2.305284,0.114762,0.90294,0.9982
1698343991062500,-9.377266,2.20918,-2.309284,0.116462,0.76694,0.8082
1698343991070312,-9.396266,2.21118,-2.323284,0.108562,0.80394,0.9782
1698343991078125,-9.399266,2.24018,-2.321284,0.96262,0.89094,0.11482
1698343991085937,-9.401266,2.26518,-2.316284,0.94962,0.97394,0.10082
1698343991093750,-9.388266,2.28918,-2.296284,0.90362,0.96094,0.6882
1698343991101562,-9.370266,2.31318,-2.289284,0.90462,0.97694,0.5282
1698343991109375,-9.361266,2.32518,-2.255284,0.98362,0.92494,0.1982
1698343991117187,-9.371266,2.33318,-2.271284,0.102462,0.84494,0.1118
1698343991125000,-9.373266,2.35518,-2.289284,0.110062,0.82394,0.1982
1698343991132812,-9.361266,2.33518,-2.285284,0.113362,0.89294,0.4118
1698343991140625,-9.368266,2.32218,-2.276284,0.116362,0.92794,0.7118
1698343991148437,-9.397266,2.34318,-2.294284,0.118362,0.78794,0.6018
1698343991156250,-9.420266,2.35018,-2.287284,0.116862,0.87194,0.4318
1698343991164062,-9.395266,2.33418,-2.280284,0.139662,0.104094,0.13118
1698343991171875,-9.368266,2.29418,-2.251284,0.139262,0.94594,0.19418
1698343991179687,-9.386266,2.29718,-2.264284,0.148162,0.67294,0.15318
1698343991187500,-9.411266,2.29218,-2.274284,0.161962,0.73894,0.18118
1698343991195312,-9.413266,2.28018,-2.294284,0.165262,0.78594,0.16518
1698343991203125,-9.395266,2.26818,-2.280284,0.163462,0.90694,0.16218
1698343991210937,-9.375266,2.25018,-2.253284,0.157462,0.95894,0.17718
1698343991218750,-9.347266,2.24718,-2.241284,0.163462,0.91994,0.8318
1698343991226562,-9.306266,2.22918,-2.205284,0.163662,0.93294,0.3718
1698343991234375,-9.299266,2.21418,-2.198284,0.162062,0.78294,0.5618
1698343991242187,-9.328266,2.20318,-2.205284,0.152862,0.61694,0.7618
1698343991250000,-9.368266,2.19918,-2.251284,0.148762,0.42094,0.4618
1698343991257812,-9.405266,2.19318,-2.298284,0.141862,0.41794,0.6418
1698343991265625,-9.435266,2.18918,-2.339284,0.135962,0.52194,0.12518
1698343991273437,-9.440266,2.18418,-2.380284,0.132862,0.57694,0.17118
1698343991281250,-9.435266,2.17518,-2.380284,0.120662,0.60994,0.10918
1698343991289062,-9.438266,2.18818,-2.383284,0.115762,0.67694,0.4418
1698343991296875,-9.442266,2.21518,-2.376284,0.105362,0.76694,0.13718
1698343991304687,-9.427266,2.24618,-2.360284,0.105562,0.88494,0.15118
1698343991312500,-9.416266,2.28018,-2.353284,0.96462,0.96894,0.11818
1698343991320312,-9.418266,2.30918,-2.328284,0.88962,0.100494,0.14918
1698343991328125,-9.405266,2.32218,-2.315284,0.107162,0.109894,0.5218
1698343991335937,-9.394266,2.33918,-2.280284,0.117962,0.114894,0.11318
1698343991343750,-9.370266,2.33518,-2.251284,0.115162,0.109694,0.10018
1698343991351562,-9.369266,2.33918,-2.214284,0.119462,0.114694,0.8218
1698343991359375,-9.366266,2.33218,-2.212284,0.136262,0.100994,0.11518
1698343991367187,-9.364266,2.33018,-2.203284,0.143962,0.101294,0.20818
1698343991375000,-9.369266,2.28718,-2.212284,0.155862,0.84394,0.22618
1698343991382812,-9.374266,2.26818,-2.212284,0.154662,0.77194,0.18218
1698343991390625,-9.397266,2.23718,-2.235284,0.158962,0.70594,0.19818
1698343991398437,-9.403266,2.19418,-2.255284,0.164862,0.63694,0.16818
1698343991406250,-9.424266,2.17518,-2.273284,0.160362,0.73894,0.16618
1698343991414062,-9.439266,2.17818,-2.294284,0.143862,0.73894,0.12118
1698343991421875,-9.432266,2.17518,-2.273284,0.139362,0.89094,0.13318
1698343991429687,-9.398266,2.15518,-2.248284,0.140662,0.100494,0.2018
1698343991437500,-9.359266,2.15218,-2.212284,0.137562,0.98894,0.518
1698343991445312,-9.383266,2.18518,-2.200284,0.123662,0.89094,0.782
1698343991453125,-9.390266,2.22118,-2.194284,0.114562,0.87694,0.2518
1698343991460937,-9.388266,2.22518,-2.198284,0.116062,0.92694,0.818
1698343991468750,-9.372266,2.21118,-2.198284,0.117362,0.84294,0.682
1698343991476562,-9.385266,2.22318,-2.203284,0.114562,0.74094,0.1218
1698343991484375,-9.399266,2.25218,-2.221284,0.115862,0.70694,0.1882
1698343991492187,-9.392266,2.24818,-2.223284,0.114462,0.68994,0.182
1698343991500000,-9.379266,2.24118,-2.221284,0.115962,0.71094,0.7518
1698343991507812,-9.379266,2.23918,-2.221284,0.116162,0.80894,0.2618
1698343991515625,-9.401266,2.24418,-2.237284,0.114762,0.72394,0.4518
1698343991523437,-9.418266,2.24118,-2.264284,0.109962,0.71394,0.10718
1698343991531250,-9.417266,2.24418,-2.296284,0.114762,0.78094,0.15218
1698343991539062,-9.422266,2.23518,-2.307284,0.116162,0.74294,0.7518
1698343991546875,-9.423266,2.22918,-2.298284,0.116562,0.72794,0.15518
1698343991554687,-9.420266,2.24118,-2.291284,0.117162,0.86294,0.24718
1698343991562500,-9.424266,2.23118,-2.287284,0.116462,0.88394,0.21318
1698343991570312,-9.422266,2.21918,-2.287284,0.116362,0.84994,0.19818
1698343991578125,-9.427266,2.20818,-2.284284,0.117062,0.84694,0.24718
1698343991585937,-9.430266,2.18218,-2.282284,0.116762,0.93194,0.19718
1698343991593750,-9.424266,2.17618,-2.284284,0.116962,0.97694,0.13418
1698343991601562,-9.421266,2.17118,-2.280284,0.116462,0.96594,0.18018
1698343991609375,-9.404266,2.16918,-2.255284,0.115162,0.98094,0.14918
1698343991617187,-9.386266,2.15518,-2.239284,0.116662,0.97794,0.10218
1698343991625000,-9.380266,2.17418,-2.225284,0.114762,0.96094,0.3918
1698343991632812,-9.402266,2.18218,-2.214284,0.126962,0.86994,0.3782
1698343991640625,-9.409266,2.18218,-2.237284,0.130162,0.81694,0.5182
1698343991648437,-9.412266,2.17518,-2.264284,0.123762,0.80294,0.6782
1698343991656250,-9.409266,2.17318,-2.287284,0.123762,0.68394,0.6482
1698343991664062,-9.394266,2.17918,-2.307284,0.116062,0.83594,0.11482
1698343991671875,-9.398266,2.19818,-2.284284,0.114862,0.93494,0.11582
1698343991679687,-9.389266,2.20118,-2.255284,0.114262,0.93494,0.21182
1698343991687500,-9.378266,2.21918,-2.235284,0.115962,0.92094,0.11782
1698343991695312,-9.381266,2.21218,-2.237284,0.114062,0.80294,0.17882
1698343991703125,-9.396266,2.21318,-2.248284,0.119062,0.78494,0.11482
1698343991710937,-9.414266,2.22918,-2.271284,0.111662,0.73594,0.9682
1698343991718750,-9.410266,2.22418,-2.301284,0.105562,0.87294,0.6782
1698343991726562,-9.396266,2.22618,-2.289284,0.105562,0.104194,0.7182
1698343991734375,-9.395266,2.22518,-2.275284,0.92262,0.97694,0.2082
1698343991742187,-9.400266,2.23018,-2.275284,0.96862,0.79094,0.82
1698343991750000,-9.402266,2.24118,-2.275284,0.95362,0.67394,0.3318
1698343991757812,-9.394266,2.24218,-2.285284,0.101262,0.89394,0.2718
1698343991765625,-9.393266,2.22718,-2.282284,0.112062,0.88794,0.2082
1698343991773437,-9.418266,2.24618,-2.287284,0.101462,0.77194,0.1682
1698343991781250,-9.437266,2.25518,-2.284284,0.104462,0.77494,0.6118
1698343991789062,-9.425266,2.25418,-2.287284,0.101562,0.94494,0.7318
1698343991796875,-9.391266,2.24718,-2.271284,0.112462,0.95994,0.10418
1698343991804687,-9.397266,2.24818,-2.248284,0.105762,0.92994,0.8818
1698343991812500,-9.403266,2.24618,-2.237284,0.110362,0.94694,0.10318
1698343991820312,-9.391266,2.24718,-2.246284,0.116762,0.92594,0.8818
1698343991828125,-9.404266,2.25318,-2.271284,0.114762,0.96094,0.2318
1698343991835937,-9.383266,2.26218,-2.255284,0.116262,0.92494,0.818
1698343991843750,-9.358266,2.24318,-2.221284,0.116262,0.95794,0.2382
1698343991851562,-9.352266,2.25118,-2.205284,0.114462,0.94394,0.882
1698343991859375,-9.342266,2.23418,-2.182284,0.117762,0.89094,0.682
1698343991867187,-9.326266,2.21618,-2.175284,0.130062,0.71994,0.2818
1698343991875000,-9.339266,2.19218,-2.198284,0.116162,0.67194,0.182
1698343991882812,-9.387266,2.18418,-2.250284,0.114562,0.45494,0.3418
1698343991890625,-9.437266,2.19618,-2.300284,0.114662,0.50594,0.4918
1698343991898437,-9.468266,2.18918,-2.344284,0.110162,0.45994,0.12918
1698343991906250,-9.456266,2.14218,-2.366284,0.105662,0.61394,0.17318
1698343991914062,-9.449266,2.13018,-2.396284,0.98362,0.68094,0.17318
1698343991921875,-9.441266,2.15618,-2.380284,0.81462,0.71994,0.18818
1698343991929687,-9.442266,2.15718,-2.366284,0.91062,0.78194,0.18818
1698343991937500,-9.447266,2.17018,-2.375284,0.81962,0.88794,0.23318
1698343991945312,-9.442266,2.18418,-2.362284,0.76062,0.93894,0.23318
1698343991953125,-9.434266,2.19918,-2.355284,0.80262,0.98694,0.16818
1698343991960937,-9.430266,2.21618,-2.346284,0.75762,0.114094,0.18018
1698343991968750,-9.401266,2.22218,-2.319284,0.83262,0.122194,0.13018
1698343991976562,-9.380266,2.23818,-2.278284,0.92662,0.126894,0.13018
1698343991984375,-9.379266,2.25318,-2.225284,0.93762,0.116894,0.9918
1698343991992187,-9.381266,2.25118,-2.212284,0.105962,0.113094,0.6818
1698343992000000,-9.367266,2.23218,-2.210284,0.113362,0.109994,0.13018
1698343992007812,-9.362266,2.21418,-2.196284,0.115062,0.101494,0.14818
1698343992015625,-9.364266,2.17518,-2.202284,0.118162,0.94694,0.16518
1698343992023437,-9.397266,2.13818,-2.209284,0.118362,0.77494,0.13918
1698343992031250,-9.438266,2.14318,-2.262284,0.116662,0.69494,0.18718
1698343992039062,-9.449266,2.14018,-2.291284,0.115062,0.86294,0.15218
1698343992046875,-9.457266,2.13318,-2.282284,0.116262,0.98294,0.14818
1698343992054687,-9.440266,2.11818,-2.280284,0.114862,0.92894,0.8718
1698343992062500,-9.389266,2.10718,-2.228284,0.108662,0.111794,0.9818
1698343992070312,-9.372266,2.11418,-2.209284,0.96562,0.98094,0.4018
1698343992078125,-9.402266,2.12318,-2.214284,0.93162,0.79694,0.1218
1698343992085937,-9.422266,2.14018,-2.218284,0.91962,0.89594,0.1118
1698343992093750,-9.427266,2.14918,-2.264284,0.91762,0.77694,0.3382
1698343992101562,-9.423266,2.16918,-2.257284,0.87162,0.91194,0.5182
1698343992109375,-9.402266,2.20718,-2.246284,0.76962,0.101394,0.2082
1698343992117187,-9.389266,2.23618,-2.214284,0.75462,0.96494,0.382
1698343992125000,-9.396266,2.25318,-2.178284,0.78362,0.94994,0.2718
1698343992132812,-9.407266,2.27918,-2.175284,0.89262,0.74194,0.1618
1698343992140625,-9.410266,2.30318,-2.203284,0.96562,0.70994,0.3118
1698343992148437,-9.430266,2.29918,-2.232284,0.113462,0.67094,0.1518
1698343992156250,-9.442266,2.28318,-2.275284,0.116562,0.70694,0.7718
1698343992164062,-9.442266,2.26518,-2.296284,0.116362,0.69094,0.6118
1698343992171875,-9.439266,2.25318,-2.305284,0.116962,0.89294,0.13718
1698343992179687,-9.429266,2.25118,-2.285284,0.116462,0.98394,0.17918
1698343992187500,-9.426266,2.26718,-2.250284,0.115262,0.102994,0.14818
1698343992195312,-9.417266,2.25318,-2.210284,0.116562,0.104794,0.13218
1698343992203125,-9.406266,2.25318,-2.191284,0.114962,0.96394,0.13418
1698343992210937,-9.394266,2.22818,-2.180284,0.133262,0.97894,0.17918
1698343992218750,-9.385266,2.21018,-2.168284,0.139362,0.90994,0.16418
1698343992226562,-9.388266,2.21218,-2.169284,0.125562,0.91494,0.18018
1698343992234375,-9.408266,2.21018,-2.173284,0.125562,0.86294,0.16618
1698343992242187,-9.396266,2.21318,-2.155284,0.133262,0.79394,0.18318
1698343992250000,-9.372266,2.19118,-2.143284,0.130862,0.91094,0.24518
1698343992257812,-9.395266,2.18418,-2.136284,0.124362,0.74394,0.20118
1698343992265625,-9.425266,2.19118,-2.148284,0.125562,0.67394,0.12418
1698343992273437,-9.434266,2.18918,-2.157284,0.130462,0.69094,0.17118
1698343992281250,-9.432266,2.17718,-2.203284,0.122462,0.65994,0.15518
1698343992289062,-9.425266,2.14618,-2.216284,0.128762,0.70994,0.18618
1698343992296875,-9.420266,2.13518,-2.232284,0.121062,0.57694,0.18918
1698343992304687,-9.433266,2.14218,-2.246284,0.127262,0.60794,0.17218
1698343992312500,-9.433266,2.14118,-2.248284,0.121462,0.60894,0.20518
1698343992320312,-9.433266,2.12918,-2.259284,0.116762,0.71094,0.18718
1698343992328125,-9.435266,2.11618,-2.264284,0.116762,0.69394,0.17218
1698343992335937,-9.447266,2.12318,-2.280284,0.115162,0.72794,0.17118
1698343992343750,-9.446266,2.14318,-2.280284,0.113962,0.80994,0.15418
1698343992351562,-9.440266,2.14118,-2.261284,0.115462,0.92894,0.18318
1698343992359375,-9.405266,2.13218,-2.243284,0.107962,0.97994,0.16718
1698343992367187,-9.388266,2.12618,-2.207284,0.112162,0.91294,0.13518
1698343992375000,-9.401266,2.13818,-2.198284,0.112162,0.70794,0.9318
1698343992382812,-9.426266,2.14318,-2.209284,0.116662,0.73794,0.3018
1698343992390625,-9.412266,2.12718,-2.220284,0.116762,0.67394,0.11018
1698343992398437,-9.399266,2.11118,-2.232284,0.119862,0.69294,0.18718
1698343992406250,-9.429266,2.10818,-2.250284,0.114662,0.68194,0.18618
1698343992414062,-9.468266,2.11718,-2.255284,0.116162,0.66494,0.18618
1698343992421875,-9.461266,2.11318,-2.275284,0.114862,0.66694,0.24918
1698343992429687,-9.433266,2.7718,-2.257284,0.120962,0.74794,0.21618
1698343992437500,-9.438266,2.4518,-2.253284,0.117862,0.71894,0.29518
1698343992445312,-9.459266,2.5618,-2.273284,0.115062,0.67794,0.17218
1698343992453125,-9.469266,2.6718,-2.287284,0.116462,0.71294,0.17018
1698343992460937,-9.455266,2.8518,-2.280284,0.116762,0.80894,0.12218
1698343992468750,-9.450266,2.7618,-2.252284,0.116762,0.84194,0.10618
1698343992476562,-9.435266,2.9818,-2.236284,0.115162,0.95894,0.5618
1698343992484375,-9.390266,2.12118,-2.202284,0.116462,0.99194,0.718
1698343992492187,-9.331266,2.11218,-2.159284,0.122462,0.98894,0.2382
1698343992500000,-9.327266,2.9318,-2.136284,0.128462,0.78894,0.2618
1698343992507812,-9.364266,2.10018,-2.175284,0.121162,0.51394,0.4382
1698343992515625,-9.417266,2.10718,-2.218284,0.128462,0.41494,0.418
1698343992523437,-9.464266,2.10118,-2.284284,0.137562,0.36194,0.1082
1698343992531250,-9.473266,2.8318,-2.330284,0.126962,0.49794,0.4482
1698343992539062,-9.469266,2.4918,-2.350284,0.119262,0.58694,0.1618
1698343992546875,-9.462266,2.4618,-2.334284,0.116062,0.70694,0.1318
1698343992554687,-9.453266,2.4418,-2.328284,0.114462,0.68994,0.182
1698343992562500,-9.461266,2.4318,-2.325284,0.116562,0.70394,0.3018
1698343992570312,-9.462266,2.5218,-2.348284,0.99662,0.79294,0.1318
1698343992578125,-9.466266,2.7718,-2.359284,0.93862,0.84394,0.2918
1698343992585937,-9.463266,2.10318,-2.348284,0.92062,0.96294,0.1018
1698343992593750,-9.442266,2.12718,-2.321284,0.90562,0.106494,0.2318
1698343992601562,-9.429266,2.16518,-2.287284,0.92162,0.112794,0.5582
1698343992609375,-9.412266,2.18618,-2.244284,0.93562,0.114794,0.1082
1698343992617187,-9.398266,2.21118,-2.191284,0.110362,0.110994,0.982
1698343992625000,-9.394266,2.19418,-2.173284,0.116162,0.104194,0.2582
1698343992632812,-9.391266,2.18818,-2.171284,0.133062,0.91994,0.2382
1698343992640625,-9.416266,2.16418,-2.193284,0.137462,0.76894,0.582
1698343992648437,-9.416266,2.12618,-2.214284,0.140462,0.73494,0.482
1698343992656250,-9.426266,2.8718,-2.223284,0.150062,0.71494,0.2718
1698343992664062,-9.463266,2.7718,-2.248284,0.143162,0.70394,0.1018
1698343992671875,-9.472266,2.10318,-2.275284,0.140662,0.71794,0.2718
1698343992679687,-9.463266,2.9718,-2.282284,0.140462,0.82094,0.2418
1698343992687500,-9.415266,2.5918,-2.259284,0.139062,0.103994,0.418
1698343992695312,-9.375266,2.4818,-2.245284,0.140862,0.94794,0.7082
1698343992703125,-9.383266,2.4318,-2.218284,0.121962,0.93494,0.16482
1698343992710937,-9.396266,2.6118,-2.234284,0.114462,0.78194,0.19182
1698343992718750,-9.410266,2.10918,-2.264284,0.111562,0.73194,0.17482
1698343992726562,-9.431266,2.13618,-2.261284,0.99462,0.76494,0.22082
1698343992734375,-9.431266,2.14218,-2.237284,0.99362,0.81894,0.17582
1698343992742187,-9.433266,2.16318,-2.227284,0.110462,0.73394,0.9482
1698343992750000,-9.423266,2.17718,-2.255284,0.96062,0.69094,0.7982
1698343992757812,-9.407266,2.18018,-2.266284,0.103962,0.68894,0.6382
1698343992765625,-9.403266,2.18818,-2.275284,0.108362,0.73794,0.8082
1698343992773437,-9.430266,2.18418,-2.282284,0.111362,0.67294,0.3282
1698343992781250,-9.437266,2.18218,-2.307284,0.114362,0.68994,0.3382
1698343992789062,-9.424266,2.17718,-2.328284,0.118762,0.67394,0.1882
1698343992796875,-9.434266,2.16518,-2.348284,0.114762,0.68994,0.3018
1698343992804687,-9.470266,2.17918,-2.355284,0.107062,0.68994,0.1682
1698343992812500,-9.472266,2.18118,-2.357284,0.118162,0.90694,0.4118
1698343992820312,-9.452266,2.17218,-2.337284,0.113462,0.102494,0.882
1698343992828125,-9.441266,2.16018,-2.314284,0.111962,0.107994,0.6818
1698343992835937,-9.435266,2.16318,-2.287284,0.113962,0.106194,0.13318
1698343992843750,-9.420266,2.14718,-2.243284,0.115262,0.111394,0.13118
1698343992851562,-9.421266,2.12718,-2.230284,0.120062,0.102794,0.14918
1698343992859375,-9.415266,2.10618,-2.230284,0.113762,0.99794,0.18118
1698343992867187,-9.406266,2.7718,-2.232284,0.122762,0.89894,0.22918
1698343992875000,-9.417266,2.5518,-2.241284,0.133362,0.92794,0.18018
1698343992882812,-9.421266,2.5218,-2.271284,0.120962,0.82894,0.15118
1698343992890625,-9.421266,2.6718,-2.273284,0.118362,0.89394,0.13618
1698343992898437,-9.419266,2.5718,-2.245284,0.115062,0.94594,0.13418
1698343992906250,-9.428266,2.4618,-2.234284,0.116262,0.89394,0.5618
1698343992914062,-9.435266,2.6018,-2.239284,0.116462,0.87394,0.2618
1698343992921875,-9.436266,2.7218,-2.273284,0.115262,0.85294,0.1882
1698343992929687,-9.432266,2.7118,-2.277284,0.116462,0.93894,0.2282
1698343992937500,-9.428266,2.6518,-2.277284,0.111962,0.95594,0.3782
1698343992945312,-9.433266,2.8918,-2.273284,0.107162,0.97294,0.8582
1698343992953125,-9.465266,2.12118,-2.266284,0.95262,0.99294,0.3782
1698343992960937,-9.460266,2.14618,-2.252284,0.93962,0.105994,0.682
1698343992968750,-9.442266,2.16518,-2.241284,0.98462,0.114694,0.5318
1698343992976562,-9.434266,2.17418,-2.207284,0.93962,0.110194,0.13318
1698343992984375,-9.436266,2.17718,-2.189284,0.104462,0.105094,0.16418
1698343992992187,-9.438266,2.16718,-2.196284,0.110862,0.100094,0.24418
1698343993000000,-9.433266,2.14518,-2.195284,0.112462,0.87994,0.20018
1698343993007812,-9.453266,2.12018,-2.218284,0.116762,0.89594,0.16718
1698343993015625,-9.466266,2.10318,-2.243284,0.115462,0.90994,0.13618
1698343993023437,-9.468266,2.7218,-2.257284,0.116962,0.102794,0.13318
1698343993031250,-9.447266,2.4818,-2.247284,0.115762,0.107294,0.5518
1698343993039062,-9.459266,2.4518,-2.245284,0.116662,0.110794,0.618
1698343993046875,-9.482266,2.8118,-2.216284,0.108962,0.100694,0.3882
1698343993054687,-9.484266,2.10918,-2.209284,0.111562,0.111094,0.2682
1698343993062500,-9.442266,2.10518,-2.177284,0.113762,0.115994,0.2018
1698343993070312,-9.428266,2.10018,-2.157284,0.118062,0.117294,0.5882
1698343993078125,-9.431266,2.12618,-2.164284,0.117762,0.107294,0.8882
1698343993085937,-9.435266,2.14918,-2.141284,0.125762,0.106894,0.7182
1698343993093750,-9.424266,2.15418,-2.134284,0.135062,0.111594,0.8882
1698343993101562,-9.411266,2.14918,-2.132284,0.140562,0.99494,0.19782
1698343993109375,-9.407266,2.16418,-2.116284,0.135962,0.96694,0.11982
1698343993117187,-9.393266,2.14318,-2.105284,0.140462,0.93094,0.15082
1698343993125000,-9.396266,2.10918,-2.91284,0.137862,0.91294,0.10082
1698343993132812,-9.396266,2.8118,-2.111284,0.138862,0.72494,0.22382
1698343993140625,-9.411266,2.6718,-2.155284,0.118862,0.65294,0.8082
1698343993148437,-9.444266,2.6618,-2.179284,0.113062,0.61894,0.7882
1698343993156250,-9.468266,2.4918,-2.200284,0.104162,0.63794,0.3082
1698343993164062,-9.470266,2.7218,-2.214284,0.90662,0.74194,0.0
1698343993171875,-9.474266,2.11618,-2.207284,0.69162,0.91594,0.1882
1698343993179687,-9.465266,2.16718,-2.171284,0.67862,0.98594,0.5818
1698343993187500,-9.434266,2.18218,-2.125284,0.75562,0.105594,0.15018
1698343993195312,-9.423266,2.16118,-2.93284,0.82662,0.90594,0.13618
1698343993203125,-9.436266,2.12118,-2.121284,0.87262,0.58794,0.22118
1698343993210937,-9.468266,2.15118,-2.180284,0.85862,0.63994,0.25218
1698343993218750,-9.496266,2.16818,-2.226284,0.96062,0.73594,0.13818
1698343993226562,-9.491266,2.16218,-2.210284,0.102462,0.87094,0.19818
1698343993234375,-9.479266,2.14418,-2.171284,0.110262,0.101794,0.16318
1698343993242187,-9.462266,2.14618,-2.121284,0.116362,0.95294,0.22718
1698343993250000,-9.455266,2.18418,-2.109284,0.118062,0.101594,0.16318
1698343993257812,-9.450266,2.20018,-2.77284,0.131762,0.100994,0.11618
1698343993265625,-9.428266,2.23118,-2.87284,0.145562,0.105994,0.16118
1698343993273437,-9.369266,2.28718,-2.52284,0.151962,0.103394,0.5218
1698343993281250,-9.332266,2.31618,-1.970284,0.179162,0.106594,0.9618
1698343993289062,-9.328266,2.29518,-1.896284,0.189262,0.79994,0.14618
1698343993296875,-9.380266,2.32518,-1.909284,0.207562,0.52594,0.15218
1698343993304687,-9.407266,2.48318,-1.992284,0.233162,0.48894,0.15018
1698343993312500,-9.355266,2.73418,-2.10284,0.241662,0.77194,0.22418
1698343993320312,-9.224266,2.94618,-1.860284,0.269462,0.120394,0.24418
1698343993328125,-9.37266,3.3518,-1.546284,0.326462,0.126194,0.36618
1698343993335937,-8.932266,2.94218,-1.259284,0.423162,0.44194,0.48618
1698343993343750,-8.927266,2.71218,-1.211284,0.529362,0.98506,0.71318
1698343993351562,-9.37266,2.45818,-1.536284,0.624862,0.249706,0.88118
1698343993359375,-9.244266,2.16118,-2.59284,0.677862,0.361606,0.98018
1698343993367187,-9.473266,1.80418,-2.598284,0.682062,0.385806,0.84418
1698343993375000,-9.692266,1.45818,-3.284,0.635162,0.322806,0.80218
1698343993382812,-9.827266,1.21818,-3.166284,0.538062,0.222106,0.63018
1698343993390625,-9.892266,1.16618,-3.148284,0.419662,0.121006,0.50718
1698343993398437,-9.899266,1.21918,-3.16284,0.297962,0.28206,0.32218
1698343993406250,-9.875266,1.29618,-2.815284,0.221862,0.33694,0.23518
1698343993414062,-9.810266,1.34018,-2.677284,0.155062,0.80194,0.16718
1698343993421875,-9.707266,1.35918,-2.597284,0.108862,0.106694,0.14718
1698343993429687,-9.665266,1.39418,-2.595284,0.57062,0.117994,0.14818
1698343993437500,-9.645266,1.50418,-2.618284,0.12838,0.145494,0.2482
1698343993445312,-9.566266,1.65218,-2.573284,0.79938,0.189094,0.3082
1698343993453125,-9.485266,1.79218,-2.436284,0.128338,0.236594,0.14682
1698343993460937,-9.422266,1.94618,-2.254284,0.154438,0.257194,0.21282
1698343993468750,-9.359266,2.10918,-2.95284,0.177438,0.251194,0.19482
1698343993476562,-9.295266,2.29618,-1.993284,0.168138,0.226894,0.25182
1698343993484375,-9.242266,2.38118,-1.941284,0.130438,0.206594,0.15682
1698343993492187,-9.197266,2.40118,-1.916284,0.95538,0.170594,0.11982
1698343993500000,-9.213266,2.42418,-1.948284,0.61838,0.124694,0.3282
1698343993507812,-9.263266,2.44718,-2.23284,0.33138,0.80394,0.618
1698343993515625,-9.297266,2.44318,-2.91284,0.4338,0.63094,0.2318
1698343993523437,-9.315266,2.40518,-2.126284,0.33762,0.59494,0.13018
1698343993531250,-9.368266,2.36618,-2.169284,0.48362,0.43294,0.22518
1698343993539062,-9.432266,2.33518,-2.203284,0.73462,0.35894,0.32118
1698343993546875,-9.438266,2.28218,-2.248284,0.88762,0.32394,0.36818
1698343993554687,-9.410266,2.19518,-2.291284,0.112062,0.38594,0.39818
1698343993562500,-9.432266,2.11918,-2.328284,0.116262,0.29894,0.32018
1698343993570312,-9.469266,2.8718,-2.378284,0.116562,0.27994,0.32118
1698343993578125,-9.474266,2.3518,-2.403284,0.114662,0.46694,0.28518
1698343993585937,-9.462266,2.318,-2.423284,0.117562,0.59894,0.20318
1698343993593750,-9.494266,1.98618,-2.430284,0.103962,0.70194,0.20218
1698343993601562,-9.484266,2.1618,-2.400284,0.88762,0.78294,0.7618
1698343993609375,-9.454266,2.5418,-2.360284,0.91462,0.100294,0.3818
1698343993617187,-9.411266,2.9018,-2.305284,0.91862,0.113394,0.2118
1698343993625000,-9.413266,2.13518,-2.237284,0.90262,0.102994,0.5482
1698343993632812,-9.408266,2.18318,-2.203284,0.105362,0.90994,0.3782
1698343993640625,-9.389266,2.18318,-2.198284,0.128262,0.84094,0.2418
1698343993648437,-9.364266,2.17418,-2.200284,0.143362,0.68494,0.1118
1698343993656250,-9.391266,2.15418,-2.248284,0.152762,0.56794,0.9218
1698343993664062,-9.433266,2.14018,-2.303284,0.156062,0.46394,0.9518
1698343993671875,-9.431266,2.12218,-2.312284,0.165262,0.51494,0.15618
1698343993679687,-9.407266,2.6018,-2.318284,0.163962,0.55094,0.21918
1698343993687500,-9.425266,2.4718,-2.334284,0.162562,0.53694,0.28218
1698343993695312,-9.466266,2.2718,-2.348284,0.153262,0.57094,0.23418
1698343993703125,-9.472266,2.318,-2.355284,0.160962,0.60394,0.24918
1698343993710937,-9.467266,1.94018,-2.352284,0.162462,0.70594,0.27818
1698343993718750,-9.472266,1.90418,-2.359284,0.143762,0.62494,0.20118
1698343993726562,-9.488266,1.90818,-2.357284,0.139062,0.70894,0.16818
1698343993734375,-9.477266,1.91018,-2.368284,0.131362,0.71194,0.18418
1698343993742187,-9.467266,1.92818,-2.346284,0.116462,0.94894,0.16518
1698343993750000,-9.442266,1.95518,-2.298284,0.116762,0.109894,0.16218
1698343993757812,-9.406266,1.98918,-2.223284,0.96262,0.108894,0.11518
1698343993765625,-9.371266,1.99318,-2.168284,0.102662,0.106794,0.11618
1698343993773437,-9.340266,1.99518,-2.141284,0.117562,0.96494,0.10018
1698343993781250,-9.325266,1.97318,-2.143284,0.114762,0.70994,0.9218
1698343993789062,-9.362266,1.95318,-2.191284,0.121962,0.49194,0.9518
1698343993796875,-9.419266,1.94718,-2.268284,0.117962,0.26794,0.7118
1698343993804687,-9.467266,1.93618,-2.341284,0.120862,0.20394,0.15018
1698343993812500,-9.483266,1.90918,-2.389284,0.120862,0.30694,0.17918
1698343993820312,-9.489266,1.89118,-2.423284,0.111762,0.40994,0.16218
1698343993828125,-9.503266,1.87818,-2.427284,0.107162,0.44594,0.17718
1698343993835937,-9.523266,1.85918,-2.434284,0.90562,0.53094,0.16118
1698343993843750,-9.539266,1.85418,-2.450284,0.88862,0.51594,0.16118
1698343993851562,-9.545266,1.83218,-2.482284,0.89162,0.64894,0.15818
1698343993859375,-9.534266,1.81818,-2.511284,0.81262,0.73294,0.7818
1698343993867187,-9.538266,1.82818,-2.518284,0.67662,0.83294,0.1418
1698343993875000,-9.531266,1.84318,-2.505284,0.58462,0.99994,0.8282
1698343993882812,-9.505266,1.88718,-2.457284,0.41562,0.121994,0.14982
1698343993890625,-9.472266,1.92918,-2.382284,0.43162,0.128794,0.13582
1698343993898437,-9.443266,1.96118,-2.325284,0.47462,0.138594,0.21682
1698343993906250,-9.406266,1.98218,-2.277284,0.61562,0.141494,0.21782
1698343993914062,-9.389266,1.99418,-2.241284,0.67162,0.121494,0.19982
1698343993921875,-9.402266,1.99918,-2.225284,0.68862,0.112694,0.24382
1698343993929687,-9.409266,1.99718,-2.238284,0.88762,0.105594,0.21182
1698343993937500,-9.436266,2.318,-2.277284,0.90462,0.95394,0.19282
1698343993945312,-9.448266,2.1818,-2.284284,0.88662,0.97294,0.19482
1698343993953125,-9.455266,2.918,-2.277284,0.91562,0.100494,0.24282
1698343993960937,-9.423266,1.98418,-2.268284,0.100762,0.105494,0.21282
1698343993968750,-9.393266,1.96418,-2.257284,0.106962,0.98394,0.22682
1698343993976562,-9.429266,1.96618,-2.241284,0.102162,0.81594,0.25482
1698343993984375,-9.450266,1.99818,-2.280284,0.105162,0.76394,0.28582
1698343993992187,-9.468266,2.2018,-2.296284,0.117262,0.76294,0.25582
1698343994000000,-9.450266,2.418,-2.298284,0.112762,0.81194,0.30282
1698343994007812,-9.450266,1.97218,-2.296284,0.116962,0.79694,0.30382
1698343994015625,-9.465266,1.99118,-2.291284,0.106762,0.87894,0.33482
1698343994023437,-9.471266,2.918,-2.309284,0.98762,0.81494,0.34982
1698343994031250,-9.443266,2.2018,-2.296284,0.106562,0.86194,0.36682
1698343994039062,-9.423266,2.2018,-2.282284,0.108162,0.89494,0.35182
1698343994046875,-9.401266,2.3518,-2.282284,0.103462,0.92994,0.38382
1698343994054687,-9.412266,2.5318,-2.284284,0.103462,0.72394,0.44182
1698343994062500,-9.408266,2.7318,-2.289284,0.113962,0.87494,0.44582
1698343994070312,-9.424266,2.8918,-2.296284,0.109662,0.89194,0.41382
1698343994078125,-9.445266,2.11118,-2.296284,0.117062,0.80794,0.39782
1698343994085937,-9.453266,2.13918,-2.301284,0.113662,0.84694,0.36882
1698343994093750,-9.450266,2.14318,-2.291284,0.113762,0.98194,0.35582
1698343994101562,-9.443266,2.16018,-2.285284,0.111162,0.98294,0.29182
1698343994109375,-9.438266,2.16218,-2.268284,0.113062,0.100094,0.21282
1698343994117187,-9.442266,2.17718,-2.251284,0.120162,0.95094,0.22882
1698343994125000,-9.425266,2.15718,-2.244284,0.134262,0.96594,0.15082
1698343994132812,-9.402266,2.12818,-2.218284,0.125162,0.103594,0.15182
1698343994140625,-9.402266,2.11718,-2.212284,0.132762,0.98094,0.19782
1698343994148437,-9.429266,2.12318,-2.218284,0.131062,0.93394,0.16582
1698343994156250,-9.426266,2.12718,-2.216284,0.128462,0.83094,0.13082
1698343994164062,-9.408266,2.10818,-2.207284,0.137362,0.81294,0.14682
1698343994171875,-9.394266,2.9918,-2.202284,0.140462,0.84694,0.13282
1698343994179687,-9.404266,2.10518,-2.198284,0.138762,0.74894,0.8382
1698343994187500,-9.413266,2.9918,-2.216284,0.141862,0.71494,0.8282
1698343994195312,-9.414266,2.8418,-2.214284,0.140662,0.64594,0.6482
1698343994203125,-9.434266,2.8118,-2.246284,0.139862,0.56494,0.11282
1698343994210937,-9.445266,2.7318,-2.282284,0.140162,0.64794,0.11382
1698343994218750,-9.437266,2.6818,-2.287284,0.138862,0.68194,0.6582
1698343994226562,-9.437266,2.7518,-2.284284,0.125162,0.66494,0.11182
1698343994234375,-9.433266,2.10018,-2.280284,0.114662,0.85494,0.6782
1698343994242187,-9.436266,2.12418,-2.271284,0.118962,0.80394,0.8382
1698343994250000,-9.429266,2.12218,-2.241284,0.126862,0.68594,0.282
1698343994257812,-9.428266,2.12518,-2.241284,0.124962,0.80894,0.2518
1698343994265625,-9.441266,2.13318,-2.259284,0.116162,0.74194,0.4318
1698343994273437,-9.438266,2.11918,-2.273284,0.120562,0.72494,0.4318
1698343994281250,-9.434266,2.11618,-2.282284,0.137162,0.68894,0.2618
1698343994289062,-9.433266,2.11618,-2.287284,0.125562,0.71994,0.1318
1698343994296875,-9.441266,2.12318,-2.280284,0.114362,0.72694,0.2718
1698343994304687,-9.439266,2.12618,-2.266284,0.132962,0.77594,0.12018
1698343994312500,-9.433266,2.11118,-2.255284,0.139262,0.85394,0.5618
1698343994320312,-9.415266,2.7418,-2.243284,0.137462,0.87194,0.2318
1698343994328125,-9.422266,2.7518,-2.257284,0.139062,0.77094,0.4118
1698343994335937,-9.451266,2.8218,-2.266284,0.125262,0.70594,0.2818
1698343994343750,-9.456266,2.7718,-2.257284,0.120762,0.74094,0.4318
1698343994351562,-9.413266,2.6118,-2.243284,0.129962,0.89394,0.10218
1698343994359375,-9.401266,2.4518,-2.221284,0.134362,0.75694,0.7318
1698343994367187,-9.423266,2.4818,-2.211284,0.116362,0.70894,0.9218
1698343994375000,-9.435266,2.5718,-2.209284,0.128362,0.66094,0.17018
1698343994382812,-9.428266,2.5118,-2.232284,0.142262,0.61994,0.10818
1698343994390625,-9.432266,2.5818,-2.248284,0.137962,0.70494,0.13818
1698343994398437,-9.434266,2.6018,-2.250284,0.121262,0.69094,0.12418
1698343994406250,-9.426266,2.5718,-2.243284,0.125462,0.70494,0.4418
1698343994414062,-9.401266,2.4418,-2.216284,0.131662,0.65494,0.9218
1698343994421875,-9.366266,2.1818,-2.198284,0.119262,0.68994,0.2918
1698343994429687,-9.365266,2.3118,-2.205284,0.125062,0.58794,0.1418
1698343994437500,-9.403266,2.4318,-2.232284,0.117362,0.43894,0.3418
1698343994445312,-9.433266,2.4418,-2.271284,0.128062,0.35194,0.3518
1698343994453125,-9.464266,2.2418,-2.314284,0.137362,0.36994,0.9718
1698343994460937,-9.475266,2.218,-2.343284,0.132962,0.43794,0.12818
1698343994468750,-9.472266,1.98918,-2.373284,0.119262,0.48794,0.6518
1698343994476562,-9.457266,1.98618,-2.373284,0.118962,0.60694,0.1418
1698343994484375,-9.443266,1.97018,-2.364284,0.114562,0.60894,0.6218
1698343994492187,-9.461266,1.96418,-2.355284,0.114562,0.62494,0.6218
1698343994500000,-9.465266,1.98318,-2.364284,0.111862,0.60594,0.4818
1698343994507812,-9.480266,1.99118,-2.373284,0.109962,0.62494,0.3118
1698343994515625,-9.491266,2.18,-2.371284,0.97762,0.62694,0.1618
1698343994523437,-9.494266,2.1818,-2.375284,0.106762,0.77594,0.1982
1698343994531250,-9.462266,2.2418,-2.359284,0.104062,0.91094,0.1018
1698343994539062,-9.441266,2.4018,-2.321284,0.98062,0.97794,0.682
1698343994546875,-9.419266,2.5318,-2.291284,0.110262,0.101094,0.2318
1698343994554687,-9.399266,2.4518,-2.248284,0.114662,0.92694,0.2418
1698343994562500,-9.396266,2.4818,-2.236284,0.114962,0.92394,0.918
1698343994570312,-9.399266,2.4618,-2.246284,0.119262,0.72294,0.2818
1698343994578125,-9.423266,2.3518,-2.275284,0.114662,0.68794,0.1682
1698343994585937,-9.447266,2.5018,-2.284284,0.127162,0.66294,0.7882
1698343994593750,-9.455266,2.4618,-2.280284,0.126762,0.70394,0.382
1698343994601562,-9.419266,2.4118,-2.266284,0.120762,0.78894,0.1982
1698343994609375,-9.389266,2.1918,-2.234284,0.131562,0.80094,0.3582
1698343994617187,-9.394266,2.2818,-2.225284,0.132762,0.59894,0.7982
1698343994625000,-9.412266,2.3718,-2.241284,0.134162,0.59694,0.11182
1698343994632812,-9.409266,2.3518,-2.264284,0.129762,0.52894,0.10882
1698343994640625,-9.423266,2.818,-2.298284,0.137262,0.50994,0.15682
1698343994648437,-9.434266,1.99318,-2.314284,0.127862,0.52694,0.21982
1698343994656250,-9.437266,2.118,-2.339284,0.118562,0.51194,0.23482
1698343994664062,-9.451266,2.2418,-2.350284,0.113962,0.54794,0.23582
1698343994671875,-9.439266,2.2918,-2.355284,0.115862,0.62994,0.20482
1698343994679687,-9.424266,2.3218,-2.353284,0.110962,0.66594,0.22182
1698343994687500,-9.433266,2.7518,-2.350284,0.100362,0.66694,0.23682
1698343994695312,-9.433266,2.10018,-2.337284,0.97462,0.61594,0.23482
1698343994703125,-9.436266,2.11518,-2.341284,0.100162,0.73494,0.27082
1698343994710937,-9.416266,2.12118,-2.341284,0.107862,0.73494,0.22382
1698343994718750,-9.402266,2.13618,-2.346284,0.103662,0.71394,0.26882
1698343994726562,-9.418266,2.16618,-2.339284,0.107962,0.73194,0.26982
1698343994734375,-9.421266,2.18918,-2.337284,0.112762,0.71494,0.22282
1698343994742187,-9.407266,2.18418,-2.332284,0.115762,0.76494,0.22382
1698343994750000,-9.382266,2.17518,-2.330284,0.114462,0.73294,0.15982
1698343994757812,-9.377266,2.17818,-2.328284,0.114862,0.68394,0.7882
1698343994765625,-9.400266,2.18918,-2.323284,0.117662,0.69894,0.14282
1698343994773437,-9.411266,2.19418,-2.323284,0.120862,0.68394,0.6382
1698343994781250,-9.396266,2.18218,-2.316284,0.125162,0.70194,0.4982
1698343994789062,-9.368266,2.17118,-2.305284,0.131462,0.64794,0.6482
1698343994796875,-9.365266,2.16918,-2.309284,0.134862,0.64894,0.1518
1698343994804687,-9.379266,2.15518,-2.303284,0.140662,0.63094,0.1782
1698343994812500,-9.395266,2.15118,-2.312284,0.139162,0.57994,0.3182
1698343994820312,-9.413266,2.13318,-2.319284,0.140262,0.59894,0.4882
1698343994828125,-9.411266,2.11018,-2.337284,0.147962,0.56594,0.1418
1698343994835937,-9.405266,2.10018,-2.357284,0.142462,0.58094,0.3118
1698343994843750,-9.408266,2.9618,-2.366284,0.136162,0.59994,0.1518
1698343994851562,-9.426266,2.10218,-2.382284,0.126962,0.58594,0.3118
1698343994859375,-9.399266,2.8218,-2.380284,0.132962,0.63494,0.1418
1698343994867187,-9.374266,2.8218,-2.373284,0.127162,0.70494,0.6018
1698343994875000,-9.385266,2.9318,-2.373284,0.122262,0.58694,0.1618
1698343994882812,-9.417266,2.11618,-2.371284,0.122462,0.60494,0.6318
1698343994890625,-9.431266,2.12518,-2.382284,0.116462,0.58794,0.6418
1698343994898437,-9.414266,2.10518,-2.391284,0.125862,0.66794,0.4618
1698343994906250,-9.392266,2.9118,-2.391284,0.124262,0.72294,0.9218
1698343994914062,-9.381266,2.8418,-2.380284,0.117862,0.62394,0.7818
1698343994921875,-9.385266,2.8218,-2.384284,0.127162,0.57194,0.11018
1698343994929687,-9.401266,2.8518,-2.400284,0.124162,0.55394,0.8018
1698343994937500,-9.383266,2.7818,-2.416284,0.133262,0.58494,0.6318
1698343994945312,-9.389266,2.6718,-2.425284,0.134862,0.60294,0.9418
1698343994953125,-9.414266,2.6718,-2.441284,0.122662,0.60294,0.6318
1698343994960937,-9.389266,2.5318,-2.439284,0.128662,0.60194,0.4718
1698343994968750,-9.391266,2.3818,-2.453284,0.127062,0.60394,0.6218
1698343994976562,-9.442266,2.6218,-2.469284,0.116162,0.58894,0.3118
1698343994984375,-9.464266,2.7218,-2.469284,0.114862,0.65894,0.9318
1698343994992187,-9.431266,2.6418,-2.471284,0.124062,0.76294,0.18418
1698343995000000,-9.385266,2.4018,-2.453284,0.116662,0.72794,0.17118
1698343995007812,-9.396266,2.3318,-2.432284,0.114862,0.70994,0.10818
1698343995015625,-9.413266,2.3918,-2.430284,0.115962,0.69394,0.6018
1698343995023437,-9.403266,2.5018,-2.435284,0.114662,0.72694,0.9118
1698343995031250,-9.398266,2.5518,-2.432284,0.116462,0.80694,0.2718
1698343995039062,-9.385266,2.4318,-2.430284,0.114662,0.72694,0.7518
1698343995046875,-9.367266,2.5518,-2.428284,0.123962,0.82494,0.7318
1698343995054687,-9.350266,2.4818,-2.407284,0.116562,0.80594,0.2818
1698343995062500,-9.337266,2.4518,-2.384284,0.116262,0.67294,0.3018
1698343995070312,-9.351266,2.4818,-2.380284,0.114562,0.60494,0.0
1698343995078125,-9.362266,2.4018,-2.407284,0.117962,0.56894,0.1718
1698343995085937,-9.396266,2.2818,-2.437284,0.117562,0.50494,0.3318
1698343995093750,-9.446266,2.2718,-2.469284,0.117662,0.45394,0.3418
1698343995101562,-9.464266,2.2318,-2.503284,0.116262,0.53694,0.1718
1698343995109375,-9.444266,2.818,-2.521284,0.114462,0.62594,0.6118
1698343995117187,-9.432266,1.98918,-2.521284,0.117962,0.69194,0.9218
1698343995125000,-9.432266,1.98618,-2.516284,0.106962,0.70994,0.2918
1698343995132812,-9.436266,1.99618,-2.507284,0.108762,0.79094,0.1318
1698343995140625,-9.447266,1.99718,-2.505284,0.112062,0.75394,0.182
1698343995148437,-9.438266,1.99618,-2.507284,0.116462,0.83994,0.2718
1698343995156250,-9.432266,2.418,-2.498284,0.114762,0.99394,0.2218
1698343995164062,-9.435266,2.3318,-2.485284,0.111762,0.100894,0.2482
1698343995171875,-9.430266,2.3818,-2.453284,0.113362,0.112394,0.5782
1698343995179687,-9.395266,2.5218,-2.421284,0.115962,0.114294,0.7582
1698343995187500,-9.358266,2.4518,-2.387284,0.116362,0.120994,0.2882
1698343995195312,-9.362266,2.5018,-2.339284,0.114762,0.105794,0.4082
1698343995203125,-9.389266,2.6218,-2.346284,0.122262,0.90194,0.10082
1698343995210937,-9.421266,2.4718,-2.357284,0.139262,0.81394,0.6782
1698343995218750,-9.433266,2.3318,-2.403284,0.144962,0.74994,0.3682
1698343995226562,-9.432266,2.3318,-2.435284,0.142062,0.93294,0.8782
1698343995234375,-9.412266,2.3818,-2.403284,0.139262,0.99994,0.7282
1698343995242187,-9.380266,2.2818,-2.389284,0.140562,0.99694,0.15182
1698343995250000,-9.351266,2.2718,-2.341284,0.135862,0.104994,0.15282
1698343995257812,-9.360266,2.2818,-2.316284,0.123662,0.93194,0.19582
1698343995265625,-9.378266,2.2918,-2.323284,0.130862,0.78094,0.20982
1698343995273437,-9.378266,2.1918,-2.359284,0.138662,0.70994,0.20882
1698343995281250,-9.397266,2.2118,-2.391284,0.121462,0.71394,0.25582
1698343995289062,-9.412266,2.1718,-2.398284,0.115962,0.71494,0.19082
1698343995296875,-9.403266,2.2618,-2.407284,0.115762,0.73394,0.16082
1698343995304687,-9.375266,2.3318,-2.414284,0.113062,0.64594,0.20382
1698343995312500,-9.369266,2.3918,-2.403284,0.108162,0.71594,0.22182
1698343995320312,-9.365266,2.5018,-2.416284,0.109662,0.66494,0.23682
1698343995328125,-9.399266,2.6818,-2.423284,0.109562,0.66494,0.23782
1698343995335937,-9.431266,2.10418,-2.446284,0.112262,0.57894,0.29882
1698343995343750,-9.431266,2.11818,-2.469284,0.102162,0.69794,0.25182
1698343995351562,-9.407266,2.11918,-2.462284,0.111062,0.78294,0.23982
1698343995359375,-9.386266,2.11518,-2.435284,0.97562,0.81894,0.22382
1698343995367187,-9.405266,2.13918,-2.430284,0.101762,0.85394,0.24182
1698343995375000,-9.414266,2.16118,-2.421284,0.113962,0.76794,0.20882
1698343995382812,-9.402266,2.14018,-2.423284,0.114462,0.83494,0.14682
1698343995390625,-9.396266,2.15918,-2.428284,0.118762,0.74894,0.19282
1698343995398437,-9.394266,2.14618,-2.417284,0.118862,0.75494,0.6682
1698343995406250,-9.389266,2.13918,-2.428284,0.122062,0.71894,0.8182
1698343995414062,-9.381266,2.13318,-2.416284,0.129962,0.71494,0.9682
1698343995421875,-9.372266,2.11318,-2.416284,0.140662,0.74494,0.11382
1698343995429687,-9.366266,2.10118,-2.410284,0.138762,0.74794,0.11482
1698343995437500,-9.381266,2.10418,-2.400284,0.140562,0.79294,0.17782
1698343995445312,-9.378266,2.9318,-2.391284,0.139062,0.77994,0.9882
1698343995453125,-9.384266,2.6918,-2.402284,0.137762,0.74494,0.9782
1698343995460937,-9.398266,2.6418,-2.423284,0.116162,0.66694,0.11082
1698343995468750,-9.415266,2.8518,-2.437284,0.126862,0.68194,0.8082
1698343995476562,-9.401266,2.7618,-2.430284,0.117662,0.74994,0.11282
1698343995484375,-9.397266,2.6418,-2.435284,0.114562,0.77094,0.6682
1698343995492187,-9.384266,2.7218,-2.432284,0.114962,0.76594,0.9582
1698343995500000,-9.371266,2.7418,-2.430284,0.116462,0.83094,0.14482
1698343995507812,-9.377266,2.7418,-2.430284,0.112062,0.89994,0.11382
1698343995515625,-9.375266,2.7418,-2.427284,0.105862,0.75094,0.9482
1698343995523437,-9.389266,2.7418,-2.432284,0.101262,0.71894,0.9382
1698343995531250,-9.398266,2.10818,-2.430284,0.89262,0.76894,0.12482
1698343995539062,-9.397266,2.12018,-2.430284,0.91962,0.85694,0.8182
1698343995546875,-9.376266,2.12118,-2.421284,0.98462,0.88794,0.6582
1698343995554687,-9.365266,2.11718,-2.416284,0.96562,0.92394,0.8382
1698343995562500,-9.394266,2.13218,-2.412284,0.105962,0.82994,0.19082
1698343995570312,-9.397266,2.14918,-2.421284,0.97962,0.78894,0.8082
1698343995578125,-9.390266,2.13118,-2.428284,0.114562,0.80194,0.11382
1698343995585937,-9.395266,2.11318,-2.437284,0.114762,0.83594,0.9882
1698343995593750,-9.395266,2.10918,-2.435284,0.116062,0.73494,0.9682
1698343995601562,-9.392266,2.10918,-2.435284,0.114562,0.85194,0.14682
1698343995609375,-9.405266,2.11218,-2.430284,0.116662,0.83394,0.6682
1698343995617187,-9.436266,2.11818,-2.430284,0.114662,0.87094,0.8382
1698343995625000,-9.433266,2.12518,-2.432284,0.111962,0.102094,0.8682
1698343995632812,-9.408266,2.12418,-2.407284,0.113162,0.102094,0.11882
1698343995640625,-9.394266,2.9818,-2.382284,0.122462,0.103594,0.10382
1698343995648437,-9.398266,2.9218,-2.371284,0.114962,0.94894,0.16282
1698343995656250,-9.380266,2.10318,-2.380284,0.116762,0.92794,0.20882
1698343995664062,-9.378266,2.9818,-2.389284,0.117762,0.94794,0.19582
1698343995671875,-9.394266,2.10918,-2.394284,0.117662,0.89694,0.22582
1698343995679687,-9.383266,2.12718,-2.384284,0.120862,0.94694,0.21082
1698343995687500,-9.354266,2.13218,-2.360284,0.128062,0.94694,0.24382
1698343995695312,-9.345266,2.13518,-2.359284,0.123962,0.92794,0.22682
1698343995703125,-9.336266,2.12618,-2.343284,0.122062,0.71094,0.23782
1698343995710937,-9.347266,2.14418,-2.339284,0.125362,0.68994,0.26782
1698343995718750,-9.361266,2.12918,-2.384284,0.126762,0.66094,0.18982
1698343995726562,-9.388266,2.11518,-2.407284,0.134162,0.60794,0.23682
1698343995734375,-9.431266,2.13418,-2.451284,0.123562,0.59794,0.12582
1698343995742187,-9.440266,2.12518,-2.478284,0.112862,0.63494,0.11082
1698343995750000,-9.423266,2.11518,-2.489284,0.116562,0.69994,0.4782
1698343995757812,-9.415266,2.10018,-2.478284,0.114762,0.85394,0.6782
1698343995765625,-9.412266,2.10018,-2.487284,0.113262,0.88694,0.9982
1698343995773437,-9.401266,2.10218,-2.471284,0.100962,0.83794,0.11382
1698343995781250,-9.415266,2.11418,-2.487284,0.103862,0.78394,0.19082
1698343995789062,-9.417266,2.12118,-2.469284,0.108662,0.91894,0.14682
1698343995796875,-9.390266,2.13618,-2.466284,0.105662,0.105294,0.16582
1698343995804687,-9.395266,2.14518,-2.446284,0.95062,0.108894,0.16582
1698343995812500,-9.392266,2.17618,-2.428284,0.98362,0.115394,0.18182
1698343995820312,-9.377266,2.18018,-2.387284,0.108662,0.115194,0.21482
1698343995828125,-9.379266,2.19718,-2.371284,0.106062,0.113494,0.16582
1698343995835937,-9.386266,2.19118,-2.364284,0.107162,0.113494,0.21482
1698343995843750,-9.397266,2.18018,-2.355284,0.114862,0.101794,0.16482
1698343995851562,-9.420266,2.17418,-2.371284,0.116562,0.99894,0.16382
1698343995859375,-9.436266,2.19718,-2.403284,0.116562,0.96794,0.11682
1698343995867187,-9.429266,2.21318,-2.398284,0.115462,0.111494,0.14982
1698343995875000,-9.408266,2.18818,-2.357284,0.121562,0.119694,0.16782
1698343995882812,-9.375266,2.16218,-2.319284,0.130162,0.120094,0.13882
1698343995890625,-9.358266,2.17218,-2.293284,0.118262,0.114894,0.18282
1698343995898437,-9.376266,2.16718,-2.291284,0.118162,0.102994,0.21182
1698343995906250,-9.386266,2.17518,-2.307284,0.123762,0.96594,0.18082
1698343995914062,-9.393266,2.16918,-2.314284,0.125162,0.94694,0.22782
1698343995921875,-9.370266,2.14818,-2.312284,0.115962,0.100094,0.21282
1698343995929687,-9.361266,2.14418,-2.284284,0.117562,0.106594,0.24582
1698343995937500,-9.384266,2.17118,-2.271284,0.117562,0.94894,0.22782
1698343995945312,-9.398266,2.18418,-2.282284,0.106962,0.96594,0.24282
1698343995953125,-9.403266,2.20418,-2.285284,0.106562,0.95294,0.22782
1698343995960937,-9.384266,2.21318,-2.314284,0.117662,0.98094,0.24382
1698343995968750,-9.375266,2.20418,-2.323284,0.106762,0.84994,0.22482
1698343995976562,-9.394266,2.22618,-2.326284,0.94662,0.80594,0.14482
1698343995984375,-9.401266,2.24818,-2.328284,0.91462,0.89094,0.16282
1698343995992187,-9.408266,2.25518,-2.323284,0.94662,0.95894,0.11682
1698343996000000,-9.396266,2.25118,-2.326284,0.105662,0.97494,0.5382
1698343996007812,-9.390266,2.25018,-2.317284,0.111562,0.102494,0.7182
1698343996015625,-9.394266,2.26218,-2.301284,0.93462,0.97894,0.2182
1698343996023437,-9.396266,2.26018,-2.296284,0.98262,0.104394,0.2382
1698343996031250,-9.390266,2.26018,-2.291284,0.108762,0.99194,0.2382
1698343996039062,-9.379266,2.22818,-2.284284,0.111062,0.103794,0.918
1698343996046875,-9.370266,2.22718,-2.287284,0.113862,0.98994,0.2518
1698343996054687,-9.362266,2.21818,-2.280284,0.116562,0.90594,0.1018
1698343996062500,-9.359266,2.21418,-2.266284,0.115262,0.75394,0.3018
1698343996070312,-9.348266,2.19718,-2.255284,0.119362,0.78894,0.1118
1698343996078125,-9.359266,2.17818,-2.259284,0.122662,0.66994,0.4618
1698343996085937,-9.377266,2.18318,-2.268284,0.116662,0.65294,0.3218
1698343996093750,-9.381266,2.15418,-2.298284,0.127362,0.66694,0.1518
1698343996101562,-9.371266,2.13118,-2.314284,0.136462,0.56494,0.3218
1698343996109375,-9.408266,2.12018,-2.343284,0.123962,0.60094,0.1582
1698343996117187,-9.442266,2.13618,-2.373284,0.117862,0.58494,0.3082
1698343996125000,-9.442266,2.14118,-2.385284,0.114762,0.63794,0.1518
1698343996132812,-9.435266,2.12818,-2.393284,0.116662,0.71794,0.1682
1698343996140625,-9.417266,2.13618,-2.389284,0.107362,0.82494,0.2818
1698343996148437,-9.398266,2.16218,-2.362284,0.97762,0.82794,0.1982
1698343996156250,-9.407266,2.17818,-2.348284,0.104062,0.95794,0.5382
1698343996164062,-9.396266,2.18918,-2.323284,0.108662,0.90694,0.3782
1698343996171875,-9.409266,2.20518,-2.316284,0.107362,0.90394,0.8282
1698343996179687,-9.417266,2.22418,-2.312284,0.97762,0.85994,0.5182
1698343996187500,-9.399266,2.21918,-2.319284,0.116062,0.85694,0.3782
1698343996195312,-9.385266,2.21018,-2.292284,0.114462,0.92494,0.3882
1698343996203125,-9.373266,2.19918,-2.300284,0.116162,0.91994,0.11682
1698343996210937,-9.366266,2.20518,-2.284284,0.114762,0.78094,0.17582
1698343996218750,-9.389266,2.20218,-2.298284,0.116262,0.73294,0.12782
1698343996226562,-9.397266,2.20118,-2.305284,0.116462,0.71394,0.14282
1698343996234375,-9.402266,2.18518,-2.314284,0.117862,0.74994,0.9682
1698343996242187,-9.374266,2.17618,-2.316284,0.127262,0.83194,0.6682
1698343996250000,-9.386266,2.15818,-2.309284,0.122362,0.73394,0.8182
1698343996257812,-9.420266,2.18518,-2.350284,0.107262,0.68594,0.6282
1698343996265625,-9.439266,2.18918,-2.360284,0.108562,0.78794,0.8182
1698343996273437,-9.393266,2.17318,-2.357284,0.117662,0.90594,0.5382
1698343996281250,-9.346266,2.16518,-2.321284,0.108562,0.94094,0.6982
1698343996289062,-9.366266,2.17718,-2.291284,0.90062,0.87394,0.16182
1698343996296875,-9.380266,2.20418,-2.285284,0.91662,0.75594,0.12682
1698343996304687,-9.378266,2.22618,-2.298284,0.98962,0.68794,0.15882
1698343996312500,-9.381266,2.21418,-2.312284,0.112662,0.71994,0.12882
1698343996320312,-9.376266,2.22218,-2.321284,0.113062,0.71894,0.9682
1698343996328125,-9.373266,2.22418,-2.316284,0.96362,0.77094,0.12782
1698343996335937,-9.333266,2.23218,-2.289284,0.106862,0.73794,0.9682
1698343996343750,-9.322266,2.22518,-2.280284,0.109862,0.66894,0.11082
1698343996351562,-9.329266,2.22718,-2.273284,0.99062,0.62294,0.9382
1698343996359375,-9.358266,2.23918,-2.301284,0.112762,0.50294,0.7682
1698343996367187,-9.402266,2.22318,-2.341284,0.114662,0.41694,0.2682
1698343996375000,-9.430266,2.19818,-2.405284,0.114662,0.40294,0.3618
1698343996382812,-9.450266,2.18318,-2.453284,0.111462,0.45494,0.1918
1698343996390625,-9.454266,2.17518,-2.476284,0.96662,0.60694,0.1818
1698343996398437,-9.447266,2.15418,-2.498284,0.90562,0.72994,0.7818
1698343996406250,-9.415266,2.13618,-2.469284,0.92262,0.71094,0.7918
1698343996414062,-9.415266,2.14718,-2.444284,0.83062,0.84994,0.9218
1698343996421875,-9.435266,2.17818,-2.437284,0.88062,0.74294,0.6418
1698343996429687,-9.439266,2.21018,-2.460284,0.92162,0.82694,0.1318
1698343996437500,-9.432266,2.20818,-2.455284,0.90862,0.96594,0.10518
1698343996445312,-9.402266,2.20618,-2.421284,0.95562,0.106194,0.4018
1698343996453125,-9.375266,2.22118,-2.396284,0.92562,0.116094,0.882
1698343996460937,-9.365266,2.24418,-2.348284,0.93662,0.113194,0.3718
1698343996468750,-9.336266,2.25218,-2.296284,0.110362,0.118194,0.8218
1698343996476562,-9.335266,2.25318,-2.248284,0.121462,0.112694,0.9918
1698343996484375,-9.346266,2.23718,-2.244284,0.128762,0.92694,0.13418
1698343996492187,-9.348266,2.21718,-2.266284,0.140962,0.77394,0.18318
1698343996500000,-9.376266,2.18818,-2.305284,0.152862,0.70294,0.10518
1698343996507812,-9.411266,2.19418,-2.337284,0.144062,0.70394,0.13818
1698343996515625,-9.428266,2.17318,-2.346284,0.142262,0.69194,0.18418
1698343996523437,-9.390266,2.12418,-2.344284,0.143962,0.88794,0.8618
1698343996531250,-9.363266,2.10818,-2.325284,0.142462,0.93594,0.2318
1698343996539062,-9.383266,2.10418,-2.325284,0.129862,0.66994,0.1318
1698343996546875,-9.423266,2.11018,-2.339284,0.137962,0.68294,0.2918
1698343996554687,-9.436266,2.12918,-2.369284,0.137362,0.65194,0.1318
1698343996562500,-9.422266,2.11818,-2.375284,0.123962,0.73994,0.5918
1698343996570312,-9.383266,2.8618,-2.375284,0.117862,0.88994,0.918
1698343996578125,-9.398266,2.9018,-2.366284,0.97562,0.82994,0.482
1698343996585937,-9.415266,2.10918,-2.371284,0.95162,0.82494,0.3382
1698343996593750,-9.404266,2.13318,-2.378284,0.101162,0.97394,0.8482
1698343996601562,-9.409266,2.16018,-2.369284,0.94762,0.102494,0.14982
1698343996609375,-9.397266,2.16718,-2.357284,0.90462,0.97594,0.8482
1698343996617187,-9.396266,2.18018,-2.371284,0.91862,0.92694,0.5282
1698343996625000,-9.379266,2.21418,-2.369284,0.101362,0.93794,0.8282
1698343996632812,-9.387266,2.22318,-2.369284,0.111862,0.88794,0.5182
1698343996640625,-9.392266,2.25218,-2.353284,0.116562,0.97194,0.3882
1698343996648437,-9.388266,2.27618,-2.348284,0.114862,0.90494,0.5282
1698343996656250,-9.394266,2.27418,-2.348284,0.116762,0.93894,0.1018
1698343996664062,-9.409266,2.27518,-2.349284,0.114662,0.90994,0.2418
1698343996671875,-9.406266,2.26918,-2.351284,0.116562,0.99494,0.10218
1698343996679687,-9.380266,2.23818,-2.344284,0.134962,0.96094,0.18018
1698343996687500,-9.366266,2.19818,-2.330284,0.141462,0.93894,0.16518
1698343996695312,-9.375266,2.18418,-2.314284,0.142662,0.75494,0.16918
1698343996703125,-9.407266,2.17018,-2.314284,0.143962,0.84394,0.21218
1698343996710937,-9.409266,2.14818,-2.323284,0.145562,0.85894,0.19718
1698343996718750,-9.390266,2.10418,-2.321284,0.142762,0.93994,0.16518
1698343996726562,-9.388266,2.9018,-2.316284,0.138062,0.79494,0.26218
1698343996734375,-9.396266,2.8418,-2.305284,0.138062,0.73894,0.16918
1698343996742187,-9.395266,2.8118,-2.312284,0.127162,0.89594,0.16518
1698343996750000,-9.392266,2.7218,-2.314284,0.125562,0.87494,0.7218
1698343996757812,-9.400266,2.6418,-2.327284,0.118062,0.70494,0.4618
1698343996765625,-9.431266,2.8018,-2.337284,0.114762,0.72294,0.1318
1698343996773437,-9.439266,2.8718,-2.352284,0.111962,0.82394,0.2818
1698343996781250,-9.409266,2.10418,-2.361284,0.112562,0.93794,0.2718
1698343996789062,-9.387266,2.10518,-2.350284,0.107562,0.93694,0.6782
1698343996796875,-9.389266,2.13218,-2.341284,0.95662,0.92394,0.282
1698343996804687,-9.393266,2.17618,-2.319284,0.93562,0.95794,0.8382
1698343996812500,-9.400266,2.20518,-2.307284,0.113562,0.93994,0.582
1698343996820312,-9.398266,2.21318,-2.300284,0.113262,0.79094,0.1218
1698343996828125,-9.396266,2.22018,-2.305284,0.116262,0.85894,0.2618
1698343996835937,-9.389266,2.20918,-2.314284,0.114962,0.87394,0.1018
1698343996843750,-9.405266,2.19818,-2.321284,0.127162,0.70494,0.7618
1698343996851562,-9.424266,2.18818,-2.341284,0.124462,0.67094,0.9418
1698343996859375,-9.409266,2.16518,-2.353284,0.130262,0.87194,0.5718
1698343996867187,-9.408266,2.12918,-2.344284,0.122662,0.90994,0.10318
1698343996875000,-9.432266,2.13218,-2.334284,0.115662,0.82694,0.18618
1698343996882812,-9.426266,2.12218,-2.337284,0.127262,0.92394,0.8718
1698343996890625,-9.396266,2.10318,-2.323284,0.135562,0.90494,0.16718
1698343996898437,-9.400266,2.8118,-2.323284,0.136762,0.83694,0.12118
1698343996906250,-9.428266,2.9018,-2.325284,0.116662,0.82194,0.2818
1698343996914062,-9.414266,2.8418,-2.321284,0.121162,0.80694,0.7418
1698343996921875,-9.387266,2.6418,-2.309284,0.118062,0.97694,0.7018
1698343996929687,-9.386266,2.4918,-2.298284,0.116862,0.80394,0.2918
1698343996937500,-9.398266,2.5518,-2.314284,0.114762,0.73994,0.1318
1698343996945312,-9.396266,2.7418,-2.318284,0.115162,0.80294,0.1882
1698343996953125,-9.403266,2.10118,-2.323284,0.108962,0.86894,0.8182
1698343996960937,-9.396266,2.12918,-2.321284,0.99862,0.92094,0.9882
1698343996968750,-9.372266,2.15318,-2.287284,0.92162,0.100894,0.6882
1698343996976562,-9.336266,2.16018,-2.255284,0.102862,0.92194,0.8382
1698343996984375,-9.301266,2.16418,-2.229284,0.101562,0.83394,0.11182
1698343996992187,-9.314266,2.17218,-2.234284,0.103862,0.62294,0.3082
1698343997000000,-9.341266,2.18118,-2.273284,0.113062,0.48694,0.318
1698343997007812,-9.392266,2.16318,-2.318284,0.113362,0.38494,0.3718
1698343997015625,-9.438266,2.14818,-2.403284,0.116362,0.38694,0.6818
1698343997023437,-9.449266,2.11418,-2.432284,0.116362,0.45194,0.2018
1698343997031250,-9.466266,2.9918,-2.460284,0.104462,0.57394,0.8118
1698343997039062,-9.471266,2.8118,-2.476284,0.92062,0.66294,0.9518
1698343997046875,-9.460266,2.7018,-2.469284,0.93862,0.76694,0.18718
1698343997054687,-9.468266,2.7118,-2.462284,0.92662,0.79394,0.11018
1698343997062500,-9.467266,2.6118,-2.435284,0.92262,0.85194,0.18518
1698343997070312,-9.469266,2.6718,-2.441284,0.90762,0.100194,0.13518
1698343997078125,-9.453266,2.7618,-2.435284,0.93962,0.100194,0.16618
1698343997085937,-9.440266,2.8918,-2.426284,0.91962,0.113494,0.5218
1698343997093750,-9.407266,2.11018,-2.396284,0.91162,0.117794,0.718
1698343997101562,-9.379266,2.12818,-2.334284,0.92262,0.126694,0.1918
1698343997109375,-9.365266,2.14218,-2.284284,0.93862,0.122994,0.418
1698343997117187,-9.354266,2.15518,-2.246284,0.104362,0.114594,0.2118
1698343997125000,-9.355266,2.15418,-2.223284,0.113262,0.105894,0.2582
1698343997132812,-9.363266,2.11918,-2.241284,0.119462,0.85494,0.2082
1698343997140625,-9.399266,2.9518,-2.266284,0.123962,0.70194,0.1782
1698343997148437,-9.430266,2.8518,-2.309284,0.130162,0.71494,0.4882
1698343997156250,-9.426266,2.7818,-2.339284,0.127062,0.76594,0.6582
1698343997164062,-9.418266,2.6118,-2.350284,0.121162,0.98194,0.14882
1698343997171875,-9.412266,2.4918,-2.327284,0.118062,0.97094,0.3882
1698343997179687,-9.398266,2.6218,-2.316284,0.111862,0.93694,0.8482
1698343997187500,-9.399266,2.8618,-2.307284,0.108562,0.90594,0.8482
1698343997195312,-9.410266,2.10018,-2.291284,0.99462,0.82394,0.6682
1698343997203125,-9.411266,2.9918,-2.307284,0.102262,0.73994,0.8082
1698343997210937,-9.419266,2.10718,-2.312284,0.94962,0.77394,0.6482
1698343997218750,-9.410266,2.11418,-2.332284,0.88962,0.70594,0.6182
1698343997226562,-9.413266,2.12218,-2.325284,0.84162,0.84894,0.2818
1698343997234375,-9.399266,2.12918,-2.316284,0.90362,0.82694,0.4982
1698343997242187,-9.400266,2.14218,-2.309284,0.90362,0.82694,0.3482
1698343997250000,-9.392266,2.14018,-2.316284,0.86162,0.81194,0.3018
1698343997257812,-9.389266,2.14418,-2.323284,0.92662,0.70494,0.1818
1698343997265625,-9.417266,2.14118,-2.355284,0.90762,0.60594,0.318
1698343997273437,-9.431266,2.14718,-2.387284,0.92062,0.67594,0.1618
1698343997281250,-9.434266,2.16518,-2.396284,0.93362,0.69494,0.3118
1698343997289062,-9.433266,2.16418,-2.393284,0.95562,0.87594,0.4418
1698343997296875,-9.433266,2.17718,-2.380284,0.95462,0.87794,0.5918
1698343997304687,-9.439266,2.17818,-2.357284,0.105862,0.84694,0.12118
1698343997312500,-9.446266,2.16418,-2.342284,0.110262,0.91694,0.15018
1698343997320312,-9.434266,2.12818,-2.328284,0.117762,0.92994,0.10218
1698343997328125,-9.417266,2.10218,-2.332284,0.125762,0.97494,0.7018
1698343997335937,-9.414266,2.8418,-2.332284,0.122662,0.85794,0.8918
1698343997343750,-9.430266,2.6518,-2.323284,0.119562,0.85794,0.5818
1698343997351562,-9.430266,2.6218,-2.316284,0.122462,0.90894,0.5618
1698343997359375,-9.414266,2.5018,-2.316284,0.126962,0.97294,0.718
1698343997367187,-9.405266,2.5918,-2.296284,0.126962,0.95194,0.8682
1698343997375000,-9.403266,2.5518,-2.280284,0.122562,0.86794,0.6782
1698343997382812,-9.398266,2.4718,-2.277284,0.131662,0.84594,0.14682
1698343997390625,-9.400266,2.4718,-2.304284,0.139462,0.84294,0.13082
1698343997398437,-9.429266,2.5918,-2.323284,0.122362,0.72594,0.22182
1698343997406250,-9.426266,2.7618,-2.348284,0.117562,0.82994,0.22482
1698343997414062,-9.412266,2.7318,-2.348284,0.116162,0.89994,0.17882
1698343997421875,-9.395266,2.9718,-2.346284,0.111462,0.98594,0.18082
1698343997429687,-9.399266,2.11118,-2.318284,0.93162,0.95394,0.22582
1698343997437500,-9.388266,2.13918,-2.305284,0.97862,0.97194,0.16382
1698343997445312,-9.402266,2.16918,-2.296284,0.107362,0.91894,0.11482
1698343997453125,-9.422266,2.17418,-2.307284,0.93362,0.75594,0.11182
1698343997460937,-9.427266,2.19418,-2.312284,0.99662,0.78894,0.6482
1698343997468750,-9.439266,2.19818,-2.332284,0.111662,0.89094,0.2182
1698343997476562,-9.411266,2.20318,-2.323284,0.116662,0.88894,0.2618
1698343997484375,-9.392266,2.20818,-2.312284,0.115562,0.98794,0.2518
1698343997492187,-9.395266,2.20218,-2.278284,0.112062,0.95894,0.4018
1698343997500000,-9.375266,2.18218,-2.264284,0.122862,0.90494,0.4118
1698343997507812,-9.406266,2.15118,-2.264284,0.137762,0.75194,0.2718
1698343997515625,-9.427266,2.12718,-2.303284,0.124062,0.72294,0.7518
1698343997523437,-9.396266,2.10918,-2.314284,0.136562,0.78494,0.5918
1698343997531250,-9.397266,2.7218,-2.307284,0.142262,0.80594,0.10418
1698343997539062,-9.448266,2.6518,-2.325284,0.121162,0.75794,0.10718
1698343997546875,-9.453266,2.10318,-2.318284,0.122862,0.87594,0.13618
1698343997554687,-9.410266,2.10918,-2.282284,0.119862,0.99394,0.11818
1698343997562500,-9.389266,2.7518,-2.252284,0.128962,0.96094,0.16518
1698343997570312,-9.410266,2.7118,-2.241284,0.124362,0.81094,0.18418
1698343997578125,-9.437266,2.9818,-2.273284,0.119662,0.82494,0.9018
1698343997585937,-9.426266,2.7718,-2.289284,0.136162,0.90494,0.3918
1698343997593750,-9.415266,2.6618,-2.305284,0.140662,0.85294,0.2418
1698343997601562,-9.430266,2.7618,-2.300284,0.133562,0.85094,0.1118
1698343997609375,-9.409266,2.10518,-2.275284,0.115262,0.86894,0.1982
1698343997617187,-9.355266,2.10518,-2.259284,0.118462,0.93394,0.5182
1698343997625000,-9.315266,2.8518,-2.216284,0.117962,0.97094,0.7082
1698343997632812,-9.346266,2.10618,-2.218284,0.116362,0.64894,0.9382
1698343997640625,-9.397266,2.13818,-2.259284,0.114862,0.61894,0.3082
1698343997648437,-9.430266,2.11918,-2.311284,0.122562,0.43194,0.518
1698343997656250,-9.451266,2.11718,-2.366284,0.122562,0.51294,0.7582
1698343997664062,-9.471266,2.10418,-2.400284,0.117862,0.48294,0.2782
1698343997671875,-9.468266,2.8618,-2.412284,0.116462,0.63494,0.3082
1698343997679687,-9.442266,2.7418,-2.419284,0.110162,0.72294,0.1782
1698343997687500,-9.427266,2.7918,-2.398284,0.110562,0.86994,0.5082
1698343997695312,-9.432266,2.10118,-2.389284,0.98162,0.90394,0.11382
1698343997703125,-9.445266,2.12218,-2.371284,0.96362,0.99394,0.6982
1698343997710937,-9.438266,2.14118,-2.369284,0.99762,0.99094,0.5382
1698343997718750,-9.433266,2.15418,-2.355284,0.116562,0.102194,0.3982
1698343997726562,-9.433266,2.14518,-2.357284,0.105862,0.104194,0.3982
1698343997734375,-9.438266,2.17218,-2.341284,0.111962,0.105594,0.5582
1698343997742187,-9.413266,2.17818,-2.314284,0.116662,0.110494,0.5682
1698343997750000,-9.393266,2.17518,-2.291284,0.115062,0.114094,0.2682
1698343997757812,-9.394266,2.17418,-2.252284,0.116962,0.110494,0.882
1698343997765625,-9.377266,2.15318,-2.241284,0.137962,0.96894,0.718
1698343997773437,-9.369266,2.13118,-2.250284,0.141162,0.95194,0.3918
1698343997781250,-9.411266,2.11318,-2.271284,0.139062,0.75294,0.2618
1698343997789062,-9.437266,2.10218,-2.314284,0.140762,0.74994,0.1118
1698343997796875,-9.437266,2.11118,-2.343284,0.133262,0.92094,0.2418
1698343997804687,-9.415266,2.11318,-2.323284,0.121062,0.97294,0.818
1698343997812500,-9.369266,2.8918,-2.295284,0.116862,0.109094,0.2218
1698343997820312,-9.350266,2.8418,-2.248284,0.113662,0.100394,0.5382
1698343997828125,-9.376266,2.8418,-2.227284,0.116562,0.93694,0.5282
1698343997835937,-9.385266,2.11118,-2.248284,0.114862,0.77294,0.1218
1698343997843750,-9.396266,2.11618,-2.286284,0.115262,0.70194,0.1518
1698343997851562,-9.413266,2.10418,-2.316284,0.112362,0.64994,0.1382
1698343997859375,-9.435266,2.10318,-2.323284,0.102862,0.72294,0.0
1698343997867187,-9.419266,2.10718,-2.321284,0.95462,0.85894,0.1318
1698343997875000,-9.403266,2.10418,-2.318284,0.90562,0.89594,0.2718
1698343997882812,-9.415266,2.10918,-2.307284,0.92062,0.85994,0.1882
1698343997890625,-9.428266,2.13018,-2.300284,0.84762,0.85994,0.182
1698343997898437,-9.435266,2.14418,-2.316284,0.90962,0.78994,0.0
1698343997906250,-9.432266,2.14218,-2.336284,0.98662,0.75094,0.7782
1698343997914062,-9.435266,2.14418,-2.348284,0.103062,0.76894,0.6382
1698343997921875,-9.469266,2.17618,-2.341284,0.93862,0.75294,0.7782
1698343997929687,-9.477266,2.17718,-2.357284,0.108762,0.81994,0.8182
1698343997937500,-9.436266,2.17918,-2.355284,0.116562,0.100194,0.10182
1698343997945312,-9.424266,2.17618,-2.346284,0.113462,0.96794,0.13182
1698343997953125,-9.433266,2.18318,-2.318284,0.116362,0.91394,0.19382
1698343997960937,-9.427266,2.18718,-2.305284,0.119162,0.81194,0.23982
1698343997968750,-9.386266,2.20718,-2.298284,0.128562,0.92694,0.22682
1698343997976562,-9.353266,2.18618,-2.257284,0.132562,0.87494,0.30582
1698343997984375,-9.373266,2.13718,-2.218284,0.146062,0.75194,0.38282
1698343997992187,-9.360266,2.18118,-2.264284,0.139562,0.63194,0.50582
1698343998000000,-9.350266,2.24218,-2.291284,0.138162,0.36994,0.65582
1698343998007812,-9.395266,2.23718,-2.309284,0.160762,0.1794,0.86882
1698343998015625,-9.470266,2.19218,-2.298284,0.162562,0.35906,0.112982
1698343998023437,-9.535266,2.22118,-2.350284,0.168662,0.49106,0.137682
1698343998031250,-9.533266,2.26418,-2.410284,0.163262,0.36906,0.146082
1698343998039062,-9.451266,2.25918,-2.401284,0.162262,0.306,0.148282
1698343998046875,-9.353266,2.26318,-2.366284,0.157862,0.16494,0.150182
1698343998054687,-9.305266,2.22618,-2.282284,0.139262,0.5194,0.153082
1698343998062500,-9.289266,2.23218,-2.296284,0.151362,0.12306,0.160582
1698343998070312,-9.284266,2.28818,-2.321284,0.138962,0.28706,0.158582
1698343998078125,-9.340266,2.30718,-2.357284,0.142062,0.40906,0.164582
1698343998085937,-9.415266,2.32618,-2.419284,0.139262,0.43906,0.154982
1698343998093750,-9.447266,2.34618,-2.467284,0.116562,0.27806,0.144282
1698343998101562,-9.475266,2.38918,-2.469284,0.114162,0.3194,0.125982
1698343998109375,-9.483266,2.32718,-2.455284,0.116762,0.33394,0.79382
1698343998117187,-9.391266,2.34718,-2.494284,0.112362,0.71794,0.55182
1698343998125000,-9.311266,2.34918,-2.440284,0.100462,0.85594,0.50682
1698343998132812,-9.307266,2.27418,-2.362284,0.122862,0.65394,0.47382
1698343998140625,-9.317266,2.21618,-2.387284,0.136662,0.56594,0.45682
1698343998148437,-9.300266,2.30318,-2.421284,0.106062,0.53794,0.48582
1698343998156250,-9.334266,2.33518,-2.399284,0.110562,0.43394,0.53082
1698343998164062,-9.346266,2.33518,-2.365284,0.118162,0.61594,0.58282
1698343998171875,-9.334266,2.32618,-2.271284,0.130862,0.84794,0.53982
1698343998179687,-9.315266,2.33418,-2.259284,0.137562,0.72794,0.45782
1698343998187500,-9.313266,2.27718,-2.248284,0.143162,0.63094,0.42582
1698343998195312,-9.357266,2.23818,-2.330284,0.161362,0.38994,0.45282
1698343998203125,-9.357266,2.22018,-2.396284,0.147462,0.54494,0.48782
1698343998210937,-9.301266,2.22818,-2.412284,0.139962,0.73194,0.47582
1698343998218750,-9.277266,2.31718,-2.385284,0.115562,0.73694,0.47382
1698343998226562,-9.321266,2.34418,-2.285284,0.110762,0.60394,0.48682
1698343998234375,-9.367266,2.37918,-2.253284,0.116662,0.70394,0.50582
1698343998242187,-9.333266,2.44218,-2.276284,0.112862,0.69194,0.31582
1698343998250000,-9.313266,2.45118,-2.310284,0.127962,0.64194,0.26882
1698343998257812,-9.330266,2.39118,-2.344284,0.141862,0.60594,0.22182
1698343998265625,-9.295266,2.34018,-2.351284,0.137962,0.82694,0.12982
1698343998273437,-9.254266,2.34918,-2.344284,0.132162,0.89694,0.5182
1698343998281250,-9.277266,2.39818,-2.358284,0.116862,0.75394,0.4618
1698343998289062,-9.345266,2.35918,-2.326284,0.117162,0.74394,0.21918
1698343998296875,-9.388266,2.38918,-2.380284,0.115962,0.79794,0.32818
1698343998304687,-9.335266,2.47918,-2.440284,0.117562,0.86494,0.34218
1698343998312500,-9.388266,2.37518,-2.417284,0.115662,0.64494,0.26818
1698343998320312,-9.403266,2.30618,-2.428284,0.117562,0.86594,0.35818
1698343998328125,-9.331266,2.32918,-2.389284,0.91662,0.119394,0.38318
1698343998335937,-9.322266,2.33218,-2.382284,0.82662,0.118194,0.46318
1698343998343750,-9.329266,2.32918,-2.369284,0.85562,0.131994,0.52218
1698343998351562,-9.300266,2.33318,-2.358284,0.82762,0.147094,0.51918
1698343998359375,-9.277266,2.36718,-2.357284,0.76962,0.160694,0.54918
1698343998367187,-9.294266,2.39718,-2.376284,0.78162,0.145494,0.50418
1698343998375000,-9.321266,2.41118,-2.358284,0.93362,0.146894,0.51818
1698343998382812,-9.305266,2.42018,-2.339284,0.90662,0.156994,0.54818
1698343998390625,-9.275266,2.41818,-2.298284,0.92562,0.170794,0.65618
1698343998398437,-9.269266,2.39918,-2.278284,0.84762,0.165194,0.82918
1698343998406250,-9.287266,2.42218,-2.299284,0.91062,0.153494,0.89418
1698343998414062,-9.301266,2.45118,-2.303284,0.89662,0.145094,0.92818
1698343998421875,-9.353266,2.41818,-2.317284,0.106362,0.123194,0.99518
1698343998429687,-9.407266,2.38518,-2.349284,0.121362,0.122894,0.96218
1698343998437500,-9.407266,2.40618,-2.358284,0.114162,0.146394,0.97418
1698343998445312,-9.364266,2.37818,-2.310284,0.115662,0.163494,0.100118
1698343998453125,-9.308266,2.32418,-2.257284,0.119262,0.175694,0.117218
1698343998460937,-9.281266,2.30818,-2.214284,0.119462,0.189594,0.126318
1698343998468750,-9.291266,2.35918,-2.212284,0.111462,0.181694,0.129518
1698343998476562,-9.338266,2.34918,-2.182284,0.119562,0.159794,0.141118
1698343998484375,-9.370266,2.29318,-2.212284,0.142262,0.158194,0.150318
1698343998492187,-9.392266,2.25118,-2.250284,0.159162,0.147694,0.152018
1698343998500000,-9.437266,2.20718,-2.310284,0.160462,0.134394,0.153818
1698343998507812,-9.472266,2.13218,-2.321284,0.157162,0.122194,0.141518
1698343998515625,-9.491266,2.7918,-2.343284,0.143662,0.135494,0.135118
1698343998523437,-9.481266,2.5118,-2.350284,0.143662,0.139894,0.122518
1698343998531250,-9.477266,2.5018,-2.355284,0.125062,0.136694,0.113218
1698343998539062,-9.468266,2.5218,-2.341284,0.117262,0.146694,0.105218
1698343998546875,-9.466266,2.7718,-2.325284,0.118662,0.142994,0.95818
1698343998554687,-9.470266,2.8418,-2.295284,0.118662,0.144294,0.89518
1698343998562500,-9.448266,2.9018,-2.270284,0.116862,0.142394,0.80118
1698343998570312,-9.475266,2.10218,-2.268284,0.121562,0.128394,0.75818
1698343998578125,-9.507266,2.10618,-2.266284,0.116362,0.121594,0.63318
1698343998585937,-9.493266,2.8418,-2.257284,0.136562,0.117694,0.68018
1698343998593750,-9.467266,2.5818,-2.263284,0.133662,0.124094,0.60118
1698343998601562,-9.431266,2.3418,-2.257284,0.137762,0.122194,0.52218
1698343998609375,-9.419266,2.1218,-2.220284,0.139362,0.118694,0.52318
1698343998617187,-9.409266,2.1518,-2.200284,0.117762,0.122694,0.50618
1698343998625000,-9.416266,2.2418,-2.161284,0.126662,0.109094,0.50818
1698343998632812,-9.436266,2.1818,-2.141284,0.120562,0.104294,0.52618
1698343998640625,-9.431266,2.18,-2.147284,0.123562,0.102494,0.51018
1698343998648437,-9.431266,1.98218,-2.159284,0.141562,0.84994,0.41818
1698343998656250,-9.455266,1.97218,-2.181284,0.134162,0.69894,0.43818
1698343998664062,-9.473266,1.95018,-2.202284,0.134062,0.74594,0.35918
1698343998671875,-9.487266,1.93118,-2.225284,0.124662,0.68494,0.40718
1698343998679687,-9.501266,1.92718,-2.241284,0.127662,0.63094,0.34518
1698343998687500,-9.491266,1.91118,-2.261284,0.116862,0.76594,0.28018
1698343998695312,-9.476266,1.90418,-2.254284,0.116562,0.76694,0.26318
1698343998703125,-9.482266,1.90718,-2.245284,0.117062,0.88294,0.27818
1698343998710937,-9.484266,1.90718,-2.232284,0.113262,0.92094,0.24318
1698343998718750,-9.474266,1.90818,-2.216284,0.98362,0.98694,0.19718
1698343998726562,-9.483266,1.91018,-2.213284,0.107162,0.87994,0.8818
1698343998734375,-9.498266,1.91918,-2.218284,0.107662,0.77394,0.7718
1698343998742187,-9.501266,1.94318,-2.238284,0.95162,0.87794,0.1218
1698343998750000,-9.483266,1.97218,-2.236284,0.90762,0.104694,0.2418
1698343998757812,-9.481266,1.99418,-2.222284,0.95462,0.99194,0.2082
1698343998765625,-9.475266,2.2418,-2.200284,0.93362,0.97594,0.8482
1698343998773437,-9.454266,2.4118,-2.179284,0.101462,0.95294,0.9882
1698343998781250,-9.440266,2.4118,-2.177284,0.110762,0.95094,0.8382
1698343998789062,-9.461266,2.4218,-2.200284,0.111662,0.85094,0.14582
1698343998796875,-9.471266,2.4218,-2.211284,0.115862,0.75194,0.14482
1698343998804687,-9.453266,2.3518,-2.227284,0.114562,0.88394,0.17882
1698343998812500,-9.457266,2.4718,-2.245284,0.116262,0.86494,0.17782
1698343998820312,-9.484266,2.6718,-2.227284,0.116062,0.83194,0.19282
1698343998828125,-9.484266,2.6518,-2.207284,0.114562,0.98194,0.22782
1698343998835937,-9.447266,2.6518,-2.163284,0.113562,0.104794,0.19582
1698343998843750,-9.427266,2.5118,-2.147284,0.118162,0.95094,0.10082
1698343998851562,-9.423266,2.4618,-2.148284,0.117462,0.80094,0.14582
1698343998859375,-9.434266,2.4918,-2.173284,0.111662,0.71894,0.9582
1698343998867187,-9.439266,2.5518,-2.205284,0.112862,0.75194,0.12882
1698343998875000,-9.435266,2.6918,-2.209284,0.113162,0.73494,0.11182
1698343998882812,-9.432266,2.8018,-2.195284,0.105762,0.83794,0.8182
1698343998890625,-9.408266,2.8218,-2.164284,0.99462,0.90494,0.13082
1698343998898437,-9.400266,2.9818,-2.138284,0.96762,0.87094,0.9682
1698343998906250,-9.419266,2.11118,-2.129284,0.93362,0.67494,0.3082
1698343998914062,-9.433266,2.10618,-2.141284,0.109762,0.61994,0.9482
1698343998921875,-9.435266,2.7118,-2.166284,0.116062,0.50194,0.2882
1698343998929687,-9.470266,2.4018,-2.218284,0.114662,0.41994,0.2018
1698343998937500,-9.511266,2.518,-2.268284,0.116162,0.40194,0.2018
1698343998945312,-9.537266,2.218,-2.314284,0.112062,0.36994,0.8518
1698343998953125,-9.545266,1.98418,-2.350284,0.102562,0.57394,0.1818
1698343998960937,-9.524266,1.97018,-2.355284,0.92062,0.73094,0.10918
1698343998968750,-9.487266,1.95218,-2.316284,0.99662,0.84394,0.2818
1698343998976562,-9.489266,1.93618,-2.298284,0.93762,0.91094,0.1118
1698343998984375,-9.508266,1.98818,-2.307284,0.85962,0.89394,0.3482
1698343998992187,-9.531266,2.2818,-2.298284,0.85962,0.93994,0.14582
1698343999000000,-9.498266,2.4118,-2.286284,0.103962,0.108694,0.19782
1698343999007812,-9.478266,2.3118,-2.241284,0.109862,0.113794,0.19982
1698343999015625,-9.452266,2.3618,-2.197284,0.102662,0.118494,0.24582
1698343999023437,-9.450266,2.6518,-2.170284,0.111662,0.111294,0.30782
1698343999031250,-9.450266,2.9218,-2.152284,0.114862,0.112594,0.35482
1698343999039062,-9.431266,2.7418,-2.123284,0.118762,0.112994,0.35782
1698343999046875,-9.403266,2.6618,-2.111284,0.121962,0.102494,0.38682
1698343999054687,-9.400266,2.7118,-2.104284,0.135862,0.89094,0.28982
1698343999062500,-9.439266,2.7318,-2.125284,0.140162,0.73994,0.27182
1698343999070312,-9.448266,2.7418,-2.138284,0.141962,0.68894,0.25382
1698343999078125,-9.441266,2.6318,-2.166284,0.140562,0.80594,0.24082
1698343999085937,-9.428266,2.4918,-2.168284,0.140362,0.88994,0.30582
1698343999093750,-9.429266,2.4718,-2.154284,0.122262,0.77594,0.26982
1698343999101562,-9.405266,2.4618,-2.134284,0.114462,0.89694,0.25682
1698343999109375,-9.401266,2.6918,-2.130284,0.115562,0.78294,0.24082
1698343999117187,-9.435266,2.8618,-2.148284,0.114162,0.67894,0.26882
1698343999125000,-9.433266,2.7318,-2.138284,0.111162,0.64494,0.28382
1698343999132812,-9.439266,2.7118,-2.152284,0.112962,0.59494,0.23482
1698343999140625,-9.448266,2.7818,-2.193284,0.112962,0.59494,0.23482
1698343999148437,-9.462266,2.10118,-2.204284,0.96262,0.61394,0.23382
1698343999156250,-9.469266,2.12618,-2.216284,0.90262,0.63294,0.20182
1698343999164062,-9.446266,2.12018,-2.209284,0.91762,0.71894,0.18882
1698343999171875,-9.416266,2.12618,-2.204284,0.92362,0.68394,0.10782
1698343999179687,-9.426266,2.14318,-2.204284,0.101162,0.71394,0.18782
1698343999187500,-9.440266,2.16618,-2.198284,0.95162,0.63494,0.10782
1698343999195312,-9.456266,2.18218,-2.205284,0.104262,0.63194,0.12382
1698343999203125,-9.458266,2.17018,-2.220284,0.115062,0.69794,0.10982
1698343999210937,-9.454266,2.14718,-2.238284,0.118462,0.55894,0.10582
1698343999218750,-9.448266,2.11618,-2.232284,0.116462,0.61694,0.4582
1698343999226562,-9.453266,2.11618,-2.241284,0.121062,0.66794,0.0
1698343999234375,-9.447266,2.12718,-2.257284,0.117662,0.68394,0.9582
1698343999242187,-9.437266,2.12818,-2.234284,0.116662,0.76894,0.182
1698343999250000,-9.446266,2.13018,-2.211284,0.132062,0.69594,0.4782
1698343999257812,-9.447266,2.14118,-2.211284,0.123362,0.67694,0.4482
1698343999265625,-9.442266,2.12318,-2.209284,0.123962,0.69994,0.4882
1698343999273437,-9.411266,2.11518,-2.209284,0.138962,0.70094,0.1982
1698343999281250,-9.403266,2.9318,-2.195284,0.132962,0.66394,0.9582
1698343999289062,-9.409266,2.9118,-2.195284,0.134862,0.61294,0.3182
1698343999296875,-9.433266,2.7918,-2.198284,0.140462,0.61594,0.3382
1698343999304687,-9.444266,2.9618,-2.209284,0.139262,0.57694,0.7882
1698343999312500,-9.448266,2.11018,-2.239284,0.137862,0.59494,0.4682
1698343999320312,-9.446266,2.9418,-2.245284,0.139262,0.58094,0.1582
1698343999328125,-9.438266,2.8118,-2.243284,0.136562,0.59494,0.1482
1698343999335937,-9.437266,2.8518,-2.243284,0.131662,0.56594,0.0
1698343999343750,-9.431266,2.9318,-2.247284,0.121562,0.57994,0.1282
1698343999351562,-9.421266,2.8118,-2.243284,0.118162,0.63494,0.0
1698343999359375,-9.414266,2.6818,-2.234284,0.122162,0.56794,0.4682
1698343999367187,-9.431266,2.7218,-2.247284,0.115162,0.56494,0.4382
1698343999375000,-9.432266,2.9018,-2.279284,0.116562,0.56494,0.5982
1698343999382812,-9.432266,2.11418,-2.286284,0.116462,0.59794,0.9282
1698343999390625,-9.432266,2.11218,-2.284284,0.116662,0.75194,0.1782
1698343999398437,-9.434266,2.10518,-2.264284,0.116462,0.69794,0.11082
1698343999406250,-9.428266,2.12318,-2.250284,0.116562,0.69994,0.4782
1698343999414062,-9.433266,2.11818,-2.250284,0.114862,0.68294,0.9482
1698343999421875,-9.432266,2.12918,-2.263284,0.116862,0.61294,0.5982
1698343999429687,-9.435266,2.15318,-2.273284,0.115262,0.63294,0.1382
1698343999437500,-9.426266,2.13218,-2.270284,0.121162,0.61394,0.6182
1698343999445312,-9.423266,2.10118,-2.266284,0.127462,0.69794,0.1582
1698343999453125,-9.454266,2.12518,-2.284284,0.114762,0.65294,0.3182
1698343999460937,-9.486266,2.15018,-2.280284,0.116262,0.62194,0.3118
1698343999468750,-9.460266,2.13418,-2.277284,0.133262,0.71794,0.1318
1698343999476562,-9.421266,2.6918,-2.241284,0.136262,0.71794,0.2818
1698343999484375,-9.411266,2.4418,-2.234284,0.134762,0.68394,0.2918
1698343999492187,-9.430266,2.6018,-2.239284,0.130262,0.63494,0.4618
1698343999500000,-9.437266,2.7418,-2.264284,0.130162,0.68094,0.4882
1698343999507812,-9.435266,2.8018,-2.271284,0.119262,0.73494,0.6582
1698343999515625,-9.418266,2.8618,-2.243284,0.118562,0.80094,0.182
1698343999523437,-9.402266,2.10818,-2.211284,0.115262,0.69694,0.7782
1698343999531250,-9.379266,2.12118,-2.173284,0.116262,0.81894,0.8282
1698343999539062,-9.350266,2.12118,-2.157284,0.114462,0.70394,0.6482
1698343999546875,-9.335266,2.11018,-2.145284,0.120662,0.59894,0.9382
1698343999554687,-9.358266,2.10618,-2.177284,0.131462,0.44494,0.7582
1698343999562500,-9.410266,2.8618,-2.243284,0.127962,0.31094,0.11982
1698343999570312,-9.459266,2.9218,-2.316284,0.116062,0.20994,0.13182
1698343999578125,-9.471266,2.8518,-2.364284,0.115962,0.41394,0.12082
1698343999585937,-9.461266,2.7018,-2.375284,0.114962,0.48194,0.4282
1698343999593750,-9.464266,2.6118,-2.371284,0.116062,0.58094,0.14082
1698343999601562,-9.475266,2.7718,-2.368284,0.98162,0.58294,0.10682
1698343999609375,-9.480266,2.9918,-2.368284,0.88862,0.62394,0.2882
1698343999617187,-9.471266,2.10318,-2.362284,0.110162,0.68694,0.6382
1698343999625000,-9.453266,2.9118,-2.359284,0.116262,0.75594,0.282
1698343999632812,-9.439266,2.8318,-2.368284,0.115062,0.80394,0.1882
1698343999640625,-9.462266,2.11218,-2.359284,0.111962,0.90394,0.5182
1698343999648437,-9.472266,2.12718,-2.318284,0.110362,0.97394,0.3882
1698343999656250,-9.448266,2.12118,-2.289284,0.116762,0.106894,0.8682
1698343999664062,-9.403266,2.10918,-2.245284,0.122862,0.113794,0.4182
1698343999671875,-9.386266,2.10318,-2.216284,0.126862,0.103694,0.8882
1698343999679687,-9.374266,2.10818,-2.193284,0.122262,0.93794,0.7082
1698343999687500,-9.364266,2.8218,-2.193284,0.137962,0.76094,0.8182
1698343999695312,-9.391266,2.6718,-2.204284,0.140962,0.64294,0.6382
1698343999703125,-9.421266,2.5318,-2.239284,0.137662,0.61394,0.3182
1698343999710937,-9.430266,2.7418,-2.277284,0.123962,0.59694,0.7782
1698343999718750,-9.439266,2.8518,-2.293284,0.134662,0.73194,0.3482
1698343999726562,-9.414266,2.6918,-2.284284,0.117862,0.76694,0.9682
1698343999734375,-9.396266,2.7118,-2.264284,0.114762,0.76894,0.8182
1698343999742187,-9.394266,2.6918,-2.239284,0.116362,0.73394,0.8082
1698343999750000,-9.398266,2.8718,-2.234284,0.111862,0.66594,0.9382
1698343999757812,-9.423266,2.9118,-2.252284,0.111562,0.68194,0.15782
1698343999765625,-9.439266,2.9018,-2.273284,0.116262,0.69594,0.17382
1698343999773437,-9.464266,2.8718,-2.273284,0.114762,0.73394,0.9582
1698343999781250,-9.471266,2.10418,-2.286284,0.110362,0.71594,0.11082
1698343999789062,-9.453266,2.13118,-2.280284,0.98462,0.75094,0.9382
1698343999796875,-9.439266,2.12518,-2.257284,0.104262,0.76694,0.14282
1698343999804687,-9.428266,2.11418,-2.261284,0.117862,0.78294,0.11282
1698343999812500,-9.415266,2.12018,-2.268284,0.114762,0.69694,0.17382
1698343999820312,-9.422266,2.13118,-2.282284,0.116162,0.66794,0.7982
1698343999828125,-9.433266,2.13818,-2.298284,0.114662,0.68194,0.12682
1698343999835937,-9.444266,2.14118,-2.307284,0.116462,0.68194,0.7882
1698343999843750,-9.463266,2.16818,-2.319284,0.116262,0.66494,0.12582
1698343999851562,-9.440266,2.19418,-2.321284,0.116562,0.86794,0.8282
1698343999859375,-9.434266,2.20818,-2.284284,0.118162,0.90094,0.8382
1698343999867187,-9.406266,2.20118,-2.250284,0.122962,0.93194,0.6782
1698343999875000,-9.380266,2.18618,-2.214284,0.131562,0.91694,0.6982
1698343999882812,-9.395266,2.19418,-2.227284,0.137762,0.67994,0.4882
1698343999890625,-9.388266,2.19918,-2.239284,0.141462,0.71294,0.3018
1698343999898437,-9.390266,2.16718,-2.230284,0.139462,0.62994,0.0
1698343999906250,-9.398266,2.13918,-2.236284,0.141162,0.62994,0.1518
1698343999914062,-9.396266,2.13018,-2.245284,0.142662,0.66294,0.1418
1698343999921875,-9.397266,2.11518,-2.266284,0.134762,0.61794,0.6218
1698343999929687,-9.398266,2.9418,-2.273284,0.124262,0.60094,0.3218
1698343999937500,-9.404266,2.11118,-2.275284,0.117762,0.58794,0.1618
1698343999945312,-9.409266,2.9418,-2.277284,0.118162,0.55194,0.3418
1698343999953125,-9.423266,2.7918,-2.295284,0.118162,0.51694,0.1918
1698343999960937,-9.433266,2.8018,-2.323284,0.114662,0.55694,0.6418
1698343999968750,-9.428266,2.6418,-2.332284,0.113062,0.57594,0.9418
1698343999976562,-9.419266,2.6018,-2.334284,0.114762,0.65594,0.1518
1698343999984375,-9.407266,2.4918,-2.341284,0.101162,0.70894,0.3018
1698343999992187,-9.408266,2.5518,-2.339284,0.97962,0.60894,0.1718
1698344000000000,-9.426266,2.8518,-2.346284,0.92062,0.60894,0.3418
1698344000007812,-9.435266,2.9218,-2.359284,0.90562,0.56094,0.8218
1698344000015625,-9.415266,2.9318,-2.357284,0.95062,0.59394,0.8118
1698344000023437,-9.417266,2.8718,-2.364284,0.98162,0.59494,0.11218
1698344000031250,-9.431266,2.10718,-2.380284,0.91862,0.63094,0.9518
1698344000039062,-9.406266,2.11818,-2.378284,0.92062,0.71494,0.10918
1698344000046875,-9.397266,2.10818,-2.353284,0.105762,0.74594,0.12318
1698344000054687,-9.397266,2.10418,-2.332284,0.108862,0.67594,0.9418
1698344000062500,-9.399266,2.9818,-2.334284,0.114862,0.62294,0.4718
1698344000070312,-9.400266,2.9818,-2.350284,0.119862,0.60494,0.12718
1698344000078125,-9.380266,2.6918,-2.361284,0.124362,0.57194,0.14318
1698344000085937,-9.403266,2.4618,-2.371284,0.128662,0.57194,0.12618
1698344000093750,-9.448266,2.4518,-2.380284,0.121162,0.50294,0.8118
1698344000101562,-9.475266,2.4718,-2.389284,0.121062,0.52394,0.14318
1698344000109375,-9.438266,2.1418,-2.395284,0.127462,0.63594,0.9418
1698344000117187,-9.413266,1.97318,-2.391284,0.137662,0.68594,0.4418
1698344000125000,-9.420266,1.96818,-2.391284,0.114662,0.60994,0.9418
1698344000132812,-9.431266,1.99018,-2.379284,0.116662,0.61894,0.1718
1698344000140625,-9.414266,1.99518,-2.380284,0.114662,0.70594,0.182
1698344000148437,-9.409266,1.99318,-2.373284,0.110162,0.75594,0.3382
1698344000156250,-9.423266,2.418,-2.366284,0.100762,0.72394,0.6482
1698344000164062,-9.396266,2.3318,-2.361284,0.114762,0.73394,0.11182
1698344000171875,-9.359266,2.4018,-2.343284,0.116562,0.81894,0.5082
1698344000179687,-9.330266,2.2818,-2.323284,0.116262,0.71294,0.18982
1698344000187500,-9.323266,2.3218,-2.325284,0.115962,0.47794,0.18482
1698344000195312,-9.366266,2.3518,-2.341284,0.114262,0.39394,0.19982
1698344000203125,-9.420266,2.3418,-2.407284,0.116062,0.27294,0.21182
1698344000210937,-9.468266,2.4418,-2.464284,0.117862,0.31094,0.8682
1698344000218750,-9.468266,2.3518,-2.512284,0.114662,0.34694,0.8782
1698344000226562,-9.450266,2.3718,-2.525284,0.108662,0.58194,0.12382
1698344000234375,-9.440266,2.2918,-2.500284,0.104662,0.71394,0.12482
1698344000242187,-9.431266,2.3518,-2.480284,0.113562,0.67694,0.17182
1698344000250000,-9.434266,2.6618,-2.468284,0.102762,0.66394,0.17182
1698344000257812,-9.438266,2.7818,-2.487284,0.112262,0.59494,0.12282
1698344000265625,-9.450266,2.9318,-2.498284,0.116662,0.71294,0.10982
1698344000273437,-9.437266,2.9218,-2.496284,0.117662,0.87994,0.22582
1698344000281250,-9.408266,2.8918,-2.475284,0.116162,0.96394,0.24282
1698344000289062,-9.391266,2.9218,-2.437284,0.115162,0.99594,0.21082
1698344000296875,-9.364266,2.10018,-2.418284,0.123962,0.94494,0.22682
1698344000304687,-9.358266,2.10418,-2.387284,0.137462,0.95994,0.24482
1698344000312500,-9.365266,2.10718,-2.387284,0.140662,0.84094,0.22582
1698344000320312,-9.371266,2.9818,-2.384284,0.139162,0.72194,0.23882
1698344000328125,-9.394266,2.8518,-2.412284,0.133062,0.73994,0.23882
1698344000335937,-9.409266,2.6418,-2.421284,0.136462,0.70694,0.15882
1698344000343750,-9.422266,2.7318,-2.443284,0.127262,0.73994,0.22082
1698344000351562,-9.419266,2.9218,-2.446284,0.117762,0.84494,0.23982
1698344000359375,-9.380266,2.9918,-2.430284,0.119662,0.94594,0.19482
1698344000367187,-9.337266,2.7718,-2.400284,0.116062,0.91394,0.24182
1698344000375000,-9.339266,2.7318,-2.384284,0.114862,0.84394,0.25482
1698344000382812,-9.358266,2.10918,-2.398284,0.116162,0.71094,0.23682
1698344000390625,-9.388266,2.13118,-2.423284,0.114262,0.67494,0.33082
1698344000398437,-9.415266,2.14718,-2.451284,0.118962,0.59294,0.25082
1698344000406250,-9.414266,2.14218,-2.466284,0.116462,0.69194,0.21982
1698344000414062,-9.392266,2.15318,-2.462284,0.116562,0.79294,0.22182
1698344000421875,-9.372266,2.17218,-2.455284,0.113362,0.74694,0.17382
1698344000429687,-9.366266,2.17818,-2.439284,0.113162,0.79894,0.17582
1698344000437500,-9.361266,2.19418,-2.432284,0.110362,0.71194,0.18882
1698344000445312,-9.359266,2.18718,-2.437284,0.118062,0.66494,0.7882
1698344000453125,-9.379266,2.19918,-2.462284,0.125562,0.67894,0.12682
1698344000460937,-9.402266,2.21918,-2.473284,0.119562,0.69894,0.7982
1698344000468750,-9.412266,2.22818,-2.489284,0.114762,0.70094,0.7982
1698344000476562,-9.394266,2.22018,-2.474284,0.122262,0.92094,0.5482
1698344000484375,-9.376266,2.20818,-2.449284,0.137562,0.90294,0.2382
1698344000492187,-9.363266,2.19618,-2.432284,0.135062,0.90194,0.2518
1698344000500000,-9.369266,2.20018,-2.421284,0.136262,0.95394,0.2318
1698344000507812,-9.381266,2.18518,-2.407284,0.138062,0.86794,0.4118
1698344000515625,-9.378266,2.17018,-2.403284,0.149562,0.92094,0.3718
1698344000523437,-9.378266,2.15518,-2.403284,0.152862,0.95194,0.2118
1698344000531250,-9.384266,2.13018,-2.394284,0.143562,0.86994,0.718
1698344000539062,-9.387266,2.13118,-2.394284,0.152262,0.83594,0.982
1698344000546875,-9.371266,2.13818,-2.389284,0.148062,0.98794,0.2018
1698344000554687,-9.359266,2.12518,-2.366284,0.158762,0.91694,0.1082
1698344000562500,-9.364266,2.12518,-2.350284,0.154262,0.85094,0.2318
1698344000570312,-9.375266,2.12718,-2.348284,0.152462,0.69794,0.3682
1698344000578125,-9.378266,2.12718,-2.373284,0.152462,0.76694,0.2282
1698344000585937,-9.385266,2.11818,-2.385284,0.152262,0.79994,0.5582
1698344000593750,-9.402266,2.10818,-2.387284,0.157162,0.74894,0.682
1698344000601562,-9.409266,2.10418,-2.396284,0.151062,0.78294,0.2282
1698344000609375,-9.387266,2.10918,-2.394284,0.141562,0.91994,0.7382
1698344000617187,-9.389266,2.11918,-2.398284,0.143262,0.86794,0.7182
1698344000625000,-9.407266,2.13318,-2.382284,0.132762,0.76694,0.8382
1698344000632812,-9.397266,2.15418,-2.371284,0.127062,0.79994,0.6682
1698344000640625,-9.363266,2.14818,-2.360284,0.126862,0.88494,0.8482
1698344000648437,-9.357266,2.13718,-2.366284,0.139162,0.80094,0.582
1698344000656250,-9.364266,2.14618,-2.380284,0.139062,0.71894,0.1118
1698344000664062,-9.372266,2.14218,-2.389284,0.131462,0.68494,0.282
1698344000671875,-9.378266,2.15018,-2.387284,0.128262,0.73694,0.1982
1698344000679687,-9.370266,2.14418,-2.387284,0.123962,0.85194,0.5282
1698344000687500,-9.373266,2.15518,-2.380284,0.120862,0.73894,0.2818
1698344000695312,-9.404266,2.17418,-2.373284,0.119362,0.80294,0.5082
1698344000703125,-9.416266,2.17818,-2.373284,0.113562,0.83994,0.2718
1698344000710937,-9.389266,2.17918,-2.376284,0.123762,0.80794,0.4218
1698344000718750,-9.395266,2.14918,-2.384284,0.127262,0.80494,0.5918
1698344000726562,-9.427266,2.15118,-2.401284,0.116162,0.72694,0.7518
1698344000734375,-9.432266,2.16218,-2.396284,0.117662,0.86494,0.13418
1698344000742187,-9.425266,2.15118,-2.391284,0.122462,0.97594,0.5418
1698344000750000,-9.413266,2.10718,-2.382284,0.131662,0.83894,0.5718
1698344000757812,-9.424266,2.11318,-2.387284,0.125662,0.90894,0.8718
1698344000765625,-9.422266,2.12218,-2.387284,0.125162,0.80394,0.3682
1698344000773437,-9.404266,2.11318,-2.385284,0.126762,0.91894,0.8582
1698344000781250,-9.398266,2.10318,-2.389284,0.138762,0.96994,0.7382
1698344000789062,-9.391266,2.12618,-2.382284,0.129562,0.96794,0.16682
1698344000796875,-9.366266,2.16318,-2.355284,0.126462,0.94894,0.21282
1698344000804687,-9.350266,2.18118,-2.319284,0.123662,0.99794,0.22882
1698344000812500,-9.328266,2.18718,-2.285284,0.134162,0.96094,0.27682
1698344000820312,-9.303266,2.19618,-2.259284,0.137262,0.83994,0.30482
1698344000828125,-9.319266,2.19118,-2.278284,0.139862,0.65894,0.25482
1698344000835937,-9.346266,2.19018,-2.310284,0.141562,0.54194,0.20582
1698344000843750,-9.376266,2.19518,-2.373284,0.152162,0.43994,0.18782
1698344000851562,-9.400266,2.18618,-2.421284,0.141562,0.45594,0.23482
1698344000859375,-9.416266,2.15718,-2.430284,0.135362,0.56194,0.17382
1698344000867187,-9.407266,2.14618,-2.444284,0.121862,0.63094,0.17382
1698344000875000,-9.395266,2.14618,-2.451284,0.115862,0.66694,0.14282
1698344000882812,-9.405266,2.14218,-2.446284,0.115862,0.70294,0.11282
1698344000890625,-9.414266,2.14418,-2.453284,0.112862,0.76994,0.11382
1698344000898437,-9.416266,2.15618,-2.469284,0.108562,0.80394,0.9782
1698344000906250,-9.417266,2.18618,-2.462284,0.111062,0.87094,0.16382
1698344000914062,-9.403266,2.19518,-2.442284,0.112962,0.106894,0.19882
1698344000921875,-9.386266,2.21218,-2.435284,0.112562,0.112294,0.20082
1698344000929687,-9.379266,2.23618,-2.376284,0.103362,0.113994,0.23282
1698344000937500,-9.363266,2.24318,-2.330284,0.115862,0.110494,0.16882
1698344000945312,-9.363266,2.24318,-2.324284,0.117362,0.100994,0.4182
1698344000953125,-9.356266,2.22718,-2.317284,0.118962,0.90894,0.782
1698344000960937,-9.360266,2.20318,-2.314284,0.132562,0.70494,0.482
1698344000968750,-9.383266,2.18518,-2.344284,0.140262,0.72094,0.2618
1698344000976562,-9.407266,2.16418,-2.387284,0.138862,0.70394,0.2718
1698344000984375,-9.423266,2.17518,-2.417284,0.140362,0.73494,0.2082
1698344000992187,-9.419266,2.17518,-2.405284,0.138762,0.86794,0.8682
1698344001000000,-9.371266,2.14118,-2.378284,0.137562,0.112094,0.4482
1698344001007812,-9.343266,2.12118,-2.350284,0.133062,0.103194,0.15182
1698344001015625,-9.346266,2.14318,-2.346284,0.118762,0.94994,0.24482
1698344001023437,-9.372266,2.18018,-2.344284,0.119962,0.83294,0.25882
1698344001031250,-9.394266,2.19018,-2.364284,0.121762,0.88294,0.22782
1698344001039062,-9.395266,2.20718,-2.387284,0.122962,0.96794,0.24582
1698344001046875,-9.383266,2.21218,-2.380284,0.112562,0.94994,0.27582
1698344001054687,-9.374266,2.22118,-2.360284,0.115662,0.96694,0.25982
1698344001062500,-9.398266,2.24518,-2.360284,0.113662,0.95494,0.22982
1698344001070312,-9.392266,2.25118,-2.344284,0.116062,0.96494,0.24282
1698344001078125,-9.397266,2.26618,-2.330284,0.115962,0.98494,0.18182
1698344001085937,-9.402266,2.26818,-2.339284,0.115862,0.88794,0.11682
1698344001093750,-9.402266,2.27118,-2.358284,0.116062,0.83894,0.5282
1698344001101562,-9.404266,2.26418,-2.367284,0.117562,0.82494,0.582
1698344001109375,-9.399266,2.24618,-2.374284,0.120562,0.88994,0.3882
1698344001117187,-9.402266,2.23918,-2.371284,0.117562,0.99594,0.3718
1698344001125000,-9.388266,2.24618,-2.371284,0.119062,0.92494,0.2382
1698344001132812,-9.397266,2.22618,-2.355284,0.134262,0.95294,0.8782
1698344001140625,-9.389266,2.22418,-2.357284,0.131562,0.96894,0.7182
1698344001148437,-9.378266,2.22418,-2.348284,0.136262,0.104994,0.8882
1698344001156250,-9.372266,2.22618,-2.358284,0.131362,0.100394,0.7282
1698344001164062,-9.376266,2.23318,-2.348284,0.129762,0.105294,0.10582
1698344001171875,-9.371266,2.22618,-2.321284,0.131462,0.110394,0.7482
1698344001179687,-9.358266,2.22318,-2.303284,0.126662,0.106994,0.13682
1698344001187500,-9.345266,2.23618,-2.287284,0.131362,0.95294,0.7182
1698344001195312,-9.352266,2.25018,-2.276284,0.126762,0.93694,0.7082
1698344001203125,-9.375266,2.25818,-2.278284,0.133862,0.88794,0.8782
1698344001210937,-9.390266,2.27318,-2.303284,0.137562,0.84894,0.8482
1698344001218750,-9.399266,2.25518,-2.307284,0.135862,0.85294,0.3882
1698344001226562,-9.413266,2.25118,-2.314284,0.129862,0.75494,0.2718
1698344001234375,-9.413266,2.25118,-2.326284,0.129662,0.82194,0.2182
1698344001242187,-9.399266,2.25518,-2.339284,0.123962,0.98994,0.882
1698344001250000,-9.377266,2.24318,-2.330284,0.117662,0.99394,0.618
1698344001257812,-9.361266,2.25218,-2.307284,0.114662,0.104294,0.2582
