time,Acceleration X (m/s^2),Acceleration Y (m/s^2),Acceleration Z (m/s^2),Angular Velocity X (rad/s),Angular Velocity Y (rad/s),Angular Velocity Z (rad/s)
1700767586054687,-9.335696,2.764579,-0.022574,,,
1700767586062500,-9.349696,0.78597,2.780579,0.4475,0.18974,0.11821
1700767586070312,-9.346696,0.79297,2.776579,0.5275,0.17874,0.10521
1700767586078125,-9.349696,0.80197,2.773579,0.1575,0.16474,0.20321
1700767586085937,-9.351696,0.80297,2.758579,0.1625,0.18674,0.19821
1700767586093750,-9.349696,0.81497,2.769579,0.4225,0.19474,0.15421
1700767586109375,-9.374696,0.79897,2.780579,0.425,0.27174,0.20021
1700767586117187,-9.389696,0.78597,2.798579,0.1375,0.31974,0.13521
1700767586125000,-9.382696,0.78197,2.791579,0.3875,0.33974,0.16921
1700767586132812,-9.364696,0.76797,2.771579,0.1575,0.31774,0.13421
1700767586156250,-9.353696,0.78297,2.726579,0.15475,0.36874,0.11821
1700767586164062,-9.346696,0.78597,2.753579,0.18375,0.40274,0.11821
1700767586171875,-9.344696,0.76997,2.767579,0.18175,0.33874,0.15121
1700767586179687,-9.353696,0.78397,2.780579,0.14675,0.34174,0.13621
1700767586187500,-9.364696,0.77897,2.756579,0.17075,0.31974,0.14921
1700767586195312,-9.362696,0.77697,2.737579,0.11675,0.35674,0.15221
1700767586203125,-9.349696,0.78997,2.726579,0.8475,0.40574,0.18521
1700767586210937,-9.351696,0.80997,2.760579,0.5575,0.43674,0.16921
1700767586218750,-9.360696,0.79697,2.771579,0.12375,0.42674,0.18821
1700767586226562,-9.369696,0.81097,2.785579,0.14575,0.43974,0.15321
1700767586234375,-9.373696,0.80697,2.793579,0.18575,0.39474,0.23521
1700767586242187,-9.380696,0.79297,2.798579,0.10175,0.32374,0.16821
1700767586250000,-9.374696,0.78797,2.792579,0.13875,0.35274,0.13421
1700767586257812,-9.364696,0.78597,2.778579,0.14975,0.35474,0.18321
1700767586265625,-9.358696,0.77897,2.794579,0.21375,0.33674,0.24621
1700767586273437,-9.337696,0.77497,2.836579,0.19375,0.29274,0.16821
1700767586281250,-9.317696,0.76497,2.634579,0.18475,0.9174,0.19721
1700767586289062,-9.323696,0.73897,2.564579,0.5175,0.24274,0.23321
1700767586296875,-9.358696,0.77697,2.812579,0.19675,0.38574,0.26321
1700767586304687,-9.385696,0.79297,2.900579,0.29575,0.25474,0.14821
1700767586312500,-9.351696,0.79197,2.747579,0.25475,0.20074,0.17821
1700767586320312,-9.310696,0.76297,2.481579,0.175,0.19474,0.28321
1700767586328125,-9.328696,0.72897,2.494579,0.3325,0.44874,0.20021
1700767586335937,-9.377696,0.75697,2.893579,0.19075,0.73274,0.28321
1700767586343750,-9.389696,0.78897,3.30579,0.26175,0.41974,0.15021
1700767586351562,-9.378696,0.77497,2.821579,0.38875,0.38674,0.10021
1700767586359375,-9.344696,0.76797,2.756579,0.30875,0.43474,0.22921
1700767586367187,-9.333696,0.77197,2.792579,0.33175,0.35074,0.9821
1700767586375000,-9.337696,0.75397,2.769579,0.20675,0.20274,0.13121
1700767586382812,-9.343696,0.73897,2.724579,0.18375,0.19174,0.11721
1700767586390625,-9.341696,0.74797,2.731579,0.15175,0.19174,0.16621
1700767586398437,-9.366696,0.78197,2.760579,0.8175,0.21274,0.13821
1700767586406250,-9.374696,0.80797,2.776579,0.7325,0.22574,0.21921
1700767586414062,-9.371696,0.81297,2.780579,0.2625,0.12774,0.26621
1700767586421875,-9.381696,0.81997,2.751579,0.2725,0.16074,0.26621
1700767586429687,-9.376696,0.81497,2.733579,0.1925,0.23674,0.24821
1700767586437500,-9.371696,0.80797,2.724579,0.6575,0.30774,0.28221
1700767586445312,-9.373696,0.80397,2.726579,0.1475,0.37574,0.26821
1700767586453125,-9.371696,0.79197,2.738579,0.975,0.43374,0.28121
1700767586460937,-9.364696,0.77897,2.735579,0.2325,0.48374,0.28221
1700767586468750,-9.348696,0.77297,2.726579,0.4975,0.43874,0.26721
1700767586476562,-9.355696,0.77697,2.722579,0.7375,0.36774,0.28021
1700767586484375,-9.344696,0.76297,2.708579,0.7975,0.42974,0.23021
1700767586492187,-9.335696,0.76497,2.720579,0.6075,0.48174,0.20021
1700767586500000,-9.342696,0.75897,2.733579,0.9275,0.43274,0.15121
1700767586507812,-9.342696,0.75697,2.737579,0.7575,0.43374,0.15121
1700767586515625,-9.351696,0.75897,2.744579,0.12475,0.41674,0.11821
1700767586523437,-9.351696,0.75697,2.758579,0.13775,0.43474,0.16721
1700767586531250,-9.355696,0.75897,2.785579,0.17675,0.38174,0.11621
1700767586539062,-9.378696,0.77897,2.780579,0.18275,0.38774,0.10321
1700767586546875,-9.376696,0.78397,2.789579,0.21775,0.46574,0.16521
1700767586554687,-9.371696,0.78597,2.780579,0.23875,0.47974,0.11621
1700767586562500,-9.369696,0.78997,2.780579,0.21875,0.43274,0.13321
1700767586570312,-9.362696,0.78997,2.753579,0.13875,0.43474,0.11821
1700767586578125,-9.353696,0.75297,2.780579,0.5725,0.47074,0.20321
1700767586585937,-9.353696,0.75197,2.900579,0.4625,0.49574,0.21621
1700767586593750,-9.351696,0.74997,2.852579,0.125,0.41574,0.18421
1700767586601562,-9.319696,0.76497,2.681579,0.5875,0.33574,0.23121
1700767586609375,-9.304696,0.76697,2.656579,0.7675,0.38374,0.21521
1700767586617187,-9.304696,0.78497,2.767579,0.15275,0.35374,0.15121
1700767586625000,-9.335696,0.77597,2.834579,0.17475,0.36674,0.8421
1700767586632812,-9.342696,0.76997,2.818579,0.19875,0.25674,0.11821
1700767586640625,-9.342696,0.75897,2.789579,0.21775,0.28674,0.13321
1700767586648437,-9.346696,0.76497,2.765579,0.20075,0.33574,0.16521
1700767586656250,-9.349696,0.77597,2.776579,0.22275,0.31574,0.14721
1700767586664062,-9.353696,0.77397,2.769579,0.15575,0.27074,0.13321
1700767586671875,-9.351696,0.77897,2.760579,0.17775,0.37474,0.13621
1700767586679687,-9.358696,0.78997,2.760579,0.21675,0.35274,0.16521
1700767586687500,-9.351696,0.78397,2.762579,0.21175,0.37274,0.13521
1700767586695312,-9.349696,0.78297,2.756579,0.18475,0.41774,0.19821
1700767586703125,-9.353696,0.78997,2.762579,0.7075,0.41974,0.21721
1700767586710937,-9.371696,0.77897,2.767579,0.18675,0.43274,0.14921
1700767586718750,-9.376696,0.77697,2.767579,0.18575,0.40174,0.15021
1700767586726562,-9.367696,0.75697,2.747579,0.6875,0.41274,0.10021
1700767586734375,-9.371696,0.75897,2.749579,0.12375,0.41774,0.11921
1700767586742187,-9.373696,0.75097,2.751579,0.17775,0.45574,0.13721
1700767586750000,-9.371696,0.75197,2.776579,0.18775,0.51474,0.10221
1700767586757812,-9.369696,0.75197,2.787579,0.12675,0.51374,0.11821
1700767586765625,-9.369696,0.74997,2.789579,0.10875,0.53174,0.11921
1700767586773437,-9.357696,0.75897,2.794579,0.10775,0.53074,0.18321
1700767586781250,-9.357696,0.76097,2.792579,0.10575,0.46874,0.12021
1700767586789062,-9.340696,0.76997,2.776579,0.15275,0.48474,0.10321
1700767586796875,-9.339696,0.76597,2.769579,0.16475,0.42174,0.10421
1700767586804687,-9.342696,0.77697,2.760579,0.16675,0.43674,0.11921
1700767586812500,-9.335696,0.78097,2.758579,0.14175,0.38374,0.10121
1700767586820312,-9.347696,0.77397,2.751579,0.14375,0.34874,0.16421
1700767586828125,-9.340696,0.78597,2.762579,0.16675,0.37174,0.13521
1700767586835937,-9.351696,0.78797,2.760579,0.14875,0.42174,0.10421
1700767586843750,-9.345696,0.78997,2.765579,0.20775,0.41374,0.9921
1700767586851562,-9.360696,0.77497,2.787579,0.20075,0.43574,0.7021
1700767586859375,-9.371696,0.75497,2.801579,0.21575,0.40274,0.11821
1700767586867187,-9.371696,0.75897,2.801579,0.18675,0.41774,0.10221
1700767586875000,-9.368696,0.75697,2.796579,0.19675,0.43674,0.15121
1700767586882812,-9.348696,0.75897,2.794579,0.21775,0.48174,0.16621
1700767586890625,-9.346696,0.76297,2.783579,0.21675,0.43474,0.15021
1700767586898437,-9.346696,0.75197,2.805579,0.19675,0.42074,0.18321
1700767586906250,-9.322696,0.76297,2.792579,0.21975,0.26974,0.14821
1700767586914062,-9.308696,0.76297,2.607579,0.15075,0.22274,0.26221
1700767586921875,-9.315696,0.76497,2.677579,0.18775,0.38374,0.14921
1700767586929687,-9.358696,0.78097,2.868579,0.28375,0.49574,0.21221
1700767586937500,-9.383696,0.80397,2.915579,0.37375,0.41874,0.13221
1700767586945312,-9.329696,0.79197,2.762579,0.30875,0.32274,0.8521
1700767586953125,-9.292696,0.74197,2.447579,0.4675,0.30174,0.18221
1700767586960937,-9.332696,0.72597,2.582579,0.8375,0.73274,0.15521
1700767586968750,-9.373696,0.77097,3.60579,0.22875,0.77974,0.10521
1700767586976562,-9.380696,0.78897,3.37579,0.38575,0.45374,0.11721
1700767586984375,-9.353696,0.78097,2.809579,0.32375,0.42074,0.10121
1700767586992187,-9.324696,0.77897,2.773579,0.19975,0.53474,0.8721
1700767587000000,-9.315696,0.78297,2.837579,0.21875,0.46574,0.11721
1700767587007812,-9.310696,0.76797,2.800579,0.16275,0.37474,0.10421
1700767587015625,-9.310696,0.75397,2.769579,0.7875,0.20374,0.14921
1700767587023437,-9.326696,0.78097,2.789579,0.3875,0.20874,0.20021
1700767587031250,-9.342696,0.80297,2.818579,0.3625,0.15774,0.16821
1700767587039062,-9.352696,0.82597,2.823579,0.3925,0.17374,0.28121
1700767587046875,-9.367696,0.82297,2.812579,0.3025,0.13574,0.26221
1700767587054687,-9.376696,0.80597,2.801579,0.0,0.24974,0.31021
1700767587062500,-9.372696,0.81197,2.778579,0.3475,0.32974,0.22921
1700767587070312,-9.369696,0.80097,2.765579,0.3275,0.39674,0.24621
1700767587078125,-9.353696,0.79197,2.744579,0.2475,0.43474,0.23321
1700767587085937,-9.349696,0.77897,2.753579,0.6625,0.44874,0.26521
1700767587093750,-9.344696,0.77897,2.762579,0.325,0.48174,0.26521
1700767587101562,-9.337696,0.76297,2.760579,0.7775,0.49674,0.21521
1700767587109375,-9.335696,0.75197,2.740579,0.7975,0.46274,0.19821
1700767587117187,-9.337696,0.74297,2.737579,0.11475,0.48674,0.21821
1700767587125000,-9.330696,0.74997,2.760579,0.15775,0.44774,0.16521
1700767587132812,-9.337696,0.72997,2.762579,0.19075,0.47974,0.16521
1700767587140625,-9.339696,0.73897,2.767579,0.10675,0.46674,0.15121
1700767587148437,-9.357696,0.74097,2.789579,0.9175,0.45074,0.13521
1700767587156250,-9.366696,0.73397,2.794579,0.16075,0.36274,0.22821
1700767587164062,-9.366696,0.74997,2.807579,0.17275,0.42974,0.26121
1700767587171875,-9.371696,0.75897,2.814579,0.18775,0.48074,0.21421
1700767587179687,-9.362696,0.77897,2.819579,0.21775,0.43274,0.18121
1700767587187500,-9.351696,0.78797,2.812579,0.19575,0.42074,0.20021
1700767587195312,-9.344696,0.78997,2.805579,0.21875,0.43174,0.21321
1700767587203125,-9.340696,0.78997,2.771579,0.9475,0.38074,0.26221
1700767587210937,-9.339696,0.77197,2.821579,0.2525,0.41974,0.31521
1700767587218750,-9.335696,0.77397,2.924579,0.7325,0.48474,0.30021
1700767587226562,-9.333696,0.76097,2.841579,0.3875,0.37074,0.26521
1700767587234375,-9.306696,0.76697,2.681579,0.21475,0.36874,0.26221
1700767587242187,-9.290696,0.75997,2.683579,0.10175,0.43674,0.21721
1700767587250000,-9.315696,0.77197,2.800579,0.13275,0.43674,0.23321
1700767587257812,-9.335696,0.77597,2.873579,0.16975,0.38474,0.15021
1700767587265625,-9.335696,0.76597,2.825579,0.19575,0.32174,0.23121
1700767587273437,-9.339696,0.76597,2.785579,0.20975,0.33974,0.21621
1700767587281250,-9.346696,0.76297,2.789579,0.19775,0.32074,0.23021
1700767587289062,-9.351696,0.76997,2.801579,0.16875,0.33574,0.19821
1700767587296875,-9.367696,0.77897,2.816579,0.17975,0.35474,0.24821
1700767587304687,-9.364696,0.77697,2.800579,0.14975,0.42074,0.18421
1700767587312500,-9.362696,0.78597,2.787579,0.15875,0.48974,0.18621
1700767587320312,-9.358696,0.77197,2.794579,0.20175,0.46574,0.19821
1700767587328125,-9.355696,0.78097,2.796579,0.16275,0.48774,0.20121
1700767587335937,-9.353696,0.76797,2.800579,0.15975,0.47174,0.23421
1700767587343750,-9.353696,0.77497,2.818579,0.11175,0.44074,0.20321
1700767587351562,-9.353696,0.77497,2.802579,0.18575,0.34474,0.28321
1700767587359375,-9.355696,0.76397,2.798579,0.11375,0.43974,0.18621
1700767587367187,-9.352696,0.75697,2.798579,0.20575,0.36074,0.15321
1700767587375000,-9.353696,0.75897,2.791579,0.19875,0.40274,0.18321
1700767587382812,-9.351696,0.75697,2.789579,0.16775,0.43574,0.16721
1700767587390625,-9.353696,0.75697,2.794579,0.16375,0.37274,0.15221
1700767587398437,-9.339696,0.75897,2.796579,0.16675,0.41874,0.18321
1700767587406250,-9.339696,0.75697,2.794579,0.21675,0.41774,0.13421
1700767587414062,-9.342696,0.75597,2.798579,0.20475,0.43174,0.16521
1700767587421875,-9.337696,0.77197,2.816579,0.19275,0.47274,0.13721
1700767587429687,-9.337696,0.77197,2.809579,0.21275,0.38774,0.16721
1700767587437500,-9.342696,0.77897,2.803579,0.17175,0.35074,0.18121
1700767587445312,-9.340696,0.77397,2.803579,0.16475,0.42074,0.20021
1700767587453125,-9.335696,0.77197,2.812579,0.21075,0.42174,0.15221
1700767587460937,-9.335696,0.76997,2.812579,0.20475,0.43174,0.13321
1700767587468750,-9.335696,0.77897,2.787579,0.13275,0.42074,0.21621
1700767587476562,-9.337696,0.77197,2.792579,0.21375,0.40274,0.18221
1700767587484375,-9.340696,0.77397,2.760579,0.20075,0.40174,0.15021
1700767587492187,-9.335696,0.76997,2.769579,0.17175,0.44774,0.21421
1700767587500000,-9.319696,0.77397,2.776579,0.21375,0.35574,0.11821
1700767587507812,-9.319696,0.77397,2.774579,0.20075,0.38474,0.18221
1700767587515625,-9.335696,0.76797,2.778579,0.19375,0.39074,0.13621
1700767587523437,-9.335696,0.77397,2.796579,0.13375,0.45474,0.8821
1700767587531250,-9.330696,0.77197,2.807579,0.19575,0.48574,0.18421
1700767587539062,-9.337696,0.78097,2.823579,0.21375,0.41974,0.18321
1700767587546875,-9.333696,0.77897,2.841579,0.19475,0.37274,0.20021
1700767587554687,-9.333696,0.77597,2.859579,0.20775,0.31574,0.11521
1700767587562500,-9.331696,0.78297,2.870579,0.21275,0.34074,0.10321
1700767587570312,-9.320696,0.78697,2.857579,0.20575,0.38274,0.13221
1700767587578125,-9.315696,0.78697,2.839579,0.21175,0.43674,0.18321
1700767587585937,-9.319696,0.78297,2.848579,0.17675,0.34274,0.13721
1700767587593750,-9.308696,0.79397,2.920579,0.20075,0.33574,0.16521
1700767587601562,-9.297696,0.78197,2.798579,0.18675,0.4074,0.17921
1700767587609375,-9.317696,0.77997,2.713579,0.275,0.7074,0.18021
1700767587617187,-9.376696,0.80197,2.922579,0.6175,0.18874,0.13421
1700767587625000,-9.421696,0.81297,3.156579,0.20375,0.12374,0.13221
1700767587632812,-9.401696,0.81597,3.262579,0.29375,0.13426,0.9821
1700767587640625,-9.331696,0.78097,3.60579,0.26775,0.30126,0.11221
1700767587648437,-9.339696,0.73597,2.927579,0.8375,0.14126,0.9721
1700767587656250,-9.386696,0.76197,3.350579,0.21175,0.14474,0.11821
1700767587664062,-9.367696,0.81297,3.774579,0.39775,0.17326,0.9421
1700767587671875,-9.332696,0.83897,3.733579,0.44475,0.66226,0.7521
1700767587679687,-9.262696,0.84697,3.595579,0.47075,0.75526,0.1979
1700767587687500,-9.193696,0.86997,3.715579,0.36375,0.93626,0.2721
1700767587695312,-9.103696,0.88197,3.839579,0.28975,0.151126,0.7221
1700767587703125,-9.34696,0.90597,3.803579,0.24775,0.198626,0.421
1700767587710937,-8.950696,0.89297,3.697579,0.22975,0.237726,0.3521
1700767587718750,-8.858696,0.90297,3.650579,0.28475,0.272526,0.4621
1700767587726562,-8.827696,0.91097,3.724579,0.35675,0.299826,0.6221
1700767587734375,-8.802696,0.90397,3.751579,0.46475,0.334826,0.979
1700767587742187,-8.770696,0.89297,3.613579,0.46975,0.365126,0.5621
1700767587750000,-8.752696,0.88997,3.528579,0.46275,0.372226,0.2121
1700767587757812,-8.754696,0.85697,3.539579,0.58475,0.373526,0.2679
1700767587765625,-8.799696,0.84597,3.559579,0.74775,0.391926,0.1621
1700767587773437,-8.810696,0.83797,3.589579,0.87075,0.406426,0.1521
1700767587781250,-8.736696,0.81597,3.512579,0.98875,0.439526,0.921
1700767587789062,-8.596696,0.78097,3.395579,0.104575,0.486526,0.7221
1700767587796875,-8.472696,0.76797,3.348579,0.133475,0.539126,0.8021
1700767587804687,-8.366696,0.74397,3.291579,0.146875,0.596026,0.22121
1700767587812500,-8.289696,0.72297,3.201579,0.147875,0.652226,0.31121
1700767587820312,-8.284696,0.69797,3.138579,0.152775,0.706326,0.38721
1700767587828125,-8.295696,0.66897,3.174579,0.153375,0.747726,0.52721
1700767587835937,-8.336696,0.69297,3.266579,0.156775,0.771526,0.65821
1700767587843750,-8.424696,0.73597,3.375579,0.146475,0.786826,0.75221
1700767587851562,-8.537696,0.79097,3.440579,0.128975,0.796626,0.83421
1700767587859375,-8.633696,0.86997,3.447579,0.125175,0.776826,0.99821
1700767587867187,-8.710696,0.92897,3.469579,0.123475,0.762126,0.98321
1700767587875000,-8.774696,0.95397,3.409579,0.115975,0.741126,0.96821
1700767587882812,-8.855696,0.95797,3.303579,0.105075,0.736226,0.90521
1700767587890625,-8.949696,0.94397,3.125579,0.98375,0.740826,0.95521
1700767587898437,-9.20696,0.91397,3.143579,0.90775,0.734626,0.98721
1700767587906250,-9.49696,0.91497,3.332579,0.87175,0.724526,0.99021
1700767587914062,-9.39696,0.94297,3.348579,0.81175,0.741026,0.100521
1700767587921875,-8.946696,0.92197,3.192579,0.76375,0.773526,0.97221
1700767587929687,-8.856696,0.89097,3.91579,0.75175,0.798226,0.98621
1700767587937500,-8.838696,0.89097,3.147579,0.78475,0.827526,0.90321
1700767587945312,-8.833696,0.87797,3.233579,0.73875,0.847226,0.91821
1700767587953125,-8.809696,0.88797,3.287579,0.78075,0.895126,0.81621
1700767587960937,-8.773696,0.88297,3.197579,0.92975,0.960726,0.76021
1700767587968750,-8.739696,0.90497,3.1579,0.100575,0.996226,0.67821
1700767587976562,-8.721696,0.91597,2.888579,0.113775,1.34026,0.59321
1700767587984375,-8.688696,0.91497,2.814579,0.128075,1.60226,0.60521
1700767587992187,-8.694696,0.92697,2.794579,0.126375,1.91026,0.55621
1700767588000000,-8.710696,0.91997,2.758579,0.128275,1.114126,0.55421
1700767588007812,-8.737696,0.91597,2.697579,0.122075,1.143626,0.61721
1700767588015625,-8.732696,0.88297,2.679579,0.109675,1.181126,0.58421
1700767588023437,-8.725696,0.87597,2.679579,0.113875,1.219326,0.59421
1700767588031250,-8.767696,0.82997,2.575579,0.107175,1.254826,0.49821
1700767588039062,-8.805696,0.78797,2.343579,0.112475,1.294426,0.52621
1700767588046875,-8.829696,0.76797,2.75579,0.108175,1.314226,0.50821
1700767588054687,-8.811696,0.74997,1.920579,0.130175,1.318926,0.40921
1700767588062500,-8.879696,0.77597,1.927579,0.147275,1.320226,0.29621
1700767588070312,-8.895696,0.77097,1.706579,0.138775,1.350426,0.40421
1700767588078125,-8.951696,0.69497,1.417579,0.146775,1.342926,0.40821
1700767588085937,-9.190696,0.68497,1.172579,0.156475,1.343026,0.39021
1700767588093750,-9.434696,0.67497,0.904579,0.140975,1.326826,0.31221
1700767588101562,-9.805696,0.63397,0.591579,0.123675,1.294226,0.31621
1700767588109375,-10.236696,0.60697,0.240579,0.110875,1.261626,0.43221
1700767588117187,-10.653696,0.58297,0.0,0.97775,1.209126,0.45421
1700767588125000,-10.945696,0.53797,0.250421,0.78175,1.150126,0.55721
1700767588132812,-11.257696,0.52497,0.493421,0.72275,1.81826,0.51221
1700767588140625,-11.538696,0.56497,0.712421,0.79175,1.43426,0.42121
1700767588148437,-11.794696,0.64697,0.892421,0.116975,1.25426,0.35321
1700767588156250,-11.992696,0.67597,0.998421,0.129275,0.999126,0.27421
1700767588164062,-12.210696,0.68397,-1.11421,0.126175,0.946926,0.29321
1700767588171875,-12.353696,0.75897,-1.173421,0.126175,0.915926,0.27821
1700767588179687,-12.332696,0.83197,-1.691421,0.101275,0.904526,0.15321
1700767588187500,-12.214696,0.79397,-2.383421,0.70875,0.868226,0.14421
1700767588195312,-11.921696,0.72797,-2.901421,0.74975,0.817326,0.16421
1700767588203125,-11.521696,0.74497,-3.175421,0.98675,0.778426,0.22721
1700767588210937,-10.999696,0.74197,-3.252421,0.124875,0.761726,0.24321
1700767588218750,-10.635696,0.73597,-3.455421,0.121475,0.753426,0.21221
1700767588226562,-10.572696,0.86597,-3.847421,0.53675,0.706026,0.27121
1700767588234375,-10.466696,0.84597,-4.211421,0.24825,0.605226,0.35021
1700767588242187,-10.360696,0.70697,-4.432421,0.85925,0.485226,0.33621
1700767588250000,-10.335696,0.51997,-4.676421,0.132025,0.373526,0.10921
1700767588257812,-10.510696,0.49897,-4.982421,0.158225,0.327426,0.35079
1700767588265625,-10.805696,0.54997,-5.200421,0.177925,0.258826,0.69879
1700767588273437,-10.765696,0.54597,-5.45421,0.175725,0.195426,0.84279
1700767588281250,-10.613696,0.45097,-4.935421,0.177025,0.224826,0.87679
1700767588289062,-10.561696,0.31197,-5.270421,0.134625,0.414926,0.97679
1700767588296875,-10.691696,0.27897,-5.694421,0.44425,0.604326,0.107879
1700767588304687,-11.38696,0.31797,-5.914421,0.6025,0.702326,0.120279
1700767588312500,-11.369696,0.40497,-5.698421,0.48625,0.707026,0.126179
1700767588320312,-11.620696,0.34697,-5.189421,0.108525,0.695826,0.102879
1700767588328125,-11.717696,0.34197,-4.817421,0.105225,0.732426,0.71179
1700767588335937,-11.603696,0.38897,-4.739421,0.69725,0.774726,0.47579
1700767588343750,-11.454696,0.35497,-4.824421,0.44525,0.767026,0.31979
1700767588351562,-11.461696,0.34197,-4.955421,0.25025,0.720726,0.28379
1700767588359375,-11.592696,0.42597,-5.72421,0.2925,0.657226,0.28379
1700767588367187,-11.671696,0.61597,-5.54421,0.36275,0.569626,0.31079
1700767588375000,-11.668696,0.77797,-4.880421,0.88375,0.470326,0.32879
1700767588382812,-11.645696,0.91997,-4.657421,0.106175,0.376426,0.40279
1700767588390625,-11.608696,0.98597,-4.603421,0.91775,0.316026,0.38079
1700767588398437,-11.631696,1.7097,-4.628421,0.53675,0.237326,0.48279
1700767588406250,-11.628696,1.14397,-4.630421,0.30175,0.142426,0.69979
1700767588414062,-11.615696,1.30797,-4.567421,0.3125,0.70326,0.77079
1700767588421875,-11.627696,1.35497,-4.538421,0.47625,0.22526,0.92079
1700767588429687,-11.556696,1.26397,-4.452421,0.55825,0.42274,0.114479
1700767588437500,-11.534696,1.27997,-4.331421,0.78325,0.83674,0.128279
1700767588445312,-11.519696,1.22197,-4.315421,0.114625,0.83674,0.126179
1700767588453125,-11.426696,1.18297,-4.353421,0.129025,0.82174,0.119479
1700767588460937,-11.436696,1.24997,-4.347421,0.149425,0.111674,0.128679
1700767588468750,-11.416696,1.36897,-4.252421,0.163425,0.130974,0.122079
1700767588476562,-11.253696,1.46397,-4.114421,0.167325,0.121474,0.112279
1700767588484375,-11.187696,1.54097,-3.961421,0.147325,0.123074,0.94779
1700767588492187,-11.189696,1.64097,-3.862421,0.157925,0.121174,0.91579
1700767588500000,-11.201696,1.68497,-3.855421,0.188525,0.133374,0.75479
1700767588507812,-11.201696,1.67097,-3.936421,0.217025,0.134874,0.60579
1700767588515625,-11.317696,1.62697,-4.13421,0.230625,0.150174,0.53679
1700767588523437,-11.436696,1.64397,-4.94421,0.241525,0.172774,0.45479
1700767588531250,-11.478696,1.60497,-4.166421,0.277225,0.219074,0.36379
1700767588539062,-11.520696,1.58397,-4.139421,0.282425,0.244974,0.15279
1700767588546875,-11.554696,1.57297,-4.137421,0.279925,0.261474,0.2621
1700767588554687,-11.489696,1.56697,-4.110421,0.293925,0.288874,0.18921
1700767588562500,-11.383696,1.56097,-4.121421,0.316825,0.308674,0.37121
1700767588570312,-11.329696,1.57397,-4.83421,0.342625,0.316974,0.53721
1700767588578125,-11.358696,1.52597,-4.83421,0.350425,0.305174,0.72921
1700767588585937,-11.361696,1.47497,-3.995421,0.343325,0.321574,0.93921
1700767588593750,-11.377696,1.44597,-3.855421,0.369225,0.357474,0.123521
1700767588601562,-11.354696,1.43697,-3.774421,0.393525,0.380474,0.146521
1700767588609375,-11.454696,1.50897,-3.765421,0.411925,0.373274,0.164121
1700767588617187,-11.505696,1.61897,-3.808421,0.436525,0.399574,0.188921
1700767588625000,-11.526696,1.67697,-3.792421,0.421725,0.445574,0.210121
1700767588632812,-11.566696,1.78397,-3.736421,0.387525,0.465074,0.224221
1700767588640625,-11.605696,1.83597,-3.702421,0.389525,0.463274,0.248421
1700767588648437,-11.422696,1.79297,-3.639421,0.390425,0.466774,0.274321
1700767588656250,-11.243696,1.82997,-3.477421,0.373325,0.482974,0.285521
1700767588664062,-11.108696,1.83697,-3.252421,0.371025,0.511074,0.298621
1700767588671875,-11.32696,1.82697,-3.159421,0.399625,0.546674,0.321721
1700767588679687,-11.36696,1.80297,-3.153421,0.447725,0.618874,0.330921
1700767588687500,-11.149696,1.81397,-3.234421,0.507325,0.644874,0.333321
1700767588695312,-11.190696,1.85197,-3.234421,0.540825,0.679174,0.353321
1700767588703125,-11.3696,1.83997,-3.11421,0.561625,0.737874,0.363521
1700767588710937,-10.672696,1.81097,-2.644421,0.568525,0.795174,0.376921
1700767588718750,-10.287696,1.75597,-2.333421,0.588425,0.823874,0.388321
1700767588726562,-9.913696,1.71297,-2.191421,0.628625,0.840674,0.398821
1700767588734375,-9.532696,1.63797,-2.205421,0.665025,0.839074,0.405721
1700767588742187,-9.126696,1.54297,-2.263421,0.685625,0.852274,0.399621
1700767588750000,-8.685696,1.35197,-2.247421,0.714225,0.843474,0.394821
1700767588757812,-8.273696,1.16197,-2.279421,0.762025,0.803074,0.395321
1700767588765625,-7.994696,0.99097,-2.387421,0.841125,0.730774,0.390821
1700767588773437,-7.739696,0.79797,-2.545421,0.913825,0.708774,0.388021
1700767588781250,-7.406696,0.61497,-2.462421,0.894825,0.747874,0.383121
1700767588789062,-7.22696,0.48997,-1.991421,0.835425,0.794174,0.358821
1700767588796875,-6.722696,0.27897,-1.442421,0.813425,0.800974,0.344121
1700767588804687,-6.531696,0.11497,-1.118421,0.834925,0.784674,0.326521
1700767588812500,-6.337696,0.7003,-1.8421,0.869625,0.776874,0.312521
1700767588820312,-6.106696,0.28603,-1.21421,0.911825,0.762174,0.300121
1700767588828125,-5.933696,0.48903,-1.111421,0.927425,0.748374,0.280521
1700767588835937,-5.786696,0.69103,-1.116421,0.943125,0.764874,0.264721
1700767588843750,-5.657696,0.90403,-1.35421,0.950725,0.773074,0.253621
1700767588851562,-5.574696,-1.3203,0.814421,0.960025,0.804074,0.244221
1700767588859375,-5.518696,-1.13203,0.463421,-1.1925,0.818674,0.231921
1700767588867187,-5.540696,-1.15603,0.148421,-1.18525,0.816074,0.229121
1700767588875000,-5.641696,-1.20103,0.122579,-1.31925,0.796174,0.220921
1700767588882812,-5.728696,-1.25503,0.221579,-1.66125,0.771774,0.201921
1700767588890625,-5.730696,-1.26403,0.272579,-1.65025,0.753574,0.174221
1700767588898437,-5.838696,-1.21103,0.153579,-1.83725,0.748974,0.153621
1700767588906250,-5.841696,-1.20003,0.38579,-1.100725,0.762074,0.136221
1700767588914062,-5.808696,-1.12503,0.22421,-1.88225,0.777174,0.112121
1700767588921875,-5.750696,-1.13703,0.101579,-1.71625,0.780174,0.95721
1700767588929687,-5.736696,-1.2403,0.185579,-1.75925,0.741074,0.81021
1700767588937500,-5.808696,0.98103,0.167579,-1.81325,0.693274,0.69321
1700767588945312,-5.797696,0.99203,0.131579,-1.90125,0.632574,0.70521
1700767588953125,-5.978696,0.91603,0.34579,-1.99825,0.563374,0.60221
1700767588960937,-6.107696,0.87003,0.50579,-1.110625,0.530774,0.52121
1700767588968750,-6.289696,0.86503,0.115579,-1.123025,0.509474,0.53721
1700767588976562,-6.430696,0.86703,0.252579,-1.139125,0.496774,0.49221
1700767588984375,-6.594696,0.76703,0.250579,-1.153125,0.473974,0.39621
1700767588992187,-6.785696,0.73003,0.41579,-1.176525,0.449474,0.33321
1700767589000000,-6.916696,0.72203,0.80421,-1.192925,0.439474,0.13921
1700767589007812,-7.107696,0.70103,0.86421,-1.220825,0.432774,0.12521
1700767589015625,-7.294696,0.65803,0.11579,-1.241625,0.431474,0.1721
1700767589023437,-7.497696,0.61703,0.144579,-1.248425,0.414974,0.24279
1700767589031250,-7.720696,0.62103,0.212579,-1.276425,0.406874,0.39979
1700767589039062,-7.878696,0.53803,0.174579,-1.304125,0.392174,0.59179
1700767589046875,-8.75696,0.50003,0.120579,-1.326725,0.397074,0.95979
1700767589054687,-8.320696,0.46503,0.122579,-1.349525,0.424574,0.115079
1700767589062500,-8.556696,0.46003,0.129579,-1.378825,0.465174,0.132279
1700767589070312,-8.742696,0.51803,0.219579,-1.404325,0.501674,0.154079
1700767589078125,-8.836696,0.56103,0.298579,-1.447025,0.521574,0.159679
1700767589085937,-8.879696,0.65403,0.298579,-1.474825,0.508474,0.173979
1700767589093750,-8.944696,0.83403,0.225579,-1.500125,0.505474,0.184879
1700767589101562,-9.22696,0.98203,0.151579,-1.538525,0.511374,0.183079
1700767589109375,-9.16696,-1.12403,0.187579,-1.566325,0.506174,0.182879
1700767589117187,-9.32696,-1.22603,0.259579,-1.606225,0.527774,0.185279
1700767589125000,-9.64696,-1.36303,0.315579,-1.642625,0.537474,0.173579
1700767589132812,-9.61696,-1.50003,0.306579,-1.683625,0.539174,0.171379
1700767589140625,-8.960696,-1.66403,0.372579,-1.719125,0.517574,0.172879
1700767589148437,-8.878696,-1.75403,0.423579,-1.753525,0.471774,0.171179
1700767589156250,-8.695696,-1.81503,0.426579,-1.782625,0.435674,0.182479
1700767589164062,-8.561696,-1.86803,0.486579,-1.809325,0.398074,0.179179
1700767589171875,-8.509696,-1.92803,0.783579,-1.831425,0.371874,0.170979
1700767589179687,-8.536696,-1.90303,0.948579,-1.855425,0.336974,0.176079
1700767589187500,-8.582696,-1.83403,0.802579,-1.895125,0.304474,0.169179
1700767589195312,-8.628696,-1.74403,0.660579,-1.906125,0.280174,0.175579
1700767589203125,-8.740696,-1.64303,0.590579,-1.918525,0.266874,0.170779
1700767589210937,-8.792696,-1.61503,0.644579,-1.911125,0.236174,0.164379
1700767589218750,-8.788696,-1.60803,0.687579,-1.907825,0.195274,0.163179
1700767589226562,-8.794696,-1.61103,0.646579,-1.905825,0.136074,0.155579
1700767589234375,-8.889696,-1.59603,0.522579,-1.906825,0.89974,0.148079
1700767589242187,-9.54696,-1.52003,0.385579,-1.907125,0.62174,0.132079
1700767589250000,-9.350696,-1.42903,0.263579,-1.926325,0.52374,0.118979
1700767589257812,-9.541696,-1.31303,0.295579,-1.945525,0.65474,0.107379
1700767589265625,-9.588696,-1.17303,0.552579,-1.956325,0.58674,0.100979
1700767589273437,-9.575696,0.96903,0.879579,-1.940425,0.22574,0.93379
1700767589281250,-9.557696,0.72003,1.90579,-1.923225,0.47826,0.76379
1700767589289062,-9.489696,0.47303,1.120579,-1.904725,0.131826,0.70979
1700767589296875,-9.491696,0.21603,1.149579,-1.878225,0.211826,0.58879
1700767589304687,-9.592696,0.9397,1.174579,-1.856925,0.266226,0.54879
1700767589312500,-9.759696,0.45897,1.161579,-1.857125,0.307826,0.32079
1700767589320312,-10.19696,0.81297,1.116579,-1.866025,0.331126,0.30679
1700767589328125,-10.328696,1.14297,1.155579,-1.868025,0.346526,0.31079
1700767589335937,-10.679696,1.48597,1.281579,-1.885425,0.338126,0.37179
1700767589343750,-10.974696,1.82997,1.371579,-1.905925,0.333026,0.51279
1700767589351562,-11.179696,2.14197,1.414579,-1.927325,0.329826,0.70479
1700767589359375,-11.336696,2.39897,1.412579,-1.933025,0.350826,0.101079
1700767589367187,-11.413696,2.61797,1.327579,-1.942425,0.365826,0.146379
1700767589375000,-11.393696,2.78197,1.203579,-1.951525,0.381326,0.202379
1700767589382812,-11.266696,2.79697,1.92579,-1.957625,0.396526,0.244579
1700767589390625,-11.38696,2.74697,0.968579,-1.979025,0.401026,0.292579
1700767589398437,-10.782696,2.60097,0.849579,-1.994925,0.402726,0.334379
1700767589406250,-10.616696,2.39497,0.702579,-2.35425,0.389326,0.370779
1700767589414062,-10.528696,2.17497,0.615579,-2.66625,0.360526,0.407679
1700767589421875,-10.460696,2.897,0.680579,-2.96225,0.326726,0.430679
1700767589429687,-10.355696,1.89197,0.833579,-2.117525,0.295626,0.459279
1700767589437500,-10.248696,1.82097,0.975579,-2.124925,0.276026,0.479979
1700767589445312,-10.132696,1.75097,1.103579,-2.106325,0.256226,0.484879
1700767589453125,-10.15696,1.72897,1.202579,-2.90825,0.251126,0.486479
1700767589460937,-9.840696,1.74197,1.303579,-2.55925,0.246426,0.490279
1700767589468750,-9.682696,1.71497,1.342579,-2.23425,0.246226,0.479279
1700767589476562,-9.482696,1.69597,1.364579,-1.976525,0.241426,0.466979
1700767589484375,-9.314696,1.72297,1.447579,-1.937925,0.238026,0.449579
1700767589492187,-9.201696,1.69697,1.495579,-1.903425,0.223626,0.432279
1700767589500000,-9.103696,1.74197,1.477579,-1.870925,0.219926,0.434079
1700767589507812,-9.16696,1.76197,1.477579,-1.834325,0.221926,0.433079
1700767589515625,-8.935696,1.81497,1.488579,-1.780325,0.217926,0.434979
1700767589523437,-8.875696,1.84197,1.472579,-1.723025,0.218526,0.432779
1700767589531250,-8.896696,1.90897,1.484579,-1.670025,0.227926,0.434879
1700767589539062,-8.951696,1.97497,1.463579,-1.613625,0.242426,0.437179
1700767589546875,-8.954696,1.98297,1.378579,-1.556925,0.255626,0.436379
1700767589554687,-8.924696,1.96997,1.373579,-1.501925,0.270226,0.438679
1700767589562500,-8.999696,1.90197,1.515579,-1.455325,0.271526,0.437479
1700767589570312,-9.103696,1.79297,1.540579,-1.420925,0.303926,0.441179
1700767589578125,-9.202696,1.73397,1.533579,-1.394425,0.332526,0.440479
1700767589585937,-9.236696,1.65297,1.517579,-1.377925,0.385926,0.437479
1700767589593750,-9.246696,1.57797,1.146579,-1.372925,0.431926,0.425079
1700767589601562,-9.287696,1.60497,1.94579,-1.335525,0.417126,0.420579
1700767589609375,-9.353696,1.66797,1.200579,-1.286125,0.390826,0.399879
1700767589617187,-9.444696,1.70697,1.98579,-1.249325,0.346626,0.374279
1700767589625000,-9.489696,1.74097,0.907579,-1.201825,0.302126,0.353379
1700767589632812,-9.557696,1.74897,0.819579,-1.136225,0.261326,0.337879
1700767589640625,-9.640696,1.75197,0.882579,-1.64425,0.199326,0.320679
1700767589648437,-9.631696,1.75397,0.986579,-1.5925,0.169426,0.306379
1700767589656250,-9.633696,1.73897,0.918579,0.962625,0.161026,0.293879
1700767589664062,-9.641696,1.70297,0.731579,0.929525,0.153126,0.284679
1700767589671875,-9.664696,1.69497,0.598579,0.904625,0.122126,0.275079
1700767589679687,-9.722696,1.69097,0.564579,0.893325,0.85726,0.256979
1700767589687500,-9.769696,1.70097,0.573579,0.875125,0.49726,0.236079
1700767589695312,-9.745696,1.70197,0.632579,0.859225,0.30626,0.217079
1700767589703125,-9.666696,1.70997,0.774579,0.828425,0.17726,0.185179
1700767589710937,-9.624696,1.74697,0.939579,0.800425,0.16426,0.153379
1700767589718750,-9.526696,1.76997,0.961579,0.761725,0.18126,0.131279
1700767589726562,-9.377696,1.76997,0.934579,0.714925,0.32826,0.114179
1700767589734375,-9.211696,1.74697,0.952579,0.660625,0.52326,0.90779
1700767589742187,-9.83696,1.74997,0.972579,0.619825,0.72126,0.76879
1700767589750000,-9.2696,1.76397,0.932579,0.587125,0.96526,0.67779
1700767589757812,-8.978696,1.79697,0.891579,0.578725,0.109126,0.49979
1700767589765625,-8.998696,1.84397,0.846579,0.571225,0.141826,0.30879
1700767589773437,-9.58696,1.92497,0.817579,0.557125,0.164726,0.23179
1700767589781250,-9.71696,2.497,0.785579,0.553725,0.181626,0.5779
1700767589789062,-8.975696,2.9397,0.772579,0.555225,0.201226,0.2679
1700767589796875,-8.766696,2.17497,0.799579,0.553125,0.235826,0.4679
1700767589804687,-8.618696,2.27597,0.884579,0.558825,0.284126,0.1921
1700767589812500,-8.575696,2.38497,0.826579,0.568425,0.327626,0.7721
1700767589820312,-8.575696,2.48997,0.662579,0.573925,0.368026,0.19021
1700767589828125,-8.560696,2.55797,0.518579,0.577525,0.416226,0.31221
1700767589835937,-8.523696,2.65497,0.520579,0.565525,0.433926,0.34421
1700767589843750,-8.504696,2.71497,0.597579,0.569825,0.468526,0.42121
1700767589851562,-8.532696,2.76597,0.518579,0.580725,0.512826,0.53221
1700767589859375,-8.572696,2.75097,0.272579,0.593525,0.539126,0.75721
1700767589867187,-8.582696,2.66497,0.56579,0.604825,0.563826,0.99821
1700767589875000,-8.659696,2.56397,0.146421,0.607625,0.565226,0.130621
1700767589882812,-8.780696,2.39297,0.222421,0.632025,0.558726,0.163221
1700767589890625,-8.913696,2.23697,0.297421,0.658625,0.557726,0.200321
1700767589898437,-9.37696,2.11697,0.443421,0.676525,0.563026,0.243921
1700767589906250,-9.150696,2.5397,0.673421,0.689725,0.546726,0.271521
1700767589914062,-9.318696,2.2597,0.835421,0.700425,0.518826,0.305821
1700767589921875,-9.516696,2.2397,0.869421,0.716625,0.478226,0.338321
1700767589929687,-9.707696,2.3397,0.835421,0.733725,0.428826,0.364821
1700767589937500,-9.862696,2.997,0.752421,0.728225,0.384726,0.387621
1700767589945312,-9.940696,2.1797,0.635421,0.708725,0.346826,0.400721
1700767589953125,-10.28696,1.99497,0.574421,0.691825,0.309226,0.413621
1700767589960937,-10.85696,1.91397,0.594421,0.663425,0.300626,0.437721
1700767589968750,-10.140696,1.83897,0.597421,0.638225,0.287926,0.458321
1700767589976562,-10.177696,1.73097,0.621421,0.613325,0.279926,0.475721
1700767589984375,-10.139696,1.63097,0.565421,0.609425,0.261526,0.480821
1700767589992187,-10.77696,1.54797,0.498421,0.614325,0.246726,0.485821
1700767590000000,-10.74696,1.48097,0.308421,0.629625,0.224226,0.484421
1700767590007812,-10.46696,1.42497,0.209421,0.641425,0.221426,0.479521
1700767590015625,-9.978696,1.35997,0.45421,0.613925,0.209626,0.492321
1700767590023437,-9.993696,1.34697,0.173579,0.584325,0.220926,0.491921
1700767590031250,-10.171696,1.34497,0.130579,0.554625,0.221126,0.509321
1700767590039062,-10.339696,1.30697,0.87421,0.539925,0.223426,0.526521
1700767590046875,-10.464696,1.27397,0.230421,0.504525,0.207526,0.546121
1700767590054687,-10.585696,1.21997,0.299421,0.443725,0.185526,0.554821
1700767590062500,-10.606696,1.16497,0.286421,0.373625,0.159126,0.554221
1700767590070312,-10.671696,1.10797,0.241421,0.320625,0.135926,0.555521
1700767590078125,-10.769696,0.94097,0.218421,0.264025,0.127726,0.553221
1700767590085937,-10.829696,0.72897,0.369421,0.233525,0.134626,0.547821
1700767590093750,-10.836696,0.46297,0.539421,0.190625,0.120626,0.533321
1700767590101562,-10.794696,0.22097,0.599421,0.157225,0.99326,0.512121
1700767590109375,-10.559696,0.3203,0.426421,0.124825,0.88126,0.487521
1700767590117187,-10.149696,0.18803,0.50421,0.76225,0.102426,0.470821
1700767590125000,-9.747696,0.33403,0.106579,0.45925,0.151326,0.454121
1700767590132812,-9.418696,0.57003,0.19579,0.13725,0.203926,0.446821
1700767590140625,-9.42696,0.72403,0.82421,0.15775,0.239526,0.446321
1700767590148437,-8.712696,0.84503,0.242421,0.54875,0.282826,0.443621
1700767590156250,-8.458696,0.96203,0.377421,0.76275,0.313326,0.445021
1700767590164062,-8.201696,-1.6603,0.515421,0.81075,0.323126,0.440021
1700767590171875,-8.58696,-1.15003,0.641421,0.90575,0.321526,0.435121
1700767590179687,-8.111696,-1.20303,0.771421,0.87775,0.305226,0.422321
1700767590187500,-8.421696,-1.23803,0.960421,0.89975,0.298826,0.409421
1700767590195312,-8.811696,-1.26103,-1.71421,0.93475,0.271126,0.391821
1700767590203125,-9.222696,-1.28403,-1.177421,0.99375,0.237626,0.363221
1700767590210937,-9.572696,-1.18503,-1.316421,0.124275,0.191426,0.334421
1700767590218750,-9.786696,-1.13303,-1.472421,0.176675,0.156926,0.301821
1700767590226562,-9.904696,-1.7803,-1.663421,0.220975,0.118826,0.258121
1700767590234375,-10.219696,-1.4403,-1.686421,0.246375,0.100426,0.219421
1700767590242187,-10.321696,-1.903,-1.670421,0.248975,0.123326,0.187021
1700767590250000,-10.112696,0.99003,-1.701421,0.224575,0.165726,0.156421
1700767590257812,-10.102696,-1.2203,-1.936421,0.183375,0.177226,0.113221
1700767590265625,-9.984696,0.93903,-1.913421,0.192675,0.171626,0.81221
1700767590273437,-9.942696,0.92603,-1.668421,0.189175,0.149126,0.52221
1700767590281250,-9.950696,0.98203,-1.431421,0.176775,0.122926,0.33221
1700767590289062,-10.6696,-1.5203,-1.442421,0.162175,0.111726,0.5921
1700767590296875,-9.997696,-1.15203,-1.582421,0.145975,0.117126,0.5479
1700767590304687,-10.12696,-1.22503,-1.647421,0.139375,0.79226,0.17879
1700767590312500,-9.990696,-1.31403,-1.501421,0.128275,0.21826,0.31879
1700767590320312,-9.906696,-1.36803,-1.168421,0.124375,0.11426,0.37879
1700767590328125,-9.702696,-1.37803,0.886421,0.96575,0.18226,0.42479
1700767590335937,-9.432696,-1.36203,0.699421,0.46275,0.41026,0.40479
1700767590343750,-9.208696,-1.31203,0.648421,0.11525,0.63926,0.49579
1700767590351562,-8.959696,-1.27403,0.645421,0.65925,0.80626,0.52479
1700767590359375,-8.773696,-1.20503,0.742421,0.132425,0.94826,0.59479
1700767590367187,-8.662696,-1.13903,0.805421,0.175225,0.75726,0.84879
1700767590375000,-8.547696,-1.5803,0.729421,0.201725,0.57626,0.97379
1700767590382812,-8.408696,0.98303,0.580421,0.215425,0.39426,0.130779
1700767590390625,-8.357696,0.83903,0.384421,0.218025,0.37326,0.175679
1700767590398437,-8.307696,0.74503,0.269421,0.224625,0.58826,0.214579
1700767590406250,-8.231696,0.68603,0.199421,0.224425,0.69026,0.256779
1700767590414062,-8.71696,0.69903,0.39421,0.214625,0.84626,0.308279
1700767590421875,-7.833696,0.73003,0.102579,0.173825,0.161526,0.352879
1700767590429687,-7.572696,0.71103,0.88579,0.123025,0.267226,0.387779
1700767590437500,-7.374696,0.74103,0.127421,0.94325,0.393226,0.438979
1700767590445312,-7.242696,0.68603,0.458421,0.72225,0.493226,0.472279
1700767590453125,-7.97696,0.60603,0.713421,0.40125,0.547126,0.489179
1700767590460937,-7.122696,0.47503,-1.37421,0.11125,0.599426,0.510879
1700767590468750,-7.145696,0.30603,-1.262421,0.56875,0.592826,0.532579
1700767590476562,-7.172696,0.12603,-1.318421,0.123075,0.576226,0.557379
1700767590484375,-7.130696,0.4797,-1.305421,0.177875,0.528626,0.568879
1700767590492187,-7.74696,0.24497,-1.84421,0.248575,0.490526,0.598279
1700767590500000,-7.85696,0.45797,0.892421,0.315075,0.484126,0.613679
1700767590507812,-7.99696,0.66297,0.692421,0.404875,0.488726,0.634079
1700767590515625,-7.125696,0.85597,0.644421,0.498075,0.521626,0.640279
1700767590523437,-7.179696,1.1197,0.714421,0.587475,0.534526,0.638179
1700767590531250,-7.182696,1.7197,0.773421,0.638375,0.544126,0.612879
1700767590539062,-7.268696,1.11497,0.935421,0.664475,0.556026,0.563579
1700767590546875,-7.410696,1.13497,-1.160421,0.657675,0.560626,0.498779
1700767590554687,-7.639696,1.12097,-1.383421,0.656575,0.562826,0.424879
1700767590562500,-7.865696,1.6397,-1.432421,0.641475,0.548626,0.361879
1700767590570312,-8.225696,1.10997,-1.423421,0.635575,0.524026,0.319679
1700767590578125,-8.474696,1.19597,-1.322421,0.630875,0.477926,0.286879
1700767590585937,-8.644696,1.31697,-1.252421,0.652075,0.474426,0.269279
1700767590593750,-8.704696,1.40897,-1.257421,0.647275,0.484326,0.262879
1700767590601562,-8.647696,1.47397,-1.367421,0.638875,0.537326,0.253779
1700767590609375,-8.499696,1.55197,-1.567421,0.603475,0.600626,0.238979
1700767590617187,-8.337696,1.63997,-1.826421,0.552475,0.676526,0.218279
1700767590625000,-8.50696,1.66997,-1.901421,0.518375,0.711426,0.197379
1700767590632812,-7.682696,1.70697,-1.799421,0.471475,0.749426,0.185979
1700767590640625,-7.430696,1.74097,-1.865421,0.412775,0.809626,0.169379
1700767590648437,-7.296696,1.78097,-2.83421,0.346275,0.821926,0.162579
1700767590656250,-7.245696,1.82197,-2.371421,0.335675,0.819326,0.168379
1700767590664062,-7.294696,1.92297,-2.671421,0.356975,0.804826,0.188079
1700767590671875,-7.373696,1.98397,-2.941421,0.387775,0.739326,0.184679
1700767590679687,-7.362696,1.80597,-2.982421,0.424875,0.657526,0.174979
1700767590687500,-7.368696,1.36697,-2.905421,0.448875,0.621426,0.142679
1700767590695312,-7.396696,0.96597,-2.714421,0.452475,0.628226,0.89579
1700767590703125,-7.445696,0.69197,-2.586421,0.412175,0.661226,0.24979
1700767590710937,-7.448696,0.40997,-2.680421,0.339275,0.704526,0.47821
1700767590718750,-7.615696,0.17997,-2.897421,0.249575,0.697626,0.94321
1700767590726562,-7.777696,0.6897,-3.217421,0.185075,0.655826,0.130521
1700767590734375,-7.985696,0.2297,-3.519421,0.152175,0.575126,0.139821
1700767590742187,-8.154696,0.1003,-3.725421,0.135575,0.472726,0.132321
1700767590750000,-8.306696,0.3203,-3.840421,0.144075,0.392026,0.120121
1700767590757812,-8.538696,0.3603,-3.948421,0.159075,0.292426,0.85021
1700767590765625,-8.773696,0.5697,-3.930421,0.158075,0.167526,0.65221
1700767590773437,-8.822696,0.16897,-3.863421,0.175975,0.55926,0.61021
1700767590781250,-8.799696,0.27497,-3.737421,0.217875,0.21226,0.52921
1700767590789062,-8.838696,0.36197,-3.707421,0.242375,0.65726,0.47221
1700767590796875,-9.66696,0.38297,-3.750421,0.247875,0.142726,0.33721
1700767590804687,-9.587696,0.54397,-3.903421,0.247575,0.231026,0.921
1700767590812500,-10.121696,0.76997,-4.112421,0.238875,0.265126,0.34579
1700767590820312,-10.411696,0.91397,-4.162421,0.211175,0.222626,0.63079
1700767590828125,-10.350696,1.1497,-4.110421,0.193875,0.195926,0.97879
1700767590835937,-10.262696,1.3397,-4.20421,0.195175,0.192926,0.133479
1700767590843750,-10.185696,1.1497,-3.874421,0.199575,0.159626,0.160479
1700767590851562,-10.172696,1.1697,-3.572421,0.217675,0.98026,0.175079
1700767590859375,-10.88696,1.8497,-3.385421,0.206775,0.94426,0.198879
1700767590867187,-10.20696,0.96197,-3.419421,0.161575,0.92026,0.191579
1700767590875000,-9.928696,0.81197,-3.592421,0.148275,0.66526,0.191579
1700767590882812,-9.707696,0.74397,-3.534421,0.161275,0.874,0.179779
1700767590890625,-9.448696,0.69297,-3.455421,0.111875,0.100274,0.152879
1700767590898437,-9.311696,0.68197,-3.439421,0.41475,0.180574,0.125579
1700767590906250,-9.403696,0.67697,-3.423421,0.18875,0.260674,0.110279
1700767590914062,-9.408696,0.71497,-3.419421,0.37275,0.319474,0.100479
1700767590921875,-9.262696,0.72797,-3.597421,0.68375,0.302874,0.75279
1700767590929687,-9.149696,0.66197,-3.926421,0.91675,0.281574,0.57979
1700767590937500,-9.133696,0.55297,-4.275421,0.96175,0.276674,0.46779
1700767590945312,-9.120696,0.44797,-4.563421,0.100275,0.248974,0.25979
1700767590953125,-9.90696,0.38997,-4.710421,0.108475,0.190074,0.24879
1700767590960937,-9.405696,0.37697,-4.838421,0.121975,0.143974,0.35179
1700767590968750,-9.630696,0.40197,-4.725421,0.130275,0.122474,0.32379
1700767590976562,-9.852696,0.49497,-4.545421,0.115775,0.96574,0.35379
1700767590984375,-10.158696,0.64397,-4.439421,0.85475,0.66774,0.48379
1700767590992187,-10.377696,0.87097,-4.250421,0.62675,0.68274,0.72279
1700767591000000,-10.613696,1.8197,-4.83421,0.31775,0.85774,0.101879
1700767591007812,-10.811696,1.22697,-4.421,0.20175,0.96874,0.122779
1700767591015625,-10.881696,1.36897,-3.990421,0.31975,0.111474,0.147179
1700767591023437,-10.858696,1.44497,-4.2421,0.53875,0.139374,0.153579
1700767591031250,-10.820696,1.48597,-4.29421,0.68875,0.169174,0.151779
1700767591039062,-10.773696,1.53697,-4.45421,0.73375,0.185474,0.143679
1700767591046875,-10.694696,1.47297,-4.47421,0.89475,0.196574,0.142379
1700767591054687,-10.623696,1.42397,-4.63421,0.99175,0.210474,0.138779
1700767591062500,-10.627696,1.34997,-4.126421,0.86475,0.272474,0.133479
1700767591070312,-10.557696,1.20897,-4.148421,0.65575,0.347574,0.124679
1700767591078125,-10.437696,1.10297,-4.101421,0.47575,0.417174,0.129279
1700767591085937,-10.279696,1.7997,-4.135421,0.45175,0.441974,0.115979
1700767591093750,-10.174696,0.99497,-4.234421,0.60775,0.438874,0.119379
1700767591101562,-10.336696,0.99297,-4.333421,0.70775,0.441174,0.122279
1700767591109375,-10.397696,1.1597,-4.473421,0.70775,0.434474,0.109579
1700767591117187,-10.472696,1.5897,-4.509421,0.72775,0.462074,0.122379
1700767591125000,-10.585696,1.1697,-4.534421,0.68475,0.511774,0.118479
1700767591132812,-10.625696,1.8997,-4.459421,0.70975,0.577974,0.118479
1700767591140625,-10.806696,1.19097,-4.441421,0.68575,0.596574,0.121279
1700767591148437,-10.887696,1.14997,-4.446421,0.73175,0.612774,0.109979
1700767591156250,-10.990696,1.13397,-4.470421,0.94475,0.630874,0.93979
1700767591164062,-10.828696,1.29797,-4.428421,0.115475,0.651074,0.92179
1700767591171875,-10.850696,1.39097,-4.394421,0.102375,0.648774,0.95579
1700767591179687,-11.16696,1.38497,-4.497421,0.93075,0.617674,0.90879
1700767591187500,-11.11696,1.46597,-4.447421,0.120575,0.597174,0.67579
1700767591195312,-11.94696,1.47497,-4.333421,0.114875,0.555274,0.60979
1700767591203125,-11.316696,1.44897,-4.378421,0.122075,0.497574,0.60079
1700767591210937,-11.292696,1.49097,-4.294421,0.160675,0.497874,0.52379
1700767591218750,-11.212696,1.54097,-4.135421,0.186375,0.557174,0.42379
1700767591226562,-11.137696,1.50697,-4.87421,0.160975,0.617374,0.28879
1700767591234375,-11.61696,1.49897,-4.168421,0.122475,0.642074,0.13679
1700767591242187,-10.994696,1.52597,-4.265421,0.78575,0.672674,0.6121
1700767591250000,-10.927696,1.54997,-4.310421,0.38775,0.689174,0.11721
1700767591257812,-10.944696,1.50097,-4.317421,0.7825,0.690374,0.20121
1700767591265625,-11.39696,1.43597,-4.286421,0.43225,0.710474,0.20921
1700767591273437,-11.145696,1.44497,-4.252421,0.70425,0.728674,0.19821
1700767591281250,-11.205696,1.43897,-4.169421,0.86525,0.743674,0.20321
1700767591289062,-11.228696,1.41697,-4.103421,0.102225,0.756474,0.33321
1700767591296875,-11.187696,1.37197,-4.27421,0.125425,0.795274,0.33621
1700767591304687,-11.162696,1.38297,-3.986421,0.148325,0.826874,0.36021
1700767591312500,-11.185696,1.37597,-3.945421,0.167125,0.832574,0.19721
1700767591320312,-11.279696,1.39397,-3.828421,0.180125,0.834574,0.12021
1700767591328125,-11.560696,1.39797,-3.664421,0.179025,0.807274,0.8821
1700767591335937,-11.746696,1.34297,-3.398421,0.162625,0.777274,0.21021
1700767591343750,-11.574696,1.28597,-3.94421,0.144725,0.749974,0.38621
1700767591351562,-11.322696,1.24397,-2.831421,0.135325,0.756374,0.44921
1700767591359375,-11.178696,1.21797,-2.707421,0.136725,0.770974,0.40221
1700767591367187,-10.991696,1.20597,-2.698421,0.132125,0.777674,0.33821
1700767591375000,-10.933696,1.25597,-2.567421,0.111925,0.774574,0.32021
1700767591382812,-11.39696,1.39997,-2.347421,0.75425,0.759974,0.17021
1700767591390625,-11.160696,1.51497,-2.33421,0.23225,0.723774,0.22421
1700767591398437,-11.118696,1.55197,-1.738421,0.12975,0.690874,0.36221
1700767591406250,-10.960696,1.54697,-1.549421,0.40775,0.659874,0.56721
1700767591414062,-10.674696,1.46697,-1.475421,0.39575,0.642774,0.83721
1700767591421875,-10.482696,1.41797,-1.506421,0.21575,0.625074,0.98421
1700767591429687,-10.371696,1.35797,-1.529421,0.5125,0.619974,0.113121
1700767591437500,-10.318696,1.31197,-1.374421,0.6375,0.638474,0.119821
1700767591445312,-10.248696,1.28197,0.854421,0.14375,0.674274,0.121521
1700767591453125,-10.232696,1.26797,0.401421,0.12875,0.683774,0.129521
1700767591460937,-10.155696,1.21797,0.56421,0.12575,0.692074,0.134421
1700767591468750,-10.54696,1.20397,0.130579,0.34975,0.729974,0.157121
1700767591476562,-9.848696,1.22697,0.227579,0.29075,0.750874,0.162021
1700767591484375,-9.591696,1.21397,0.166579,0.17475,0.734874,0.170321
1700767591492187,-9.325696,1.18097,0.7421,0.6925,0.739174,0.171921
1700767591500000,-9.179696,1.18797,0.65421,0.12625,0.772474,0.170921
1700767591507812,-9.19696,1.25197,0.143579,0.4025,0.829174,0.161221
1700767591515625,-8.771696,1.22597,0.465579,0.4775,0.875474,0.148821
1700767591523437,-8.507696,1.16397,0.627579,0.17825,0.881474,0.142421
1700767591531250,-8.260696,1.1197,0.609579,0.49125,0.879774,0.139521
1700767591539062,-8.136696,0.88097,0.616579,0.63625,0.899874,0.122321
1700767591546875,-8.109696,0.85197,0.686579,0.61925,0.906874,0.95121
1700767591554687,-8.74696,0.80497,0.789579,0.55425,0.898874,0.75721
1700767591562500,-8.47696,0.81397,0.854579,0.89225,0.916774,0.48721
1700767591570312,-8.55696,0.89397,0.843579,0.125325,0.907074,0.44321
1700767591578125,-8.134696,1.597,0.956579,0.139425,0.908674,0.42921
1700767591585937,-8.309696,1.13297,1.73579,0.137025,0.885374,0.37621
1700767591593750,-8.535696,1.24097,1.190579,0.142525,0.884374,0.26821
1700767591601562,-8.822696,1.32297,1.294579,0.149425,0.877474,0.12121
1700767591609375,-9.152696,1.30397,1.235579,0.155425,0.853074,0.2379
1700767591617187,-9.466696,1.27097,1.267579,0.154525,0.831574,0.18779
1700767591625000,-9.712696,1.21897,1.382579,0.160425,0.807274,0.38179
1700767591632812,-9.809696,1.21997,1.673579,0.162225,0.809874,0.57779
1700767591640625,-9.869696,1.31197,1.835579,0.195125,0.757574,0.49679
1700767591648437,-9.941696,1.30697,1.648579,0.223525,0.700274,0.31979
1700767591656250,-9.999696,1.28697,1.630579,0.247025,0.694974,0.14179
1700767591664062,-10.3696,1.14197,1.753579,0.252925,0.664574,0.1079
1700767591671875,-9.929696,0.94497,1.873579,0.237725,0.627874,0.4621
1700767591679687,-9.707696,0.85297,1.956579,0.251425,0.581274,0.11321
1700767591687500,-9.645696,0.88097,1.891579,0.269025,0.550774,0.28521
1700767591695312,-9.656696,0.92297,1.764579,0.293625,0.561074,0.37221
1700767591703125,-9.587696,0.95497,1.724579,0.334525,0.578474,0.68221
1700767591710937,-9.574696,0.85797,1.688579,0.362225,0.603174,0.91321
1700767591718750,-9.436696,0.75397,1.827579,0.363025,0.619774,0.107721
1700767591726562,-9.239696,0.70197,1.954579,0.367025,0.599674,0.109021
1700767591734375,-9.164696,0.66997,1.989579,0.360025,0.600274,0.110821
1700767591742187,-9.98696,0.69897,2.17579,0.349325,0.614374,0.92721
1700767591750000,-9.82696,0.73697,2.46579,0.354625,0.634474,0.85121
1700767591757812,-9.7696,0.78697,2.321579,0.335025,0.663474,0.73521
1700767591765625,-8.979696,0.85497,2.620579,0.305425,0.670374,0.63721
1700767591773437,-8.920696,0.85697,2.611579,0.288025,0.654274,0.49021
1700767591781250,-8.924696,0.79397,2.501579,0.262125,0.635874,0.45121
1700767591789062,-8.907696,0.70797,2.469579,0.233225,0.618374,0.54621
1700767591796875,-8.919696,0.60197,2.435579,0.219025,0.602074,0.55921
1700767591804687,-9.28696,0.52997,2.384579,0.201925,0.572674,0.65321
1700767591812500,-9.36696,0.52097,2.334579,0.167125,0.554574,0.66321
1700767591820312,-9.58696,0.48197,2.246579,0.162725,0.541774,0.64721
1700767591828125,-9.123696,0.43797,2.104579,0.157025,0.525074,0.48221
1700767591835937,-9.145696,0.44797,2.124579,0.129025,0.523774,0.39921
1700767591843750,-9.215696,0.46397,2.278579,0.99925,0.500674,0.24821
1700767591851562,-9.305696,0.45897,2.411579,0.72725,0.456274,0.28921
1700767591859375,-9.332696,0.41497,2.422579,0.53625,0.412074,0.31621
1700767591867187,-9.348696,0.35797,2.293579,0.34025,0.379974,0.33021
1700767591875000,-9.319696,0.29697,2.231579,0.7625,0.362674,0.38621
1700767591882812,-9.323696,0.26597,2.262579,0.14175,0.356274,0.38421
1700767591890625,-9.244696,0.30297,2.379579,0.52575,0.351974,0.41421
1700767591898437,-9.227696,0.36297,2.615579,0.75875,0.339174,0.39521
1700767591906250,-9.248696,0.37197,2.782579,0.91975,0.327474,0.37521
1700767591914062,-9.359696,0.44197,2.803579,0.103575,0.317274,0.38721
1700767591921875,-9.522696,0.51797,2.780579,0.116975,0.324374,0.37321
1700767591929687,-9.662696,0.56897,2.757579,0.123075,0.344074,0.37421
1700767591937500,-9.723696,0.58497,2.764579,0.135875,0.355274,0.38821
1700767591945312,-9.700696,0.58097,2.766579,0.136675,0.363974,0.37521
1700767591953125,-9.696696,0.60497,2.800579,0.143075,0.363874,0.39021
1700767591960937,-9.717696,0.60297,2.812579,0.142275,0.358574,0.33921
1700767591968750,-9.663696,0.60197,2.832579,0.136075,0.358574,0.27521
1700767591976562,-9.658696,0.59297,2.870579,0.126575,0.353674,0.35721
1700767591984375,-9.626696,0.54197,2.935579,0.120375,0.340574,0.34021
1700767591992187,-9.610696,0.53097,3.37579,0.139075,0.337374,0.35521
1700767592000000,-9.609696,0.51497,3.48579,0.146175,0.337874,0.38821
1700767592007812,-9.546696,0.47597,2.980579,0.152975,0.342374,0.40221
1700767592015625,-9.444696,0.42997,2.935579,0.154675,0.353474,0.51421
1700767592023437,-9.365696,0.39597,2.868579,0.158675,0.361974,0.61221
1700767592031250,-9.288696,0.36097,2.818579,0.148075,0.358174,0.75621
1700767592039062,-9.211696,0.35197,2.822579,0.141875,0.358874,0.90521
1700767592046875,-9.139696,0.33397,2.798579,0.137975,0.336874,0.104621
1700767592054687,-9.67696,0.34197,2.705579,0.128075,0.317574,0.108021
1700767592062500,-9.38696,0.34197,2.530579,0.119675,0.306374,0.119421
1700767592070312,-9.50696,0.39497,2.557579,0.130675,0.314374,0.127321
1700767592078125,-9.58696,0.46097,2.710579,0.144775,0.306774,0.129821
1700767592085937,-9.97696,0.50697,2.652579,0.147075,0.302374,0.131621
1700767592093750,-9.145696,0.56297,2.550579,0.142475,0.302574,0.118821
1700767592101562,-9.152696,0.58997,2.555579,0.141175,0.309074,0.110821
1700767592109375,-9.188696,0.60397,2.672579,0.140675,0.307774,0.109421
1700767592117187,-9.254696,0.63597,2.870579,0.157375,0.295874,0.102421
1700767592125000,-9.297696,0.66497,2.969579,0.169875,0.257074,0.86121
1700767592132812,-9.293696,0.65797,2.891579,0.191175,0.223774,0.88521
1700767592140625,-9.292696,0.64497,2.789579,0.186175,0.202874,0.83821
1700767592148437,-9.315696,0.62997,2.780579,0.167575,0.197974,0.75921
1700767592156250,-9.364696,0.62897,2.839579,0.169275,0.189574,0.82221
1700767592164062,-9.377696,0.57797,2.890579,0.167475,0.168474,0.90221
1700767592171875,-9.440696,0.56797,2.924579,0.168875,0.155274,0.99721
1700767592179687,-9.458696,0.60197,2.944579,0.168375,0.144074,0.111121
1700767592187500,-9.455696,0.65597,2.969579,0.174175,0.128674,0.109021
1700767592195312,-9.429696,0.72697,3.3579,0.186575,0.122274,0.107221
1700767592203125,-9.378696,0.78197,3.71579,0.192175,0.104774,0.110521
1700767592210937,-9.329696,0.82997,3.113579,0.194175,0.93074,0.111921
1700767592218750,-9.273696,0.85797,3.123579,0.194775,0.74974,0.98821
1700767592226562,-9.242696,0.86897,3.98579,0.195875,0.52474,0.98821
1700767592234375,-9.244696,0.87797,3.46579,0.193075,0.40974,0.84321
1700767592242187,-9.242696,0.89297,2.996579,0.195575,0.35774,0.72721
1700767592250000,-9.247696,0.89997,2.951579,0.184875,0.33974,0.64721
1700767592257812,-9.247696,0.93797,2.915579,0.176175,0.24974,0.57121
1700767592265625,-9.228696,0.97097,2.884579,0.168675,0.24874,0.50721
1700767592273437,-9.219696,1.597,2.854579,0.151675,0.26474,0.38021
1700767592281250,-9.206696,1.4797,2.852579,0.143775,0.33174,0.30221
1700767592289062,-9.189696,1.5797,2.857579,0.127575,0.37474,0.23621
1700767592296875,-9.167696,1.5797,2.837579,0.120975,0.23874,0.5621
1700767592304687,-9.162696,1.4197,2.846579,0.113375,0.20674,0.7179
1700767592312500,-9.150696,1.1997,2.866579,0.91175,0.12874,0.18079
1700767592320312,-9.170696,1.497,2.884579,0.95075,0.2674,0.28079
1700767592328125,-9.203696,0.97397,2.879579,0.75475,0.8126,0.30779
1700767592335937,-9.214696,0.96597,2.866579,0.72475,0.9826,0.35579
1700767592343750,-9.237696,0.96597,2.816579,0.56975,0.8326,0.37079
1700767592351562,-9.239696,0.96797,2.760579,0.49475,0.11926,0.33979
1700767592359375,-9.207696,0.95697,2.683579,0.22375,0.26226,0.33579
1700767592367187,-9.241696,0.95097,2.758579,0.2725,0.31226,0.34979
1700767592375000,-9.230696,0.95697,3.26579,0.2725,0.27926,0.34879
1700767592382812,-9.203696,0.97697,3.19579,0.4225,0.52526,0.26979
1700767592390625,-9.166696,1.2897,2.902579,0.2325,0.85426,0.27379
1700767592398437,-9.139696,1.5997,2.866579,0.21425,0.81926,0.28579
1700767592406250,-9.101696,1.5297,3.17579,0.36825,0.83826,0.26979
1700767592414062,-9.88696,1.4797,3.143579,0.43825,0.111926,0.40079
1700767592421875,-9.96696,1.997,3.136579,0.49225,0.154926,0.40579
1700767592429687,-9.93696,0.96997,3.84579,0.50825,0.171126,0.38979
1700767592437500,-9.73696,0.93397,3.89579,0.52125,0.186026,0.40779
1700767592445312,-9.50696,0.96297,3.150579,0.50825,0.197226,0.42279
1700767592453125,-9.53696,0.98997,3.168579,0.49725,0.221626,0.31079
1700767592460937,-9.76696,1.397,3.143579,0.52725,0.242726,0.39179
1700767592468750,-9.116696,0.99497,3.102579,0.52325,0.251226,0.36179
1700767592476562,-9.151696,0.98297,3.64579,0.51825,0.245626,0.34179
1700767592484375,-9.151696,0.95197,3.48579,0.55025,0.255326,0.35779
1700767592492187,-9.133696,0.92297,3.23579,0.53425,0.265326,0.26279
1700767592500000,-9.128696,0.90297,2.947579,0.53225,0.270126,0.34379
1700767592507812,-9.76696,0.88097,2.875579,0.50625,0.282426,0.25279
1700767592515625,-9.47696,0.87897,2.870579,0.60725,0.281926,0.26479
1700767592523437,-9.38696,0.87197,2.855579,0.52725,0.290226,0.21879
1700767592531250,-9.6696,0.87997,2.834579,0.52125,0.302126,0.18879
1700767592539062,-9.26696,0.87197,2.814579,0.41325,0.303626,0.18979
1700767592546875,-9.83696,0.86597,2.713579,0.25525,0.308626,0.16079
1700767592554687,-9.174696,0.86297,2.640579,0.28225,0.312826,0.14079
1700767592562500,-9.251696,0.85797,2.586579,0.26625,0.316026,0.17279
1700767592570312,-9.289696,0.83597,2.537579,0.21025,0.324926,0.8079
1700767592578125,-9.309696,0.83397,2.544579,0.15325,0.337626,0.4879
1700767592585937,-9.318696,0.83597,2.528579,0.6925,0.347826,0.1979
1700767592593750,-9.313696,0.84097,2.508579,0.6525,0.355426,0.9521
1700767592601562,-9.277696,0.84197,2.512579,0.9425,0.363726,0.9421
1700767592609375,-9.264696,0.84697,2.544579,0.2925,0.378626,0.12421
1700767592617187,-9.314696,0.83997,2.557579,0.2525,0.387126,0.17021
1700767592625000,-9.390696,0.83097,2.496579,0.1875,0.403426,0.28221
1700767592632812,-9.454696,0.78997,2.417579,0.7875,0.427726,0.29721
1700767592640625,-9.488696,0.78697,2.325579,0.7375,0.456226,0.30821
1700767592648437,-9.519696,0.78997,2.134579,0.9875,0.473726,0.34121
1700767592656250,-9.526696,0.78597,2.199579,0.31175,0.443326,0.32121
1700767592664062,-9.506696,0.82997,2.332579,0.48875,0.448826,0.22721
1700767592671875,-9.482696,0.82997,2.177579,0.49175,0.471826,0.19321
1700767592679687,-9.401696,0.83297,1.929579,0.44275,0.450526,0.19521
1700767592687500,-9.327696,0.82497,1.866579,0.41675,0.432726,0.5021
1700767592695312,-9.300696,0.83497,1.997579,0.54875,0.413426,0.6479
1700767592703125,-9.302696,0.83597,2.134579,0.59175,0.414426,0.20779
1700767592710937,-9.295696,0.83797,2.163579,0.73575,0.438926,0.29079
1700767592718750,-9.270696,0.81997,2.1579,0.75775,0.476926,0.27979
1700767592726562,-9.254696,0.76797,1.839579,0.72575,0.496426,0.27979
1700767592734375,-9.267696,0.73297,1.760579,0.66375,0.504626,0.29579
1700767592742187,-9.276696,0.73997,1.807579,0.64075,0.497526,0.32479
1700767592750000,-9.283696,0.75697,1.864579,0.59375,0.501826,0.31379
1700767592757812,-9.290696,0.78697,1.879579,0.49275,0.513026,0.21479
1700767592765625,-9.231696,0.75897,1.877579,0.50375,0.527326,0.22979
1700767592773437,-9.244696,0.75097,1.809579,0.58175,0.536926,0.29579
1700767592781250,-9.346696,0.80597,1.715579,0.64275,0.535226,0.27879
1700767592789062,-9.478696,0.86297,1.650579,0.77375,0.537226,0.29879
1700767592796875,-9.557696,0.88197,1.650579,0.89975,0.543726,0.26879
1700767592804687,-9.590696,0.86497,1.625579,0.94375,0.541926,0.25179
1700767592812500,-9.613696,0.87197,1.604579,0.100475,0.553326,0.22079
1700767592820312,-9.629696,0.90997,1.575579,0.100575,0.558326,0.17379
1700767592828125,-9.596696,0.93297,1.501579,0.84775,0.563326,0.7579
1700767592835937,-9.517696,0.94497,1.418579,0.71075,0.570326,0.421
1700767592843750,-9.488696,0.93797,1.296579,0.68975,0.565226,0.7021
1700767592851562,-9.456696,0.93097,1.199579,0.70375,0.573226,0.11821
1700767592859375,-9.407696,0.91897,1.100579,0.74075,0.588626,0.25921
1700767592867187,-9.334696,0.88297,1.105579,0.92075,0.609326,0.32321
1700767592875000,-9.256696,0.88597,1.120579,0.100375,0.617826,0.32021
1700767592882812,-9.200696,0.89797,1.136579,0.94075,0.635626,0.30421
1700767592890625,-9.197696,0.90497,1.125579,0.89275,0.660326,0.43121
1700767592898437,-9.227696,0.92297,0.967579,0.84675,0.694726,0.47721
1700767592906250,-9.234696,0.90197,0.817579,0.87175,0.700326,0.53821
1700767592914062,-9.271696,0.84797,0.783579,0.89075,0.671826,0.55921
1700767592921875,-9.378696,0.84097,0.805579,0.93475,0.663326,0.52821
1700767592929687,-9.401696,0.81497,0.798579,0.101675,0.680026,0.57321
1700767592937500,-9.385696,0.79397,0.816579,0.112975,0.693226,0.55421
1700767592945312,-9.440696,0.84997,0.740579,0.102975,0.721526,0.51921
1700767592953125,-9.462696,0.85597,0.645579,0.84175,0.735326,0.57321
1700767592960937,-9.448696,0.82597,0.656579,0.82075,0.742326,0.50621
1700767592968750,-9.463696,0.80897,0.659579,0.104075,0.765126,0.42221
1700767592976562,-9.423696,0.83297,0.551579,0.115375,0.781426,0.35521
1700767592984375,-9.355696,0.81097,0.328579,0.102575,0.769826,0.31021
1700767592992187,-9.308696,0.77497,0.190579,0.103075,0.773326,0.29221
1700767593000000,-9.308696,0.80597,0.181579,0.126275,0.781126,0.19421
1700767593007812,-9.324696,0.80697,0.244579,0.132275,0.793926,0.17821
1700767593015625,-9.333696,0.80697,0.269579,0.145375,0.834926,0.12421
1700767593023437,-9.336696,0.83997,0.190579,0.130175,0.856526,0.15521
1700767593031250,-9.347696,0.83797,0.21579,0.125975,0.889626,0.20021
1700767593039062,-9.342696,0.76597,0.162421,0.126375,0.912826,0.24521
1700767593046875,-9.343696,0.74597,0.255421,0.133875,0.905926,0.21421
1700767593054687,-9.366696,0.78197,0.318421,0.140475,0.889626,0.11721
1700767593062500,-9.429696,0.80797,0.334421,0.148875,0.875826,0.5621
1700767593070312,-9.493696,0.80597,0.306421,0.151375,0.871426,0.1079
1700767593078125,-9.465696,0.79097,0.262421,0.149575,0.869326,0.18479
1700767593085937,-9.479696,0.79097,0.162421,0.156275,0.877626,0.26779
1700767593093750,-9.446696,0.83497,0.86421,0.150975,0.917126,0.46479
1700767593101562,-9.363696,0.87797,0.70421,0.156275,0.992426,0.48679
1700767593109375,-9.371696,0.93597,0.147421,0.140475,1.46126,0.53579
1700767593117187,-9.337696,0.81097,0.345421,0.126875,1.101826,0.60279
1700767593125000,-9.261696,0.65197,0.507421,0.130175,1.142426,0.74879
1700767593132812,-9.276696,0.58597,0.660421,0.129275,1.151026,0.76779
1700767593140625,-9.412696,0.56797,0.739421,0.156575,1.152826,0.90179
1700767593148437,-9.563696,0.57697,0.723421,0.158175,1.149526,0.90079
1700767593156250,-9.738696,0.57297,0.712421,0.155975,1.152226,0.96279
1700767593164062,-9.886696,0.53697,0.741421,0.158075,1.163926,0.102979
1700767593171875,-9.943696,0.45797,0.753421,0.175075,1.132826,0.98079
1700767593179687,-10.33696,0.46797,0.885421,0.160975,1.113526,0.85079
1700767593187500,-10.117696,0.47397,-1.131421,0.178175,1.79226,0.85079
1700767593195312,-10.197696,0.55097,-1.446421,0.166575,1.23426,0.82879
1700767593203125,-10.83696,0.61097,-1.710421,0.155975,0.947926,0.67579
1700767593210937,-9.983696,0.68197,-1.935421,0.154575,0.886026,0.70479
1700767593218750,-10.7696,0.78297,-2.86421,0.169075,0.836226,0.74779
1700767593226562,-10.123696,0.88397,-2.248421,0.159475,0.811626,0.72879
1700767593234375,-10.365696,0.98297,-2.536421,0.144175,0.774426,0.72679
1700767593242187,-10.678696,1.15397,-2.772421,0.149775,0.695426,0.88079
1700767593250000,-10.970696,1.32697,-2.869421,0.212475,0.603826,0.97879
1700767593257812,-11.166696,1.48097,-2.842421,0.254275,0.497426,0.99279
1700767593265625,-11.294696,1.49397,-2.961421,0.235675,0.407226,0.78979
1700767593273437,-11.409696,1.52697,-3.243421,0.202275,0.363226,0.58979
1700767593281250,-11.378696,1.53097,-3.558421,0.152475,0.325526,0.33879
1700767593289062,-11.70696,1.40397,-3.871421,0.133875,0.358526,0.21079
1700767593296875,-10.721696,1.34297,-4.193421,0.129375,0.406126,0.5379
1700767593304687,-10.405696,1.11797,-4.427421,0.125175,0.418026,0.779
1700767593312500,-10.473696,1.2597,-4.340421,0.31875,0.279926,0.14621
1700767593320312,-10.277696,0.96997,-4.477421,0.51825,0.180626,0.40221
1700767593328125,-10.473696,0.89097,-4.653421,0.75725,0.154226,0.34321
1700767593335937,-10.563696,0.98897,-4.808421,0.40925,0.169326,0.53021
1700767593343750,-10.444696,1.14297,-4.939421,0.15375,0.234726,0.71221
1700767593351562,-10.468696,1.28097,-5.126421,0.38975,0.277226,0.78721
1700767593359375,-10.459696,1.12097,-5.389421,0.20175,0.334826,0.104221
1700767593367187,-10.320696,0.87897,-5.743421,0.50775,0.355926,0.131221
1700767593375000,-10.228696,0.70597,-5.856421,0.104075,0.333026,0.135521
1700767593382812,-10.216696,0.55597,-5.876421,0.146775,0.296226,0.130821
1700767593390625,-10.135696,0.49897,-5.698421,0.170975,0.265726,0.135321
1700767593398437,-10.314696,0.48597,-5.660421,0.154675,0.337826,0.112421
1700767593406250,-10.552696,0.58997,-5.813421,0.96875,0.468526,0.120321
1700767593414062,-10.910696,0.62097,-6.198421,0.64175,0.595026,0.98621
1700767593421875,-11.163696,0.60297,-6.538421,0.137475,0.681426,0.60221
1700767593429687,-11.242696,0.72197,-6.734421,0.219575,0.677726,0.22321
1700767593437500,-11.386696,0.77697,-6.590421,0.327775,0.554526,0.23079
1700767593445312,-11.307696,0.85397,-6.126421,0.382175,0.420226,0.33979
1700767593453125,-11.154696,0.86097,-5.784421,0.335875,0.330126,0.29579
1700767593460937,-11.182696,0.80797,-5.464421,0.293675,0.256926,0.30379
1700767593468750,-11.165696,0.84297,-5.218421,0.257075,0.202926,0.24679
1700767593476562,-11.297696,0.95197,-5.6421,0.235475,0.168826,0.30779
1700767593484375,-11.534696,1.16397,-4.867421,0.227775,0.132026,0.28379
1700767593492187,-11.590696,1.28497,-4.799421,0.238575,0.58726,0.16879
1700767593500000,-11.431696,1.16897,-4.626421,0.237775,0.60674,0.6479
1700767593507812,-11.73696,0.98197,-4.446421,0.194175,0.188674,0.8079
1700767593515625,-10.822696,0.92497,-4.365421,0.157775,0.260874,0.23179
1700767593523437,-10.818696,0.92097,-4.448421,0.126575,0.280474,0.37179
1700767593531250,-10.890696,1.6297,-4.599421,0.87775,0.263874,0.40179
1700767593539062,-11.38696,1.20097,-4.819421,0.51875,0.209974,0.38479
1700767593546875,-11.88696,1.9697,-5.13421,0.65175,0.162074,0.32779
1700767593554687,-10.912696,0.88397,-5.85421,0.94975,0.127774,0.31679
1700767593562500,-10.767696,0.71497,-5.149421,0.100875,0.124974,0.41179
1700767593570312,-10.528696,0.76697,-5.101421,0.62375,0.123074,0.56979
1700767593578125,-10.804696,0.64697,-5.507421,0.1175,0.65874,0.113079
1700767593585937,-11.8696,0.57897,-5.489421,0.39775,0.103374,0.85979
1700767593593750,-10.805696,0.67297,-5.331421,0.4525,0.88274,0.48579
1700767593601562,-10.914696,0.79297,-5.484421,0.58625,0.74074,0.52579
1700767593609375,-10.878696,0.89697,-5.387421,0.44425,0.101674,0.47879
1700767593617187,-10.763696,0.87497,-5.167421,0.26075,0.82274,0.48679
1700767593625000,-10.764696,0.76597,-4.878421,0.77075,0.49374,0.59279
1700767593632812,-10.837696,0.69697,-4.669421,0.84875,0.16974,0.67579
1700767593640625,-10.859696,0.70097,-4.493421,0.74675,0.12926,0.69479
1700767593648437,-10.940696,0.71197,-4.356421,0.41975,0.16226,0.77179
1700767593656250,-10.981696,0.71397,-4.239421,0.8875,0.34374,0.74879
1700767593664062,-10.810696,0.71197,-4.88421,0.21075,0.111174,0.76179
1700767593671875,-10.561696,0.71697,-3.894421,0.39375,0.157374,0.82279
1700767593679687,-10.417696,0.71297,-3.761421,0.81975,0.187074,0.105179
1700767593687500,-10.338696,0.71597,-3.725421,0.99975,0.199774,0.119979
1700767593695312,-10.334696,0.75297,-3.802421,0.88775,0.231074,0.125979
1700767593703125,-10.386696,0.73197,-4.20421,0.57475,0.245574,0.123979
1700767593710937,-10.455696,0.71497,-4.241421,0.39175,0.273974,0.121679
1700767593718750,-10.466696,0.72197,-4.410421,0.25075,0.319874,0.138879
1700767593726562,-10.327696,0.69997,-4.340421,0.38975,0.396574,0.133779
1700767593734375,-10.157696,0.65997,-4.162421,0.44675,0.434574,0.135079
1700767593742187,-9.952696,0.62597,-3.951421,0.71875,0.452974,0.122079
1700767593750000,-9.721696,0.61997,-3.719421,0.92475,0.465574,0.104779
1700767593757812,-9.515696,0.65697,-3.552421,0.97075,0.486774,0.98279
1700767593765625,-9.372696,0.72997,-3.480421,0.61975,0.529374,0.92679
1700767593773437,-9.277696,0.71297,-3.484421,0.42075,0.540474,0.92579
1700767593781250,-9.268696,0.68797,-3.563421,0.43575,0.540574,0.98979
1700767593789062,-9.311696,0.71097,-3.615421,0.55575,0.550874,0.103679
1700767593796875,-9.385696,0.68997,-3.644421,0.83975,0.540974,0.99279
1700767593804687,-9.591696,0.67997,-3.676421,0.87075,0.542874,0.115279
1700767593812500,-9.749696,0.68397,-3.673421,0.92775,0.552074,0.122079
1700767593820312,-9.765696,0.71597,-3.556421,0.122675,0.598774,0.123179
1700767593828125,-9.637696,0.71897,-3.367421,0.139775,0.641274,0.121579
1700767593835937,-9.357696,0.65197,-3.219421,0.142475,0.645974,0.91079
1700767593843750,-9.223696,0.66397,-3.205421,0.130975,0.632874,0.69979
1700767593851562,-9.239696,0.73497,-3.291421,0.102375,0.640774,0.45579
1700767593859375,-9.134696,0.72397,-3.293421,0.80875,0.679474,0.40479
1700767593867187,-9.42696,0.72297,-3.187421,0.108675,0.723974,0.43579
1700767593875000,-9.20696,0.77097,-3.2421,0.154075,0.761774,0.53479
1700767593882812,-8.948696,0.79897,-2.759421,0.166575,0.792774,0.51879
1700767593890625,-8.810696,0.84197,-2.592421,0.135775,0.816174,0.47879
1700767593898437,-8.679696,0.86897,-2.599421,0.102075,0.821374,0.37579
1700767593906250,-8.555696,0.82397,-2.703421,0.89775,0.833774,0.18279
1700767593914062,-8.422696,0.75097,-2.761421,0.99375,0.846674,0.13579
1700767593921875,-8.343696,0.71397,-2.791421,0.104075,0.866174,0.11979
1700767593929687,-8.234696,0.67297,-2.734421,0.114275,0.890974,0.2721
1700767593937500,-8.131696,0.68197,-2.629421,0.122875,0.910874,0.17421
1700767593945312,-7.987696,0.65797,-2.442421,0.139875,0.941674,0.36621
1700767593953125,-7.838696,0.65097,-2.241421,0.131875,0.969374,0.43321
1700767593960937,-7.726696,0.64997,-2.142421,0.113175,0.966074,0.41921
1700767593968750,-7.661696,0.66197,-2.97421,0.106875,0.959474,0.43521
1700767593976562,-7.689696,0.72697,-2.86421,0.94075,0.979274,0.42221
1700767593984375,-7.636696,0.80397,-1.964421,0.87275,-1.774,0.41021
1700767593992187,-7.565696,0.89797,-1.852421,0.87975,-1.31774,0.16921
1700767594000000,-7.421696,0.98597,-1.748421,0.85875,-1.45974,0.2479
1700767594007812,-7.425696,0.99797,-1.723421,0.72675,-1.35274,0.14979
1700767594015625,-7.577696,0.94697,-1.836421,0.70975,-1.18974,0.13379
1700767594023437,-7.637696,0.98797,-1.854421,0.50775,-1.35074,0.6779
1700767594031250,-7.765696,1.97,-1.847421,0.32275,-1.34774,0.5079
1700767594039062,-7.936696,1.1197,-1.795421,0.22875,-1.31274,0.7821
1700767594046875,-8.28696,1.1597,-1.626421,0.3125,-1.51374,0.8521
1700767594054687,-7.994696,0.99997,-1.412421,0.21825,-1.54474,0.10321
1700767594062500,-7.802696,0.95497,-1.151421,0.37725,-1.48074,0.15321
1700767594070312,-7.583696,0.86997,-1.32421,0.57725,-1.8674,0.8821
1700767594078125,-7.370696,0.77397,-1.86421,0.82825,0.951474,0.20021
1700767594085937,-7.299696,0.67197,-1.246421,0.108725,0.946074,0.10421
1700767594093750,-7.184696,0.47797,-1.27421,0.104125,0.967574,0.679
1700767594101562,-7.118696,0.44797,0.813421,0.89625,0.957674,0.5779
1700767594109375,-7.102696,0.41197,0.872421,0.91925,0.923074,0.17479
1700767594117187,-7.97696,0.27197,-1.57421,0.74925,0.906974,0.15979
1700767594125000,-7.209696,0.24097,-1.61421,0.57625,0.910474,0.28979
1700767594132812,-7.373696,0.31997,-1.93421,0.61625,0.926274,0.32279
1700767594140625,-7.430696,0.26397,-1.10421,0.53225,0.949774,0.30379
1700767594148437,-7.462696,0.32197,0.890421,0.37425,0.957674,0.17779
1700767594156250,-7.499696,0.36097,0.582421,0.35925,0.977374,0.24079
1700767594164062,-7.614696,0.37397,0.194421,0.26925,0.958274,0.33679
1700767594171875,-7.721696,0.34497,0.75579,0.34625,0.940074,0.25779
1700767594179687,-7.784696,0.49897,0.125579,0.53425,0.908874,0.17679
1700767594187500,-7.922696,0.54297,0.39421,0.62925,0.892674,0.12879
1700767594195312,-7.845696,0.51097,0.17579,0.17125,0.881174,0.16679
1700767594203125,-7.959696,0.59197,0.87579,0.18575,0.847974,0.28879
1700767594210937,-8.57696,0.84897,0.33579,0.13375,0.870974,0.22179
1700767594218750,-8.30696,0.80397,0.71579,0.44675,0.867574,0.11379
1700767594226562,-8.135696,0.78097,0.141579,0.71175,0.815474,0.3879
1700767594234375,-8.358696,0.96897,0.2421,0.69275,0.773074,0.7321
1700767594242187,-8.773696,1.8297,0.230421,0.43475,0.785474,0.8921
1700767594250000,-8.873696,0.99897,0.137421,0.40875,0.808774,0.23821
1700767594257812,-9.52696,0.97297,0.6579,0.47175,0.816774,0.30221
1700767594265625,-9.145696,1.13397,0.220579,0.27375,0.874274,0.40621
1700767594273437,-9.52696,1.24797,0.537579,0.16375,0.872674,0.43921
1700767594281250,-9.3696,1.24697,0.684579,0.24675,0.828274,0.41821
1700767594289062,-8.841696,1.25997,0.722579,0.38975,0.800474,0.43121
1700767594296875,-8.660696,1.29097,0.623579,0.44075,0.774174,0.41221
1700767594304687,-8.492696,1.24597,0.607579,0.64075,0.772774,0.44321
1700767594312500,-8.290696,1.20797,0.722579,0.82675,0.774574,0.42521
1700767594320312,-8.87696,1.14197,0.853579,0.94775,0.752674,0.40321
1700767594328125,-7.975696,1.19597,0.846579,0.108875,0.721674,0.41621
1700767594335937,-7.886696,1.25397,0.774579,0.115575,0.693774,0.39621
1700767594343750,-7.834696,1.20697,0.893579,0.140775,0.667574,0.40821
1700767594351562,-7.804696,1.18197,1.3579,0.150075,0.643274,0.37421
1700767594359375,-7.768696,1.21497,1.206579,0.161175,0.610774,0.33921
1700767594367187,-7.784696,1.19097,1.276579,0.143475,0.567474,0.36721
1700767594375000,-7.895696,1.23197,1.535579,0.172375,0.572174,0.20121
1700767594382812,-7.998696,1.25897,1.839579,0.180375,0.576374,0.23721
1700767594390625,-8.91696,1.28697,1.823579,0.192475,0.536774,0.11921
1700767594398437,-8.220696,1.31997,1.663579,0.213675,0.515974,0.16621
1700767594406250,-8.327696,1.32197,1.665579,0.240075,0.512874,0.17921
1700767594414062,-8.430696,1.38797,1.859579,0.272275,0.496174,0.10821
1700767594421875,-8.575696,1.46297,1.992579,0.294075,0.457174,0.10421
1700767594429687,-8.682696,1.53297,2.22579,0.318875,0.409274,0.1421
1700767594437500,-8.729696,1.58997,1.968579,0.340775,0.360574,0.5379
1700767594445312,-8.742696,1.65197,1.952579,0.340775,0.332874,0.7179
1700767594453125,-8.694696,1.74297,1.986579,0.326775,0.318074,0.7079
1700767594460937,-8.656696,1.77997,2.152579,0.318475,0.316774,0.3679
1700767594468750,-8.703696,1.76997,2.355579,0.321575,0.293774,0.5821
1700767594476562,-8.755696,1.77297,2.456579,0.324975,0.244574,0.8621
1700767594484375,-8.845696,1.80897,2.443579,0.344275,0.196874,0.17621
1700767594492187,-8.936696,1.83697,2.445579,0.369675,0.154174,0.28221
1700767594500000,-9.47696,1.79297,2.447579,0.395575,0.121774,0.48821
1700767594507812,-9.227696,1.76697,2.366579,0.422275,0.103574,0.59521
1700767594515625,-9.431696,1.74997,2.305579,0.439975,0.95874,0.77321
1700767594523437,-9.658696,1.73597,2.339579,0.448375,0.111874,0.75521
1700767594531250,-9.862696,1.75897,2.373579,0.465375,0.115174,0.86621
1700767594539062,-10.45696,1.77497,2.368579,0.483875,0.118474,0.99321
1700767594546875,-10.212696,1.81997,2.393579,0.507175,0.118574,0.99121
1700767594554687,-10.307696,1.84497,2.411579,0.537375,0.116774,0.100221
1700767594562500,-10.377696,1.86697,2.416579,0.560475,0.121774,0.108121
1700767594570312,-10.383696,1.85097,2.384579,0.589075,0.114874,0.118821
1700767594578125,-10.279696,1.80097,2.348579,0.616975,0.111774,0.128221
1700767594585937,-10.92696,1.73997,2.299579,0.645375,0.111374,0.145421
1700767594593750,-9.886696,1.67397,2.249579,0.669975,0.106674,0.153321
1700767594601562,-9.723696,1.63697,2.242579,0.700475,0.123474,0.161321
1700767594609375,-9.514696,1.59597,2.247579,0.717775,0.121774,0.170721
1700767594617187,-9.340696,1.54597,2.323579,0.743475,0.129274,0.181421
1700767594625000,-9.227696,1.51097,2.465579,0.770975,0.115074,0.186121
1700767594632812,-9.120696,1.45497,2.530579,0.802975,0.107274,0.203521
1700767594640625,-9.23696,1.39797,2.526579,0.828275,0.89174,0.211121
1700767594648437,-8.910696,1.35997,2.522579,0.841775,0.75174,0.225021
1700767594656250,-8.806696,1.32697,2.474579,0.847475,0.67074,0.244221
1700767594664062,-8.743696,1.29697,2.494579,0.853375,0.63974,0.252321
1700767594671875,-8.722696,1.28397,2.690579,0.870775,0.67874,0.273321
1700767594679687,-8.741696,1.30497,2.665579,0.911475,0.49874,0.282421
1700767594687500,-8.795696,1.31597,2.395579,0.933675,0.57774,0.290121
1700767594695312,-8.809696,1.35397,2.274579,0.955275,0.74174,0.301321
1700767594703125,-8.835696,1.40497,2.481579,0.999475,0.95074,0.307221
1700767594710937,-8.822696,1.45197,2.731579,1.33275,0.88974,0.311821
1700767594718750,-8.799696,1.45597,2.738579,1.53775,0.65874,0.325821
1700767594726562,-8.777696,1.44497,2.648579,1.88275,0.44674,0.330121
1700767594734375,-8.745696,1.42397,2.587579,1.138075,0.17174,0.339121
1700767594742187,-8.715696,1.38897,2.458579,1.182775,0.1174,0.353221
1700767594750000,-8.597696,1.34697,2.348579,1.225375,0.5626,0.360621
1700767594757812,-8.532696,1.31197,2.237579,1.283175,0.7326,0.379221
1700767594765625,-8.489696,1.27597,2.91579,1.316275,0.14326,0.402721
1700767594773437,-8.468696,1.23097,2.15579,1.348675,0.14326,0.426521
1700767594781250,-8.560696,1.21697,2.33579,1.377775,0.6026,0.448921
1700767594789062,-8.784696,1.21797,2.60579,1.389675,0.3674,0.476221
1700767594796875,-9.84696,1.28497,2.51579,1.417275,0.11874,0.503321
1700767594804687,-9.347696,1.40397,2.58579,1.435575,0.37874,0.530621
1700767594812500,-9.562696,1.54297,2.80579,1.472475,0.52874,0.544921
1700767594820312,-9.783696,1.71497,2.123579,1.505575,0.64074,0.549321
1700767594828125,-9.968696,1.87997,2.143579,1.545875,0.74074,0.558721
1700767594835937,-10.66696,1.99897,2.119579,1.580475,0.67474,0.563021
1700767594843750,-10.113696,2.10997,1.999579,1.626175,0.62474,0.562421
1700767594851562,-10.92696,2.19897,1.889579,1.658275,0.74674,0.554321
1700767594859375,-10.55696,2.25397,1.808579,1.698475,0.90674,0.534521
1700767594867187,-9.994696,2.25497,1.740579,1.721375,0.96174,0.529621
1700767594875000,-9.886696,2.22897,1.729579,1.750175,0.113874,0.522821
1700767594882812,-9.808696,2.16797,1.763579,1.792275,0.124074,0.509721
1700767594890625,-9.704696,2.9297,1.786579,1.821675,0.128274,0.505821
1700767594898437,-9.649696,2.2597,1.806579,1.850575,0.146874,0.507521
1700767594906250,-9.614696,1.98997,1.806579,1.869075,0.166674,0.507421
1700767594914062,-9.570696,1.99297,1.815579,1.890275,0.192274,0.505521
1700767594921875,-9.565696,2.2697,1.828579,1.906575,0.205974,0.508921
1700767594929687,-9.571696,2.5897,1.792579,1.924775,0.210174,0.506821
1700767594937500,-9.502696,2.11597,1.700579,1.935175,0.208974,0.506821
1700767594945312,-9.477696,2.15597,1.477579,1.937675,0.204674,0.502221
1700767594953125,-9.514696,2.19797,1.599579,1.970275,0.241674,0.485621
1700767594960937,-9.429696,2.22197,1.702579,1.982475,0.246874,0.479221
1700767594968750,-9.380696,2.20697,1.655579,1.991375,0.241474,0.469221
1700767594976562,-9.299696,2.22597,1.531579,1.999375,0.235074,0.453021
1700767594984375,-9.206696,2.20697,1.364579,2.14375,0.250574,0.435521
1700767594992187,-9.195696,2.17797,1.375579,2.34375,0.267474,0.419521
1700767595000000,-9.174696,2.13297,1.382579,2.45075,0.255574,0.396521
1700767595007812,-9.160696,2.10197,1.412579,2.59975,0.245774,0.372021
1700767595015625,-9.163696,2.4497,1.333579,2.49075,0.234574,0.354521
1700767595023437,-9.189696,1.94697,1.213579,2.33575,0.208574,0.343321
1700767595031250,-9.304696,1.84497,1.159579,2.16975,0.192074,0.325621
1700767595039062,-9.410696,1.71897,1.200579,2.4075,0.178274,0.317321
1700767595046875,-9.506696,1.54397,1.319579,1.968075,0.172074,0.300021
1700767595054687,-9.579696,1.31197,1.418579,1.939375,0.146374,0.293921
1700767595062500,-9.643696,1.9997,1.481579,1.893075,0.126374,0.284521
1700767595070312,-9.733696,0.91797,1.481579,1.846575,0.98474,0.267121
1700767595078125,-9.876696,0.72897,1.402579,1.806375,0.72274,0.246521
1700767595085937,-10.31696,0.58197,1.346579,1.758775,0.49074,0.225821
1700767595093750,-10.159696,0.39797,1.400579,1.740675,0.32674,0.201721
1700767595101562,-10.309696,0.27197,1.413579,1.721575,0.12074,0.177921
1700767595109375,-10.494696,0.15297,1.354579,1.705775,0.16226,0.153421
1700767595117187,-10.625696,0.5497,1.260579,1.683075,0.44326,0.140521
1700767595125000,-10.757696,0.303,1.199579,1.670175,0.73226,0.129421
1700767595132812,-10.921696,0.10403,1.183579,1.655675,0.100726,0.134421
1700767595140625,-11.84696,0.22403,1.151579,1.648075,0.138626,0.143821
1700767595148437,-11.259696,0.35903,1.172579,1.646875,0.163426,0.148321
1700767595156250,-11.313696,0.53303,1.239579,1.649275,0.182826,0.166021
1700767595164062,-11.312696,0.69503,1.304579,1.665475,0.220726,0.170321
1700767595171875,-11.227696,0.84703,1.392579,1.674975,0.248526,0.176421
1700767595179687,-11.25696,-1.603,1.406579,1.675575,0.277026,0.193721
1700767595187500,-10.777696,-1.15403,1.300579,1.685675,0.291226,0.201721
1700767595195312,-10.513696,-1.26203,1.192579,1.678075,0.293126,0.209721
1700767595203125,-10.228696,-1.34703,1.108579,1.676575,0.301726,0.230521
1700767595210937,-9.960696,-1.39703,1.61579,1.675675,0.309526,0.248421
1700767595218750,-9.733696,-1.39003,1.2579,1.672475,0.309726,0.261221
1700767595226562,-9.515696,-1.36903,0.948579,1.661275,0.318326,0.293421
1700767595234375,-9.357696,-1.32503,0.834579,1.639375,0.322026,0.308021
1700767595242187,-9.268696,-1.24803,0.998579,1.620875,0.303326,0.318321
1700767595250000,-9.236696,-1.13803,1.169579,1.604875,0.295226,0.329821
1700767595257812,-9.213696,-1.2103,1.108579,1.575775,0.295726,0.326721
1700767595265625,-9.171696,0.94603,0.935579,1.537875,0.282726,0.338521
1700767595273437,-9.154696,0.86703,0.883579,1.496575,0.241726,0.337721
1700767595281250,-9.143696,0.74403,0.939579,1.434775,0.202226,0.338821
1700767595289062,-9.113696,0.65203,1.16579,1.375775,0.189626,0.337821
1700767595296875,-9.59696,0.60103,1.63579,1.307475,0.175926,0.329321
1700767595304687,-8.961696,0.59003,1.118579,1.241275,0.176626,0.318521
1700767595312500,-8.860696,0.57803,1.135579,1.173575,0.186226,0.308121
1700767595320312,-8.770696,0.57703,1.138579,1.114975,0.206426,0.305121
1700767595328125,-8.698696,0.59603,1.124579,1.66575,0.219826,0.305521
1700767595335937,-8.668696,0.63903,1.172579,1.22775,0.255626,0.296221
1700767595343750,-8.670696,0.67003,1.183579,0.978575,0.276526,0.288721
1700767595351562,-8.694696,0.72303,1.122579,0.936775,0.314426,0.285621
1700767595359375,-8.734696,0.76403,1.39579,0.898375,0.350726,0.277621
1700767595367187,-8.834696,0.80503,0.964579,0.862075,0.366726,0.266821
1700767595375000,-8.975696,0.85203,0.858579,0.814275,0.375526,0.270221
1700767595382812,-9.111696,0.87303,0.755579,0.761275,0.356626,0.258521
1700767595390625,-9.230696,0.93003,0.712579,0.715075,0.335926,0.246121
1700767595398437,-9.359696,0.97603,0.766579,0.674475,0.326026,0.228921
1700767595406250,-9.442696,0.99703,0.811579,0.645975,0.297826,0.211921
1700767595414062,-9.458696,-1.403,0.822579,0.620175,0.293326,0.200721
1700767595421875,-9.435696,-1.1903,0.827579,0.602775,0.278326,0.181821
1700767595429687,-9.453696,-1.1703,0.770579,0.583275,0.267026,0.154621
1700767595437500,-9.516696,-1.1003,0.692579,0.572575,0.252226,0.133921
1700767595445312,-9.592696,-1.3503,0.602579,0.567275,0.244226,0.103321
1700767595453125,-9.666696,-1.5603,0.532579,0.556775,0.245826,0.82521
1700767595460937,-9.795696,-1.2303,0.532579,0.551875,0.240226,0.53921
1700767595468750,-9.813696,0.99003,0.559579,0.541975,0.248726,0.29621
1700767595476562,-9.726696,0.96703,0.557579,0.527475,0.270226,0.2779
1700767595484375,-9.627696,0.95503,0.500579,0.513975,0.281626,0.30079
1700767595492187,-9.484696,0.90103,0.462579,0.504475,0.295726,0.57179
1700767595500000,-9.341696,0.86403,0.446579,0.481675,0.304026,0.77979
1700767595507812,-9.259696,0.81403,0.392579,0.458875,0.340026,0.100479
1700767595515625,-9.142696,0.78903,0.275579,0.427875,0.361326,0.114779
1700767595523437,-9.72696,0.75903,0.95579,0.384975,0.401326,0.135079
1700767595531250,-9.42696,0.71803,0.129421,0.355975,0.412426,0.156479
1700767595539062,-9.101696,0.68403,0.109421,0.363075,0.402726,0.182379
1700767595546875,-9.209696,0.53603,0.169579,0.380375,0.379426,0.211279
1700767595554687,-9.185696,0.47303,0.322579,0.388775,0.411226,0.217479
1700767595562500,-9.39696,0.44703,0.158579,0.362875,0.452326,0.227279
1700767595570312,-8.830696,0.45903,0.125421,0.337075,0.466026,0.227379
1700767595578125,-8.661696,0.37103,0.165421,0.339975,0.442726,0.246379
1700767595585937,-8.562696,0.19703,0.48579,0.360075,0.437326,0.259279
1700767595593750,-8.565696,0.697,0.160579,0.349475,0.452026,0.272079
1700767595601562,-8.581696,0.13197,0.10579,0.313675,0.483226,0.278379
1700767595609375,-8.775696,0.34497,0.332421,0.286775,0.482926,0.284379
1700767595617187,-9.158696,0.52597,0.633421,0.273575,0.439326,0.292279
1700767595625000,-9.456696,0.49997,0.707421,0.254475,0.368926,0.304479
1700767595632812,-9.741696,0.59997,0.518421,0.261975,0.309626,0.323279
1700767595640625,-9.785696,0.68497,0.194421,0.281875,0.291326,0.326479
1700767595648437,-9.597696,0.74897,0.44579,0.298075,0.329226,0.320679
1700767595656250,-9.448696,0.82797,0.43421,0.308375,0.429526,0.305579
1700767595664062,-9.373696,0.78897,0.426421,0.281475,0.512926,0.281579
1700767595671875,-9.420696,0.77397,0.964421,0.250575,0.575726,0.256179
1700767595679687,-9.443696,0.82297,-1.365421,0.255975,0.596926,0.227279
1700767595687500,-9.426696,0.87797,-1.536421,0.241675,0.590526,0.207779
1700767595695312,-9.395696,1.1697,-1.507421,0.228275,0.557626,0.194379
1700767595703125,-9.262696,1.14797,-1.360421,0.226275,0.490626,0.185879
1700767595710937,-9.125696,1.31997,-1.137421,0.217775,0.438126,0.180479
1700767595718750,-8.981696,1.42397,0.898421,0.234975,0.395826,0.172479
1700767595726562,-8.913696,1.58297,0.579421,0.260875,0.364226,0.175579
1700767595734375,-8.817696,1.73197,0.315421,0.271875,0.349826,0.162779
1700767595742187,-8.635696,1.78097,0.198421,0.293175,0.357526,0.158079
1700767595750000,-8.497696,1.81597,0.223421,0.298675,0.381226,0.142579
1700767595757812,-8.348696,1.80897,0.317421,0.299475,0.403926,0.116879
1700767595765625,-8.167696,1.71897,0.405421,0.303475,0.445626,0.98179
1700767595773437,-8.57696,1.59597,0.486421,0.299275,0.469626,0.83479
1700767595781250,-7.978696,1.44397,0.599421,0.295575,0.513626,0.59479
1700767595789062,-7.931696,1.29397,0.721421,0.277575,0.533826,0.58079
1700767595796875,-7.858696,1.21997,0.829421,0.272575,0.551626,0.56379
1700767595804687,-7.787696,1.22097,0.869421,0.271775,0.539026,0.58179
1700767595812500,-7.701696,1.18897,0.894421,0.265375,0.535626,0.62879
1700767595820312,-7.646696,1.16097,0.860421,0.280975,0.524026,0.74179
1700767595828125,-7.604696,1.16697,0.703421,0.317575,0.514126,0.93879
1700767595835937,-7.577696,1.20897,0.500421,0.370775,0.516826,0.116879
1700767595843750,-7.423696,1.23597,0.279421,0.453275,0.538326,0.127779
1700767595851562,-7.186696,1.21197,0.187421,0.498075,0.563826,0.134579
1700767595859375,-6.917696,1.11997,0.187421,0.534575,0.604126,0.112379
1700767595867187,-6.641696,1.1797,0.196421,0.553075,0.677026,0.92679
1700767595875000,-6.380696,0.97097,0.320421,0.558075,0.754226,0.72379
1700767595882812,-6.211696,0.93097,0.428421,0.559275,0.826026,0.53479
1700767595890625,-6.201696,0.84397,0.662421,0.514075,0.878926,0.30979
1700767595898437,-6.226696,0.72197,0.831421,0.503475,0.894126,0.13479
1700767595906250,-6.268696,0.68097,0.910421,0.491675,0.901826,0.6679
1700767595914062,-6.326696,0.62997,0.924421,0.465475,0.879626,0.9621
1700767595921875,-6.308696,0.66297,0.899421,0.458975,0.873126,0.21021
1700767595929687,-6.292696,0.79197,0.870421,0.431375,0.871026,0.26421
1700767595937500,-6.296696,0.92297,-1.45421,0.427475,0.900926,0.24421
1700767595945312,-6.360696,1.10797,-1.378421,0.428575,0.921826,0.26021
1700767595953125,-6.450696,1.30897,-1.822421,0.427075,0.930026,0.24421
1700767595960937,-6.503696,1.37097,-2.243421,0.427575,0.935326,0.30621
1700767595968750,-6.597696,1.34997,-2.563421,0.428475,0.945126,0.59621
1700767595976562,-6.828696,1.28097,-2.768421,0.426275,0.950226,0.90121
1700767595984375,-7.22696,1.23097,-2.671421,0.428075,0.925326,0.119521
1700767595992187,-6.986696,1.17497,-2.547421,0.404375,0.871826,0.142521
1700767596000000,-7.220696,1.10297,-2.604421,0.352375,0.870126,0.144821
1700767596007812,-7.611696,1.6197,-2.808421,0.319875,0.930926,0.154321
1700767596015625,-8.31696,1.6397,-3.49421,0.272475,0.942426,0.166121
1700767596023437,-8.329696,1.197,-3.281421,0.209075,0.901526,0.175221
1700767596031250,-8.371696,0.80997,-3.451421,0.143975,0.858826,0.186021
1700767596039062,-8.334696,0.71597,-3.541421,0.124375,0.872126,0.168321
1700767596046875,-8.451696,0.73097,-3.610421,0.115775,0.914826,0.151921
1700767596054687,-8.588696,0.75497,-3.881421,0.124275,0.973726,0.138521
1700767596062500,-8.625696,0.68497,-4.18421,0.127675,0.952526,0.127321
1700767596070312,-8.792696,0.58497,-4.117421,0.125675,0.891726,0.121421
1700767596078125,-9.34696,0.53297,-4.169421,0.125675,0.831426,0.120121
1700767596085937,-9.335696,0.47997,-4.243421,0.112575,0.759326,0.122421
1700767596093750,-9.554696,0.42797,-4.245421,0.106175,0.708926,0.130821
1700767596101562,-9.525696,0.40097,-4.203421,0.99775,0.664826,0.135921
1700767596109375,-9.412696,0.37497,-4.77421,0.80375,0.640026,0.138121
1700767596117187,-9.329696,0.41297,-4.128421,0.38275,0.653226,0.127221
1700767596125000,-9.222696,0.50497,-4.297421,0.1625,0.626326,0.108821
1700767596132812,-9.287696,0.57697,-4.531421,0.43625,0.592226,0.98121
1700767596140625,-9.415696,0.61197,-4.820421,0.67525,0.545926,0.74821
1700767596148437,-9.641696,0.64197,-5.72421,0.83225,0.490926,0.37921
1700767596156250,-9.818696,0.66897,-5.182421,0.107725,0.423426,0.34121
1700767596164062,-9.917696,0.51297,-5.236421,0.131225,0.370826,0.9021
1700767596171875,-10.54696,0.38497,-5.133421,0.128625,0.317926,0.9679
1700767596179687,-10.184696,0.31597,-5.29421,0.107325,0.326526,0.15079
1700767596187500,-10.228696,0.29197,-4.867421,0.117925,0.325926,0.3379
1700767596195312,-10.267696,0.32597,-4.824421,0.123925,0.336126,0.4521
1700767596203125,-10.385696,0.37597,-4.840421,0.123725,0.295726,0.22221
1700767596210937,-10.494696,0.44897,-4.815421,0.90025,0.207226,0.29021
1700767596218750,-10.445696,0.65497,-4.574421,0.106925,0.94326,0.52521
1700767596226562,-10.374696,0.67997,-4.466421,0.172525,0.12426,0.73321
1700767596234375,-10.283696,0.62997,-4.854421,0.207925,0.21974,0.95021
1700767596242187,-10.318696,0.71897,-5.455421,0.171525,0.39926,0.83021
1700767596250000,-10.365696,0.85897,-5.873421,0.140825,0.32326,0.80721
1700767596257812,-10.456696,0.91997,-5.950421,0.128725,0.54574,0.74821
1700767596265625,-10.582696,0.94197,-5.905421,0.152325,0.116774,0.59421
1700767596273437,-10.677696,0.96397,-5.851421,0.188925,0.141574,0.56921
1700767596281250,-10.708696,0.95097,-5.851421,0.202625,0.146374,0.44221
1700767596289062,-10.731696,0.84297,-5.858421,0.171425,0.131974,0.39021
1700767596296875,-10.617696,0.86297,-5.871421,0.129725,0.77674,0.36321
1700767596304687,-10.546696,0.81097,-5.937421,0.78925,0.14074,0.19221
1700767596312500,-10.413696,0.59997,-5.774421,0.36125,0.7174,0.23421
1700767596320312,-10.356696,0.55697,-5.569421,0.35825,0.474,0.23221
1700767596328125,-10.373696,0.66197,-5.430421,0.70925,0.8974,0.23921
1700767596335937,-10.430696,0.68297,-5.243421,0.125025,0.65074,0.12221
1700767596343750,-10.468696,0.68397,-5.60421,0.171025,0.100374,0.179
1700767596351562,-10.402696,0.73597,-4.941421,0.204725,0.120374,0.521
1700767596359375,-10.266696,0.83797,-5.2421,0.205925,0.84474,0.10879
1700767596367187,-10.262696,0.88697,-5.209421,0.202325,0.27374,0.25779
1700767596375000,-10.422696,0.93397,-5.531421,0.188725,0.8526,0.64879
1700767596382812,-10.596696,0.92897,-5.862421,0.197125,0.974,0.90679
1700767596390625,-10.673696,0.85497,-6.54421,0.201825,0.53474,0.106379
1700767596398437,-10.650696,0.81897,-6.108421,0.180825,0.124374,0.115479
1700767596406250,-10.667696,0.75297,-6.79421,0.141625,0.140674,0.109479
1700767596414062,-10.593696,0.60297,-6.16421,0.106225,0.149174,0.101579
1700767596421875,-10.460696,0.47497,-5.921421,0.68525,0.165474,0.98779
1700767596429687,-10.303696,0.36397,-5.730421,0.14125,0.182174,0.99079
1700767596437500,-10.139696,0.29897,-5.527421,0.19775,0.179974,0.101479
1700767596445312,-10.81696,0.37597,-5.383421,0.41975,0.163474,0.100279
1700767596453125,-10.74696,0.50197,-5.369421,0.39375,0.151874,0.110079
1700767596460937,-10.20696,0.63197,-5.421421,0.26275,0.176674,0.109579
1700767596468750,-9.860696,0.76097,-5.437421,0.525,0.233874,0.112179
1700767596476562,-9.853696,0.87797,-5.491421,0.1275,0.313074,0.109779
1700767596484375,-9.756696,0.98997,-5.443421,0.7175,0.402774,0.101279
1700767596492187,-9.647696,1.8497,-5.450421,0.34175,0.454774,0.101379
1700767596500000,-9.650696,1.11697,-5.425421,0.67775,0.496174,0.99679
1700767596507812,-9.723696,1.5797,-5.443421,0.104575,0.553574,0.86679
1700767596515625,-9.745696,1.1997,-5.405421,0.140575,0.628574,0.78779
1700767596523437,-9.706696,1.12197,-5.324421,0.134675,0.671474,0.63679
1700767596531250,-9.682696,1.18197,-5.335421,0.108675,0.696274,0.45379
1700767596539062,-9.639696,1.15597,-5.403421,0.66675,0.707174,0.35279
1700767596546875,-9.586696,1.15797,-5.493421,0.12375,0.706674,0.33279
1700767596554687,-9.631696,1.20697,-5.590421,0.9025,0.694174,0.29579
1700767596562500,-9.740696,1.13297,-5.689421,0.21925,0.672374,0.41179
1700767596570312,-9.812696,1.9897,-5.673421,0.14125,0.674174,0.52379
1700767596578125,-9.826696,1.14197,-5.565421,0.21025,0.692474,0.47279
1700767596585937,-9.877696,1.11597,-5.513421,0.48825,0.688874,0.43879
1700767596593750,-10.26696,0.99797,-5.428421,0.74025,0.680774,0.45179
1700767596601562,-10.149696,0.86297,-5.344421,0.121525,0.703874,0.47579
1700767596609375,-10.212696,0.72897,-5.241421,0.170625,0.739974,0.45079
1700767596617187,-10.294696,0.62997,-5.88421,0.200125,0.761174,0.57579
1700767596625000,-10.406696,0.62497,-5.22421,0.220425,0.751474,0.66979
1700767596632812,-10.540696,0.58297,-5.25421,0.234925,0.750374,0.87479
1700767596640625,-10.648696,0.54297,-5.421,0.229625,0.774574,0.93979
1700767596648437,-10.655696,0.55197,-4.937421,0.234925,0.833874,0.106279
1700767596656250,-10.634696,0.61297,-4.835421,0.227425,0.877174,0.112979
1700767596664062,-10.687696,0.75797,-4.799421,0.210925,0.910574,0.122279
1700767596671875,-10.749696,0.85497,-4.716421,0.186325,0.946774,0.123879
1700767596679687,-10.796696,0.98397,-4.596421,0.157625,0.969274,0.122579
1700767596687500,-10.848696,1.14097,-4.479421,0.119125,0.961574,0.114779
1700767596695312,-10.891696,1.29897,-4.371421,0.81825,0.956874,0.110379
1700767596703125,-10.942696,1.37897,-4.283421,0.46625,0.964374,0.101379
1700767596710937,-10.919696,1.37497,-4.155421,0.29625,-1.4474,0.78379
1700767596718750,-10.816696,1.36197,-3.885421,0.1675,-1.59774,0.65579
1700767596726562,-10.699696,1.35597,-3.581421,0.13675,-1.62974,0.43179
1700767596734375,-10.672696,1.35797,-3.270421,0.13175,-1.33474,0.15979
1700767596742187,-10.669696,1.33597,-3.27421,0.7625,0.992574,0.9821
1700767596750000,-10.653696,1.30897,-2.766421,0.14225,0.967874,0.33821
1700767596757812,-10.549696,1.26497,-2.428421,0.1425,0.920074,0.52521
1700767596765625,-10.292696,1.19097,-2.83421,0.23975,0.849674,0.63021
1700767596773437,-10.48696,1.12497,-1.901421,0.43375,0.764174,0.79721
1700767596781250,-9.843696,1.7697,-1.894421,0.65475,0.684074,0.87021
1700767596789062,-9.620696,1.3197,-1.957421,0.92275,0.654574,0.92921
1700767596796875,-9.365696,1.1397,-1.968421,0.117075,0.661374,0.92821
1700767596804687,-9.100696,0.99897,-1.926421,0.137475,0.697274,0.89521
1700767596812500,-8.828696,0.99497,-1.757421,0.161175,0.741474,0.76621
1700767596820312,-8.560696,0.99097,-1.572421,0.195675,0.779274,0.62021
1700767596828125,-8.282696,0.98897,-1.426421,0.207875,0.805574,0.62221
1700767596835937,-8.25696,0.93797,-1.399421,0.209275,0.834974,0.67121
1700767596843750,-7.821696,0.87597,-1.473421,0.195275,0.884474,0.85621
1700767596851562,-7.674696,0.81997,-1.572421,0.191875,0.938074,0.113221
1700767596859375,-7.624696,0.75697,-1.685421,0.187875,0.988774,0.137821
1700767596867187,-7.644696,0.72797,-1.838421,0.194575,-1.39574,0.167221
1700767596875000,-7.724696,0.67697,-1.940421,0.219875,-1.56274,0.197821
1700767596882812,-7.962696,0.65997,-1.890421,0.235875,-1.57274,0.221521
1700767596890625,-8.275696,0.67797,-1.696421,0.221375,-1.86874,0.221921
1700767596898437,-8.620696,0.65697,-1.385421,0.156475,-1.145674,0.234421
1700767596906250,-9.56696,0.64197,0.960421,0.63575,-1.201174,0.235821
1700767596914062,-9.481696,0.61597,0.550421,0.35925,-1.251874,0.243821
1700767596921875,-9.865696,0.60197,0.108421,0.115825,-1.274574,0.243221
1700767596929687,-10.190696,0.56897,0.294579,0.179925,-1.236974,0.240521
1700767596937500,-10.471696,0.57097,0.566579,0.159525,-1.103874,0.234321
1700767596945312,-10.925696,0.72097,0.922579,0.140825,0.996574,0.225521
1700767596953125,-11.349696,0.84097,1.361579,0.162525,0.957174,0.228721
1700767596960937,-11.552696,0.88797,1.573579,0.193525,0.888374,0.231821
1700767596968750,-11.634696,0.91397,1.393579,0.182725,0.756874,0.235421
1700767596976562,-11.586696,0.99897,1.89579,0.162625,0.655174,0.223021
1700767596984375,-11.513696,1.9997,1.44579,0.164225,0.608274,0.203621
1700767597000000,-10.728696,1.17497,1.260579,0.161325,0.604774,0.167921
1700767597007812,-10.204696,1.13997,1.105579,0.143425,0.624274,0.146821
1700767597015625,-9.777696,1.3097,0.783579,0.105825,0.644174,0.130521
1700767597023437,-9.114696,1.1197,0.783579,0.102925,0.748874,0.118321
1700767597031250,-8.991696,1.8097,0.609579,0.81725,0.813474,0.97821
1700767597039062,-8.572696,0.98797,0.778579,0.16225,0.855974,0.107021
1700767597046875,-8.221696,1.10497,0.947579,0.15125,0.916674,0.102721
1700767597054687,-8.67696,0.88897,0.897579,0.11925,0.958874,0.115621
1700767597062500,-7.873696,0.57997,0.888579,0.11075,-1.9674,0.122221
