time,Acceleration X (m/s^2),Acceleration Y (m/s^2),Acceleration Z (m/s^2),Angular Velocity X (rad/s),Angular Velocity Y (rad/s),Angular Velocity Z (rad/s)
1695051770093750,-9.203742,-0.589407,3.333182,,,
1695051770101562,-9.203742,0.597407,3.315182,0.67257,0.2108,0.3791
1695051770109375,-9.203742,0.600407,3.304182,0.70157,0.1238,0.1891
1695051770117187,-9.203742,0.597407,3.308182,0.68857,0.1938,0.5391
1695051770125000,-9.203742,0.606407,3.306182,0.65557,0.1578,0.3591
1695051770132812,-9.199742,0.588407,3.304182,0.63557,0.1388,0.7809
1695051770148437,-9.203742,0.604407,3.317182,0.65557,0.1618,0.1109
1695051770156250,-9.212742,0.615407,3.324182,0.67057,0.1438,0.2809
1695051770164062,-9.221742,0.615407,3.320182,0.67057,0.1638,0.9109
1695051770171875,-9.223742,0.626407,3.329182,0.65557,0.1468,0.2709
1695051770195312,-9.228742,0.602407,3.324182,0.68757,0.1618,0.491
1695051770203125,-9.225742,0.604407,3.311182,0.69957,0.1408,0.4509
1695051770210937,-9.223742,0.602407,3.315182,0.70057,0.1088,0.4409
1695051770218750,-9.232742,0.612407,3.317182,0.72957,0.1168,0.0
1695051770226562,-9.221742,0.602407,3.326182,0.73257,0.1268,0.2709
1695051770234375,-9.212742,0.597407,3.317182,0.79257,0.1038,0.4509
1695051770242187,-9.203742,0.595407,3.324182,0.70057,0.1218,0.291
1695051770250000,-9.196742,0.591407,3.313182,0.70057,0.42,0.1209
1695051770257812,-9.195742,0.580407,3.302182,0.73257,0.0,0.4309
1695051770265625,-9.190742,0.571407,3.308182,0.72057,0.1178,0.691
1695051770273437,-9.186742,0.576407,3.317182,0.70457,0.848,0.909
1695051770281250,-9.204742,0.573407,3.322182,0.72057,0.988,0.3891
1695051770289062,-9.203742,0.586407,3.344182,0.68657,0.758,0.3591
1695051770296875,-9.206742,0.582407,3.349182,0.68857,0.1008,0.909
1695051770304687,-9.212742,0.580407,3.360182,0.65557,0.1128,0.491
1695051770312500,-9.199742,0.584407,3.360182,0.67157,0.1128,0.2091
1695051770320312,-9.196742,0.598407,3.365182,0.65557,0.1638,0.4309
1695051770328125,-9.169742,0.609407,3.290182,0.62157,0.1388,0.1409
1695051770335937,-9.196742,0.622407,3.284182,0.70557,0.1648,0.7091
1695051770343750,-9.221742,0.617407,3.326182,0.65557,0.1468,0.4309
1695051770351562,-9.248742,0.608407,3.349182,0.70057,0.1618,0.12309
1695051770359375,-9.253742,0.604407,3.338182,0.73557,0.1518,0.7209
1695051770367187,-9.253742,0.610407,3.351182,0.65657,0.1668,0.8909
1695051770375000,-9.244742,0.592407,3.340182,0.70057,0.1458,0.9109
1695051770382812,-9.235742,0.588407,3.331182,0.65557,0.1598,0.391
1695051770390625,-9.235742,0.588407,3.335182,0.67057,0.308,0.2809
1695051770398437,-9.221742,0.593407,3.324182,0.65257,0.232,0.3009
1695051770406250,-9.205742,0.604407,3.313182,0.67157,0.0,0.2091
1695051770414062,-9.205742,0.609407,3.304182,0.65557,0.0,0.491
1695051770421875,-9.196742,0.609407,3.306182,0.65557,0.182,0.1991
1695051770429687,-9.185742,0.607407,3.297182,0.65457,0.308,0.2809
1695051770437500,-9.187742,0.611407,3.313182,0.65357,0.458,0.2909
1695051770445312,-9.194742,0.604407,3.311182,0.65557,0.998,0.5809
1695051770453125,-9.201742,0.615407,3.317182,0.65557,0.488,0.1109
1695051770460937,-9.203742,0.602407,3.331182,0.65557,0.648,0.2709
1695051770468750,-9.203742,0.606407,3.338182,0.67257,0.668,0.1009
1695051770476562,-9.205742,0.609407,3.349182,0.65657,0.8,0.491
1695051770484375,-9.208742,0.600407,3.347182,0.67257,0.122,0.2609
1695051770492187,-9.219742,0.593407,3.353182,0.68857,0.158,0.6891
1695051770500000,-9.212742,0.595407,3.353182,0.65757,0.158,0.11691
1695051770507812,-9.203742,0.602407,3.365182,0.65757,0.142,0.3791
1695051770515625,-9.188742,0.593407,3.365182,0.67257,0.0,0.5291
1695051770523437,-9.181742,0.589407,3.369182,0.69057,0.828,0.10291
1695051770531250,-9.172742,0.591407,3.369182,0.65757,0.168,0.8591
1695051770539062,-9.170742,0.589407,3.374182,0.67257,0.172,0.8491
1695051770546875,-9.169742,0.600407,3.371182,0.65557,0.1268,0.1991
1695051770554687,-9.172742,0.605407,3.371182,0.67257,0.338,0.2191
1695051770562500,-9.181742,0.602407,3.374182,0.65557,0.138,0.391
1695051770570312,-9.176742,0.591407,3.387182,0.65857,0.848,0.5491
1695051770578125,-9.181742,0.605407,3.383182,0.65957,0.848,0.8691
1695051770585937,-9.185742,0.609407,3.389182,0.65457,0.288,0.291
1695051770593750,-9.196742,0.609407,3.383182,0.65857,0.1188,0.2291
1695051770601562,-9.187742,0.607407,3.387182,0.65757,0.668,0.5391
1695051770609375,-9.194742,0.609407,3.371182,0.65657,0.818,0.491
1695051770617187,-9.188742,0.607407,3.378182,0.65757,0.1358,0.2509
1695051770625000,-9.185742,0.611407,3.380182,0.65357,0.968,0.7609
1695051770632812,-9.181742,0.604407,3.365182,0.65657,0.1468,0.591
1695051770640625,-9.181742,0.602407,3.378182,0.65657,0.1448,0.5291
1695051770648437,-9.181742,0.605407,3.383182,0.65757,0.1158,0.591
1695051770656250,-9.183742,0.602407,3.369182,0.65757,0.1628,0.3791
1695051770664062,-9.194742,0.604407,3.380182,0.65857,0.1318,0.8691
1695051770671875,-9.183742,0.600407,3.380182,0.65957,0.1518,0.3991
1695051770679687,-9.201742,0.600407,3.376182,0.67457,0.1008,0.7091
1695051770687500,-9.201742,0.598407,3.380182,0.65757,0.978,0.5391
1695051770695312,-9.195742,0.589407,3.360182,0.67457,0.1678,0.809
1695051770703125,-9.185742,0.591407,3.347182,0.68857,0.1488,0.691
1695051770710937,-9.174742,0.591407,3.342182,0.65657,0.978,0.3691
1695051770718750,-9.172742,0.596407,3.326182,0.67357,0.1488,0.2291
1695051770726562,-9.174742,0.589407,3.329182,0.65757,0.1628,0.5391
1695051770734375,-9.165742,0.600407,3.338182,0.67057,0.1418,0.391
1695051770742187,-9.174742,0.594407,3.340182,0.65757,0.1998,0.909
1695051770750000,-9.183742,0.598407,3.344182,0.70257,0.1948,0.2609
1695051770757812,-9.179742,0.596407,3.360182,0.70457,0.1338,0.691
1695051770765625,-9.194742,0.593407,3.371182,0.65757,0.2128,0.591
1695051770773437,-9.206742,0.589407,3.378182,0.72157,0.1498,0.3991
1695051770781250,-9.208742,0.600407,3.392182,0.67357,0.1178,0.909
1695051770789062,-9.228742,0.599407,3.385182,0.65757,0.988,0.5391
1695051770796875,-9.210742,0.602407,3.392182,0.68857,0.1118,0.10191
1695051770804687,-9.208742,0.598407,3.389182,0.75257,0.698,0.3991
1695051770812500,-9.217742,0.591407,3.410182,0.63857,0.138,0.1209
1695051770820312,-9.212742,0.604407,3.471182,0.71957,0.168,0.3791
1695051770828125,-9.201742,0.615407,3.511182,0.81357,0.152,0.2291
1695051770835937,-9.156742,0.631407,3.362182,0.86057,0.1298,0.2391
1695051770843750,-9.173742,0.640407,3.254182,0.73357,0.1948,0.5809
1695051770851562,-9.176742,0.627407,3.396182,0.63757,0.928,0.4509
1695051770859375,-9.165742,0.607407,3.367182,0.67057,0.1768,0.2709
1695051770867187,-9.178742,0.600407,3.275182,0.70257,0.3078,0.5809
1695051770875000,-9.210742,0.597407,3.358182,0.68657,0.1578,0.391
1695051770882812,-9.190742,0.591407,3.473182,0.65657,0.488,0.2091
1695051770890625,-9.183742,0.591407,3.439182,0.73557,0.1978,0.909
1695051770898437,-9.174742,0.571407,3.374182,0.89357,0.2628,0.991
1695051770906250,-9.172742,0.571407,3.351182,0.92557,0.1788,0.12091
1695051770914062,-9.197742,0.571407,3.342182,0.85957,0.1418,0.3791
1695051770921875,-9.203742,0.571407,3.340182,0.85757,0.2148,0.8391
1695051770929687,-9.203742,0.586407,3.338182,0.79657,0.3508,0.5391
1695051770937500,-9.203742,0.582407,3.329182,0.73657,0.4088,0.791
1695051770945312,-9.192742,0.587407,3.338182,0.69157,0.3008,0.2591
1695051770953125,-9.181742,0.596407,3.338182,0.67357,0.2798,0.691
1695051770960937,-9.187742,0.604407,3.333182,0.65857,0.2798,0.2291
1695051770968750,-9.199742,0.609407,3.317182,0.67457,0.3288,0.3991
1695051770976562,-9.185742,0.611407,3.304182,0.65657,0.3238,0.591
1695051770984375,-9.183742,0.611407,3.302182,0.67457,0.2158,0.3991
1695051770992187,-9.183742,0.609407,3.320182,0.65957,0.2298,0.8691
1695051771000000,-9.187742,0.611407,3.335182,0.67557,0.2808,0.3991
1695051771007812,-9.194742,0.600407,3.344182,0.62657,0.3598,0.2291
1695051771015625,-9.208742,0.604407,3.347182,0.64257,0.4088,0.2509
1695051771023437,-9.244742,0.604407,3.380182,0.46857,0.4258,0.10709
1695051771031250,-9.254742,0.619407,3.383182,0.45057,0.4068,0.10909
1695051771039062,-9.250742,0.601407,3.383182,0.51457,0.4118,0.15409
1695051771046875,-9.262742,0.588407,3.362182,0.48557,0.4108,0.5809
1695051771054687,-9.275742,0.594407,3.347182,0.57957,0.4108,0.2509
1695051771062500,-9.275742,0.605407,3.315182,0.65557,0.3238,0.4309
1695051771070312,-9.270742,0.605407,3.347182,0.65457,0.2438,0.9109
1695051771078125,-9.257742,0.610407,3.356182,0.64057,0.3108,0.9009
1695051771085937,-9.255742,0.617407,3.344182,0.67157,0.2948,0.9009
1695051771093750,-9.235742,0.610407,3.333182,0.65757,0.2178,0.5609
1695051771101562,-9.219742,0.620407,3.353182,0.67357,0.1688,0.4009
1695051771109375,-9.214742,0.611407,3.349182,0.67457,0.1848,0.809
1695051771117187,-9.208742,0.613407,3.338182,0.65757,0.1338,0.909
1695051771125000,-9.205742,0.611407,3.344182,0.67457,0.1678,0.809
1695051771132812,-9.203742,0.609407,3.326182,0.68857,0.1468,0.5391
1695051771140625,-9.205742,0.602407,3.335182,0.65657,0.958,0.5291
1695051771148437,-9.203742,0.593407,3.335182,0.67257,0.1138,0.591
1695051771156250,-9.199742,0.589407,3.342182,0.67257,0.1138,0.591
1695051771164062,-9.215742,0.591407,3.315182,0.75257,0.658,0.8691
1695051771171875,-9.217742,0.586407,3.322182,0.65557,0.1108,0.5191
1695051771179687,-9.212742,0.586407,3.347182,0.67157,0.1438,0.3691
1695051771187500,-9.208742,0.597407,3.360182,0.61057,0.2268,0.5291
1695051771195312,-9.165742,0.607407,3.266182,0.65757,0.1628,0.5391
1695051771203125,-9.190742,0.600407,3.259182,0.65657,0.1798,0.1009
1695051771210937,-9.219742,0.608407,3.317182,0.67257,0.3268,0.2509
1695051771218750,-9.253742,0.608407,3.317182,0.65657,0.2948,0.5809
1695051771226562,-9.253742,0.595407,3.313182,0.65757,0.2958,0.4109
1695051771234375,-9.248742,0.597407,3.335182,0.67257,0.2598,0.2191
1695051771242187,-9.244742,0.599407,3.335182,0.65757,0.2448,0.2191
1695051771250000,-9.239742,0.601407,3.344182,0.67257,0.2128,0.591
1695051771257812,-9.246742,0.604407,3.344182,0.65757,0.1498,0.909
1695051771265625,-9.235742,0.597407,3.344182,0.67357,0.1628,0.8591
1695051771273437,-9.219742,0.602407,3.304182,0.61057,0.1118,0.8491
1695051771281250,-9.217742,0.608407,3.295182,0.60957,0.1138,0.2091
1695051771289062,-9.207742,0.611407,3.306182,0.60957,0.468,0.5191
1695051771296875,-9.199742,0.606407,3.299182,0.65757,0.798,0.10091
1695051771304687,-9.201742,0.611407,3.304182,0.62857,0.1208,0.5591
1695051771312500,-9.217742,0.604407,3.311182,0.67557,0.1678,0.7191
1695051771320312,-9.221742,0.602407,3.326182,0.62757,0.828,0.11791
1695051771328125,-9.230742,0.604407,3.331182,0.65757,0.1318,0.3791
1695051771335937,-9.221742,0.597407,3.338182,0.67257,0.958,0.6891
1695051771343750,-9.221742,0.588407,3.329182,0.65557,0.618,0.1991
1695051771351562,-9.224742,0.584407,3.320182,0.64657,0.1348,0.18391
1695051771359375,-9.226742,0.575407,3.322182,0.67357,0.938,0.14891
1695051771367187,-9.226742,0.568407,3.315182,0.67257,0.22,0.11691
1695051771375000,-9.215742,0.571407,3.315182,0.64257,0.142,0.6991
1695051771382812,-9.213742,0.569407,3.333182,0.65757,0.0,0.11691
1695051771390625,-9.213742,0.580407,3.344182,0.67457,0.348,0.10291
1695051771398437,-9.210742,0.591407,3.331182,0.65757,0.172,0.10091
1695051771406250,-9.215742,0.584407,3.315182,0.67457,0.0,0.13391
1695051771414062,-9.206742,0.593407,3.322182,0.65957,0.292,0.11891
1695051771421875,-9.208742,0.595407,3.320182,0.65957,0.208,0.10291
1695051771429687,-9.203742,0.598407,3.313182,0.65957,0.188,0.11891
1695051771437500,-9.203742,0.606407,3.315182,0.65957,0.518,0.10291
1695051771445312,-9.206742,0.595407,3.320182,0.65857,0.978,0.11791
1695051771453125,-9.214742,0.600407,3.333182,0.65757,0.668,0.6991
1695051771460937,-9.221742,0.597407,3.347182,0.65857,0.58,0.3891
1695051771468750,-9.212742,0.593407,3.338182,0.67457,0.678,0.10291
1695051771476562,-9.217742,0.591407,3.340182,0.66057,0.78,0.10391
1695051771484375,-9.217742,0.586407,3.342182,0.67357,0.648,0.10191
1695051771492187,-9.208742,0.591407,3.344182,0.66157,0.578,0.10491
1695051771500000,-9.201742,0.591407,3.371182,0.67457,0.1168,0.5491
1695051771507812,-9.208742,0.593407,3.347182,0.68957,0.1138,0.11791
1695051771515625,-9.194742,0.589407,3.344182,0.72157,0.988,0.8691
1695051771523437,-9.199742,0.591407,3.349182,0.70557,0.348,0.8691
1695051771531250,-9.196742,0.598407,3.335182,0.68857,0.172,0.8491
1695051771539062,-9.206742,0.600407,3.333182,0.66057,0.38,0.13491
1695051771546875,-9.208742,0.606407,3.335182,0.72057,0.142,0.7091
1695051771554687,-9.216742,0.611407,3.347182,0.76557,0.448,0.5291
1695051771562500,-9.219742,0.602407,3.349182,0.71957,0.628,0.5291
1695051771570312,-9.217742,0.586407,3.340182,0.70357,0.1318,0.2509
1695051771578125,-9.219742,0.582407,3.351182,0.73457,0.22,0.6891
1695051771585937,-9.213742,0.573407,3.353182,0.67357,0.48,0.3891
1695051771593750,-9.213742,0.571407,3.342182,0.73457,0.158,0.2191
1695051771601562,-9.210742,0.569407,3.340182,0.71957,0.0,0.6991
1695051771609375,-9.206742,0.566407,3.329182,0.65557,0.502,0.3591
1695051771617187,-9.206742,0.569407,3.326182,0.75057,0.662,0.8591
1695051771625000,-9.208742,0.591407,3.344182,0.72157,0.322,0.11791
1695051771632812,-9.183742,0.582407,3.349182,0.65657,0.992,0.8391
1695051771640625,-9.181742,0.591407,3.371182,0.67157,0.598,0.9991
1695051771648437,-9.181742,0.589407,3.347182,0.69057,0.368,0.8791
1695051771656250,-9.190742,0.591407,3.333182,0.70357,0.938,0.10091
1695051771664062,-9.181742,0.578407,3.338182,0.82757,0.598,0.5291
1695051771671875,-9.186742,0.569407,3.335182,0.83057,0.1448,0.10291
1695051771679687,-9.192742,0.569407,3.342182,0.80057,0.1478,0.12091
1695051771687500,-9.202742,0.567407,3.353182,0.89457,0.1658,0.8991
1695051771695312,-9.206742,0.569407,3.362182,0.92457,0.1298,0.7291
1695051771703125,-9.199742,0.567407,3.351182,0.83257,0.1508,0.10591
1695051771710937,-9.204742,0.564407,3.317182,0.84957,0.1018,0.16991
1695051771718750,-9.188742,0.562407,3.356182,0.90657,0.192,0.3891
1695051771726562,-9.204742,0.564407,3.416182,0.90657,0.1682,0.14991
1695051771734375,-9.213742,0.573407,3.464182,0.78357,0.1782,0.11891
1695051771742187,-9.186742,0.587407,3.385182,0.89257,0.472,0.2391
1695051771750000,-9.154742,0.587407,3.203182,0.92657,0.1198,0.4291
1695051771757812,-9.148742,0.565407,3.259182,0.90857,0.838,0.4091
1695051771765625,-9.166742,0.558407,3.374182,0.92357,0.958,0.5591
1695051771773437,-9.179742,0.556407,3.369182,0.90657,0.1068,0.8591
1695051771781250,-9.177742,0.554407,3.378182,0.92357,0.498,0.2491
1695051771789062,-9.141742,0.561407,3.383182,0.89157,0.778,0.8691
1695051771796875,-9.128742,0.552407,3.340182,0.91057,0.678,0.12191
1695051771804687,-9.114742,0.530407,3.311182,0.92257,0.1248,0.10291
1695051771812500,-9.146742,0.530407,3.329182,0.92457,0.2078,0.10391
1695051771820312,-9.197742,0.547407,3.367182,0.91057,0.2278,0.12191
1695051771828125,-9.215742,0.560407,3.369182,0.92457,0.2428,0.8891
1695051771835937,-9.208742,0.560407,3.344182,0.81557,0.3298,0.991
1695051771843750,-9.193742,0.553407,3.306182,0.80257,0.3988,0.4391
1695051771851562,-9.177742,0.542407,3.295182,0.78457,0.3608,0.891
1695051771859375,-9.171742,0.534407,3.299182,0.87957,0.2988,0.2691
1695051771867187,-9.157742,0.536407,3.286182,0.75257,0.2798,0.2391
1695051771875000,-9.143742,0.532407,3.293182,0.76457,0.2068,0.1109
1695051771882812,-9.148742,0.534407,3.299182,0.81157,0.1758,0.2609
1695051771890625,-9.144742,0.534407,3.304182,0.83057,0.3108,0.2491
1695051771898437,-9.164742,0.538407,3.326182,0.81557,0.2778,0.5691
1695051771906250,-9.168742,0.536407,3.340182,0.67457,0.2828,0.709
1695051771914062,-9.179742,0.540407,3.349182,0.75057,0.2598,0.2509
1695051771921875,-9.204742,0.542407,3.344182,0.71757,0.2438,0.9009
1695051771929687,-9.204742,0.535407,3.340182,0.70357,0.2108,0.1009
1695051771937500,-9.220742,0.544407,3.358182,0.73257,0.3058,0.9109
1695051771945312,-9.217742,0.555407,3.362182,0.68557,0.2928,0.10609
1695051771953125,-9.226742,0.551407,3.374182,0.67157,0.2618,0.9009
1695051771960937,-9.229742,0.546407,3.367182,0.70157,0.2418,0.7509
1695051771968750,-9.222742,0.548407,3.369182,0.65557,0.1598,0.391
1695051771976562,-9.213742,0.553407,3.358182,0.67057,0.1638,0.10709
1695051771984375,-9.204742,0.555407,3.353182,0.68557,0.1618,0.10709
1695051771992187,-9.204742,0.564407,3.347182,0.65657,0.1508,0.4109
1695051772000000,-9.204742,0.558407,3.335182,0.67357,0.1648,0.691
1695051772007812,-9.204742,0.555407,3.347182,0.65557,0.1618,0.4309
1695051772015625,-9.202742,0.553407,3.349182,0.66957,0.1438,0.7609
1695051772023437,-9.186742,0.556407,3.356182,0.70157,0.1618,0.7509
1695051772031250,-9.181742,0.551407,3.347182,0.68357,0.1108,0.12409
1695051772039062,-9.184742,0.547407,3.338182,0.68457,0.1438,0.10809
1695051772046875,-9.190742,0.544407,3.347182,0.65257,0.1258,0.9309
1695051772054687,-9.204742,0.547407,3.351182,0.65657,0.868,0.8909
1695051772062500,-9.204742,0.542407,3.358182,0.67157,0.688,0.7409
1695051772070312,-9.204742,0.542407,3.356182,0.65357,0.508,0.15509
1695051772078125,-9.184742,0.545407,3.362182,0.68557,0.1468,0.10709
1695051772085937,-9.172742,0.560407,3.380182,0.52957,0.1168,0.10809
1695051772093750,-9.154742,0.574407,3.322182,0.48357,0.1348,0.9209
1695051772101562,-9.170742,0.571407,3.356182,0.67157,0.1198,0.10509
1695051772109375,-9.206742,0.573407,3.396182,0.65757,0.1868,0.8809
1695051772117187,-9.242742,0.579407,3.396182,0.64157,0.2798,0.4109
1695051772125000,-9.231742,0.557407,3.362182,0.65657,0.3268,0.4109
1695051772132812,-9.217742,0.553407,3.340182,0.67157,0.3728,0.5809
1695051772140625,-9.208742,0.551407,3.335182,0.65557,0.3418,0.7409
1695051772148437,-9.218742,0.549407,3.340182,0.59357,0.2798,0.10609
1695051772156250,-9.220742,0.553407,3.360182,0.53057,0.2968,0.10709
1695051772164062,-9.218742,0.553407,3.351182,0.64357,0.3158,0.2409
1695051772171875,-9.208742,0.560407,3.349182,0.59157,0.3078,0.7609
1695051772179687,-9.200742,0.560407,3.335182,0.53257,0.3508,0.10409
1695051772187500,-9.201742,0.562407,3.342182,0.48157,0.3898,0.14109
1695051772195312,-9.199742,0.569407,3.342182,0.51557,0.1818,0.5909
1695051772203125,-9.206742,0.564407,3.342182,0.59457,0.2638,0.4209
1695051772210937,-9.204742,0.578407,3.360182,0.52857,0.2128,0.12409
1695051772218750,-9.208742,0.575407,3.376182,0.46957,0.1958,0.1991
1695051772226562,-9.224742,0.573407,3.371182,0.60957,0.2928,0.2709
1695051772234375,-9.224742,0.573407,3.371182,0.65757,0.2448,0.2191
1695051772242187,-9.228742,0.575407,3.374182,0.64157,0.2308,0.4209
1695051772250000,-9.222742,0.571407,3.358182,0.63957,0.1308,0.5909
1695051772257812,-9.233742,0.568407,3.356182,0.60957,0.1648,0.2609
1695051772265625,-9.226742,0.566407,3.347182,0.67157,0.1448,0.2091
1695051772273437,-9.217742,0.582407,3.340182,0.65857,0.1368,0.809
1695051772281250,-9.224742,0.582407,3.342182,0.67157,0.978,0.491
1695051772289062,-9.228742,0.586407,3.331182,0.65757,0.1178,0.691
1695051772296875,-9.224742,0.593407,3.324182,0.67357,0.668,0.5391
1695051772304687,-9.219742,0.600407,3.326182,0.62757,0.1188,0.5491
1695051772312500,-9.208742,0.586407,3.315182,0.65857,0.1008,0.7091
1695051772320312,-9.210742,0.586407,3.317182,0.70757,0.1368,0.5691
1695051772328125,-9.203742,0.582407,3.313182,0.65657,0.808,0.3691
1695051772335937,-9.203742,0.584407,3.315182,0.67457,0.1298,0.11791
1695051772343750,-9.204742,0.578407,3.304182,0.65657,0.1468,0.591
1695051772351562,-9.199742,0.569407,3.299182,0.67057,0.1578,0.391
1695051772359375,-9.204742,0.578407,3.322182,0.65757,0.1648,0.2191
1695051772367187,-9.204742,0.575407,3.322182,0.68757,0.1448,0.491
1695051772375000,-9.215742,0.578407,3.297182,0.72357,0.1718,0.2591
1695051772382812,-9.219742,0.577407,3.306182,0.65857,0.1318,0.5391
1695051772390625,-9.215742,0.571407,3.308182,0.67557,0.1208,0.5691
1695051772398437,-9.231742,0.566407,3.308182,0.67357,0.1498,0.2291
1695051772406250,-9.224742,0.575407,3.308182,0.65357,0.948,0.6009
1695051772414062,-9.242742,0.570407,3.317182,0.70457,0.1488,0.3891
1695051772421875,-9.237742,0.577407,3.320182,0.73557,0.1298,0.3891
1695051772429687,-9.237742,0.575407,3.322182,0.65657,0.498,0.2191
1695051772437500,-9.235742,0.584407,3.331182,0.70357,0.648,0.591
1695051772445312,-9.230742,0.579407,3.362182,0.65657,0.1128,0.3691
1695051772453125,-9.242742,0.584407,3.353182,0.67257,0.1138,0.2191
1695051772460937,-9.246742,0.579407,3.356182,0.71957,0.518,0.691
1695051772468750,-9.230742,0.579407,3.367182,0.81357,0.478,0.2291
1695051772476562,-9.224742,0.575407,3.360182,0.76657,0.158,0.5391
1695051772484375,-9.201742,0.566407,3.344182,0.76557,0.1138,0.2609
1695051772492187,-9.188742,0.567407,3.326182,0.84357,0.468,0.1009
1695051772500000,-9.184742,0.571407,3.311182,0.86157,0.698,0.709
1695051772507812,-9.184742,0.567407,3.297182,0.81157,0.508,0.8909
1695051772515625,-9.195742,0.569407,3.306182,0.68457,0.128,0.4509
1695051772523437,-9.190742,0.571407,3.338182,0.70457,0.1998,0.2409
1695051772531250,-9.204742,0.566407,3.329182,0.63957,0.2308,0.13809
1695051772539062,-9.193742,0.558407,3.320182,0.70357,0.1488,0.2509
1695051772546875,-9.204742,0.555407,3.329182,0.73257,0.1638,0.12209
1695051772554687,-9.206742,0.564407,3.311182,0.78157,0.1468,0.4109
1695051772562500,-9.219742,0.566407,3.313182,0.71857,0.1598,0.491
1695051772570312,-9.219742,0.566407,3.320182,0.65657,0.1448,0.2091
1695051772578125,-9.215742,0.564407,3.335182,0.70457,0.1848,0.5609
1695051772585937,-9.224742,0.564407,3.340182,0.76557,0.1008,0.8909
1695051772593750,-9.217742,0.566407,3.335182,0.68757,0.1008,0.4109
1695051772601562,-9.220742,0.569407,3.324182,0.73357,0.48,0.8909
1695051772609375,-9.217742,0.562407,3.360182,0.78057,0.0,0.4209
1695051772617187,-9.215742,0.560407,3.416182,0.77757,0.672,0.10809
1695051772625000,-9.183742,0.591407,3.365182,0.73357,0.792,0.4209
1695051772632812,-9.167742,0.607407,3.223182,0.68857,0.2178,0.10409
1695051772640625,-9.167742,0.600407,3.245182,0.72157,0.1848,0.891
1695051772648437,-9.186742,0.591407,3.290182,0.78357,0.568,0.7109
1695051772656250,-9.233742,0.586407,3.263182,0.71757,0.1158,0.9009
1695051772664062,-9.289742,0.581407,3.317182,0.68757,0.1008,0.4109
1695051772671875,-9.287742,0.574407,3.432182,0.64057,0.302,0.2709
1695051772679687,-9.253742,0.575407,3.466182,0.65757,0.772,0.2191
1695051772687500,-9.217742,0.568407,3.416182,0.70557,0.848,0.5491
1695051772695312,-9.181742,0.556407,3.340182,0.87757,0.1478,0.2491
1695051772703125,-9.191742,0.556407,3.315182,0.92557,0.1678,0.2691
1695051772710937,-9.210742,0.569407,3.335182,0.87757,0.2298,0.4191
1695051772718750,-9.220742,0.562407,3.367182,0.76857,0.3298,0.709
1695051772726562,-9.211742,0.560407,3.353182,0.86157,0.3448,0.2209
1695051772734375,-9.195742,0.560407,3.320182,0.71957,0.3908,0.2509
1695051772742187,-9.184742,0.551407,3.315182,0.65657,0.3568,0.1009
1695051772750000,-9.181742,0.558407,3.320182,0.67057,0.2398,0.2809
1695051772757812,-9.184742,0.558407,3.326182,0.65557,0.2768,0.7509
1695051772765625,-9.177742,0.569407,3.340182,0.65657,0.2658,0.12109
1695051772773437,-9.177742,0.571407,3.322182,0.67157,0.2158,0.10509
1695051772781250,-9.179742,0.569407,3.313182,0.65457,0.2618,0.13809
1695051772789062,-9.183742,0.589407,3.315182,0.67057,0.2418,0.2709
1695051772796875,-9.192742,0.587407,3.322182,0.65657,0.2148,0.7409
1695051772804687,-9.197742,0.584407,3.335182,0.65557,0.2328,0.13709
1695051772812500,-9.204742,0.582407,3.347182,0.64157,0.2378,0.15109
1695051772820312,-9.203742,0.584407,3.340182,0.63857,0.1968,0.13909
1695051772828125,-9.215742,0.595407,3.338182,0.63957,0.3298,0.15309
1695051772835937,-9.222742,0.584407,3.351182,0.67257,0.2818,0.10509
1695051772843750,-9.230742,0.593407,3.349182,0.60757,0.2438,0.7509
1695051772851562,-9.224742,0.591407,3.356182,0.62557,0.2328,0.8909
1695051772859375,-9.230742,0.581407,3.349182,0.65357,0.2258,0.9209
1695051772867187,-9.224742,0.570407,3.340182,0.57457,0.1608,0.12509
1695051772875000,-9.224742,0.575407,3.342182,0.67257,0.1518,0.8909
1695051772882812,-9.230742,0.564407,3.326182,0.65157,0.2228,0.14109
1695051772890625,-9.224742,0.564407,3.335182,0.63857,0.1978,0.13809
1695051772898437,-9.215742,0.573407,3.329182,0.65357,0.1788,0.10709
1695051772906250,-9.217742,0.566407,3.322182,0.60757,0.1838,0.17009
1695051772914062,-9.217742,0.573407,3.317182,0.65457,0.1468,0.7509
1695051772921875,-9.219742,0.573407,3.315182,0.62157,0.1948,0.14009
1695051772929687,-9.213742,0.566407,3.308182,0.65357,0.2428,0.12409
1695051772937500,-9.204742,0.569407,3.304182,0.65357,0.1458,0.10809
1695051772945312,-9.203742,0.568407,3.315182,0.64957,0.1558,0.17509
1695051772953125,-9.210742,0.571407,3.313182,0.65557,0.1658,0.10609
1695051772960937,-9.215742,0.566407,3.322182,0.65557,0.1508,0.9009
1695051772968750,-9.199742,0.566407,3.329182,0.66857,0.1928,0.10809
1695051772976562,-9.199742,0.569407,3.347182,0.65457,0.1618,0.5909
1695051772984375,-9.186742,0.567407,3.369182,0.64057,0.1958,0.2609
1695051772992187,-9.176742,0.591407,3.374182,0.43657,0.2618,0.6009
1695051773000000,-9.161742,0.594407,3.266182,0.48457,0.2478,0.5909
1695051773007812,-9.190742,0.602407,3.290182,0.64057,0.2638,0.7309
1695051773015625,-9.199742,0.593407,3.335182,0.57957,0.2538,0.12009
1695051773023437,-9.244742,0.597407,3.324182,0.56257,0.3478,0.10509
1695051773031250,-9.260742,0.588407,3.335182,0.65757,0.3108,0.2509
1695051773039062,-9.253742,0.583407,3.344182,0.63857,0.2898,0.7609
1695051773046875,-9.257742,0.581407,3.344182,0.67057,0.2458,0.12209
1695051773054687,-9.253742,0.588407,3.338182,0.64157,0.2638,0.2509
1695051773062500,-9.266742,0.597407,3.324182,0.57957,0.1688,0.2509
1695051773070312,-9.253742,0.590407,3.322182,0.62457,0.2438,0.1109
1695051773078125,-9.237742,0.595407,3.304182,0.57557,0.1948,0.10809
1695051773085937,-9.226742,0.599407,3.304182,0.54557,0.1458,0.2809
1695051773093750,-9.217742,0.595407,3.284182,0.54457,0.1768,0.4509
1695051773101562,-9.203742,0.609407,3.286182,0.56157,0.1638,0.4409
1695051773109375,-9.214742,0.604407,3.284182,0.51257,0.1428,0.4609
1695051773117187,-9.208742,0.611407,3.302182,0.51557,0.1658,0.4309
1695051773125000,-9.203742,0.606407,3.299182,0.52957,0.1148,0.6009
1695051773132812,-9.203742,0.606407,3.306182,0.62457,0.1778,0.491
1695051773140625,-9.216742,0.606407,3.315182,0.65557,0.1928,0.2091
1695051773148437,-9.234742,0.601407,3.304182,0.66957,0.748,0.291
1695051773156250,-9.237742,0.601407,3.311182,0.67157,0.1928,0.491
1695051773164062,-9.244742,0.604407,3.313182,0.57757,0.158,0.1991
1695051773171875,-9.248742,0.597407,3.320182,0.65757,0.1468,0.5391
1695051773179687,-9.239742,0.597407,3.320182,0.67257,0.1488,0.591
1695051773187500,-9.241742,0.604407,3.308182,0.65657,0.798,0.5291
1695051773195312,-9.235742,0.604407,3.302182,0.65757,0.828,0.5391
1695051773203125,-9.223742,0.597407,3.306182,0.65557,0.1438,0.391
1695051773210937,-9.214742,0.620407,3.317182,0.65757,0.178,0.5391
1695051773218750,-9.221742,0.626407,3.302182,0.65557,0.628,0.1991
1695051773226562,-9.225742,0.633407,3.304182,0.65657,0.828,0.591
1695051773234375,-9.218742,0.637407,3.313182,0.65757,0.808,0.6891
1695051773242187,-9.218742,0.635407,3.306182,0.65757,0.1288,0.6891
1695051773250000,-9.221742,0.631407,3.311182,0.65757,0.978,0.6991
1695051773257812,-9.214742,0.635407,3.311182,0.65657,0.1448,0.5291
1695051773265625,-9.221742,0.637407,3.299182,0.65657,0.818,0.491
1695051773273437,-9.218742,0.630407,3.306182,0.66957,0.1088,0.1309
1695051773281250,-9.216742,0.633407,3.297182,0.65357,0.438,0.291
1695051773289062,-9.216742,0.624407,3.306182,0.66757,0.1038,0.1509
1695051773296875,-9.216742,0.626407,3.311182,0.68557,0.768,0.1309
1695051773304687,-9.236742,0.626407,3.308182,0.65657,0.798,0.3691
1695051773312500,-9.230742,0.622407,3.304182,0.67357,0.1028,0.909
1695051773320312,-9.230742,0.622407,3.299182,0.65657,0.1308,0.1109
1695051773328125,-9.230742,0.619407,3.299182,0.67257,0.978,0.2191
1695051773335937,-9.219742,0.617407,3.306182,0.65757,0.1498,0.691
1695051773343750,-9.223742,0.619407,3.315182,0.67257,0.498,0.591
1695051773351562,-9.234742,0.612407,3.313182,0.63857,0.288,0.2909
1695051773359375,-9.239742,0.615407,3.335182,0.63957,0.448,0.1891
1695051773367187,-9.241742,0.624407,3.347182,0.59557,0.688,0.3791
1695051773375000,-9.248742,0.617407,3.344182,0.65757,0.1488,0.591
1695051773382812,-9.241742,0.604407,3.329182,0.60957,0.1648,0.1009
1695051773390625,-9.244742,0.606407,3.308182,0.64057,0.1468,0.1109
1695051773398437,-9.228742,0.604407,3.322182,0.66857,0.1078,0.4509
1695051773406250,-9.237742,0.606407,3.326182,0.65457,0.1268,0.2809
1695051773414062,-9.234742,0.617407,3.304182,0.67057,0.1418,0.1991
1695051773421875,-9.230742,0.626407,3.288182,0.65557,0.1618,0.4309
1695051773429687,-9.239742,0.632407,3.288182,0.67157,0.2288,0.4209
1695051773437500,-9.239742,0.626407,3.304182,0.68757,0.1468,0.591
1695051773445312,-9.239742,0.626407,3.320182,0.65457,0.1578,0.391
1695051773453125,-9.239742,0.628407,3.338182,0.67457,0.1518,0.2391
1695051773460937,-9.239742,0.624407,3.326182,0.65557,0.1818,0.7409
1695051773468750,-9.239742,0.626407,3.317182,0.65657,0.1628,0.591
1695051773476562,-9.241742,0.630407,3.315182,0.67157,0.798,0.2091
1695051773484375,-9.237742,0.615407,3.335182,0.73457,0.1628,0.909
1695051773492187,-9.228742,0.615407,3.335182,0.71757,0.1088,0.391
1695051773500000,-9.232742,0.606407,3.333182,0.74957,0.938,0.2091
1695051773507812,-9.235742,0.601407,3.356182,0.82957,0.318,0.8691
1695051773515625,-9.246742,0.608407,3.392182,0.88957,0.712,0.5291
1695051773523437,-9.214742,0.624407,3.324182,0.90857,0.968,0.5591
1695051773531250,-9.214742,0.640407,3.193182,0.89257,0.2268,0.3991
1695051773539062,-9.230742,0.626407,3.245182,0.86357,0.1518,0.5791
1695051773546875,-9.214742,0.611407,3.248182,0.83057,0.1958,0.5591
1695051773554687,-9.232742,0.597407,3.185182,0.90857,0.2628,0.991
1695051773562500,-9.251742,0.588407,3.248182,0.82957,0.1958,0.2391
1695051773570312,-9.230742,0.586407,3.376182,0.78157,0.288,0.8491
1695051773578125,-9.212742,0.584407,3.374182,0.78057,0.248,0.11591
1695051773585937,-9.208742,0.568407,3.308182,0.92257,0.1208,0.16591
1695051773593750,-9.201742,0.562407,3.293182,0.93957,0.918,0.15091
1695051773601562,-9.226742,0.557407,3.275182,0.90657,0.1048,0.13391
1695051773609375,-9.255742,0.574407,3.272182,0.90657,0.2158,0.14891
1695051773617187,-9.255742,0.574407,3.272182,0.94057,0.1428,0.16791
1695051773625000,-9.257742,0.583407,3.290182,0.81157,0.2488,0.8391
1695051773632812,-9.243742,0.601407,3.297182,0.65557,0.1398,0.8291
1695051773640625,-9.239742,0.586407,3.302182,0.63957,0.1578,0.5191
1695051773648437,-9.228742,0.586407,3.270182,0.65757,0.1448,0.8491
1695051773656250,-9.221742,0.582407,3.241182,0.67357,0.1598,0.11691
1695051773664062,-9.212742,0.586407,3.239182,0.70357,0.1598,0.3691
1695051773671875,-9.208742,0.586407,3.234182,0.73157,0.1388,0.1891
1695051773679687,-9.196742,0.591407,3.223182,0.73057,0.1528,0.1409
1695051773687500,-9.212742,0.591407,3.243182,0.67057,0.1258,0.3591
1695051773695312,-9.215742,0.586407,3.263182,0.67157,0.1268,0.3591
1695051773703125,-9.214742,0.588407,3.268182,0.65557,0.1908,0.1991
1695051773710937,-9.221742,0.595407,3.279182,0.65357,0.2388,0.4509
1695051773718750,-9.239742,0.599407,3.299182,0.67057,0.2078,0.1209
1695051773726562,-9.234742,0.604407,3.293182,0.65557,0.2548,0.1991
1695051773734375,-9.239742,0.610407,3.281182,0.66757,0.1388,0.6209
1695051773742187,-9.232742,0.604407,3.293182,0.68457,0.1878,0.2909
1695051773750000,-9.221742,0.597407,3.284182,0.65557,0.1618,0.1109
1695051773757812,-9.212742,0.586407,3.281182,0.67057,0.948,0.1991
1695051773765625,-9.206742,0.573407,3.272182,0.74757,0.288,0.2809
1695051773773437,-9.206742,0.575407,3.293182,0.68757,0.1118,0.3691
1695051773781250,-9.221742,0.573407,3.304182,0.71557,0.548,0.4991
1695051773789062,-9.206742,0.575407,3.295182,0.78157,0.1138,0.691
1695051773796875,-9.210742,0.582407,3.288182,0.81157,0.618,0.491
1695051773804687,-9.210742,0.571407,3.281182,0.71557,0.72,0.1409
1695051773812500,-9.224742,0.575407,3.302182,0.73157,0.888,0.1891
1695051773820312,-9.226742,0.584407,3.286182,0.76257,0.548,0.1791
1695051773828125,-9.231742,0.575407,3.268182,0.81157,0.158,0.4209
1695051773835937,-9.241742,0.588407,3.284182,0.73257,0.288,0.1209
1695051773843750,-9.239742,0.577407,3.288182,0.81157,0.288,0.2091
1695051773851562,-9.251742,0.566407,3.299182,0.67357,0.48,0.691
1695051773859375,-9.255742,0.570407,3.297182,0.81357,0.462,0.2291
1695051773867187,-9.258742,0.568407,3.308182,0.81157,0.842,0.491
1695051773875000,-9.249742,0.564407,3.313182,0.70357,0.952,0.591
1695051773882812,-9.206742,0.580407,3.331182,0.67057,0.512,0.391
1695051773890625,-9.147742,0.592407,3.266182,0.62157,0.72,0.1791
1695051773898437,-9.158742,0.589407,3.250182,0.79557,0.692,0.1991
1695051773906250,-9.208742,0.595407,3.335182,0.78057,0.22,0.491
1695051773914062,-9.242742,0.581407,3.329182,0.73557,0.498,0.2291
1695051773921875,-9.235742,0.577407,3.317182,0.71757,0.128,0.391
1695051773929687,-9.217742,0.577407,3.335182,0.65457,0.202,0.1891
1695051773937500,-9.215742,0.566407,3.358182,0.67157,0.938,0.3591
1695051773945312,-9.217742,0.568407,3.344182,0.65457,0.22,0.391
1695051773953125,-9.213742,0.575407,3.342182,0.67057,0.352,0.1991
1695051773960937,-9.201742,0.584407,3.329182,0.65657,0.8,0.491
1695051773968750,-9.190742,0.591407,3.311182,0.65857,0.678,0.7091
1695051773976562,-9.190742,0.591407,3.299182,0.65657,0.502,0.8491
1695051773984375,-9.179742,0.585407,3.311182,0.65757,0.792,0.6991
1695051773992187,-9.172742,0.587407,3.308182,0.65657,0.0,0.6891
1695051774000000,-9.179742,0.578407,3.304182,0.65557,0.308,0.3591
1695051774007812,-9.181742,0.587407,3.326182,0.65757,0.808,0.6891
1695051774015625,-9.186742,0.578407,3.315182,0.65757,0.498,0.6991
1695051774023437,-9.203742,0.575407,3.311182,0.65657,0.778,0.6791
1695051774031250,-9.181742,0.578407,3.313182,0.65657,0.938,0.8391
1695051774039062,-9.199742,0.584407,3.335182,0.67257,0.778,0.8391
1695051774046875,-9.206742,0.584407,3.342182,0.65657,0.598,0.11591
1695051774054687,-9.203742,0.582407,3.344182,0.67157,0.108,0.9891
1695051774062500,-9.203742,0.591407,3.329182,0.68857,0.322,0.8591
1695051774070312,-9.203742,0.582407,3.326182,0.65657,0.318,0.3691
1695051774078125,-9.203742,0.586407,3.329182,0.67057,0.182,0.1991
1695051774085937,-9.194742,0.595407,3.333182,0.65557,0.778,0.3591
1695051774093750,-9.201742,0.582407,3.320182,0.66857,0.92,0.4991
1695051774101562,-9.188742,0.591407,3.311182,0.65657,0.352,0.9991
1695051774109375,-9.183742,0.591407,3.302182,0.65557,0.778,0.1991
1695051774117187,-9.199742,0.582407,3.313182,0.67357,0.188,0.2191
1695051774125000,-9.201742,0.584407,3.304182,0.65757,0.1668,0.691
1695051774132812,-9.197742,0.591407,3.311182,0.67257,0.1308,0.2191
1695051774140625,-9.183742,0.584407,3.324182,0.68657,0.798,0.491
1695051774148437,-9.186742,0.582407,3.317182,0.65857,0.1188,0.691
1695051774156250,-9.201742,0.589407,3.320182,0.67157,0.308,0.1991
1695051774164062,-9.194742,0.584407,3.324182,0.65457,0.202,0.1891
1695051774171875,-9.201742,0.580407,3.329182,0.67057,0.22,0.391
1695051774179687,-9.203742,0.586407,3.324182,0.65357,0.232,0.1791
1695051774187500,-9.203742,0.586407,3.333182,0.63757,0.1042,0.191
1695051774195312,-9.201742,0.591407,3.329182,0.67057,0.202,0.1891
1695051774203125,-9.185742,0.584407,3.335182,0.65457,0.768,0.1891
1695051774210937,-9.190742,0.580407,3.338182,0.66957,0.72,0.6591
1695051774218750,-9.185742,0.591407,3.349182,0.63857,0.222,0.1791
1695051774226562,-9.192742,0.589407,3.360182,0.60957,0.8,0.2091
1695051774234375,-9.197742,0.591407,3.369182,0.67157,0.172,0.491
1695051774242187,-9.205742,0.593407,3.362182,0.65357,0.88,0.1791
1695051774250000,-9.196742,0.593407,3.360182,0.67157,0.138,0.3591
1695051774257812,-9.186742,0.584407,3.340182,0.65657,0.668,0.591
1695051774265625,-9.185742,0.587407,3.356182,0.67057,0.618,0.1209
1695051774273437,-9.190742,0.576407,3.353182,0.64057,0.978,0.2091
1695051774281250,-9.181742,0.567407,3.340182,0.65457,0.1258,0.291
1695051774289062,-9.174742,0.569407,3.320182,0.65457,0.1418,0.391
1695051774296875,-9.183742,0.587407,3.331182,0.67257,0.998,0.2191
1695051774304687,-9.183742,0.593407,3.335182,0.60657,0.1218,0.191
1695051774312500,-9.180742,0.602407,3.351182,0.58857,0.58,0.1609
1695051774320312,-9.201742,0.600407,3.342182,0.63757,0.1408,0.1309
1695051774328125,-9.187742,0.600407,3.331182,0.60857,0.1128,0.391
1695051774335937,-9.183742,0.593407,3.338182,0.68557,0.1058,0.5091
1695051774343750,-9.190742,0.593407,3.342182,0.62357,0.1258,0.291
1695051774351562,-9.194742,0.600407,3.353182,0.68557,0.1238,0.1891
1695051774359375,-9.208742,0.593407,3.371182,0.63857,0.928,0.1891
1695051774367187,-9.205742,0.593407,3.383182,0.65257,0.1058,0.1409
1695051774375000,-9.214742,0.597407,3.380182,0.63757,0.1408,0.1309
1695051774382812,-9.214742,0.591407,3.367182,0.68557,0.948,0.1209
1695051774390625,-9.206742,0.582407,3.356182,0.62457,0.1128,0.1991
1695051774398437,-9.203742,0.575407,3.385182,0.65157,0.38,0.0
1695051774406250,-9.206742,0.580407,3.441182,0.65357,0.222,0.1791
1695051774414062,-9.214742,0.593407,3.468182,0.66757,0.58,0.0
1695051774421875,-9.174742,0.604407,3.331182,0.65157,0.1048,0.4709
1695051774429687,-9.180742,0.595407,3.209182,0.69757,0.1518,0.6309
1695051774437500,-9.174742,0.587407,3.322182,0.73257,0.1438,0.4309
1695051774445312,-9.196742,0.586407,3.376182,0.65257,0.1538,0.3009
1695051774453125,-9.214742,0.584407,3.401182,0.66657,0.1478,0.0
1695051774460937,-9.201742,0.589407,3.421182,0.66957,0.1438,0.6009
1695051774468750,-9.181742,0.584407,3.428182,0.63857,0.948,0.1209
1695051774476562,-9.161742,0.578407,3.360182,0.65657,0.1488,0.1009
1695051774484375,-9.145742,0.572407,3.313182,0.70257,0.1928,0.491
1695051774492187,-9.168742,0.567407,3.340182,0.71957,0.2268,0.2191
1695051774500000,-9.201742,0.571407,3.380182,0.71857,0.2578,0.591
1695051774507812,-9.233742,0.588407,3.387182,0.67457,0.3928,0.2391
1695051774515625,-9.241742,0.586407,3.369182,0.70457,0.4058,0.691
1695051774523437,-9.233742,0.586407,3.342182,0.65557,0.3728,0.4209
1695051774531250,-9.217742,0.590407,3.340182,0.65457,0.3858,0.2709
1695051774539062,-9.201742,0.573407,3.335182,0.49757,0.3688,0.4609
1695051774546875,-9.199742,0.575407,3.320182,0.55857,0.3828,0.7809
1695051774554687,-9.194742,0.566407,3.317182,0.65357,0.3208,0.6009
1695051774562500,-9.190742,0.582407,3.311182,0.63857,0.3678,0.1209
1695051774570312,-9.181742,0.565407,3.295182,0.49957,0.2928,0.2809
1695051774578125,-9.185742,0.573407,3.302182,0.49757,0.3048,0.1409
1695051774585937,-9.203742,0.584407,3.313182,0.49557,0.3538,0.12609
1695051774593750,-9.212742,0.584407,3.313182,0.48457,0.3128,0.4309
1695051774601562,-9.230742,0.597407,3.315182,0.54657,0.4108,0.12209
1695051774609375,-9.239742,0.604407,3.333182,0.43657,0.2788,0.6009
1695051774617187,-9.255742,0.608407,3.331182,0.51857,0.2998,0.909
1695051774625000,-9.257742,0.612407,3.340182,0.42157,0.3128,0.6009
1695051774632812,-9.243742,0.610407,3.338182,0.51257,0.1478,0.14109
1695051774640625,-9.250742,0.603407,3.333182,0.51257,0.1478,0.12509
1695051774648437,-9.246742,0.606407,3.333182,0.42057,0.1678,0.12409
1695051774656250,-9.235742,0.604407,3.333182,0.48057,0.658,0.12609
1695051774664062,-9.226742,0.599407,3.338182,0.48257,0.998,0.9309
1695051774671875,-9.217742,0.597407,3.340182,0.59157,0.838,0.14009
1695051774679687,-9.219742,0.602407,3.335182,0.48157,0.148,0.4609
1695051774687500,-9.210742,0.604407,3.329182,0.57857,0.48,0.4309
1695051774695312,-9.203742,0.604407,3.322182,0.54557,0.378,0.10709
1695051774703125,-9.199742,0.602407,3.326182,0.59257,0.218,0.10709
1695051774710937,-9.199742,0.598407,3.317182,0.62457,0.508,0.2709
1695051774718750,-9.197742,0.589407,3.317182,0.67357,0.102,0.2509
1695051774726562,-9.204742,0.593407,3.299182,0.62657,0.902,0.2509
1695051774734375,-9.203742,0.597407,3.299182,0.62357,0.42,0.1891
1695051774742187,-9.203742,0.593407,3.313182,0.66957,0.842,0.4509
1695051774750000,-9.203742,0.600407,3.306182,0.65557,0.312,0.491
1695051774757812,-9.205742,0.604407,3.308182,0.65557,0.172,0.1209
1695051774765625,-9.192742,0.600407,3.322182,0.60757,0.0,0.2809
1695051774773437,-9.176742,0.616407,3.326182,0.43757,0.1488,0.391
1695051774781250,-9.162742,0.625407,3.268182,0.50057,0.668,0.1991
1695051774789062,-9.192742,0.609407,3.302182,0.68957,0.1628,0.5391
1695051774796875,-9.210742,0.606407,3.358182,0.65657,0.1618,0.491
1695051774804687,-9.230742,0.606407,3.349182,0.67257,0.2108,0.3791
1695051774812500,-9.228742,0.604407,3.317182,0.67257,0.1668,0.5709
1695051774820312,-9.226742,0.602407,3.322182,0.68857,0.1808,0.691
1695051774828125,-9.235742,0.604407,3.347182,0.65757,0.1848,0.4009
1695051774835937,-9.241742,0.599407,3.367182,0.65457,0.1928,0.2809
1695051774843750,-9.219742,0.597407,3.353182,0.67157,0.1488,0.4209
1695051774851562,-9.212742,0.602407,3.344182,0.62157,0.1588,0.10909
1695051774859375,-9.206742,0.604407,3.315182,0.61157,0.1718,0.5609
1695051774867187,-9.201742,0.606407,3.308182,0.57757,0.1488,0.5909
1695051774875000,-9.185742,0.607407,3.326182,0.60957,0.1208,0.8909
1695051774882812,-9.181742,0.607407,3.329182,0.62157,0.308,0.9309
1695051774890625,-9.190742,0.620407,3.338182,0.59457,0.1508,0.1009
1695051774898437,-9.198742,0.624407,3.349182,0.59257,0.638,0.1991
1695051774906250,-9.205742,0.624407,3.362182,0.64057,0.1138,0.2091
1695051774914062,-9.203742,0.618407,3.371182,0.67557,0.1038,0.5591
1695051774921875,-9.208742,0.615407,3.365182,0.65757,0.1158,0.2191
1695051774929687,-9.214742,0.606407,3.365182,0.67457,0.1008,0.5491
1695051774937500,-9.214742,0.608407,3.374182,0.65457,0.928,0.3491
1695051774945312,-9.205742,0.604407,3.369182,0.67057,0.1268,0.2809
1695051774953125,-9.210742,0.606407,3.358182,0.65557,0.308,0.1991
1695051774960937,-9.210742,0.600407,3.356182,0.70257,0.308,0.2091
1695051774968750,-9.203742,0.602407,3.347182,0.73457,0.958,0.5391
1695051774976562,-9.205742,0.604407,3.338182,0.67057,0.468,0.391
1695051774984375,-9.208742,0.602407,3.342182,0.65657,0.1138,0.3791
1695051774992187,-9.199742,0.607407,3.349182,0.67657,0.1678,0.13691
1695051775000000,-9.203742,0.609407,3.349182,0.65757,0.1488,0.3791
1695051775007812,-9.197742,0.607407,3.351182,0.73757,0.1518,0.2491
1695051775015625,-9.199742,0.607407,3.353182,0.73657,0.1678,0.709
1695051775023437,-9.201742,0.615407,3.349182,0.68857,0.1518,0.4009
1695051775031250,-9.208742,0.609407,3.349182,0.67157,0.1138,0.4309
1695051775039062,-9.203742,0.615407,3.353182,0.65557,0.978,0.4309
1695051775046875,-9.205742,0.604407,3.362182,0.67057,0.1488,0.9009
1695051775054687,-9.199742,0.604407,3.358182,0.64157,0.1198,0.5709
1695051775062500,-9.203742,0.609407,3.360182,0.65957,0.1028,0.7191
1695051775070312,-9.205742,0.611407,3.360182,0.70357,0.1178,0.4109
1695051775078125,-9.199742,0.604407,3.362182,0.65757,0.1518,0.4109
1695051775085937,-9.203742,0.606407,3.367182,0.68657,0.1158,0.9009
1695051775093750,-9.203742,0.609407,3.360182,0.68857,0.1178,0.909
1695051775101562,-9.203742,0.606407,3.356182,0.72057,0.1338,0.909
1695051775109375,-9.203742,0.617407,3.353182,0.67057,0.1128,0.2709
1695051775117187,-9.203742,0.617407,3.362182,0.78257,0.828,0.691
1695051775125000,-9.203742,0.613407,3.362182,0.78057,0.318,0.2609
1695051775132812,-9.203742,0.606407,3.367182,0.67257,0.998,0.591
1695051775140625,-9.203742,0.611407,3.374182,0.76557,0.648,0.591
1695051775148437,-9.203742,0.606407,3.367182,0.75057,0.848,0.4109
1695051775156250,-9.201742,0.611407,3.356182,0.74757,0.798,0.9109
1695051775164062,-9.199742,0.604407,3.344182,0.77857,0.968,0.12309
1695051775171875,-9.194742,0.600407,3.335182,0.75057,0.1138,0.591
1695051775179687,-9.183742,0.602407,3.322182,0.67357,0.1698,0.7209
1695051775187500,-9.168742,0.596407,3.326182,0.72157,0.718,0.809
1695051775195312,-9.172742,0.602407,3.340182,0.73557,0.1498,0.809
1695051775203125,-9.169742,0.611407,3.326182,0.72057,0.1668,0.2409
1695051775210937,-9.167742,0.600407,3.333182,0.70057,0.1458,0.12309
1695051775218750,-9.167742,0.600407,3.335182,0.71857,0.1648,0.5709
1695051775226562,-9.185742,0.596407,3.342182,0.70357,0.1508,0.7309
1695051775234375,-9.201742,0.604407,3.351182,0.74957,0.1818,0.10509
1695051775242187,-9.217742,0.611407,3.349182,0.70457,0.1808,0.691
1695051775250000,-9.228742,0.604407,3.367182,0.65957,0.1898,0.5409
1695051775257812,-9.232742,0.608407,3.374182,0.68757,0.1468,0.2609
1695051775265625,-9.230742,0.606407,3.371182,0.70657,0.1538,0.2491
1695051775273437,-9.217742,0.593407,3.385182,0.81557,0.1188,0.891
1695051775281250,-9.230742,0.590407,3.421182,0.82957,0.158,0.5491
1695051775289062,-9.228742,0.608407,3.459182,0.89157,0.162,0.3991
1695051775296875,-9.189742,0.624407,3.412182,0.92257,0.478,0.2391
1695051775304687,-9.173742,0.658407,3.270182,0.81357,0.1298,0.2291
1695051775312500,-9.176742,0.642407,3.302182,0.82657,0.978,0.8909
1695051775320312,-9.182742,0.624407,3.351182,0.73057,0.1438,0.14009
1695051775328125,-9.203742,0.604407,3.315182,0.76457,0.1968,0.12209
1695051775335937,-9.233742,0.604407,3.353182,0.68957,0.2518,0.7109
1695051775343750,-9.210742,0.606407,3.459182,0.65457,0.348,0.10709
1695051775351562,-9.203742,0.602407,3.464182,0.66957,0.488,0.7509
1695051775359375,-9.185742,0.593407,3.405182,0.90657,0.1608,0.809
1695051775367187,-9.165742,0.591407,3.367182,0.90557,0.978,0.8809
1695051775375000,-9.179742,0.585407,3.371182,0.92257,0.1488,0.5509
1695051775382812,-9.201742,0.582407,3.380182,0.90757,0.1788,0.2491
1695051775390625,-9.219742,0.577407,3.360182,0.92557,0.2968,0.2691
1695051775398437,-9.212742,0.584407,3.335182,0.76857,0.3428,0.3991
1695051775406250,-9.203742,0.582407,3.322182,0.65557,0.4228,0.9009
1695051775414062,-9.190742,0.576407,3.326182,0.68957,0.2978,0.4009
1695051775421875,-9.195742,0.569407,3.342182,0.71957,0.2308,0.4109
1695051775429687,-9.195742,0.580407,3.333182,0.65857,0.2648,0.809
1695051775437500,-9.183742,0.587407,3.338182,0.67457,0.2998,0.3909
1695051775445312,-9.192742,0.602407,3.315182,0.65857,0.2978,0.809
1695051775453125,-9.185742,0.593407,3.313182,0.67257,0.2778,0.909
1695051775460937,-9.186742,0.589407,3.326182,0.69257,0.3158,0.5691
1695051775468750,-9.199742,0.611407,3.335182,0.65657,0.2288,0.1009
1695051775476562,-9.203742,0.609407,3.338182,0.67157,0.1978,0.5809
1695051775484375,-9.210742,0.608407,3.340182,0.65457,0.1948,0.5909
1695051775492187,-9.239742,0.613407,3.338182,0.67257,0.2488,0.8909
1695051775500000,-9.239742,0.617407,3.342182,0.65757,0.2178,0.5609
1695051775507812,-9.239742,0.612407,3.326182,0.67257,0.2598,0.1009
1695051775515625,-9.239742,0.608407,3.335182,0.65857,0.2158,0.909
1695051775523437,-9.239742,0.604407,3.317182,0.67257,0.1798,0.2191
1695051775531250,-9.228742,0.602407,3.326182,0.64257,0.1688,0.4109
1695051775539062,-9.217742,0.595407,3.333182,0.65457,0.1468,0.9109
1695051775546875,-9.210742,0.589407,3.331182,0.67557,0.1568,0.3809
1695051775554687,-9.208742,0.595407,3.338182,0.65557,0.1638,0.5909
1695051775562500,-9.204742,0.587407,3.342182,0.67357,0.1538,0.5609
1695051775570312,-9.215742,0.580407,3.349182,0.65557,0.1998,0.13709
1695051775578125,-9.208742,0.589407,3.333182,0.67057,0.2278,0.5909
1695051775585937,-9.206742,0.586407,3.315182,0.65457,0.1328,0.10609
1695051775593750,-9.215742,0.582407,3.326182,0.66957,0.1788,0.12309
1695051775601562,-9.197742,0.587407,3.308182,0.64157,0.1048,0.5709
1695051775609375,-9.197742,0.578407,3.297182,0.65657,0.1138,0.491
1695051775617187,-9.179742,0.578407,3.306182,0.67257,0.1488,0.1009
1695051775625000,-9.181742,0.571407,3.315182,0.60957,0.1648,0.1009
1695051775632812,-9.170742,0.569407,3.333182,0.60957,0.1488,0.1009
1695051775640625,-9.177742,0.560407,3.374182,0.62357,0.1488,0.9109
1695051775648437,-9.184742,0.560407,3.380182,0.65557,0.1798,0.7509
1695051775656250,-9.186742,0.574407,3.378182,0.53457,0.4018,0.7109
1695051775664062,-9.185742,0.589407,3.338182,0.42157,0.3128,0.7609
1695051775671875,-9.174742,0.596407,3.295182,0.56457,0.3358,0.10309
1695051775679687,-9.210742,0.606407,3.320182,0.56157,0.3928,0.10609
1695051775687500,-9.264742,0.610407,3.331182,0.45157,0.3608,0.12409
1695051775695312,-9.281742,0.623407,3.306182,0.45457,0.4258,0.491
1695051775703125,-9.290742,0.634407,3.311182,0.42257,0.4128,0.7409
1695051775710937,-9.281742,0.636407,3.275182,0.56457,0.3958,0.2409
1695051775718750,-9.254742,0.630407,3.245182,0.51557,0.2748,0.1991
1695051775726562,-9.218742,0.635407,3.266182,0.45557,0.2488,0.2091
1695051775734375,-9.196742,0.635407,3.299182,0.48557,0.1668,0.1109
1695051775742187,-9.183742,0.629407,3.333182,0.48457,0.1638,0.391
1695051775750000,-9.172742,0.609407,3.344182,0.46757,0.2288,0.4409
1695051775757812,-9.167742,0.602407,3.369182,0.43557,0.3278,0.14009
1695051775765625,-9.167742,0.605407,3.369182,0.40657,0.3188,0.15409
1695051775773437,-9.174742,0.605407,3.369182,0.40657,0.3808,0.10709
1695051775781250,-9.203742,0.602407,3.369182,0.42257,0.3838,0.12109
1695051775789062,-9.230742,0.608407,3.365182,0.43657,0.3788,0.12309
1695051775796875,-9.261742,0.628407,3.331182,0.42157,0.3818,0.13809
1695051775804687,-9.293742,0.629407,3.311182,0.57857,0.4278,0.8909
1695051775812500,-9.317742,0.647407,3.272182,0.62657,0.3158,0.8809
1695051775820312,-9.333742,0.638407,3.259182,0.65857,0.2648,0.809
1695051775828125,-9.346742,0.640407,3.239182,0.67057,0.1798,0.7409
1695051775835937,-9.335742,0.640407,3.218182,0.65657,0.1158,0.4209
1695051775843750,-9.319742,0.651407,3.214182,0.67157,0.1138,0.4309
1695051775851562,-9.290742,0.641407,3.227182,0.68757,0.338,0.591
1695051775859375,-9.256742,0.648407,3.239182,0.76557,0.488,0.2191
1695051775867187,-9.257742,0.643407,3.223182,0.68957,0.368,0.691
1695051775875000,-9.229742,0.644407,3.225182,0.71957,0.468,0.8491
1695051775882812,-9.218742,0.642407,3.214182,0.65857,0.698,0.2291
1695051775890625,-9.230742,0.633407,3.218182,0.68957,0.1358,0.791
1695051775898437,-9.234742,0.635407,3.234182,0.71857,0.172,0.2091
1695051775906250,-9.239742,0.637407,3.225182,0.68957,0.698,0.2291
1695051775914062,-9.243742,0.655407,3.212182,0.76657,0.668,0.691
1695051775921875,-9.255742,0.641407,3.218182,0.73757,0.582,0.3991
1695051775929687,-9.257742,0.646407,3.212182,0.75157,0.962,0.7091
1695051775937500,-9.265742,0.643407,3.227182,0.76657,0.1142,0.6991
1695051775945312,-9.274742,0.645407,3.234182,0.70457,0.972,0.11791
1695051775953125,-9.266742,0.639407,3.245182,0.86157,0.1962,0.11891
1695051775960937,-9.275742,0.639407,3.236182,0.84557,0.2272,0.8691
1695051775968750,-9.261742,0.634407,3.227182,0.75057,0.2612,0.10091
1695051775976562,-9.257742,0.637407,3.245182,0.83257,0.2202,0.12091
1695051775984375,-9.257742,0.639407,3.248182,0.79857,0.2432,0.11791
1695051775992187,-9.252742,0.637407,3.266182,0.77057,0.2552,0.16791
1695051776000000,-9.246742,0.639407,3.279182,0.84757,0.2062,0.12091
1695051776007812,-9.230742,0.628407,3.277182,0.74957,0.2942,0.6791
1695051776015625,-9.223742,0.635407,3.297182,0.68957,0.2402,0.6991
1695051776023437,-9.212742,0.633407,3.306182,0.76957,0.2552,0.13591
1695051776031250,-9.203742,0.613407,3.324182,0.80057,0.2402,0.13591
1695051776039062,-9.212742,0.617407,3.349182,0.78157,0.2452,0.10091
1695051776046875,-9.199742,0.607407,3.326182,0.79857,0.2252,0.7091
1695051776054687,-9.195742,0.582407,3.306182,0.79857,0.2092,0.7091
1695051776062500,-9.195742,0.580407,3.335182,0.79857,0.1942,0.11891
1695051776070312,-9.190742,0.576407,3.340182,0.78557,0.1072,0.8891
1695051776078125,-9.190742,0.580407,3.353182,0.78657,0.732,0.8991
1695051776085937,-9.199742,0.573407,3.342182,0.75257,0.942,0.8691
1695051776093750,-9.217742,0.593407,3.340182,0.79957,0.1092,0.5591
1695051776101562,-9.221742,0.595407,3.320182,0.72057,0.942,0.3891
1695051776109375,-9.226742,0.604407,3.281182,0.75157,0.1092,0.2391
1695051776117187,-9.226742,0.611407,3.254182,0.79657,0.1302,0.591
1695051776125000,-9.237742,0.604407,3.259182,0.75057,0.972,0.5391
1695051776132812,-9.228742,0.608407,3.259182,0.81557,0.1122,0.11891
1695051776140625,-9.199742,0.609407,3.295182,0.84557,0.1272,0.3991
1695051776148437,-9.163742,0.607407,3.304182,0.78057,0.1632,0.2091
1695051776156250,-9.138742,0.612407,3.326182,0.73557,0.1412,0.691
1695051776164062,-9.131742,0.601407,3.331182,0.81357,0.962,0.5491
1695051776171875,-9.116742,0.581407,3.374182,0.92357,0.1112,0.4091
1695051776179687,-9.116742,0.574407,3.441182,0.90857,0.802,0.5591
1695051776187500,-9.141742,0.574407,3.534182,0.88057,0.552,0.9191
1695051776195312,-9.141742,0.588407,3.504182,0.89557,0.618,0.1909
1695051776203125,-9.132742,0.606407,3.344182,0.84857,0.2238,0.3509
1695051776210937,-9.143742,0.583407,3.302182,0.84857,0.2208,0.1191
1695051776218750,-9.167742,0.585407,3.342182,0.92257,0.1448,0.809
1695051776226562,-9.213742,0.577407,3.360182,0.84457,0.1318,0.809
1695051776234375,-9.242742,0.588407,3.376182,0.72257,0.1038,0.7291
1695051776242187,-9.244742,0.590407,3.419182,0.76957,0.1338,0.8891
1695051776250000,-9.226742,0.575407,3.376182,0.89457,0.1058,0.1091
1695051776257812,-9.222742,0.577407,3.295182,0.92357,0.1138,0.2391
1695051776265625,-9.215742,0.595407,3.288182,0.89257,0.0,0.7191
1695051776273437,-9.233742,0.588407,3.331182,0.90857,0.148,0.10391
1695051776281250,-9.239742,0.601407,3.371182,0.89457,0.1168,0.8991
1695051776289062,-9.221742,0.613407,3.371182,0.72157,0.1668,0.3991
1695051776296875,-9.212742,0.606407,3.342182,0.72157,0.1668,0.2391
1695051776304687,-9.187742,0.613407,3.315182,0.71957,0.2628,0.4009
1695051776312500,-9.147742,0.605407,3.311182,0.66957,0.1748,0.4409
1695051776320312,-9.131742,0.599407,3.302182,0.70157,0.1778,0.7509
1695051776328125,-9.93742,0.584407,3.306182,0.73257,0.2258,0.7509
1695051776335937,-9.62742,0.575407,3.315182,0.66957,0.1798,0.12309
1695051776343750,-9.58742,0.569407,3.322182,0.67157,0.1838,0.12109
1695051776351562,-9.51742,0.571407,3.338182,0.65557,0.3608,0.13809
1695051776359375,-9.60742,0.569407,3.371182,0.67257,0.4128,0.15209
1695051776367187,-9.60742,0.578407,3.412182,0.68957,0.4648,0.13409
1695051776375000,-9.74742,0.571407,3.444182,0.65857,0.4838,0.14909
1695051776382812,-9.85742,0.570407,3.466182,0.67257,0.6058,0.12009
1695051776390625,-9.105742,0.570407,3.475182,0.65957,0.7258,0.13309
1695051776398437,-9.145742,0.576407,3.507182,0.65957,0.7148,0.24409
1695051776406250,-9.174742,0.573407,3.527182,0.67157,0.7338,0.18409
1695051776414062,-9.217742,0.571407,3.513182,0.69357,0.7948,0.9909
1695051776421875,-9.251742,0.579407,3.482182,0.65957,0.7898,0.11709
1695051776429687,-9.269742,0.581407,3.459182,0.70357,0.6678,0.8809
1695051776437500,-9.271742,0.574407,3.453182,0.59657,0.6238,0.7109
1695051776445312,-9.278742,0.581407,3.441182,0.65757,0.6098,0.16709
1695051776453125,-9.271742,0.588407,3.421182,0.65757,0.6408,0.15109
1695051776460937,-9.251742,0.590407,3.423182,0.67257,0.5728,0.13609
1695051776468750,-9.223742,0.588407,3.412182,0.60757,0.4558,0.13909
1695051776476562,-9.203742,0.584407,3.407182,0.56257,0.4098,0.9009
1695051776484375,-9.190742,0.582407,3.383182,0.60857,0.4718,0.9009
1695051776492187,-9.190742,0.578407,3.369182,0.59557,0.4928,0.7209
1695051776500000,-9.203742,0.584407,3.374182,0.56357,0.5258,0.8909
1695051776507812,-9.208742,0.573407,3.344182,0.54757,0.4418,0.7409
1695051776515625,-9.224742,0.577407,3.324182,0.59557,0.4438,0.4109
1695051776523437,-9.242742,0.597407,3.304182,0.56557,0.4618,0.791
1695051776531250,-9.261742,0.610407,3.268182,0.48457,0.4228,0.391
1695051776539062,-9.255742,0.619407,3.223182,0.56457,0.4088,0.2291
1695051776546875,-9.221742,0.626407,3.205182,0.58157,0.4308,0.2309
1695051776554687,-9.176742,0.645407,3.198182,0.37757,0.4788,0.1009
1695051776562500,-9.144742,0.634407,3.160182,0.50257,0.4288,0.691
1695051776570312,-9.178742,0.625407,3.221182,0.62557,0.4078,0.4209
1695051776578125,-9.217742,0.611407,3.234182,0.58157,0.4618,0.2391
1695051776585937,-9.270742,0.610407,3.203182,0.64457,0.5558,0.7291
1695051776593750,-9.311742,0.611407,3.191182,0.65957,0.5398,0.2491
1695051776601562,-9.343742,0.609407,3.187182,0.61357,0.4628,0.891
1695051776609375,-9.349742,0.618407,3.171182,0.58357,0.4008,0.2591
1695051776617187,-9.347742,0.635407,3.155182,0.58157,0.2978,0.3891
1695051776625000,-9.358742,0.642407,3.117182,0.55157,0.2048,0.5591
1695051776632812,-9.329742,0.640407,3.88182,0.58157,0.1668,0.8691
1695051776640625,-9.286742,0.641407,3.99182,0.53157,0.648,0.6791
1695051776648437,-9.283742,0.647407,3.121182,0.53057,0.182,0.6691
1695051776656250,-9.277742,0.636407,3.148182,0.59357,0.502,0.5191
1695051776664062,-9.275742,0.639407,3.166182,0.67257,0.322,0.3691
1695051776671875,-9.261742,0.637407,3.180182,0.65857,0.142,0.10191
1695051776679687,-9.277742,0.634407,3.193182,0.67057,0.1192,0.6691
1695051776687500,-9.281742,0.632407,3.198182,0.65657,0.972,0.3691
1695051776695312,-9.293742,0.623407,3.184182,0.65957,0.942,0.11791
1695051776703125,-9.286742,0.634407,3.187182,0.66257,0.1022,0.10591
1695051776710937,-9.282742,0.625407,3.194182,0.65857,0.2232,0.11791
1695051776718750,-9.280742,0.603407,3.198182,0.66057,0.2042,0.10391
1695051776726562,-9.282742,0.619407,3.205182,0.67557,0.2362,0.10291
1695051776734375,-9.273742,0.617407,3.200182,0.65757,0.3232,0.11691
1695051776742187,-9.277742,0.612407,3.212182,0.67357,0.3562,0.11691
1695051776750000,-9.275742,0.610407,3.214182,0.65757,0.3432,0.16391
1695051776757812,-9.277742,0.612407,3.221182,0.73757,0.3042,0.11891
1695051776765625,-9.266742,0.610407,3.225182,0.79757,0.3742,0.11691
1695051776773437,-9.282742,0.612407,3.230182,0.68957,0.3892,0.14891
1695051776781250,-9.293742,0.607407,3.227182,0.67057,0.4272,0.12991
1695051776789062,-9.275742,0.605407,3.230182,0.65757,0.3912,0.14791
1695051776796875,-9.270742,0.612407,3.241182,0.67157,0.4142,0.19291
1695051776804687,-9.255742,0.608407,3.241182,0.65557,0.3962,0.16191
1695051776812500,-9.250742,0.610407,3.232182,0.70257,0.4602,0.12991
1695051776820312,-9.243742,0.603407,3.236182,0.70057,0.4302,0.12891
1695051776828125,-9.239742,0.601407,3.239182,0.65357,0.4642,0.12791
1695051776835937,-9.223742,0.602407,3.245182,0.67357,0.3602,0.17991
1695051776843750,-9.216742,0.606407,3.254182,0.68357,0.4832,0.12691
1695051776851562,-9.214742,0.619407,3.266182,0.69957,0.4642,0.11191
1695051776859375,-9.209742,0.622407,3.284182,0.68357,0.4482,0.9591
1695051776867187,-9.218742,0.626407,3.293182,0.78057,0.3672,0.17791
1695051776875000,-9.221742,0.619407,3.288182,0.73257,0.3812,0.12991
1695051776882812,-9.217742,0.611407,3.290182,0.79657,0.3612,0.11591
1695051776890625,-9.219742,0.602407,3.306182,0.84157,0.3852,0.16191
1695051776898437,-9.210742,0.604407,3.268182,0.83857,0.3882,0.7991
1695051776906250,-9.203742,0.597407,3.254182,0.87257,0.3662,0.9891
1695051776914062,-9.196742,0.584407,3.340182,0.87057,0.3842,0.4991
1695051776921875,-9.174742,0.589407,3.351182,0.89157,0.3252,0.6991
1695051776929687,-9.163742,0.594407,3.306182,0.92357,0.2622,0.11891
1695051776937500,-9.141742,0.576407,3.284182,0.93857,0.3092,0.10291
1695051776945312,-9.129742,0.581407,3.385182,0.90757,0.2312,0.11791
1695051776953125,-9.132742,0.583407,3.394182,0.92157,0.2302,0.6991
1695051776960937,-9.116742,0.572407,3.394182,0.90657,0.1992,0.11791
1695051776968750,-9.96742,0.579407,3.387182,0.90657,0.682,0.7091
1695051776976562,-9.85742,0.573407,3.446182,0.92357,0.142,0.891
1695051776984375,-9.73742,0.568407,3.457182,0.90357,0.558,0.1209
1695051776992187,-9.94742,0.546407,3.477182,0.94057,0.2608,0.4191
1695051777000000,-9.110742,0.543407,3.495182,0.81257,0.2438,0.2509
1695051777007812,-9.123742,0.539407,3.500182,0.65757,0.4058,0.591
1695051777015625,-9.136742,0.552407,3.489182,0.67057,0.4548,0.13809
1695051777023437,-9.172742,0.549407,3.489182,0.65557,0.6208,0.15209
1695051777031250,-9.198742,0.540407,3.491182,0.67457,0.6768,0.13309
1695051777039062,-9.200742,0.546407,3.475182,0.67357,0.6728,0.13409
1695051777046875,-9.204742,0.535407,3.468182,0.65957,0.7098,0.14909
1695051777054687,-9.198742,0.540407,3.448182,0.67457,0.6908,0.13409
1695051777062500,-9.191742,0.549407,3.448182,0.65657,0.6238,0.16709
1695051777070312,-9.193742,0.538407,3.466182,0.81557,0.6748,0.13209
1695051777078125,-9.180742,0.536407,3.493182,0.77057,0.6928,0.6809
1695051777085937,-9.150742,0.559407,3.419182,0.72357,0.6938,0.6709
1695051777093750,-9.141742,0.579407,3.320182,0.67457,0.7588,0.18109
1695051777101562,-9.139742,0.567407,3.371182,0.67257,0.7698,0.16709
1695051777109375,-9.159742,0.556407,3.369182,0.69057,0.7898,0.13309
1695051777117187,-9.190742,0.573407,3.369182,0.65757,0.7408,0.19809
1695051777125000,-9.215742,0.564407,3.410182,0.65957,0.6598,0.13309
1695051777132812,-9.201742,0.566407,3.457182,0.63957,0.4748,0.15309
1695051777140625,-9.179742,0.573407,3.434182,0.67457,0.4128,0.5509
1695051777148437,-9.184742,0.571407,3.380182,0.67657,0.5758,0.609
1695051777156250,-9.186742,0.571407,3.356182,0.86257,0.4448,0.3709
1695051777164062,-9.206742,0.584407,3.349182,0.81457,0.4888,0.2309
1695051777171875,-9.228742,0.577407,3.351182,0.76957,0.6068,0.2109
1695051777179687,-9.271742,0.588407,3.333182,0.67557,0.6258,0.5409
1695051777187500,-9.289742,0.590407,3.308182,0.65957,0.6218,0.709
1695051777195312,-9.282742,0.592407,3.279182,0.67557,0.6908,0.6909
1695051777203125,-9.275742,0.590407,3.304182,0.65657,0.6348,0.8909
1695051777210937,-9.251742,0.588407,3.254182,0.67257,0.4908,0.7209
1695051777218750,-9.248742,0.592407,3.322182,0.65757,0.4748,0.5609
1695051777226562,-9.219742,0.600407,3.205182,0.67157,0.4928,0.15209
1695051777234375,-9.211742,0.566407,3.214182,0.64257,0.4768,0.7209
1695051777242187,-9.188742,0.582407,3.261182,0.65957,0.4158,0.8609
1695051777250000,-9.194742,0.584407,3.266182,0.57557,0.4228,0.15509
1695051777257812,-9.186742,0.571407,3.275182,0.54757,0.4168,0.15209
1695051777265625,-9.192742,0.582407,3.290182,0.51457,0.4258,0.13909
1695051777273437,-9.217742,0.593407,3.315182,0.41957,0.4118,0.18709
1695051777281250,-9.244742,0.592407,3.338182,0.44857,0.3418,0.22209
1695051777289062,-9.268742,0.625407,3.349182,0.46357,0.3068,0.20609
1695051777296875,-9.286742,0.627407,3.326182,0.54557,0.3328,0.21809
1695051777304687,-9.293742,0.634407,3.329182,0.51257,0.1968,0.15709
1695051777312500,-9.308742,0.636407,3.306182,0.54557,0.1798,0.9209
1695051777320312,-9.308742,0.623407,3.302182,0.57557,0.1478,0.14009
1695051777328125,-9.297742,0.634407,3.293182,0.55857,0.818,0.15709
1695051777335937,-9.295742,0.638407,3.259182,0.64057,0.518,0.5809
1695051777343750,-9.293742,0.641407,3.250182,0.60857,0.302,0.2709
1695051777351562,-9.263742,0.643407,3.245182,0.61057,0.262,0.2609
1695051777359375,-9.257742,0.639407,3.236182,0.62557,0.772,0.591
1695051777367187,-9.239742,0.619407,3.227182,0.67357,0.922,0.2291
1695051777375000,-9.223742,0.626407,3.243182,0.65457,0.1152,0.391
1695051777382812,-9.216742,0.615407,3.241182,0.66957,0.1022,0.291
1695051777390625,-9.223742,0.602407,3.243182,0.65557,0.972,0.2091
1695051777398437,-9.223742,0.606407,3.243182,0.67257,0.1142,0.5291
1695051777406250,-9.237742,0.599407,3.259182,0.70257,0.992,0.3591
1695051777414062,-9.246742,0.592407,3.243182,0.62257,0.1822,0.191
1695051777421875,-9.246742,0.588407,3.239182,0.65457,0.2662,0.8191
1695051777429687,-9.259742,0.590407,3.250182,0.65457,0.2352,0.11291
1695051777437500,-9.248742,0.599407,3.266182,0.67057,0.2642,0.9891
1695051777445312,-9.232742,0.604407,3.304182,0.60957,0.2122,0.9991
1695051777453125,-9.209742,0.633407,3.261182,0.49857,0.2462,0.4891
1695051777460937,-9.196742,0.633407,3.180182,0.65257,0.3312,0.4891
1695051777468750,-9.194742,0.644407,3.225182,0.67357,0.2562,0.8591
1695051777476562,-9.209742,0.642407,3.279182,0.65357,0.2772,0.1309
1695051777484375,-9.236742,0.633407,3.290182,0.67157,0.1152,0.5191
1695051777492187,-9.248742,0.626407,3.313182,0.68757,0.1462,0.5291
1695051777500000,-9.230742,0.604407,3.342182,0.65757,0.1632,0.10091
1695051777507812,-9.208742,0.611407,3.342182,0.67557,0.1092,0.11891
1695051777515625,-9.179742,0.602407,3.376182,0.65857,0.1432,0.10191
1695051777523437,-9.151742,0.609407,3.385182,0.67157,0.1502,0.11591
1695051777531250,-9.145742,0.607407,3.340182,0.65557,0.1662,0.8291
1695051777539062,-9.129742,0.610407,3.250182,0.71857,0.2462,0.8391
1695051777546875,-9.133742,0.610407,3.263182,0.71757,0.3302,0.13091
1695051777554687,-9.127742,0.599407,3.221182,0.68757,0.3942,0.14691
1695051777562500,-9.142742,0.614407,3.178182,0.85857,0.5582,0.16391
1695051777570312,-9.149742,0.607407,3.108182,0.91857,0.6452,0.14591
1695051777578125,-9.146742,0.632407,3.121182,0.106157,0.8222,0.21191
1695051777585937,-9.139742,0.638407,3.40182,0.116857,0.9112,0.25791
1695051777593750,-9.162742,0.651407,3.99182,0.140157,0.10632,0.27391
1695051777601562,-9.231742,0.701407,3.342182,0.142057,0.11542,0.32391
1695051777609375,-9.269742,0.709407,3.479182,0.139157,0.11042,0.37291
1695051777617187,-9.332742,0.711407,3.430182,0.155157,0.9882,0.45691
1695051777625000,-9.367742,0.746407,3.439182,0.169057,0.9932,0.45691
1695051777632812,-9.381742,0.745407,3.482182,0.166157,0.9102,0.52191
1695051777640625,-9.370742,0.737407,3.522182,0.148857,0.9082,0.48791
1695051777648437,-9.318742,0.706407,3.403182,0.148857,0.8602,0.47191
1695051777656250,-9.279742,0.652407,3.392182,0.150757,0.7542,0.44391
1695051777664062,-9.239742,0.630407,3.536182,0.123657,0.8072,0.32591
1695051777671875,-9.219742,0.577407,3.484182,0.117357,0.7082,0.29391
1695051777679687,-9.213742,0.535407,3.509182,0.111257,0.6702,0.27991
1695051777687500,-9.212742,0.486407,3.356182,0.112657,0.6232,0.23091
1695051777695312,-9.181742,0.425407,3.326182,0.101657,0.6412,0.21291
1695051777703125,-9.134742,0.397407,3.342182,0.85557,0.6452,0.14491
1695051777710937,-9.119742,0.375407,3.351182,0.85757,0.6562,0.13091
1695051777718750,-9.90742,0.362407,3.378182,0.85857,0.5582,0.13091
1695051777726562,-9.40742,0.371407,3.473182,0.71557,0.4772,0.6491
1695051777734375,-9.15742,0.383407,3.529182,0.62157,0.2492,0.0
1695051777742187,-8.986742,0.388407,3.561182,0.66757,0.1362,0.4709
1695051777750000,-8.914742,0.404407,3.606182,0.54557,0.1148,0.6009
1695051777757812,-8.847742,0.397407,3.552182,0.40557,0.3658,0.15509
1695051777765625,-8.831742,0.392407,3.644182,0.42257,0.6888,0.13809
1695051777773437,-8.898742,0.411407,3.822182,0.20357,0.7758,0.21809
1695051777781250,-8.954742,0.410407,3.977182,0.15257,0.8968,0.25409
1695051777789062,-8.955742,0.402407,4.31182,0.17657,0.10118,0.23009
1695051777796875,-8.961742,0.419407,3.903182,0.28557,0.11838,0.16709
1695051777804687,-8.999742,0.443407,3.831182,0.40757,0.10768,0.13709
1695051777812500,-9.30742,0.467407,3.772182,0.39357,0.10018,0.15109
1695051777820312,-9.84742,0.464407,3.743182,0.37857,0.9388,0.13509
1695051777828125,-9.151742,0.479407,3.648182,0.36357,0.10068,0.18209
1695051777835937,-9.250742,0.492407,3.637182,0.31357,0.8378,0.18609
1695051777843750,-9.312742,0.520407,3.673182,0.28157,0.7888,0.20209
1695051777851562,-9.370742,0.555407,3.594182,0.31257,0.8038,0.17009
1695051777859375,-9.431742,0.574407,3.507182,0.40857,0.7428,0.16809
1695051777867187,-9.453742,0.603407,3.430182,0.38857,0.6578,0.25009
1695051777875000,-9.423742,0.632407,3.378182,0.40457,0.4958,0.23509
1695051777882812,-9.358742,0.644407,3.385182,0.42057,0.3368,0.25009
1695051777890625,-9.294742,0.663407,3.378182,0.40257,0.3138,0.25309
1695051777898437,-9.256742,0.681407,3.396182,0.45057,0.2348,0.23509
1695051777906250,-9.215742,0.677407,3.443182,0.63457,0.2408,0.26909
1695051777914062,-9.186742,0.684407,3.437182,0.64957,0.2288,0.31609
1695051777921875,-9.132742,0.676407,3.356182,0.66857,0.2948,0.23409
1695051777929687,-9.70742,0.648407,3.360182,0.70157,0.2678,0.24809
1695051777937500,-9.72742,0.646407,3.362182,0.84157,0.2488,0.23209
1695051777945312,-9.93742,0.633407,3.333182,0.79457,0.2808,0.24909
1695051777953125,-9.122742,0.610407,3.315182,0.87457,0.3018,0.24609
1695051777960937,-9.107742,0.579407,3.295182,0.90357,0.2458,0.23209
1695051777968750,-9.51742,0.562407,3.392182,0.92057,0.2178,0.24609
1695051777976562,-9.118742,0.581407,3.482182,0.88757,0.2948,0.23209
1695051777984375,-9.201742,0.598407,3.259182,0.106357,0.5598,0.21109
1695051777992187,-9.197742,0.562407,3.164182,0.104957,0.6108,0.17809
1695051778000000,-9.177742,0.538407,3.326182,0.89157,0.4148,0.19709
1695051778007812,-9.184742,0.527407,3.329182,0.85557,0.4698,0.23309
1695051778015625,-9.243742,0.517407,3.250182,0.87557,0.6518,0.13409
1695051778023437,-9.310742,0.521407,3.331182,0.75457,0.4998,0.8409
1695051778031250,-9.294742,0.525407,3.394182,0.61057,0.4148,0.12009
1695051778039062,-9.261742,0.515407,3.410182,0.64257,0.2628,0.2291
1695051778046875,-9.252742,0.526407,3.389182,0.67457,0.2448,0.10291
1695051778054687,-9.225742,0.531407,3.340182,0.65957,0.2488,0.5591
1695051778062500,-9.229742,0.537407,3.340182,0.66057,0.2298,0.13591
1695051778070312,-9.242742,0.557407,3.367182,0.67457,0.2428,0.13491
1695051778078125,-9.262742,0.566407,3.378182,0.48857,0.2318,0.11791
1695051778085937,-9.273742,0.590407,3.380182,0.44157,0.1518,0.14991
1695051778093750,-9.246742,0.615407,3.401182,0.40757,0.1448,0.13091
1695051778101562,-9.198742,0.638407,3.403182,0.44157,0.1368,0.11791
1695051778109375,-9.175742,0.665407,3.380182,0.51857,0.678,0.13291
1695051778117187,-9.177742,0.678407,3.385182,0.51857,0.808,0.16391
1695051778125000,-9.170742,0.680407,3.387182,0.65757,0.938,0.13291
1695051778132812,-9.162742,0.667407,3.376182,0.58157,0.1558,0.791
1695051778140625,-9.151742,0.645407,3.365182,0.65857,0.1498,0.3891
1695051778148437,-9.133742,0.643407,3.385182,0.67557,0.2188,0.4091
1695051778156250,-9.126742,0.621407,3.385182,0.65657,0.3088,0.4209
1695051778164062,-9.147742,0.623407,3.392182,0.65857,0.4138,0.7109
1695051778171875,-9.171742,0.627407,3.365182,0.67657,0.4298,0.991
1695051778179687,-9.194742,0.626407,3.365182,0.65757,0.4258,0.2509
1695051778187500,-9.216742,0.635407,3.367182,0.67457,0.4758,0.2309
1695051778195312,-9.239742,0.617407,3.371182,0.64457,0.4818,0.3809
1695051778203125,-9.225742,0.617407,3.371182,0.62457,0.4408,0.7409
1695051778210937,-9.214742,0.604407,3.347182,0.65657,0.4908,0.8809
1695051778218750,-9.179742,0.598407,3.356182,0.64057,0.4768,0.13609
1695051778226562,-9.226742,0.595407,3.340182,0.65457,0.5188,0.10609
1695051778234375,-9.266742,0.592407,3.324182,0.67257,0.5078,0.8809
1695051778242187,-9.271742,0.590407,3.322182,0.61457,0.5308,0.609
1695051778250000,-9.262742,0.599407,3.284182,0.62757,0.4488,0.10209
1695051778257812,-9.255742,0.601407,3.263182,0.67357,0.4128,0.10409
1695051778265625,-9.239742,0.608407,3.243182,0.70357,0.4088,0.10509
1695051778273437,-9.234742,0.612407,3.234182,0.62357,0.2898,0.1209
1695051778281250,-9.214742,0.611407,3.261182,0.65657,0.2598,0.1009
1695051778289062,-9.198742,0.620407,3.250182,0.67357,0.2938,0.691
1695051778296875,-9.199742,0.611407,3.252182,0.65957,0.2008,0.2391
1695051778304687,-9.194742,0.607407,3.299182,0.65857,0.1158,0.6991
1695051778312500,-9.190742,0.591407,3.331182,0.56357,0.1318,0.2091
1695051778320312,-9.183742,0.571407,3.367182,0.40457,0.1608,0.1509
1695051778328125,-9.192742,0.575407,3.410182,0.42057,0.1458,0.1409
1695051778335937,-9.186742,0.569407,3.439182,0.42157,0.2588,0.3491
1695051778343750,-9.192742,0.582407,3.425182,0.31157,0.2588,0.3291
1695051778351562,-9.172742,0.587407,3.329182,0.34357,0.2458,0.1309
1695051778359375,-9.194742,0.593407,3.349182,0.42357,0.2638,0.2091
1695051778367187,-9.210742,0.604407,3.383182,0.40557,0.2768,0.1309
1695051778375000,-9.244742,0.608407,3.362182,0.42457,0.3778,0.6991
1695051778382812,-9.259742,0.608407,3.351182,0.40857,0.2948,0.8391
1695051778390625,-9.252742,0.606407,3.353182,0.42457,0.4238,0.10091
1695051778398437,-9.239742,0.617407,3.347182,0.43957,0.2948,0.6891
1695051778406250,-9.214742,0.626407,3.299182,0.45457,0.2638,0.2091
1695051778414062,-9.207742,0.626407,3.272182,0.64257,0.3248,0.6991
1695051778421875,-9.196742,0.624407,3.227182,0.56457,0.2818,0.691
1695051778429687,-9.199742,0.627407,3.257182,0.62957,0.3008,0.2491
1695051778437500,-9.194742,0.631407,3.304182,0.50057,0.2618,0.2091
1695051778445312,-9.189742,0.629407,3.329182,0.46957,0.3768,0.2709
1695051778453125,-9.176742,0.634407,3.351182,0.56757,0.4188,0.2209
1695051778460937,-9.151742,0.632407,3.344182,0.62957,0.4648,0.2209
1695051778468750,-9.155742,0.636407,3.349182,0.53257,0.5238,0.4109
1695051778476562,-9.160742,0.627407,3.304182,0.62557,0.6028,0.7309
1695051778484375,-9.163742,0.611407,3.295182,0.67457,0.5728,0.2309
1695051778492187,-9.158742,0.612407,3.302182,0.67657,0.6068,0.991
1695051778500000,-9.167742,0.609407,3.299182,0.65757,0.6228,0.10309
1695051778507812,-9.181742,0.611407,3.299182,0.72157,0.6398,0.5409
1695051778515625,-9.201742,0.618407,3.306182,0.72057,0.6898,0.15009
1695051778523437,-9.207742,0.626407,3.320182,0.73757,0.6908,0.11709
1695051778531250,-9.237742,0.639407,3.329182,0.84757,0.6288,0.13109
1695051778539062,-9.257742,0.634407,3.315182,0.75057,0.4438,0.15109
1695051778546875,-9.268742,0.628407,3.308182,0.78057,0.4078,0.13709
1695051778554687,-9.288742,0.634407,3.272182,0.82657,0.4058,0.15309
1695051778562500,-9.288742,0.634407,3.234182,0.82557,0.2588,0.13809
1695051778570312,-9.295742,0.636407,3.250182,0.87357,0.1958,0.13609
1695051778578125,-9.317742,0.631407,3.252182,0.91757,0.768,0.15509
1695051778585937,-9.322742,0.638407,3.216182,0.88657,0.692,0.13909
1695051778593750,-9.313742,0.629407,3.191182,0.90257,0.1352,0.9209
1695051778601562,-9.311742,0.625407,3.232182,0.92057,0.2102,0.7309
1695051778609375,-9.299742,0.614407,3.277182,0.90257,0.2662,0.6009
1695051778617187,-9.284742,0.618407,3.270182,0.91957,0.2972,0.491
1695051778625000,-9.261742,0.617407,3.272182,0.90457,0.2632,0.2091
1695051778632812,-9.239742,0.619407,3.288182,0.90557,0.2782,0.591
1695051778640625,-9.241742,0.626407,3.311182,0.85757,0.3122,0.2091
1695051778648437,-9.221742,0.624407,3.304182,0.85757,0.2322,0.391
1695051778656250,-9.203742,0.629407,3.302182,0.82657,0.2322,0.1991
1695051778664062,-9.198742,0.631407,3.302182,0.87257,0.2702,0.9891
1695051778671875,-9.182742,0.633407,3.306182,0.88857,0.2152,0.491
1695051778679687,-9.185742,0.627407,3.320182,0.84257,0.1332,0.2091
1695051778687500,-9.187742,0.622407,3.306182,0.68457,0.1682,0.191
1695051778695312,-9.176742,0.622407,3.333182,0.74957,0.1462,0.2091
1695051778703125,-9.182742,0.624407,3.347182,0.82157,0.1142,0.0
1695051778710937,-9.185742,0.627407,3.347182,0.78057,0.1152,0.2091
1695051778718750,-9.185742,0.627407,3.320182,0.82557,0.1042,0.391
1695051778726562,-9.203742,0.624407,3.293182,0.70157,0.512,0.391
1695051778734375,-9.209742,0.626407,3.295182,0.73257,0.1002,0.1991
1695051778742187,-9.219742,0.617407,3.254182,0.84457,0.1282,0.2291
1695051778750000,-9.216742,0.615407,3.230182,0.71457,0.3002,0.0
1695051778757812,-9.212742,0.626407,3.193182,0.77657,0.3682,0.1691
1695051778765625,-9.200742,0.624407,3.175182,0.80957,0.3632,0.291
1695051778773437,-9.205742,0.624407,3.261182,0.74857,0.5522,0.1991
1695051778781250,-9.207742,0.626407,3.304182,0.74757,0.6072,0.8191
1695051778789062,-9.212742,0.631407,3.347182,0.82257,0.5632,0.1591
1695051778796875,-9.207742,0.620407,3.369182,0.87057,0.5122,0.3391
1695051778804687,-9.203742,0.611407,3.394182,0.84057,0.4962,0.6591
1695051778812500,-9.203742,0.604407,3.387182,0.77657,0.4642,0.4891
1695051778820312,-9.210742,0.597407,3.385182,0.77957,0.3962,0.9891
1695051778828125,-9.212742,0.597407,3.450182,0.71757,0.3262,0.1991
1695051778835937,-9.203742,0.602407,3.421182,0.76357,0.3452,0.1891
1695051778843750,-9.199742,0.589407,3.459182,0.81257,0.2922,0.5391
1695051778851562,-9.197742,0.591407,3.531182,0.87357,0.3762,0.3691
1695051778859375,-9.212742,0.588407,3.561182,0.87457,0.3812,0.14791
1695051778867187,-9.185742,0.607407,3.502182,0.89157,0.2322,0.14991
1695051778875000,-9.151742,0.625407,3.389182,0.86357,0.952,0.16891
1695051778882812,-9.164742,0.622407,3.392182,0.68757,0.928,0.9991
1695051778890625,-9.147742,0.603407,3.464182,0.73557,0.168,0.5391
1695051778898437,-9.169742,0.605407,3.362182,0.73657,0.3418,0.7191
1695051778906250,-9.196742,0.602407,3.367182,0.70757,0.3278,0.10491
1695051778914062,-9.201742,0.595407,3.480182,0.59057,0.1218,0.91
1695051778921875,-9.176742,0.582407,3.495182,0.65757,0.1608,0.8591
1695051778929687,-9.170742,0.574407,3.432182,0.69357,0.2188,0.12191
1695051778937500,-9.179742,0.563407,3.362182,0.86557,0.2678,0.10791
1695051778945312,-9.181742,0.558407,3.351182,0.75457,0.2138,0.11991
1695051778953125,-9.208742,0.564407,3.378182,0.76957,0.2958,0.10491
1695051778960937,-9.235742,0.557407,3.376182,0.65957,0.3418,0.10291
1695051778968750,-9.240742,0.555407,3.360182,0.68857,0.2908,0.3791
1695051778976562,-9.244742,0.568407,3.376182,0.58157,0.2488,0.5491
1695051778984375,-9.215742,0.564407,3.385182,0.59657,0.1988,0.7091
1695051778992187,-9.190742,0.578407,3.367182,0.57857,0.1448,0.6791
1695051779000000,-9.179742,0.576407,3.351182,0.64557,0.2028,0.8891
1695051779007812,-9.163742,0.583407,3.367182,0.58257,0.1678,0.10291
1695051779015625,-9.147742,0.583407,3.353182,0.53357,0.1468,0.11691
1695051779023437,-9.148742,0.570407,3.360182,0.48757,0.988,0.14891
1695051779031250,-9.138742,0.576407,3.365182,0.56457,0.798,0.14791
1695051779039062,-9.143742,0.579407,3.367182,0.42557,0.1188,0.13291
1695051779046875,-9.129742,0.574407,3.403182,0.43957,0.3128,0.5291
1695051779054687,-9.148742,0.574407,3.432182,0.34657,0.2998,0.3691
1695051779062500,-9.167742,0.582407,3.437182,0.40557,0.2918,0.291
1695051779070312,-9.185742,0.595407,3.434182,0.40657,0.4078,0.1209
1695051779078125,-9.190742,0.598407,3.428182,0.39257,0.4128,0.2609
1695051779085937,-9.204742,0.591407,3.405182,0.42557,0.4328,0.791
1695051779093750,-9.203742,0.597407,3.405182,0.40757,0.4078,0.1991
1695051779101562,-9.212742,0.588407,3.403182,0.42257,0.3918,0.391
1695051779109375,-9.215742,0.591407,3.389182,0.47257,0.3818,0.2291
1695051779117187,-9.226742,0.602407,3.374182,0.40657,0.3108,0.391
1695051779125000,-9.215742,0.595407,3.351182,0.45457,0.3278,0.2091
1695051779132812,-9.205742,0.595407,3.335182,0.61057,0.2438,0.6891
1695051779140625,-9.196742,0.607407,3.324182,0.59457,0.2638,0.1009
1695051779148437,-9.181742,0.602407,3.322182,0.47057,0.1998,0.3691
1695051779156250,-9.190742,0.613407,3.335182,0.53357,0.1698,0.2509
1695051779164062,-9.176742,0.602407,3.338182,0.59657,0.1668,0.5491
1695051779171875,-9.172742,0.605407,3.335182,0.64257,0.1468,0.8591
1695051779179687,-9.170742,0.596407,3.340182,0.67257,0.1488,0.1009
1695051779187500,-9.167742,0.589407,3.367182,0.65657,0.1958,0.1009
1695051779195312,-9.176742,0.593407,3.380182,0.65757,0.1318,0.2191
1695051779203125,-9.168742,0.574407,3.396182,0.57857,0.2288,0.491
1695051779210937,-9.167742,0.598407,3.412182,0.53057,0.3528,0.3491
1695051779218750,-9.138742,0.592407,3.369182,0.50057,0.2308,0.1109
1695051779226562,-9.156742,0.589407,3.371182,0.65657,0.2748,0.2091
1695051779234375,-9.174742,0.609407,3.376182,0.67457,0.3938,0.791
1695051779242187,-9.203742,0.611407,3.385182,0.65857,0.3438,0.2291
1695051779250000,-9.228742,0.604407,3.376182,0.67357,0.3638,0.7209
1695051779257812,-9.228742,0.590407,3.383182,0.63957,0.3418,0.9009
1695051779265625,-9.235742,0.586407,3.374182,0.65657,0.3768,0.7309
1695051779273437,-9.228742,0.595407,3.383182,0.62657,0.3128,0.4109
1695051779281250,-9.225742,0.601407,3.378182,0.51257,0.2568,0.6209
1695051779289062,-9.228742,0.599407,3.367182,0.62257,0.2098,0.7609
1695051779296875,-9.216742,0.608407,3.349182,0.66857,0.1438,0.9209
1695051779304687,-9.217742,0.602407,3.333182,0.65657,0.1508,0.4109
1695051779312500,-9.203742,0.611407,3.311182,0.64057,0.1638,0.4309
1695051779320312,-9.205742,0.609407,3.297182,0.67257,0.1028,0.4109
1695051779328125,-9.192742,0.618407,3.308182,0.65757,0.828,0.3791
1695051779335937,-9.201742,0.618407,3.313182,0.64057,0.1488,0.4209
1695051779343750,-9.205742,0.627407,3.329182,0.64257,0.408,0.4009
1695051779351562,-9.216742,0.613407,3.331182,0.65457,0.818,0.5909
1695051779359375,-9.203742,0.611407,3.333182,0.67457,0.1388,0.3909
1695051779367187,-9.210742,0.611407,3.342182,0.67257,0.668,0.2191
1695051779375000,-9.210742,0.604407,3.349182,0.68957,0.412,0.791
1695051779382812,-9.208742,0.597407,3.367182,0.65857,0.28,0.10191
1695051779390625,-9.203742,0.586407,3.371182,0.67357,0.152,0.6991
1695051779398437,-9.188742,0.587407,3.374182,0.69057,0.188,0.10291
1695051779406250,-9.188742,0.587407,3.367182,0.65857,0.1158,0.10291
1695051779414062,-9.185742,0.589407,3.367182,0.67457,0.1318,0.8691
1695051779421875,-9.190742,0.587407,3.376182,0.70457,0.648,0.8591
1695051779429687,-9.203742,0.589407,3.362182,0.72157,0.1318,0.7091
1695051779437500,-9.206742,0.591407,3.367182,0.76757,0.968,0.8691
1695051779445312,-9.212742,0.584407,3.344182,0.64157,0.1448,0.6891
1695051779453125,-9.214742,0.588407,3.353182,0.67057,0.1258,0.391
1695051779460937,-9.224742,0.588407,3.362182,0.65757,0.798,0.8491
1695051779468750,-9.235742,0.595407,3.347182,0.67357,0.1118,0.10091
1695051779476562,-9.239742,0.601407,3.338182,0.67457,0.368,0.5491
1695051779484375,-9.232742,0.606407,3.340182,0.65957,0.368,0.7091
1695051779492187,-9.230742,0.597407,3.333182,0.70457,0.318,0.8591
1695051779500000,-9.235742,0.597407,3.331182,0.71957,0.482,0.3791
1695051779507812,-9.221742,0.604407,3.313182,0.68757,0.502,0.6891
1695051779515625,-9.212742,0.604407,3.315182,0.67457,0.432,0.5491
1695051779523437,-9.208742,0.597407,3.320182,0.68757,0.992,0.5191
1695051779531250,-9.203742,0.586407,3.335182,0.65457,0.532,0.5091
1695051779539062,-9.197742,0.595407,3.347182,0.67257,0.972,0.5291
1695051779546875,-9.176742,0.605407,3.353182,0.75057,0.192,0.10091
1695051779554687,-9.172742,0.605407,3.358182,0.65857,0.208,0.7091
1695051779562500,-9.177742,0.589407,3.371182,0.73657,0.28,0.8691
1695051779570312,-9.177742,0.589407,3.387182,0.73757,0.718,0.2491
1695051779578125,-9.172742,0.587407,3.385182,0.71857,0.488,0.2191
1695051779585937,-9.179742,0.585407,3.405182,0.78457,0.348,0.8791
1695051779593750,-9.172742,0.573407,3.421182,0.75057,0.628,0.5391
1695051779601562,-9.183742,0.571407,3.419182,0.68757,0.1268,0.5291
1695051779609375,-9.194742,0.575407,3.410182,0.78057,0.778,0.491
1695051779617187,-9.204742,0.573407,3.407182,0.76457,0.798,0.1009
1695051779625000,-9.208742,0.562407,3.396182,0.76657,0.1138,0.3891
1695051779632812,-9.208742,0.553407,3.380182,0.65457,0.448,0.391
1695051779640625,-9.210742,0.555407,3.365182,0.70157,0.1088,0.1991
1695051779648437,-9.202742,0.555407,3.344182,0.73357,0.668,0.5809
1695051779656250,-9.195742,0.569407,3.342182,0.63857,0.1278,0.4409
1695051779664062,-9.199742,0.558407,3.317182,0.70157,0.1578,0.391
1695051779671875,-9.206742,0.569407,3.331182,0.70357,0.958,0.5291
1695051779679687,-9.206742,0.566407,3.338182,0.68757,0.1448,0.3691
1695051779687500,-9.188742,0.582407,3.338182,0.68957,0.1628,0.5391
1695051779695312,-9.190742,0.578407,3.326182,0.67157,0.1468,0.1009
1695051779703125,-9.186742,0.567407,3.340182,0.76457,0.1758,0.4309
1695051779710937,-9.192742,0.584407,3.349182,0.73357,0.1578,0.2091
1695051779718750,-9.199742,0.584407,3.353182,0.71757,0.1448,0.4309
1695051779726562,-9.201742,0.571407,3.356182,0.71957,0.1798,0.1009
1695051779734375,-9.210742,0.571407,3.358182,0.68557,0.1618,0.7509
1695051779742187,-9.217742,0.582407,3.353182,0.72057,0.1498,0.809
1695051779750000,-9.201742,0.575407,3.349182,0.63857,0.1418,0.1309
1695051779757812,-9.210742,0.575407,3.380182,0.73457,0.1638,0.4209
1695051779765625,-9.219742,0.568407,3.455182,0.73257,0.42,0.1209
1695051779773437,-9.224742,0.579407,3.471182,0.77957,0.468,0.5909
1695051779781250,-9.192742,0.607407,3.414182,0.84657,0.698,0.891
1695051779789062,-9.167742,0.622407,3.263182,0.71457,0.1718,0.9309
1695051779796875,-9.183742,0.611407,3.259182,0.70157,0.1308,0.9109
1695051779804687,-9.181742,0.593407,3.380182,0.74557,0.588,0.9309
1695051779812500,-9.188742,0.578407,3.342182,0.73257,0.1588,0.4409
1695051779820312,-9.210742,0.568407,3.351182,0.70257,0.2598,0.4209
1695051779828125,-9.213742,0.566407,3.448182,0.66957,0.928,0.291
1695051779835937,-9.201742,0.569407,3.446182,0.70157,0.1268,0.2809
1695051779843750,-9.192742,0.562407,3.394182,0.77657,0.1368,0.6109
1695051779851562,-9.174742,0.562407,3.356182,0.81257,0.1738,0.3791
1695051779859375,-9.195742,0.569407,3.349182,0.82957,0.1628,0.2391
1695051779867187,-9.219742,0.566407,3.369182,0.87557,0.2728,0.5491
1695051779875000,-9.240742,0.564407,3.374182,0.81157,0.3218,0.2509
1695051779882812,-9.240742,0.561407,3.351182,0.70257,0.2948,0.10509
1695051779890625,-9.237742,0.566407,3.347182,0.67257,0.2598,0.591
1695051779898437,-9.213742,0.571407,3.360182,0.70257,0.2768,0.4209
1695051779906250,-9.190742,0.575407,3.362182,0.62357,0.2278,0.7509
1695051779914062,-9.183742,0.573407,3.356182,0.65457,0.2548,0.2809
1695051779921875,-9.190742,0.578407,3.344182,0.66957,0.2388,0.2809
1695051779929687,-9.190742,0.571407,3.315182,0.65557,0.2398,0.391
1695051779937500,-9.185742,0.575407,3.315182,0.60557,0.1878,0.4609
1695051779945312,-9.186742,0.571407,3.315182,0.65357,0.1768,0.7609
1695051779953125,-9.176742,0.582407,3.331182,0.65057,0.1378,0.11109
1695051779960937,-9.185742,0.584407,3.340182,0.63857,0.2238,0.6009
1695051779968750,-9.187742,0.589407,3.335182,0.67057,0.2548,0.391
1695051779976562,-9.194742,0.582407,3.347182,0.64057,0.2778,0.4209
1695051779984375,-9.212742,0.591407,3.353182,0.62257,0.2098,0.9209
1695051779992187,-9.214742,0.606407,3.360182,0.67157,0.2578,0.491
1695051780000000,-9.237742,0.595407,3.371182,0.63957,0.1598,0.1209
1695051780007812,-9.232742,0.601407,3.358182,0.65457,0.1968,0.9109
1695051780015625,-9.219742,0.595407,3.349182,0.63957,0.2108,0.5909
1695051780023437,-9.226742,0.573407,3.344182,0.65257,0.1548,0.4609
1695051780031250,-9.221742,0.568407,3.333182,0.66957,0.1568,0.1309
1695051780039062,-9.237742,0.579407,3.338182,0.66757,0.1368,0.4709
1695051780046875,-9.235742,0.581407,3.333182,0.64057,0.1618,0.1109
1695051780054687,-9.215742,0.573407,3.326182,0.65257,0.1408,0.4509
1695051780062500,-9.224742,0.573407,3.322182,0.66757,0.898,0.3009
1695051780070312,-9.219742,0.577407,3.320182,0.65357,0.1258,0.2909
1695051780078125,-9.212742,0.566407,3.306182,0.66757,0.548,0.91
1695051780085937,-9.224742,0.573407,3.306182,0.65157,0.608,0.11009
1695051780093750,-9.226742,0.573407,3.326182,0.66957,0.598,0.1309
1695051780101562,-9.217742,0.573407,3.340182,0.65257,0.52,0.3009
1695051780109375,-9.201742,0.573407,3.331182,0.66957,0.458,0.4509
1695051780117187,-9.196742,0.589407,3.351182,0.60857,0.748,0.8191
1695051780125000,-9.170742,0.589407,3.304182,0.63857,0.1182,0.3391
1695051780132812,-9.203742,0.595407,3.317182,0.67357,0.208,0.691
1695051780140625,-9.203742,0.609407,3.362182,0.65657,0.338,0.2191
1695051780148437,-9.215742,0.589407,3.358182,0.65857,0.228,0.2291
1695051780156250,-9.223742,0.606407,3.347182,0.67257,0.848,0.2609
1695051780164062,-9.233742,0.588407,3.347182,0.68657,0.468,0.1209
1695051780171875,-9.228742,0.586407,3.353182,0.65657,0.648,0.491
1695051780179687,-9.224742,0.590407,3.371182,0.67057,0.308,0.391
1695051780187500,-9.219742,0.575407,3.380182,0.67057,0.598,0.1891
1695051780195312,-9.221742,0.582407,3.374182,0.70357,0.1138,0.2191
1695051780203125,-9.212742,0.600407,3.356182,0.62557,0.48,0.1009
1695051780210937,-9.210742,0.591407,3.347182,0.65557,0.8,0.2709
1695051780218750,-9.201742,0.600407,3.338182,0.67057,0.152,0.5909
1695051780226562,-9.183742,0.598407,3.335182,0.65457,0.818,0.9109
1695051780234375,-9.181742,0.591407,3.338182,0.65457,0.0,0.2809
1695051780242187,-9.199742,0.598407,3.342182,0.67157,0.172,0.491
1695051780250000,-9.205742,0.595407,3.344182,0.65457,0.138,0.1209
1695051780257812,-9.212742,0.591407,3.353182,0.67257,0.1178,0.5709
1695051780265625,-9.206742,0.582407,3.367182,0.65357,0.468,0.7609
1695051780273437,-9.203742,0.582407,3.344182,0.68257,0.588,0.9409
1695051780281250,-9.204742,0.575407,3.349182,0.67057,0.1288,0.2709
1695051780289062,-9.201742,0.571407,3.360182,0.66757,0.208,0.1591
1695051780296875,-9.190742,0.569407,3.371182,0.65457,0.778,0.391
1695051780304687,-9.204742,0.575407,3.360182,0.70757,0.1188,0.8791
1695051780312500,-9.204742,0.571407,3.349182,0.76557,0.488,0.591
1695051780320312,-9.204742,0.571407,3.358182,0.75157,0.1158,0.3891
1695051780328125,-9.195742,0.584407,3.349182,0.73857,0.838,0.13591
1695051780335937,-9.197742,0.591407,3.344182,0.70457,0.978,0.6991
1695051780343750,-9.199742,0.604407,3.349182,0.68957,0.1318,0.5491
1695051780351562,-9.196742,0.611407,3.365182,0.67257,0.1158,0.2609
1695051780359375,-9.192742,0.607407,3.362182,0.72057,0.1158,0.3891
1695051780367187,-9.187742,0.609407,3.351182,0.73457,0.1268,0.5291
1695051780375000,-9.194742,0.597407,3.365182,0.73157,0.908,0.291
1695051780382812,-9.194742,0.589407,3.356182,0.63957,0.1418,0.1891
1695051780390625,-9.188742,0.587407,3.356182,0.76457,0.1598,0.4309
1695051780398437,-9.197742,0.586407,3.340182,0.68657,0.1438,0.1109
1695051780406250,-9.192742,0.604407,3.367182,0.67057,0.1578,0.1991
1695051780414062,-9.208742,0.604407,3.360182,0.68657,0.1448,0.2709
1695051780421875,-9.210742,0.604407,3.349182,0.70157,0.1588,0.2809
1695051780429687,-9.203742,0.600407,3.362182,0.70257,0.1468,0.4209
1695051780437500,-9.206742,0.600407,3.365182,0.71957,0.1318,0.691
1695051780445312,-9.199742,0.595407,3.367182,0.70057,0.1238,0.1309
1695051780453125,-9.181742,0.593407,3.367182,0.79557,0.1418,0.491
1695051780460937,-9.183742,0.607407,3.347182,0.73457,0.1648,0.5709
1695051780468750,-9.178742,0.598407,3.349182,0.74957,0.1618,0.2609
1695051780476562,-9.181742,0.593407,3.365182,0.74957,0.1438,0.2091
1695051780484375,-9.185742,0.589407,3.378182,0.68657,0.1948,0.2709
1695051780492187,-9.190742,0.589407,3.371182,0.71957,0.1318,0.2509
1695051780500000,-9.197742,0.591407,3.380182,0.70357,0.1778,0.2191
1695051780507812,-9.199742,0.586407,3.380182,0.80957,0.1568,0.7609
1695051780515625,-9.192742,0.582407,3.376182,0.84457,0.1608,0.691
1695051780523437,-9.201742,0.575407,3.369182,0.89157,0.1468,0.791
1695051780531250,-9.203742,0.584407,3.353182,0.82957,0.2108,0.2291
1695051780539062,-9.201742,0.573407,3.360182,0.88957,0.1468,0.8809
1695051780546875,-9.197742,0.571407,3.349182,0.85757,0.1088,0.2709
1695051780554687,-9.186742,0.571407,3.333182,0.70257,0.798,0.2091
1695051780562500,-9.190742,0.575407,3.342182,0.68657,0.1578,0.3591
1695051780570312,-9.181742,0.569407,3.358182,0.65657,0.2418,0.3691
1695051780578125,-9.195742,0.566407,3.351182,0.67057,0.1598,0.2809
1695051780585937,-9.203742,0.568407,3.367182,0.65157,0.2318,0.3109
1695051780593750,-9.208742,0.566407,3.369182,0.67257,0.3078,0.591
1695051780601562,-9.215742,0.568407,3.374182,0.65357,0.1898,0.4509
1695051780609375,-9.217742,0.566407,3.378182,0.65657,0.2148,0.5809
1695051780617187,-9.224742,0.588407,3.394182,0.65457,0.2148,0.15409
1695051780625000,-9.235742,0.584407,3.387182,0.65357,0.1438,0.6009
1695051780632812,-9.219742,0.591407,3.380182,0.65357,0.1618,0.10809
1695051780640625,-9.221742,0.584407,3.414182,0.65357,0.1308,0.15509
1695051780648437,-9.232742,0.597407,3.486182,0.65357,0.818,0.10809
1695051780656250,-9.237742,0.603407,3.495182,0.65057,0.78,0.7909
1695051780664062,-9.192742,0.626407,3.443182,0.65557,0.978,0.4309
1695051780671875,-9.157742,0.647407,3.277182,0.65457,0.2238,0.2809
1695051780679687,-9.171742,0.642407,3.250182,0.66957,0.2298,0.15509
1695051780687500,-9.167742,0.620407,3.367182,0.65557,0.1338,0.9009
1695051780695312,-9.167742,0.605407,3.351182,0.66857,0.2898,0.12409
1695051780703125,-9.217742,0.600407,3.365182,0.65857,0.3648,0.5509
1695051780710937,-9.225742,0.601407,3.471182,0.63757,0.1238,0.3009
1695051780718750,-9.205742,0.604407,3.462182,0.67157,0.1448,0.2091
1695051780726562,-9.206742,0.582407,3.407182,0.73457,0.2418,0.3791
1695051780734375,-9.208742,0.591407,3.347182,0.90657,0.3508,0.5491
1695051780742187,-9.205742,0.593407,3.324182,0.90657,0.2578,0.791
1695051780750000,-9.228742,0.590407,3.308182,0.90857,0.3408,0.2491
1695051780757812,-9.237742,0.590407,3.308182,0.82857,0.4068,0.5609
1695051780765625,-9.244742,0.590407,3.315182,0.73457,0.3908,0.4109
1695051780773437,-9.246742,0.599407,3.331182,0.68857,0.4238,0.909
1695051780781250,-9.221742,0.602407,3.340182,0.65757,0.4088,0.4109
1695051780789062,-9.208742,0.604407,3.338182,0.67357,0.2938,0.691
1695051780796875,-9.214742,0.597407,3.329182,0.67157,0.4038,0.2609
1695051780804687,-9.208742,0.593407,3.297182,0.65557,0.2618,0.7409
1695051780812500,-9.199742,0.600407,3.279182,0.67257,0.2598,0.1009
1695051780820312,-9.192742,0.602407,3.304182,0.65557,0.1908,0.3591
1695051780828125,-9.190742,0.604407,3.313182,0.64257,0.1958,0.6991
1695051780835937,-9.194742,0.606407,3.302182,0.60957,0.1928,0.6791
1695051780843750,-9.207742,0.608407,3.342182,0.64157,0.1778,0.5291
1695051780851562,-9.234742,0.613407,3.342182,0.67357,0.2778,0.691
1695051780859375,-9.239742,0.624407,3.322182,0.65857,0.3248,0.5491
1695051780867187,-9.248742,0.621407,3.313182,0.67057,0.2598,0.7409
1695051780875000,-9.253742,0.608407,3.326182,0.65857,0.2488,0.791
1695051780882812,-9.253742,0.608407,3.349182,0.65757,0.2118,0.3791
1695051780890625,-9.244742,0.601407,3.342182,0.65757,0.1628,0.6991
1695051780898437,-9.257742,0.612407,3.329182,0.67157,0.1128,0.491
1695051780906250,-9.252742,0.603407,3.333182,0.65457,0.1418,0.1991
1695051780914062,-9.237742,0.597407,3.320182,0.67157,0.1138,0.1109
1695051780921875,-9.230742,0.592407,3.317182,0.65457,0.1068,0.6691
1695051780929687,-9.208742,0.591407,3.331182,0.67157,0.1288,0.2091
1695051780937500,-9.203742,0.589407,3.313182,0.60957,0.978,0.2091
1695051780945312,-9.205742,0.595407,3.313182,0.63757,0.588,0.191
1695051780953125,-9.210742,0.591407,3.335182,0.67257,0.1138,0.2191
1695051780960937,-9.199742,0.586407,3.306182,0.65557,0.1088,0.8391
1695051780968750,-9.203742,0.591407,3.293182,0.65457,0.438,0.3491
1695051780976562,-9.203742,0.589407,3.302182,0.67157,0.1088,0.5191
1695051780984375,-9.214742,0.595407,3.324182,0.68657,0.288,0.1991
1695051780992187,-9.213742,0.593407,3.326182,0.67557,0.548,0.5591
1695051781000000,-9.192742,0.595407,3.311182,0.62657,0.1308,0.5291
1695051781007812,-9.163742,0.600407,3.270182,0.59357,0.818,0.391
1695051781015625,-9.174742,0.591407,3.277182,0.67257,0.1308,0.2191
1695051781023437,-9.208742,0.600407,3.320182,0.67257,0.1308,0.591
1695051781031250,-9.237742,0.593407,3.293182,0.70457,0.2938,0.2291
1695051781039062,-9.240742,0.582407,3.261182,0.65857,0.2008,0.791
1695051781046875,-9.239742,0.588407,3.263182,0.67357,0.2138,0.2291
1695051781054687,-9.239742,0.603407,3.306182,0.65557,0.2398,0.391
1695051781062500,-9.244742,0.608407,3.308182,0.67557,0.1858,0.891
1695051781070312,-9.255742,0.603407,3.311182,0.65557,0.1438,0.1991
1695051781078125,-9.248742,0.599407,3.302182,0.65657,0.1618,0.2091
1695051781085937,-9.235742,0.608407,3.275182,0.65857,0.1188,0.691
1695051781093750,-9.223742,0.610407,3.286182,0.65557,0.958,0.2091
1695051781101562,-9.221742,0.611407,3.279182,0.65557,0.318,0.491
1695051781109375,-9.208742,0.602407,3.270182,0.65657,0.8,0.2091
1695051781117187,-9.194742,0.602407,3.281182,0.65557,0.128,0.5191
1695051781125000,-9.196742,0.597407,3.293182,0.65457,0.928,0.291
1695051781132812,-9.208742,0.595407,3.279182,0.65657,0.158,0.3691
1695051781140625,-9.203742,0.604407,3.286182,0.65957,0.1028,0.7191
1695051781148437,-9.203742,0.598407,3.302182,0.67357,0.1138,0.6991
1695051781156250,-9.219742,0.584407,3.313182,0.65757,0.1808,0.2291
1695051781164062,-9.231742,0.588407,3.317182,0.67357,0.208,0.2291
1695051781171875,-9.239742,0.590407,3.315182,0.68957,0.208,0.5491
1695051781179687,-9.235742,0.588407,3.295182,0.67257,0.178,0.5391
1695051781187500,-9.226742,0.582407,3.295182,0.70257,0.288,0.3591
1695051781195312,-9.221742,0.586407,3.302182,0.65357,0.78,0.3291
1695051781203125,-9.214742,0.593407,3.299182,0.70457,0.958,0.10191
1695051781210937,-9.221742,0.588407,3.302182,0.71957,0.318,0.3791
1695051781218750,-9.219742,0.590407,3.284182,0.70057,0.72,0.1791
1695051781226562,-9.217742,0.600407,3.295182,0.70457,0.358,0.2291
1695051781234375,-9.217742,0.604407,3.295182,0.68657,0.182,0.391
1695051781242187,-9.210742,0.604407,3.277182,0.67257,0.338,0.591
1695051781250000,-9.212742,0.597407,3.270182,0.65557,0.178,0.2709
1695051781257812,-9.203742,0.602407,3.279182,0.67157,0.158,0.2091
1695051781265625,-9.203742,0.600407,3.277182,0.68557,0.288,0.391
1695051781273437,-9.205742,0.604407,3.281182,0.67157,0.172,0.491
1695051781281250,-9.187742,0.598407,3.279182,0.81157,0.488,0.4209
1695051781289062,-9.201742,0.600407,3.293182,0.73257,0.468,0.2709
1695051781296875,-9.203742,0.606407,3.288182,0.68857,0.1178,0.2509
1695051781304687,-9.208742,0.597407,3.297182,0.75157,0.668,0.2291
1695051781312500,-9.219742,0.599407,3.302182,0.67057,0.778,0.391
1695051781320312,-9.226742,0.591407,3.299182,0.73457,0.648,0.591
1695051781328125,-9.228742,0.588407,3.288182,0.78157,0.808,0.2291
1695051781335937,-9.226742,0.584407,3.299182,0.76757,0.678,0.3991
1695051781343750,-9.241742,0.590407,3.308182,0.82557,0.728,0.391
1695051781351562,-9.235742,0.581407,3.299182,0.79657,0.118,0.5291
1695051781359375,-9.226742,0.575407,3.302182,0.65757,0.338,0.3791
1695051781367187,-9.219742,0.573407,3.304182,0.76757,0.188,0.2291
1695051781375000,-9.217742,0.575407,3.311182,0.81357,0.188,0.791
1695051781382812,-9.222742,0.569407,3.308182,0.90957,0.198,0.4191
1695051781390625,-9.217742,0.564407,3.299182,0.84457,0.142,0.809
1695051781398437,-9.212742,0.568407,3.322182,0.78057,0.222,0.8391
1695051781406250,-9.206742,0.571407,3.302182,0.81357,0.32,0.6991
1695051781414062,-9.193742,0.558407,3.288182,0.82757,0.502,0.591
1695051781421875,-9.195742,0.562407,3.284182,0.79757,0.322,0.2291
1695051781429687,-9.181742,0.573407,3.277182,0.93857,0.278,0.7091
1695051781437500,-9.190742,0.569407,3.290182,0.71957,0.152,0.5391
1695051781445312,-9.181742,0.589407,3.288182,0.68657,0.512,0.3591
1695051781453125,-9.183742,0.591407,3.297182,0.78257,0.302,0.3891
1695051781460937,-9.188742,0.598407,3.288182,0.78257,0.358,0.791
1695051781468750,-9.185742,0.607407,3.279182,0.81457,0.122,0.2391
1695051781476562,-9.190742,0.596407,3.277182,0.82857,0.158,0.691
1695051781484375,-9.192742,0.585407,3.297182,0.78257,0.102,0.4009
1695051781492187,-9.199742,0.586407,3.302182,0.71957,0.488,0.5391
1695051781500000,-9.203742,0.577407,3.331182,0.78157,0.958,0.3791
1695051781507812,-9.210742,0.575407,3.342182,0.71857,0.1288,0.591
1695051781515625,-9.224742,0.580407,3.342182,0.83057,0.1168,0.2491
1695051781523437,-9.210742,0.573407,3.317182,0.81457,0.1498,0.709
1695051781531250,-9.213742,0.573407,3.376182,0.73357,0.22,0.3691
1695051781539062,-9.224742,0.568407,3.416182,0.81157,0.682,0.2091
1695051781546875,-9.215742,0.580407,3.439182,0.79857,0.632,0.5491
1695051781554687,-9.176742,0.585407,3.356182,0.82857,0.468,0.2191
1695051781562500,-9.154742,0.592407,3.169182,0.74957,0.2128,0.5709
1695051781570312,-9.157742,0.565407,3.221182,0.71857,0.1338,0.8909
1695051781578125,-9.177742,0.554407,3.383182,0.75157,0.1338,0.791
1695051781585937,-9.197742,0.549407,3.394182,0.75057,0.1938,0.2191
1695051781593750,-9.204742,0.555407,3.401182,0.65857,0.2628,0.5491
1695051781601562,-9.179742,0.558407,3.392182,0.68857,0.1488,0.2291
1695051781609375,-9.161742,0.556407,3.349182,0.83057,0.1628,0.5591
1695051781617187,-9.157742,0.538407,3.326182,0.91057,0.1508,0.5891
1695051781625000,-9.171742,0.543407,3.331182,0.78457,0.1698,0.609
1695051781632812,-9.199742,0.551407,3.347182,0.81457,0.2268,0.5591
1695051781640625,-9.233742,0.555407,3.374182,0.78657,0.3938,0.12191
1695051781648437,-9.249742,0.563407,3.356182,0.72057,0.3868,0.6991
1695051781656250,-9.235742,0.575407,3.326182,0.65857,0.3578,0.3891
1695051781664062,-9.230742,0.577407,3.317182,0.67257,0.3708,0.3791
1695051781671875,-9.213742,0.571407,3.320182,0.65757,0.3748,0.691
1695051781679687,-9.201742,0.569407,3.302182,0.67457,0.2958,0.2391
1695051781687500,-9.183742,0.573407,3.297182,0.65757,0.2438,0.3791
1695051781695312,-9.175742,0.567407,3.279182,0.65857,0.2648,0.2391
1695051781703125,-9.179742,0.569407,3.277182,0.65657,0.2288,0.4209
1695051781710937,-9.192742,0.567407,3.281182,0.65657,0.2578,0.491
1695051781718750,-9.192742,0.569407,3.306182,0.65657,0.3108,0.4109
1695051781726562,-9.208742,0.569407,3.315182,0.65857,0.2008,0.809
1695051781734375,-9.222742,0.584407,3.335182,0.65657,0.2328,0.7309
1695051781742187,-9.231742,0.571407,3.333182,0.67457,0.3158,0.5509
1695051781750000,-9.237742,0.590407,3.335182,0.65557,0.2288,0.5809
1695051781757812,-9.246742,0.584407,3.340182,0.67157,0.2658,0.12109
1695051781765625,-9.246742,0.577407,3.335182,0.65657,0.1818,0.5809
1695051781773437,-9.237742,0.568407,3.338182,0.70257,0.2288,0.5809
1695051781781250,-9.242742,0.568407,3.335182,0.73557,0.2308,0.809
1695051781789062,-9.222742,0.562407,3.338182,0.65757,0.1178,0.909
1695051781796875,-9.217742,0.560407,3.335182,0.67157,0.998,0.2609
1695051781804687,-9.213742,0.564407,3.342182,0.67357,0.1378,0.4009
1695051781812500,-9.201742,0.566407,3.347182,0.63857,0.1128,0.6009
1695051781820312,-9.197742,0.569407,3.326182,0.65657,0.1488,0.1009
1695051781828125,-9.204742,0.558407,3.335182,0.67157,0.1618,0.1109
1695051781835937,-9.204742,0.564407,3.340182,0.65757,0.828,0.2191
1695051781843750,-9.206742,0.569407,3.335182,0.67357,0.1158,0.2191
1695051781851562,-9.204742,0.558407,3.333182,0.65557,0.958,0.1209
1695051781859375,-9.210742,0.566407,3.326182,0.73257,0.158,0.5909
1695051781867187,-9.224742,0.568407,3.333182,0.77757,0.578,0.4509
1695051781875000,-9.212742,0.564407,3.329182,0.65257,0.258,0.4609
1695051781882812,-9.192742,0.569407,3.320182,0.66757,0.1098,0.10909
1695051781890625,-9.168742,0.567407,3.299182,0.51457,0.1468,0.2809
1695051781898437,-9.163742,0.567407,3.279182,0.65657,0.648,0.491
1695051781906250,-9.201742,0.580407,3.349182,0.70257,0.978,0.1009
1695051781914062,-9.221742,0.573407,3.369182,0.59157,0.1418,0.2909
1695051781921875,-9.248742,0.570407,3.342182,0.65257,0.1678,0.91
1695051781929687,-9.228742,0.570407,3.335182,0.67057,0.1568,0.1891
1695051781937500,-9.215742,0.564407,3.338182,0.67157,0.1448,0.1109
1695051781945312,-9.206742,0.555407,3.329182,0.65657,0.1618,0.491
1695051781953125,-9.210742,0.560407,3.311182,0.67157,0.1438,0.2091
1695051781960937,-9.219742,0.568407,3.315182,0.60857,0.1288,0.2809
1695051781968750,-9.215742,0.566407,3.317182,0.65657,0.1618,0.491
1695051781976562,-9.204742,0.566407,3.329182,0.63957,0.1438,0.1209
1695051781984375,-9.204742,0.580407,3.324182,0.62657,0.1668,0.909
1695051781992187,-9.203742,0.584407,3.320182,0.59257,0.1438,0.391
1695051782000000,-9.199742,0.569407,3.322182,0.48257,0.1328,0.7609
1695051782007812,-9.206742,0.567407,3.331182,0.59557,0.1688,0.909
1695051782015625,-9.211742,0.573407,3.315182,0.53257,0.1538,0.5709
1695051782023437,-9.219742,0.573407,3.335182,0.54657,0.1128,0.1991
1695051782031250,-9.224742,0.571407,3.324182,0.57757,0.1308,0.4409
1695051782039062,-9.231742,0.579407,3.333182,0.59457,0.498,0.5291
1695051782046875,-9.233742,0.575407,3.344182,0.60957,0.848,0.2609
1695051782054687,-9.242742,0.581407,3.351182,0.64157,0.1338,0.2609
1695051782062500,-9.237742,0.581407,3.342182,0.68557,0.448,0.391
1695051782070312,-9.224742,0.577407,3.335182,0.62557,0.178,0.2091
1695051782078125,-9.219742,0.571407,3.338182,0.67057,0.288,0.391
1695051782085937,-9.221742,0.579407,3.335182,0.60957,0.1128,0.5191
1695051782093750,-9.215742,0.582407,3.342182,0.63957,0.448,0.5191
1695051782101562,-9.204742,0.573407,3.324182,0.54657,0.638,0.3491
1695051782109375,-9.204742,0.569407,3.333182,0.65757,0.178,0.5391
1695051782117187,-9.204742,0.582407,3.324182,0.60957,0.8,0.491
1695051782125000,-9.208742,0.586407,3.320182,0.67257,0.188,0.1009
1695051782132812,-9.215742,0.588407,3.313182,0.64157,0.668,0.3791
1695051782140625,-9.203742,0.584407,3.313182,0.65757,0.1138,0.6991
1695051782148437,-9.215742,0.586407,3.313182,0.67257,0.1308,0.591
1695051782156250,-9.208742,0.580407,3.315182,0.65857,0.1358,0.2391
1695051782164062,-9.213742,0.582407,3.308182,0.67457,0.718,0.2391
1695051782171875,-9.210742,0.584407,3.308182,0.65557,0.648,0.2709
1695051782179687,-9.217742,0.580407,3.324182,0.64157,0.122,0.2609
1695051782187500,-9.213742,0.586407,3.315182,0.64157,0.302,0.2191
1695051782195312,-9.215742,0.586407,3.320182,0.65757,0.368,0.691
1695051782203125,-9.215742,0.575407,3.308182,0.63757,0.398,0.1691
1695051782210937,-9.206742,0.580407,3.308182,0.54457,0.362,0.1791
1695051782218750,-9.203742,0.591407,3.324182,0.65257,0.898,0.191
1695051782226562,-9.206742,0.582407,3.317182,0.62357,0.1108,0.1209
1695051782234375,-9.210742,0.577407,3.333182,0.66657,0.282,0.1591
1695051782242187,-9.217742,0.593407,3.338182,0.62357,0.662,0.391
1695051782250000,-9.224742,0.595407,3.340182,0.67257,0.518,0.2609
1695051782257812,-9.222742,0.593407,3.335182,0.62657,0.228,0.909
1695051782265625,-9.215742,0.595407,3.338182,0.62457,0.648,0.2091
1695051782273437,-9.206742,0.589407,3.324182,0.67157,0.818,0.491
1695051782281250,-9.208742,0.591407,3.315182,0.65657,0.1628,0.2191
1695051782289062,-9.199742,0.589407,3.297182,0.67357,0.1498,0.691
1695051782296875,-9.192742,0.591407,3.286182,0.67157,0.1638,0.4209
1695051782304687,-9.195742,0.591407,3.297182,0.65757,0.1538,0.7209
1695051782312500,-9.192742,0.589407,3.311182,0.64257,0.1868,0.4009
1695051782320312,-9.199742,0.578407,3.304182,0.67257,0.1688,0.10509
1695051782328125,-9.199742,0.587407,3.297182,0.65657,0.1488,0.2609
1695051782335937,-9.204742,0.575407,3.299182,0.67257,0.1998,0.5709
1695051782343750,-9.208742,0.584407,3.302182,0.65657,0.2618,0.4209
1695051782351562,-9.212742,0.593407,3.302182,0.67057,0.2288,0.9009
1695051782359375,-9.230742,0.588407,3.317182,0.63957,0.1638,0.5909
1695051782367187,-9.242742,0.593407,3.333182,0.65557,0.1978,0.10609
1695051782375000,-9.239742,0.595407,3.333182,0.67257,0.1488,0.591
1695051782382812,-9.242742,0.588407,3.320182,0.65757,0.1818,0.691
1695051782390625,-9.244742,0.588407,3.344182,0.65757,0.678,0.2191
1695051782398437,-9.246742,0.570407,3.389182,0.67157,0.972,0.491
1695051782406250,-9.237742,0.590407,3.432182,0.65657,0.152,0.3691
1695051782414062,-9.189742,0.624407,3.326182,0.73557,0.1158,0.2291
1695051782421875,-9.191742,0.644407,3.214182,0.69057,0.1358,0.2391
1695051782429687,-9.196742,0.615407,3.270182,0.65657,0.1308,0.1109
1695051782437500,-9.203742,0.611407,3.320182,0.65857,0.878,0.791
1695051782445312,-9.221742,0.600407,3.275182,0.67357,0.2138,0.2291
1695051782453125,-9.241742,0.599407,3.349182,0.63857,0.618,0.291
1695051782460937,-9.221742,0.599407,3.412182,0.60857,0.158,0.391
1695051782468750,-9.208742,0.593407,3.389182,0.65657,0.1628,0.591
1695051782476562,-9.192742,0.580407,3.356182,0.75157,0.1488,0.2291
1695051782484375,-9.181742,0.580407,3.308182,0.90857,0.1968,0.891
1695051782492187,-9.204742,0.582407,3.304182,0.87757,0.1498,0.2591
1695051782500000,-9.228742,0.579407,3.338182,0.81457,0.2138,0.891
1695051782507812,-9.246742,0.568407,3.317182,0.75157,0.2928,0.2291
1695051782515625,-9.228742,0.564407,3.279182,0.68857,0.2778,0.691
1695051782523437,-9.213742,0.566407,3.277182,0.65757,0.2978,0.4009
1695051782531250,-9.206742,0.569407,3.286182,0.65857,0.4148,0.10309
1695051782539062,-9.199742,0.580407,3.297182,0.67557,0.3008,0.709
1695051782546875,-9.203742,0.584407,3.286182,0.64057,0.2638,0.7309
1695051782554687,-9.199742,0.593407,3.275182,0.64057,0.2468,0.7409
1695051782562500,-9.192742,0.593407,3.266182,0.59357,0.1488,0.2709
1695051782570312,-9.192742,0.600407,3.270182,0.65657,0.1628,0.591
1695051782578125,-9.197742,0.598407,3.275182,0.61157,0.1518,0.691
1695051782585937,-9.203742,0.602407,3.281182,0.67257,0.1158,0.1009
1695051782593750,-9.216742,0.615407,3.299182,0.65557,0.1288,0.1109
1695051782601562,-9.232742,0.606407,3.306182,0.67457,0.1188,0.2391
1695051782609375,-9.230742,0.622407,3.322182,0.67157,0.1328,0.4209
1695051782617187,-9.237742,0.628407,3.315182,0.61057,0.1338,0.591
1695051782625000,-9.241742,0.626407,3.320182,0.60857,0.818,0.4409
1695051782632812,-9.246742,0.621407,3.322182,0.62657,0.1848,0.2509
1695051782640625,-9.248742,0.617407,3.322182,0.67157,0.1618,0.1109
1695051782648437,-9.239742,0.606407,3.324182,0.65757,0.1498,0.909
1695051782656250,-9.239742,0.604407,3.313182,0.67157,0.1618,0.2709
1695051782664062,-9.221742,0.602407,3.315182,0.65357,0.1438,0.9209
1695051782671875,-9.219742,0.595407,3.326182,0.64157,0.1358,0.7309
1695051782679687,-9.212742,0.604407,3.313182,0.66957,0.798,0.6009
1695051782687500,-9.208742,0.600407,3.315182,0.65657,0.1198,0.7309
1695051782695312,-9.208742,0.593407,3.313182,0.67057,0.998,0.10709
1695051782703125,-9.206742,0.589407,3.306182,0.65557,0.1288,0.2709
1695051782710937,-9.208742,0.591407,3.306182,0.67157,0.488,0.491
1695051782718750,-9.208742,0.593407,3.304182,0.63657,0.402,0.1509
1695051782726562,-9.219742,0.597407,3.308182,0.65657,0.508,0.1109
1695051782734375,-9.217742,0.595407,3.299182,0.67257,0.828,0.591
1695051782742187,-9.219742,0.595407,3.304182,0.68857,0.518,0.691
1695051782750000,-9.212742,0.600407,3.311182,0.65857,0.228,0.2291
1695051782757812,-9.203742,0.598407,3.326182,0.67257,0.1338,0.4109
1695051782765625,-9.199742,0.604407,3.331182,0.62657,0.1668,0.691
1695051782773437,-9.178742,0.604407,3.297182,0.62357,0.778,0.291
1695051782781250,-9.171742,0.622407,3.272182,0.70457,0.988,0.2291
1695051782789062,-9.205742,0.617407,3.302182,0.71857,0.1638,0.4209
1695051782796875,-9.225742,0.624407,3.311182,0.67057,0.778,0.391
1695051782804687,-9.246742,0.621407,3.299182,0.65657,0.1468,0.1009
1695051782812500,-9.250742,0.621407,3.315182,0.65657,0.2448,0.2609
1695051782820312,-9.239742,0.606407,3.324182,0.67357,0.1808,0.2291
1695051782828125,-9.230742,0.601407,3.317182,0.65557,0.1448,0.1109
1695051782835937,-9.241742,0.601407,3.320182,0.65557,0.1618,0.4309
1695051782843750,-9.237742,0.610407,3.308182,0.65757,0.1508,0.2509
1695051782851562,-9.221742,0.611407,3.299182,0.65657,0.1468,0.591
1695051782859375,-9.217742,0.608407,3.295182,0.65757,0.1158,0.2191
1695051782867187,-9.212742,0.609407,3.284182,0.65757,0.1488,0.591
1695051782875000,-9.207742,0.615407,3.270182,0.65657,0.1138,0.2091
1695051782882812,-9.212742,0.611407,3.286182,0.65157,0.1098,0.15809
1695051782890625,-9.212742,0.613407,3.277182,0.65657,0.1488,0.1009
1695051782898437,-9.219742,0.602407,3.297182,0.67257,0.1178,0.4109
1695051782906250,-9.214742,0.608407,3.306182,0.65357,0.1438,0.6009
1695051782914062,-9.226742,0.604407,3.311182,0.67157,0.318,0.1109
1695051782921875,-9.239742,0.606407,3.313182,0.65857,0.1008,0.3891
1695051782929687,-9.235742,0.606407,3.317182,0.68757,0.28,0.2609
1695051782937500,-9.235742,0.606407,3.308182,0.71857,0.198,0.5809
1695051782945312,-9.242742,0.599407,3.311182,0.65757,0.48,0.691
1695051782953125,-9.224742,0.597407,3.297182,0.67257,0.152,0.2091
1695051782960937,-9.239742,0.595407,3.306182,0.68857,0.28,0.3791
1695051782968750,-9.233742,0.597407,3.306182,0.70357,0.8,0.591
1695051782976562,-9.221742,0.608407,3.306182,0.71957,0.358,0.909
1695051782984375,-9.223742,0.606407,3.308182,0.65457,0.182,0.391
1695051782992187,-9.221742,0.606407,3.297182,0.67457,0.1028,0.2391
1695051783000000,-9.226742,0.611407,3.295182,0.65757,0.28,0.2191
1695051783007812,-9.219742,0.604407,3.297182,0.67357,0.28,0.3791
1695051783015625,-9.217742,0.602407,3.293182,0.67157,0.488,0.491
1695051783023437,-9.217742,0.604407,3.299182,0.65857,0.262,0.2291
1695051783031250,-9.214742,0.602407,3.299182,0.67257,0.338,0.591
1695051783039062,-9.205742,0.611407,3.299182,0.68757,0.158,0.2091
1695051783046875,-9.210742,0.602407,3.299182,0.65657,0.338,0.2191
1695051783054687,-9.216742,0.620407,3.304182,0.70357,0.688,0.2509
1695051783062500,-9.212742,0.624407,3.317182,0.68657,0.172,0.1109
1695051783070312,-9.216742,0.622407,3.317182,0.65657,0.188,0.591
1695051783078125,-9.212742,0.624407,3.311182,0.67057,0.818,0.4309
1695051783085937,-9.223742,0.617407,3.322182,0.65557,0.178,0.4309
1695051783093750,-9.219742,0.624407,3.326182,0.67257,0.178,0.3791
1695051783101562,-9.226742,0.606407,3.329182,0.65557,0.8,0.2709
1695051783109375,-9.223742,0.611407,3.322182,0.67157,0.152,0.491
1695051783117187,-9.219742,0.619407,3.333182,0.68657,0.468,0.2091
1695051783125000,-9.221742,0.620407,3.338182,0.65657,0.538,0.7409
1695051783132812,-9.228742,0.606407,3.329182,0.67157,0.308,0.3591
1695051783140625,-9.221742,0.615407,3.317182,0.68757,0.488,0.491
1695051783148437,-9.216742,0.615407,3.313182,0.67057,0.138,0.1209
1695051783156250,-9.216742,0.615407,3.304182,0.68757,0.322,0.2091
1695051783164062,-9.208742,0.606407,3.297182,0.67257,0.0,0.5391
1695051783171875,-9.203742,0.609407,3.288182,0.70357,0.0,0.3791
1695051783179687,-9.196742,0.607407,3.288182,0.65657,0.302,0.2709
1695051783187500,-9.185742,0.611407,3.288182,0.65257,0.232,0.191
1695051783195312,-9.181742,0.604407,3.299182,0.68657,0.288,0.1991
1695051783203125,-9.180742,0.611407,3.311182,0.71757,0.308,0.491
1695051783210937,-9.201742,0.604407,3.311182,0.65457,0.1088,0.1891
1695051783218750,-9.208742,0.606407,3.313182,0.65657,0.1468,0.591
1695051783226562,-9.225742,0.606407,3.313182,0.68457,0.1208,0.1791
1695051783234375,-9.226742,0.599407,3.324182,0.71957,0.828,0.691
1695051783242187,-9.232742,0.601407,3.333182,0.68557,0.1438,0.4409
1695051783250000,-9.219742,0.604407,3.335182,0.65257,0.1058,0.3009
1695051783257812,-9.226742,0.602407,3.320182,0.67057,0.308,0.2809
1695051783265625,-9.217742,0.602407,3.326182,0.65557,0.502,0.3591
1695051783273437,-9.223742,0.604407,3.351182,0.67057,0.1642,0.3591
1695051783281250,-9.233742,0.608407,3.410182,0.68957,0.1072,0.2291
1695051783289062,-9.196742,0.617407,3.401182,0.76257,0.692,0.2809
1695051783296875,-9.169742,0.642407,3.254182,0.85857,0.1438,0.2609
1695051783304687,-9.189742,0.642407,3.252182,0.68757,0.828,0.1009
1695051783312500,-9.185742,0.627407,3.351182,0.68557,0.328,0.5909
1695051783320312,-9.201742,0.615407,3.306182,0.65557,0.1148,0.4309
1695051783328125,-9.228742,0.601407,3.295182,0.66957,0.1728,0.291
1695051783335937,-9.230742,0.613407,3.389182,0.65657,0.488,0.2091
1695051783343750,-9.203742,0.606407,3.450182,0.65657,0.482,0.2091
1695051783351562,-9.199742,0.584407,3.412182,0.70457,0.298,0.11691
1695051783359375,-9.181742,0.589407,3.362182,0.90857,0.1138,0.8891
1695051783367187,-9.185742,0.591407,3.351182,0.90757,0.1298,0.2391
1695051783375000,-9.201742,0.593407,3.351182,0.90657,0.978,0.809
1695051783382812,-9.219742,0.584407,3.356182,0.78257,0.1478,0.2391
1695051783390625,-9.219742,0.591407,3.331182,0.71957,0.1958,0.691
1695051783398437,-9.217742,0.588407,3.315182,0.65757,0.2778,0.1009
1695051783406250,-9.208742,0.589407,3.333182,0.67057,0.2108,0.7509
1695051783414062,-9.192742,0.595407,3.347182,0.65657,0.1468,0.591
1695051783421875,-9.190742,0.600407,3.340182,0.67357,0.1488,0.2291
1695051783429687,-9.199742,0.609407,3.329182,0.65757,0.1828,0.2509
1695051783437500,-9.183742,0.611407,3.306182,0.65457,0.1568,0.291
1695051783445312,-9.181742,0.613407,3.311182,0.65657,0.1648,0.2609
1695051783453125,-9.171742,0.622407,3.320182,0.66957,0.1948,0.9109
1695051783460937,-9.176742,0.616407,3.322182,0.65357,0.1308,0.15509
1695051783468750,-9.187742,0.620407,3.326182,0.61057,0.1978,0.1009
1695051783476562,-9.183742,0.627407,3.331182,0.62357,0.1968,0.7509
1695051783484375,-9.205742,0.629407,3.335182,0.59257,0.1798,0.5909
1695051783492187,-9.209742,0.637407,3.333182,0.63957,0.2288,0.10709
1695051783500000,-9.212742,0.637407,3.349182,0.55957,0.1618,0.12509
1695051783507812,-9.223742,0.635407,3.342182,0.66957,0.1488,0.15409
1695051783515625,-9.216742,0.635407,3.333182,0.60757,0.1308,0.7509
1695051783523437,-9.225742,0.626407,3.342182,0.64057,0.1358,0.10509
1695051783531250,-9.225742,0.626407,3.349182,0.67157,0.1138,0.2709
1695051783539062,-9.218742,0.633407,3.360182,0.65457,0.1288,0.4309
1695051783546875,-9.221742,0.619407,3.349182,0.67057,0.1158,0.9009
1695051783554687,-9.221742,0.624407,3.360182,0.67357,0.1338,0.2291
1695051783562500,-9.212742,0.617407,3.353182,0.78057,0.958,0.2609
1695051783570312,-9.208742,0.618407,3.344182,0.70457,0.1188,0.4009
1695051783578125,-9.210742,0.615407,3.351182,0.65857,0.898,0.2409
1695051783585937,-9.212742,0.606407,3.347182,0.65657,0.978,0.491
1695051783593750,-9.201742,0.615407,3.356182,0.75057,0.28,0.909
1695051783601562,-9.205742,0.620407,3.353182,0.70657,0.72,0.2491
1695051783609375,-9.203742,0.611407,3.360182,0.68657,0.352,0.3591
1695051783617187,-9.198742,0.613407,3.351182,0.74757,0.42,0.1209
1695051783625000,-9.203742,0.611407,3.356182,0.76457,0.172,0.1009
1695051783632812,-9.208742,0.606407,3.383182,0.73457,0.0,0.591
1695051783640625,-9.201742,0.607407,3.376182,0.68957,0.282,0.2291
1695051783648437,-9.185742,0.620407,3.398182,0.68557,0.618,0.4409
1695051783656250,-9.165742,0.638407,3.376182,0.57957,0.698,0.591
1695051783664062,-9.158742,0.631407,3.302182,0.68657,0.288,0.1991
1695051783671875,-9.176742,0.638407,3.333182,0.65457,0.798,0.2809
1695051783679687,-9.205742,0.640407,3.376182,0.67057,0.488,0.4309
1695051783687500,-9.214742,0.637407,3.383182,0.65657,0.1508,0.5709
1695051783695312,-9.214742,0.640407,3.365182,0.67157,0.1508,0.7309
1695051783703125,-9.208742,0.629407,3.367182,0.66157,0.1258,0.2591
1695051783710937,-9.203742,0.629407,3.360182,0.66957,0.308,0.6009
1695051783718750,-9.196742,0.624407,3.356182,0.65657,0.28,0.2609
1695051783726562,-9.200742,0.637407,3.351182,0.67157,0.158,0.2091
1695051783734375,-9.196742,0.646407,3.338182,0.65457,0.352,0.391
1695051783742187,-9.187742,0.631407,3.347182,0.67257,0.28,0.2191
1695051783750000,-9.180742,0.627407,3.344182,0.63757,0.542,0.191
1695051783757812,-9.173742,0.631407,3.340182,0.65257,0.72,0.191
1695051783765625,-9.171742,0.633407,3.338182,0.67057,0.182,0.1991
1695051783773437,-9.174742,0.629407,3.367182,0.65657,0.8,0.3691
1695051783781250,-9.176742,0.642407,3.371182,0.67157,0.152,0.491
1695051783789062,-9.182742,0.638407,3.378182,0.65857,0.498,0.8591
1695051783796875,-9.191742,0.638407,3.389182,0.67257,0.358,0.591
1695051783804687,-9.207742,0.640407,3.383182,0.65957,0.78,0.5591
1695051783812500,-9.203742,0.633407,3.401182,0.69157,0.878,0.5591
1695051783820312,-9.203742,0.633407,3.419182,0.71957,0.358,0.909
1695051783828125,-9.203742,0.631407,3.405182,0.67157,0.22,0.3591
1695051783835937,-9.203742,0.629407,3.403182,0.78057,0.172,0.591
1695051783843750,-9.205742,0.624407,3.398182,0.75257,0.142,0.8691
1695051783851562,-9.199742,0.624407,3.385182,0.69057,0.58,0.3991
1695051783859375,-9.185742,0.626407,3.387182,0.73157,0.242,0.1891
1695051783867187,-9.185742,0.625407,3.387182,0.65857,0.38,0.5491
1695051783875000,-9.185742,0.622407,3.392182,0.70457,0.1158,0.3891
1695051783882812,-9.190742,0.627407,3.380182,0.65957,0.408,0.2391
1695051783890625,-9.196742,0.627407,3.378182,0.70657,0.1038,0.5691
1695051783898437,-9.201742,0.633407,3.392182,0.65957,0.348,0.10291
1695051783906250,-9.187742,0.622407,3.389182,0.70257,0.42,0.6791
1695051783914062,-9.187742,0.625407,3.394182,0.65957,0.102,0.7091
1695051783921875,-9.178742,0.631407,3.380182,0.69057,0.1188,0.2391
1695051783929687,-9.180742,0.624407,3.380182,0.70257,0.172,0.1109
1695051783937500,-9.180742,0.620407,3.383182,0.70357,0.8,0.591
1695051783945312,-9.178742,0.631407,3.380182,0.65757,0.358,0.2191
1695051783953125,-9.176742,0.625407,3.387182,0.67257,0.178,0.3791
1695051783960937,-9.181742,0.618407,3.385182,0.70557,0.858,0.791
1695051783968750,-9.185742,0.622407,3.385182,0.70057,0.258,0.291
1695051783976562,-9.196742,0.626407,3.385182,0.75057,0.1138,0.2291
1695051783984375,-9.189742,0.622407,3.407182,0.68657,0.958,0.491
1695051783992187,-9.198742,0.622407,3.410182,0.65757,0.152,0.5291
1695051784000000,-9.205742,0.617407,3.403182,0.73657,0.988,0.8691
1695051784007812,-9.201742,0.617407,3.398182,0.71857,0.158,0.491
1695051784015625,-9.194742,0.613407,3.414182,0.65657,0.178,0.2091
1695051784023437,-9.183742,0.618407,3.401182,0.70457,0.848,0.691
1695051784031250,-9.176742,0.607407,3.380182,0.74957,0.468,0.491
1695051784039062,-9.167742,0.611407,3.367182,0.76657,0.0,0.5491
1695051784046875,-9.160742,0.620407,3.369182,0.67357,0.988,0.6991
1695051784054687,-9.154742,0.623407,3.374182,0.70657,0.1518,0.3991
1695051784062500,-9.156742,0.623407,3.378182,0.73857,0.1018,0.8891
1695051784070312,-9.158742,0.618407,3.396182,0.81557,0.1808,0.5691
1695051784078125,-9.174742,0.623407,3.394182,0.73957,0.2548,0.1091
1695051784085937,-9.178742,0.613407,3.394182,0.73557,0.1798,0.2291
1695051784093750,-9.185742,0.611407,3.398182,0.67257,0.1308,0.591
1695051784101562,-9.185742,0.609407,3.410182,0.73657,0.1978,0.2391
1695051784109375,-9.196742,0.609407,3.396182,0.72057,0.1988,0.809
1695051784117187,-9.196742,0.615407,3.405182,0.68757,0.1778,0.591
1695051784125000,-9.201742,0.611407,3.398182,0.72057,0.1648,0.2291
1695051784132812,-9.205742,0.608407,3.401182,0.65557,0.1598,0.3691
1695051784140625,-9.194742,0.615407,3.412182,0.67057,0.1108,0.1209
1695051784148437,-9.187742,0.611407,3.398182,0.65757,0.1668,0.691
1695051784156250,-9.201742,0.618407,3.414182,0.70657,0.1208,0.2491
1695051784164062,-9.201742,0.611407,3.468182,0.78257,0.518,0.809
