time,Acceleration X (m/s^2),Acceleration Y (m/s^2),Acceleration Z (m/s^2),Angular Velocity X (rad/s),Angular Velocity Y (rad/s),Angular Velocity Z (rad/s)
1700754126359375,-9.435358,-0.63532,,,,
1700754126367187,-9.395358,0.877554,0.62632,0.79784,0.40065,0.144889
1700754126375000,-9.404358,0.884554,0.64232,0.77584,0.27465,0.143489
1700754126382812,-9.420358,0.862554,0.64932,0.75184,0.20565,0.138389
1700754126390625,-9.448358,0.820554,0.64932,0.69384,0.20265,0.133489
1700754126398437,-9.475358,0.772554,0.65132,0.69484,0.17065,0.130289
1700754126414062,-9.484358,0.702554,0.67632,0.68784,0.4765,0.112889
1700754126421875,-9.542358,0.667554,0.74432,0.73884,0.5335,0.114189
1700754126429687,-9.605358,0.643554,0.76832,0.77184,0.3635,0.104489
1700754126437500,-9.665358,0.622554,0.77732,0.85184,0.8535,0.97989
1700754126460937,-9.827358,0.487554,0.84932,0.105984,0.14365,0.80089
1700754126468750,-9.854358,0.455554,0.81132,0.114384,0.19865,0.88389
1700754126476562,-9.842358,0.438554,0.78932,0.122884,0.29165,0.92889
1700754126484375,-9.822358,0.434554,0.76432,0.128884,0.29065,0.105689
1700754126492187,-9.818358,0.463554,0.75732,0.121684,0.27965,0.112489
1700754126500000,-9.794358,0.489554,0.78432,0.120984,0.14165,0.124989
1700754126507812,-9.830358,0.494554,0.75032,0.117084,0.7965,0.136389
1700754126515625,-9.801358,0.511554,0.81132,0.119484,0.2635,0.144089
1700754126523437,-9.774358,0.553554,0.84032,0.142884,0.7335,0.140589
1700754126531250,-9.738358,0.537554,0.82032,0.134884,0.8835,0.142389
1700754126539062,-9.727358,0.541554,0.75132,0.119484,0.9735,0.147689
1700754126546875,-9.716358,0.556554,0.69832,0.116284,0.12235,0.140889
1700754126554687,-9.633358,0.595554,0.66532,0.97784,0.8235,0.146289
1700754126562500,-9.528358,0.629554,0.68332,0.92284,0.13535,0.136489
1700754126570312,-9.448358,0.665554,0.71232,0.75884,0.20535,0.126789
1700754126578125,-9.419358,0.665554,0.74632,0.65884,0.20135,0.127089
1700754126585937,-9.401358,0.656554,0.73732,0.61484,0.23335,0.114189
1700754126593750,-9.351358,0.637554,0.73032,0.49184,0.28435,0.112689
1700754126601562,-9.267358,0.612554,0.75032,0.42884,0.34835,0.106289
1700754126609375,-9.219358,0.582554,0.81632,0.44184,0.57335,0.98289
1700754126617187,-9.275358,0.545554,0.91332,0.46084,0.72035,0.86889
1700754126625000,-9.409358,0.487554,-1.32,0.72184,0.91835,0.62089
1700754126632812,-9.586358,0.428554,-1.3932,0.77784,0.110135,0.53689
1700754126640625,-9.749358,0.373554,-1.8232,0.92784,0.122735,0.50489
1700754126648437,-9.892358,0.331554,-1.12032,0.90084,0.119535,0.37589
1700754126656250,-9.979358,0.276554,-1.12432,0.95284,0.121435,0.34189
1700754126664062,-10.26358,0.237554,-1.12032,0.96284,0.126035,0.43889
1700754126671875,-10.59358,0.195554,-1.15632,0.77684,0.118235,0.52089
1700754126679687,-10.51358,0.160554,-1.21532,0.69384,0.114635,0.50689
1700754126687500,-9.965358,0.205554,-1.24832,0.66884,0.102135,0.55389
1700754126695312,-9.882358,0.273554,-1.27832,0.48184,0.86535,0.57789
1700754126703125,-9.816358,0.369554,-1.30432,0.44384,0.74035,0.52789
1700754126710937,-9.771358,0.486554,-1.36332,0.29284,0.71035,0.43189
1700754126718750,-9.734358,0.576554,-1.37232,0.26084,0.72535,0.36789
1700754126726562,-9.699358,0.642554,-1.40132,0.22484,0.70435,0.30689
1700754126734375,-9.644358,0.677554,-1.42432,0.19684,0.68935,0.22589
1700754126742187,-9.614358,0.685554,-1.43932,0.19884,0.70535,0.16089
1700754126750000,-9.605358,0.661554,-1.48232,0.21884,0.70635,0.1489
1700754126757812,-9.614358,0.628554,-1.49632,0.31084,0.75235,0.4911
1700754126765625,-9.624358,0.597554,-1.50932,0.34784,0.72135,0.14711
1700754126773437,-9.622358,0.570554,-1.50332,0.36184,0.70435,0.14611
1700754126781250,-9.608358,0.541554,-1.51432,0.28684,0.82035,0.16311
1700754126789062,-9.580358,0.514554,-1.49632,0.20284,0.85035,0.8111
1700754126796875,-9.612358,0.512554,-1.50032,0.22184,0.80435,0.9811
1700754126804687,-9.650358,0.510554,-1.54332,0.23984,0.83835,0.6711
1700754126812500,-9.715358,0.514554,-1.56632,0.22384,0.82335,0.2889
1700754126820312,-9.785358,0.512554,-1.59032,0.3784,0.72735,0.0
1700754126828125,-9.803358,0.515554,-1.61332,0.5016,0.64035,0.5189
1700754126835937,-9.792358,0.515554,-1.63532,0.15716,0.59335,0.8389
1700754126843750,-9.781358,0.533554,-1.67232,0.27116,0.41135,0.5589
1700754126851562,-9.767358,0.541554,-1.68332,0.30316,0.32735,0.2311
1700754126859375,-9.738358,0.570554,-1.70132,0.42916,0.14735,0.5211
1700754126867187,-9.714358,0.576554,-1.72332,0.49516,0.9735,0.3411
1700754126875000,-9.692358,0.600554,-1.72532,0.55016,0.5965,0.411
1700754126882812,-9.665358,0.611554,-1.73532,0.54616,0.19865,0.1511
1700754126890625,-9.634358,0.606554,-1.74432,0.66316,0.14365,0.1711
1700754126898437,-9.631358,0.606554,-1.74132,0.73116,0.26165,0.189
1700754126906250,-9.588358,0.576554,-1.73932,0.79316,0.35765,0.3489
1700754126914062,-9.559358,0.567554,-1.72132,0.82416,0.29265,0.3489
1700754126921875,-9.561358,0.551554,-1.73032,0.91816,0.35765,0.2089
1700754126929687,-9.592358,0.536554,-1.74432,0.99716,0.34065,0.5389
1700754126937500,-9.643358,0.522554,-1.75532,0.103116,0.47365,0.3989
1700754126945312,-9.697358,0.478554,-1.74432,0.104516,0.48865,0.5489
1700754126953125,-9.739358,0.432554,-1.75532,0.106716,0.67065,0.12289
1700754126960937,-9.763358,0.399554,-1.74432,0.104816,0.79765,0.15389
1700754126968750,-9.770358,0.388554,-1.70332,0.110916,0.81265,0.16989
1700754126976562,-9.763358,0.375554,-1.67432,0.108016,0.99265,0.25089
1700754126984375,-9.753358,0.366554,-1.64032,0.105816,0.111265,0.30289
1700754126992187,-9.718358,0.376554,-1.59332,0.107016,0.122265,0.36589
1700754127000000,-9.689358,0.391554,-1.58632,0.105516,0.120665,0.38189
1700754127007812,-9.689358,0.400554,-1.57032,0.107716,0.135665,0.46489
1700754127015625,-9.718358,0.418554,-1.58132,0.93316,0.141965,0.49489
1700754127023437,-9.737358,0.432554,-1.55232,0.83416,0.153165,0.39689
1700754127031250,-9.705358,0.411554,-1.53232,0.81616,0.157765,0.45989
1700754127039062,-9.713358,0.383554,-1.53932,0.80716,0.158165,0.49389
1700754127046875,-9.778358,0.375554,-1.44032,0.83116,0.160365,0.51289
1700754127054687,-9.819358,0.389554,-1.38132,0.74716,0.163265,0.52689
1700754127062500,-9.810358,0.380554,-1.39732,0.68416,0.159765,0.60589
1700754127070312,-9.776358,0.380554,-1.35932,0.61016,0.156765,0.63789
1700754127078125,-9.765358,0.364554,-1.21032,0.79516,0.159565,0.76689
1700754127085937,-9.769358,0.333554,-1.11532,0.81316,0.167865,0.78489
1700754127093750,-9.687358,0.305554,-1.12232,0.85316,0.157165,0.73889
1700754127101562,-9.613358,0.291554,-1.15432,0.68616,0.151765,0.65389
1700754127109375,-9.536358,0.263554,-1.14032,0.71716,0.146865,0.63789
1700754127117187,-9.507358,0.265554,-1.9732,0.84216,0.143565,0.65489
1700754127125000,-9.482358,0.282554,-1.3732,0.79716,0.142065,0.63889
1700754127132812,-9.447358,0.328554,0.98732,0.92816,0.128265,0.65189
1700754127140625,-9.448358,0.379554,-1.232,0.97216,0.126465,0.60389
1700754127148437,-9.480358,0.415554,-1.4332,0.100816,0.127065,0.44589
1700754127156250,-9.561358,0.425554,-1.8132,0.105616,0.122065,0.50989
1700754127164062,-9.658358,0.411554,-1.7232,0.107016,0.117165,0.46189
1700754127171875,-9.736358,0.401554,-1.6132,0.105716,0.115665,0.51089
1700754127179687,-9.776358,0.379554,-1.3232,0.106616,0.126665,0.49289
1700754127187500,-9.763358,0.382554,0.96032,0.119716,0.122065,0.54389
1700754127195312,-9.747358,0.381554,0.90832,0.126116,0.120365,0.57689
1700754127203125,-9.706358,0.379554,0.87032,0.133016,0.120765,0.59589
1700754127210937,-9.646358,0.369554,0.86132,0.130916,0.122165,0.54589
1700754127218750,-9.591358,0.364554,0.85032,0.133116,0.120965,0.57989
1700754127226562,-9.521358,0.336554,0.84332,0.132516,0.122365,0.46589
1700754127234375,-9.440358,0.326554,0.81432,0.130916,0.117565,0.38589
1700754127242187,-9.377358,0.309554,0.77132,0.132116,0.107465,0.38389
1700754127250000,-9.343358,0.289554,0.71732,0.120716,0.95965,0.33289
1700754127257812,-9.287358,0.284554,0.65432,0.124516,0.93265,0.27089
1700754127265625,-9.233358,0.312554,0.63132,0.119616,0.91465,0.26989
1700754127273437,-9.171358,0.357554,0.59332,0.115716,0.76465,0.17089
1700754127281250,-9.163358,0.411554,0.64032,0.113716,0.69065,0.18989
1700754127289062,-9.316358,0.426554,0.75332,0.103216,0.58665,0.13589
1700754127296875,-9.583358,0.415554,0.83632,0.79516,0.45565,0.8389
1700754127304687,-9.828358,0.403554,0.83832,0.50216,0.38765,0.11511
1700754127312500,-10.54358,0.362554,0.80932,0.29016,0.44265,0.17811
1700754127320312,-10.208358,0.278554,0.78232,0.6516,0.39165,0.24711
1700754127328125,-10.263358,0.161554,0.73532,0.5284,0.33165,0.23011
1700754127335937,-10.228358,0.99554,0.67032,0.7384,0.37865,0.31211
1700754127343750,-10.111358,0.83554,0.67932,0.5684,0.26365,0.23211
1700754127351562,-10.64358,0.98554,0.64232,0.14384,0.23865,0.4411
1700754127359375,-9.983358,0.99554,0.68732,0.17384,0.20765,0.6011
1700754127367187,-9.910358,0.144554,0.77532,0.24484,0.27665,0.1011
1700754127375000,-9.884358,0.233554,0.79332,0.29684,0.35465,0.389
1700754127382812,-9.868358,0.330554,0.77332,0.25984,0.47365,0.4111
1700754127390625,-9.858358,0.461554,0.73232,0.25984,0.55665,0.18411
1700754127398437,-9.844358,0.556554,0.71732,0.24584,0.65565,0.31211
1700754127406250,-9.818358,0.620554,0.66732,0.23484,0.80065,0.39311
1700754127414062,-9.805358,0.673554,0.66032,0.20084,0.83665,0.45511
1700754127421875,-9.792358,0.688554,0.65132,0.184,0.91765,0.63011
1700754127429687,-9.751358,0.664554,0.65632,0.4916,0.93765,0.69211
1700754127437500,-9.685358,0.605554,0.62732,0.4416,0.91865,0.77411
1700754127445312,-9.635358,0.551554,0.61832,0.2616,0.85365,0.83911
1700754127453125,-9.634358,0.506554,0.63532,0.5884,0.75365,0.93911
1700754127460937,-9.636358,0.491554,0.63332,0.2116,0.78565,0.90511
1700754127468750,-9.580358,0.508554,0.65132,0.2616,0.87165,0.95111
1700754127476562,-9.554358,0.551554,0.65832,0.13884,0.86665,0.98811
1700754127484375,-9.575358,0.605554,0.68332,0.22284,0.81365,0.97511
1700754127492187,-9.639358,0.646554,0.73532,0.24584,0.80465,0.100411
1700754127500000,-9.725358,0.690554,0.78432,0.29384,0.77165,0.103711
1700754127507812,-9.822358,0.700554,0.81132,0.35384,0.75665,0.102111
1700754127515625,-9.880358,0.694554,0.82232,0.28884,0.77565,0.108311
1700754127523437,-9.909358,0.675554,0.80732,0.34884,0.84165,0.100311
1700754127531250,-9.884358,0.672554,0.80232,0.36784,0.85365,0.87611
1700754127539062,-9.801358,0.664554,0.78932,0.34684,0.90465,0.79411
1700754127546875,-9.733358,0.665554,0.75932,0.40584,0.88765,0.61811
1700754127554687,-9.684358,0.676554,0.73232,0.37784,0.85265,0.57111
1700754127562500,-9.673358,0.693554,0.73532,0.34084,0.90365,0.50411
1700754127570312,-9.694358,0.727554,0.72332,0.36684,0.97165,0.45411
1700754127578125,-9.684358,0.798554,0.71432,0.37184,0.88565,0.39311
1700754127585937,-9.642358,0.848554,0.70732,0.41884,0.96765,0.42511
1700754127593750,-9.597358,0.887554,0.70532,0.38684,0.95265,0.45611
1700754127601562,-9.566358,0.887554,0.69432,0.45184,0.86765,0.39411
1700754127609375,-9.552358,0.884554,0.69432,0.46684,0.80365,0.41011
1700754127617187,-9.559358,0.865554,0.68332,0.52684,0.69065,0.33111
1700754127625000,-9.565358,0.834554,0.68732,0.57184,0.70865,0.33011
1700754127632812,-9.576358,0.812554,0.69632,0.56784,0.69465,0.34511
1700754127640625,-9.641358,0.788554,0.69432,0.55884,0.67465,0.34711
1700754127648437,-9.722358,0.792554,0.70332,0.73084,0.52665,0.30211
1700754127656250,-9.784358,0.786554,0.71032,0.63084,0.59465,0.20211
1700754127664062,-9.821358,0.784554,0.69032,0.66484,0.60865,0.17211
1700754127671875,-9.834358,0.787554,0.66532,0.53784,0.59165,0.9011
1700754127679687,-9.841358,0.798554,0.65632,0.45984,0.63865,0.689
1700754127687500,-9.848358,0.809554,0.63332,0.44484,0.70265,0.3889
1700754127695312,-9.844358,0.829554,0.64232,0.46084,0.69965,0.18289
1700754127703125,-9.842358,0.829554,0.66532,0.37884,0.73365,0.24889
1700754127710937,-9.864358,0.814554,0.68532,0.35884,0.75165,0.26689
1700754127718750,-9.875358,0.807554,0.70732,0.29384,0.81765,0.36489
1700754127726562,-9.895358,0.794554,0.72632,0.21684,0.91565,0.28589
1700754127734375,-9.877358,0.772554,0.73732,0.16784,0.99865,0.27089
1700754127742187,-9.832358,0.755554,0.72532,0.17284,0.101165,0.26989
1700754127750000,-9.757358,0.757554,0.71232,0.15384,0.93065,0.38289
1700754127757812,-9.701358,0.781554,0.69032,0.13084,0.95165,0.36889
1700754127765625,-9.654358,0.782554,0.66332,0.5384,0.90165,0.38489
1700754127773437,-9.607358,0.786554,0.65632,0.16484,0.88465,0.36789
1700754127781250,-9.582358,0.792554,0.64732,0.3884,0.83565,0.38489
1700754127789062,-9.569358,0.781554,0.63632,0.12984,0.82265,0.36889
1700754127796875,-9.584358,0.757554,0.65132,0.11484,0.85365,0.38489
1700754127804687,-9.621358,0.708554,0.65832,0.16084,0.83865,0.36889
1700754127812500,-9.663358,0.656554,0.64932,0.19784,0.81865,0.38189
1700754127820312,-9.690358,0.612554,0.62232,0.15984,0.77465,0.36889
1700754127828125,-9.693358,0.563554,0.58432,0.17384,0.75765,0.41689
1700754127835937,-9.679358,0.541554,0.54332,0.19084,0.70765,0.49589
1700754127843750,-9.652358,0.531554,0.54132,0.17684,0.70565,0.47989
1700754127851562,-9.639358,0.502554,0.55232,0.26484,0.68165,0.58689
1700754127859375,-9.649358,0.469554,0.58432,0.20784,0.67165,0.62289
1700754127867187,-9.638358,0.462554,0.58832,0.19684,0.69965,0.65389
1700754127875000,-9.580358,0.466554,0.64532,0.22584,0.66865,0.66989
1700754127882812,-9.542358,0.498554,0.66732,0.20484,0.62165,0.78389
1700754127890625,-9.597358,0.539554,0.59032,0.21184,0.66665,0.70189
1700754127898437,-9.622358,0.575554,0.61832,0.17784,0.62065,0.65489
1700754127906250,-9.615358,0.562554,0.69932,0.21184,0.53765,0.66889
1700754127914062,-9.649358,0.567554,0.69632,0.9984,0.47265,0.68689
1700754127921875,-9.687358,0.554554,0.62432,0.6884,0.50565,0.67089
1700754127929687,-9.738358,0.526554,0.58432,0.11484,0.50765,0.60689
1700754127937500,-9.743358,0.532554,0.60432,0.20484,0.48465,0.50589
1700754127945312,-9.713358,0.510554,0.66932,0.18184,0.50665,0.47689
1700754127953125,-9.742358,0.491554,0.74232,0.22384,0.43065,0.38189
1700754127960937,-9.825358,0.494554,0.75932,0.23384,0.50565,0.36289
1700754127968750,-9.899358,0.504554,0.71432,0.42284,0.50665,0.32889
1700754127976562,-9.902358,0.522554,0.67432,0.45284,0.45865,0.27989
1700754127984375,-9.880358,0.537554,0.67832,0.45184,0.44365,0.26489
1700754127992187,-9.844358,0.539554,0.68532,0.49884,0.44365,0.26389
1700754128000000,-9.816358,0.512554,0.70332,0.60784,0.39665,0.21489
1700754128007812,-9.809358,0.474554,0.71032,0.70484,0.32865,0.25989
1700754128015625,-9.804358,0.467554,0.71732,0.68384,0.28265,0.26189
1700754128023437,-9.795358,0.462554,0.71932,0.70384,0.23165,0.27689
1700754128031250,-9.760358,0.493554,0.71432,0.68884,0.36065,0.26089
1700754128039062,-9.693358,0.541554,0.72332,0.70684,0.32665,0.29189
1700754128046875,-9.631358,0.568554,0.70132,0.72284,0.37465,0.33989
1700754128054687,-9.598358,0.605554,0.70132,0.70984,0.42265,0.25889
1700754128062500,-9.573358,0.621554,0.72632,0.73584,0.32865,0.27589
1700754128070312,-9.528358,0.620554,0.73032,0.68984,0.31165,0.26089
1700754128078125,-9.532358,0.609554,0.72632,0.70184,0.29865,0.22889
1700754128085937,-9.557358,0.596554,0.73932,0.69084,0.31165,0.17989
1700754128093750,-9.606358,0.579554,0.75532,0.75884,0.21165,0.16089
1700754128101562,-9.653358,0.547554,0.76632,0.70584,0.21565,0.14789
1700754128109375,-9.664358,0.547554,0.75132,0.69784,0.17265,0.8589
1700754128117187,-9.700358,0.534554,0.76032,0.69084,0.16765,0.3489
1700754128125000,-9.745358,0.537554,0.78232,0.73584,0.21865,0.5189
1700754128132812,-9.778358,0.544554,0.79832,0.80184,0.15165,0.189
1700754128140625,-9.794358,0.536554,0.79832,0.75184,0.25165,0.1989
1700754128148437,-9.776358,0.531554,0.82032,0.72784,0.32765,0.189
1700754128156250,-9.743358,0.541554,0.82732,0.73984,0.36365,0.289
1700754128164062,-9.709358,0.552554,0.82332,0.75684,0.42765,0.289
1700754128171875,-9.689358,0.567554,0.82732,0.69284,0.49265,0.3589
1700754128179687,-9.691358,0.585554,0.84332,0.70084,0.41665,0.7089
1700754128187500,-9.696358,0.598554,0.85232,0.68184,0.37565,0.3389
1700754128195312,-9.712358,0.625554,0.80932,0.69184,0.24865,0.8389
1700754128203125,-9.703358,0.621554,0.76432,0.65984,0.21565,0.13189
1700754128210937,-9.663358,0.642554,0.83232,0.71984,0.20065,0.17989
1700754128218750,-9.649358,0.642554,0.82932,0.74684,0.17165,0.11689
1700754128226562,-9.643358,0.620554,0.80732,0.69184,0.18265,0.11489
1700754128234375,-9.670358,0.627554,0.80032,0.70184,0.17065,0.10089
1700754128242187,-9.701358,0.634554,0.82932,0.72184,0.18465,0.8289
1700754128250000,-9.751358,0.641554,0.84332,0.69484,0.24765,0.3489
1700754128257812,-9.798358,0.640554,0.83632,0.84684,0.31565,0.3489
1700754128265625,-9.836358,0.629554,0.82332,0.81884,0.31465,0.4611
1700754128273437,-9.840358,0.605554,0.80732,0.82584,0.38365,0.8489
1700754128281250,-9.853358,0.585554,0.80232,0.89784,0.37665,0.11289
1700754128289062,-9.855358,0.559554,0.80232,0.84884,0.34565,0.14589
1700754128296875,-9.844358,0.554554,0.78232,0.80384,0.44065,0.16189
1700754128304687,-9.817358,0.549554,0.78032,0.84684,0.42665,0.21089
1700754128312500,-9.808358,0.551554,0.79332,0.71884,0.31365,0.26089
1700754128320312,-9.790358,0.578554,0.77132,0.68584,0.36365,0.26189
1700754128328125,-9.766358,0.620554,0.75532,0.69784,0.43065,0.29489
1700754128335937,-9.724358,0.641554,0.75332,0.65284,0.42865,0.29489
1700754128343750,-9.673358,0.671554,0.72832,0.52084,0.42365,0.22989
1700754128351562,-9.632358,0.682554,0.72132,0.46984,0.39365,0.23089
1700754128359375,-9.612358,0.688554,0.73532,0.44784,0.36465,0.28189
1700754128367187,-9.623358,0.677554,0.75732,0.33384,0.34165,0.18289
1700754128375000,-9.621358,0.690554,0.77732,0.19284,0.27765,0.11989
1700754128382812,-9.628358,0.679554,0.79832,0.20784,0.32665,0.11989
1700754128390625,-9.637358,0.677554,0.80732,0.12984,0.32665,0.10489
1700754128398437,-9.637358,0.673554,0.82732,0.20884,0.31065,0.10389
1700754128406250,-9.632358,0.653554,0.82732,0.17484,0.32965,0.4189
1700754128414062,-9.636358,0.651554,0.83432,0.16384,0.26165,0.789
1700754128421875,-9.683358,0.615554,0.85432,0.10784,0.32165,0.2189
1700754128429687,-9.723358,0.601554,0.87032,0.11484,0.36065,0.989
1700754128437500,-9.766358,0.579554,0.87932,0.11184,0.42765,0.2689
1700754128445312,-9.781358,0.558554,0.87932,0.15384,0.39865,0.1189
1700754128453125,-9.796358,0.536554,0.87232,0.12384,0.46365,0.411
1700754128460937,-9.800358,0.518554,0.85932,0.15384,0.53065,0.5111
1700754128468750,-9.782358,0.516554,0.84532,0.13484,0.53165,0.211
1700754128476562,-9.776358,0.517554,0.83232,0.15984,0.47565,0.4189
1700754128484375,-9.763358,0.537554,0.82932,0.12484,0.54365,0.2789
1700754128492187,-9.734358,0.572554,0.84132,0.12184,0.60865,0.14189
1700754128500000,-9.724358,0.619554,0.84332,0.20084,0.47565,0.26789
1700754128507812,-9.722358,0.654554,0.84932,0.19084,0.57065,0.23489
1700754128515625,-9.720358,0.683554,0.84332,0.20084,0.59065,0.23689
1700754128523437,-9.700358,0.716554,0.81632,0.19984,0.49265,0.28389
1700754128531250,-9.696358,0.727554,0.79832,0.18484,0.57465,0.25289
1700754128539062,-9.716358,0.703554,0.78032,0.19884,0.64165,0.18889
1700754128546875,-9.734358,0.688554,0.77132,0.15884,0.58865,0.15489
1700754128554687,-9.744358,0.664554,0.74632,0.12184,0.60865,0.15789
1700754128562500,-9.766358,0.615554,0.74832,0.19984,0.60865,0.17289
1700754128570312,-9.784358,0.582554,0.75332,0.18884,0.68865,0.9189
1700754128578125,-9.799358,0.545554,0.73532,0.19984,0.65765,0.12489
1700754128585937,-9.792358,0.533554,0.74232,0.21584,0.70765,0.10889
1700754128593750,-9.774358,0.535554,0.73532,0.18984,0.67065,0.13889
1700754128601562,-9.749358,0.541554,0.73932,0.23584,0.65365,0.20289
1700754128609375,-9.720358,0.550554,0.74832,0.20184,0.62265,0.23589
1700754128617187,-9.703358,0.574554,0.73232,0.24084,0.64965,0.23289
1700754128625000,-9.692358,0.603554,0.74132,0.26584,0.63765,0.26689
1700754128632812,-9.683358,0.611554,0.75532,0.16884,0.67065,0.30089
1700754128640625,-9.699358,0.627554,0.74432,0.20684,0.66765,0.28289
1700754128648437,-9.726358,0.637554,0.73232,0.18584,0.62165,0.26789
1700754128656250,-9.737358,0.634554,0.73732,0.20084,0.76965,0.25289
1700754128664062,-9.769358,0.637554,0.75032,0.14484,0.64965,0.34689
1700754128671875,-9.771358,0.633554,0.73732,0.5984,0.70265,0.34989
1700754128679687,-9.769358,0.639554,0.72832,0.2884,0.61965,0.38189
1700754128687500,-9.773358,0.642554,0.70132,0.3416,0.63665,0.36689
1700754128695312,-9.742358,0.639554,0.69232,0.6216,0.69965,0.36689
1700754128703125,-9.722358,0.634554,0.69432,0.5916,0.64865,0.34889
1700754128710937,-9.697358,0.616554,0.70332,0.4216,0.67965,0.38089
1700754128718750,-9.649358,0.611554,0.72332,0.7716,0.69965,0.36689
1700754128726562,-9.638358,0.591554,0.75932,0.6516,0.65265,0.33489
1700754128734375,-9.698358,0.558554,0.69832,0.4416,0.64865,0.39689
1700754128742187,-9.727358,0.534554,0.68132,0.4716,0.70065,0.31889
1700754128750000,-9.717358,0.488554,0.74632,0.3116,0.70065,0.31889
1700754128757812,-9.712358,0.463554,0.74132,0.6816,0.71965,0.36889
1700754128765625,-9.753358,0.457554,0.65632,0.2184,0.68065,0.29989
1700754128773437,-9.764358,0.464554,0.58232,0.684,0.68965,0.36889
1700754128781250,-9.743358,0.471554,0.58032,0.17384,0.71065,0.36889
1700754128789062,-9.735358,0.477554,0.62032,0.18084,0.65565,0.38189
1700754128796875,-9.728358,0.473554,0.65432,0.19284,0.65965,0.30289
1700754128804687,-9.726358,0.508554,0.65832,0.13284,0.70665,0.31889
1700754128812500,-9.725358,0.539554,0.62232,0.1484,0.66765,0.38189
1700754128820312,-9.714358,0.596554,0.60032,0.16016,0.60465,0.30389
1700754128828125,-9.699358,0.629554,0.59032,0.20416,0.61965,0.28789
1700754128835937,-9.670358,0.634554,0.60432,0.22716,0.52565,0.36989
1700754128843750,-9.652358,0.618554,0.61532,0.33616,0.55865,0.30689
1700754128851562,-9.655358,0.572554,0.64032,0.31016,0.54565,0.32489
1700754128859375,-9.657358,0.525554,0.64232,0.35016,0.45865,0.37089
1700754128867187,-9.634358,0.471554,0.65832,0.31916,0.49165,0.35389
1700754128875000,-9.625358,0.462554,0.63332,0.33116,0.42265,0.38489
1700754128882812,-9.627358,0.462554,0.62932,0.31716,0.40965,0.30489
1700754128890625,-9.642358,0.467554,0.63632,0.30416,0.41265,0.25789
1700754128898437,-9.685358,0.460554,0.65832,0.21416,0.40465,0.25289
1700754128906250,-9.737358,0.461554,0.68532,0.12516,0.40865,0.18989
1700754128914062,-9.788358,0.453554,0.70332,0.9316,0.42565,0.15689
1700754128921875,-9.835358,0.428554,0.68132,0.8516,0.41465,0.15989
1700754128929687,-9.838358,0.441554,0.64732,0.4316,0.43965,0.18789
1700754128937500,-9.824358,0.447554,0.63132,0.6016,0.42365,0.20489
1700754128945312,-9.807358,0.463554,0.61332,0.4616,0.44165,0.17289
1700754128953125,-9.787358,0.476554,0.61332,0.6216,0.42565,0.20489
1700754128960937,-9.746358,0.491554,0.60632,0.6416,0.52465,0.17489
1700754128968750,-9.722358,0.504554,0.60932,0.5116,0.55965,0.17489
1700754128976562,-9.695358,0.514554,0.61332,0.6916,0.49465,0.22389
1700754128984375,-9.655358,0.536554,0.60232,0.3216,0.45965,0.15789
1700754128992187,-9.628358,0.535554,0.61332,0.184,0.42565,0.10789
1700754129000000,-9.619358,0.553554,0.62032,0.6116,0.40965,0.12489
1700754129007812,-9.619358,0.557554,0.62432,0.4616,0.39465,0.7689
1700754129015625,-9.624358,0.553554,0.62432,0.4516,0.36365,0.5211
1700754129023437,-9.650358,0.545554,0.63832,0.5916,0.32965,0.3611
1700754129031250,-9.655358,0.542554,0.63332,0.1316,0.34765,0.5211
1700754129039062,-9.632358,0.549554,0.63832,0.1684,0.21765,0.6911
1700754129046875,-9.666358,0.516554,0.59532,0.6516,0.20965,0.8811
1700754129054687,-9.674358,0.494554,0.65132,0.184,0.28165,0.2011
1700754129062500,-9.690358,0.512554,0.73032,0.11684,0.24665,0.5611
1700754129070312,-9.740358,0.490554,0.72832,0.19484,0.16465,0.2511
1700754129078125,-9.805358,0.478554,0.69932,0.18184,0.17965,0.7411
1700754129085937,-9.852358,0.496554,0.69932,0.16784,0.19465,0.4211
1700754129093750,-9.848358,0.503554,0.70532,0.19384,0.18265,0.5611
1700754129101562,-9.816358,0.509554,0.69632,0.33784,0.22965,0.5911
1700754129109375,-9.798358,0.516554,0.70132,0.29284,0.19665,0.13911
1700754129117187,-9.806358,0.529554,0.71032,0.29584,0.24165,0.2811
1700754129125000,-9.785358,0.544554,0.71032,0.35484,0.29365,0.2711
1700754129132812,-9.757358,0.559554,0.72132,0.23084,0.32265,0.5389
1700754129140625,-9.719358,0.581554,0.71432,0.22684,0.39065,0.3989
1700754129148437,-9.669358,0.584554,0.70532,0.24284,0.39065,0.3889
1700754129156250,-9.632358,0.606554,0.70132,0.35884,0.28865,0.3489
1700754129164062,-9.620358,0.606554,0.71632,0.34384,0.28865,0.289
1700754129171875,-9.636358,0.608554,0.73532,0.43484,0.30865,0.2811
1700754129179687,-9.654358,0.608554,0.72532,0.46584,0.38865,0.3589
1700754129187500,-9.669358,0.605554,0.72332,0.45584,0.36265,0.7089
1700754129195312,-9.679358,0.604554,0.72532,0.45184,0.37265,0.2911
1700754129203125,-9.665358,0.598554,0.71932,0.48184,0.37365,0.2811
1700754129210937,-9.674358,0.584554,0.73232,0.51084,0.40865,0.4411
1700754129218750,-9.736358,0.584554,0.74832,0.61484,0.41265,0.5911
1700754129226562,-9.790358,0.562554,0.77332,0.72884,0.45965,0.9411
1700754129234375,-9.828358,0.570554,0.75732,0.68784,0.48065,0.1011
1700754129242187,-9.835358,0.565554,0.73532,0.70984,0.49365,0.4411
1700754129250000,-9.833358,0.577554,0.72832,0.68384,0.45065,0.689
1700754129257812,-9.822358,0.583554,0.72332,0.70784,0.49465,0.489
1700754129265625,-9.786358,0.573554,0.72632,0.65884,0.49365,0.5389
1700754129273437,-9.750358,0.568554,0.71432,0.65784,0.51065,0.11789
1700754129281250,-9.723358,0.568554,0.70532,0.67384,0.47765,0.10189
1700754129289062,-9.700358,0.583554,0.69932,0.65884,0.54365,0.5389
1700754129296875,-9.667358,0.609554,0.70132,0.65284,0.57965,0.7189
1700754129304687,-9.645358,0.640554,0.69632,0.63084,0.55665,0.6889
1700754129312500,-9.643358,0.640554,0.69932,0.59384,0.59365,0.5589
1700754129320312,-9.659358,0.644554,0.70532,0.65984,0.65665,0.8589
1700754129328125,-9.665358,0.640554,0.71432,0.58084,0.54265,0.5489
1700754129335937,-9.679358,0.625554,0.72132,0.60984,0.47865,0.7089
1700754129343750,-9.696358,0.619554,0.70332,0.68684,0.54565,0.2289
1700754129351562,-9.667358,0.620554,0.69432,0.70784,0.55865,0.3689
1700754129359375,-9.625358,0.631554,0.66932,0.69184,0.44365,0.8389
1700754129367187,-9.605358,0.648554,0.66532,0.70884,0.42765,0.3589
1700754129375000,-9.614358,0.670554,0.68132,0.69484,0.46065,0.6011
1700754129382812,-9.653358,0.687554,0.71932,0.68984,0.51165,0.1011
1700754129390625,-9.697358,0.676554,0.73232,0.72384,0.47965,0.14011
1700754129398437,-9.756358,0.674554,0.74632,0.76584,0.47365,0.16011
1700754129406250,-9.823358,0.658554,0.77332,0.83584,0.46265,0.15811
1700754129414062,-9.879358,0.635554,0.76932,0.86484,0.51265,0.12511
1700754129421875,-9.908358,0.637554,0.76832,0.93084,0.55965,0.11111
1700754129429687,-9.890358,0.623554,0.77132,0.96584,0.54065,0.12911
1700754129437500,-9.852358,0.616554,0.78032,0.98184,0.55665,0.11311
1700754129445312,-9.798358,0.615554,0.77332,0.96084,0.62365,0.89
1700754129453125,-9.749358,0.637554,0.75732,0.92684,0.72265,0.1889
1700754129460937,-9.713358,0.668554,0.76032,0.93984,0.61065,0.389
1700754129468750,-9.684358,0.692554,0.74832,0.93784,0.62665,0.8389
1700754129476562,-9.671358,0.716554,0.72332,0.95484,0.57765,0.3489
1700754129484375,-9.676358,0.736554,0.69632,0.92384,0.54465,0.3489
1700754129492187,-9.694358,0.745554,0.67832,0.94084,0.49465,0.8289
1700754129500000,-9.710358,0.741554,0.67832,0.92784,0.44365,0.8189
1700754129507812,-9.703358,0.747554,0.69232,0.87884,0.42865,0.5089
1700754129515625,-9.689358,0.720554,0.72132,0.90084,0.44165,0.6489
1700754129523437,-9.694358,0.716554,0.73532,0.81684,0.41065,0.11489
1700754129531250,-9.693358,0.727554,0.69732,0.79184,0.43365,0.10289
1700754129539062,-9.696358,0.725554,0.69432,0.92284,0.44665,0.11489
1700754129546875,-9.721358,0.725554,0.69632,0.84884,0.44365,0.9889
1700754129554687,-9.734358,0.734554,0.69232,0.83484,0.42565,0.9789
1700754129562500,-9.735358,0.748554,0.69432,0.75484,0.44365,0.11589
1700754129570312,-9.690358,0.749554,0.73932,0.70484,0.41365,0.3689
1700754129578125,-9.669358,0.742554,0.74632,0.69184,0.44365,0.8389
1700754129585937,-9.694358,0.743554,0.67632,0.70584,0.49365,0.10089
1700754129593750,-9.726358,0.752554,0.65832,0.63784,0.43965,0.3011
1700754129601562,-9.730358,0.717554,0.71932,0.43984,0.32965,0.8689
1700754129609375,-9.734358,0.706554,0.74432,0.40584,0.46165,0.10489
1700754129617187,-9.732358,0.708554,0.68332,0.26784,0.44265,0.12089
1700754129625000,-9.730358,0.716554,0.59932,0.25984,0.40565,0.7089
1700754129632812,-9.730358,0.734554,0.62232,0.34984,0.44165,0.7089
1700754129640625,-9.720358,0.730554,0.67932,0.30484,0.43465,0.5989
1700754129648437,-9.718358,0.730554,0.70332,0.23684,0.44465,0.989
1700754129656250,-9.721358,0.759554,0.69432,0.16084,0.44465,0.7011
1700754129664062,-9.728358,0.790554,0.64032,0.3484,0.41165,0.2111
1700754129671875,-9.738358,0.814554,0.62232,0.4316,0.37665,0.2789
1700754129679687,-9.742358,0.819554,0.63832,0.9116,0.40965,0.6089
1700754129687500,-9.744358,0.790554,0.66232,0.19916,0.40765,0.7689
1700754129695312,-9.766358,0.761554,0.69032,0.24616,0.31065,0.1289
1700754129703125,-9.775358,0.728554,0.71932,0.26016,0.37365,0.10889
1700754129710937,-9.768358,0.708554,0.71932,0.31116,0.44165,0.11189
1700754129718750,-9.729358,0.696554,0.71932,0.29116,0.42065,0.17389
1700754129726562,-9.705358,0.692554,0.72132,0.32716,0.43965,0.19189
1700754129734375,-9.709358,0.705554,0.70332,0.31016,0.45665,0.12689
1700754129742187,-9.712358,0.718554,0.69632,0.29016,0.42165,0.10889
1700754129750000,-9.700358,0.723554,0.69032,0.31416,0.44265,0.12889
1700754129757812,-9.707358,0.716554,0.68532,0.41916,0.44065,0.11189
1700754129765625,-9.729358,0.710554,0.69232,0.47516,0.47765,0.13189
1700754129773437,-9.749358,0.692554,0.67832,0.46916,0.47365,0.14589
1700754129781250,-9.735358,0.670554,0.66732,0.46416,0.46465,0.19689
1700754129789062,-9.724358,0.659554,0.67632,0.56816,0.47665,0.21289
1700754129796875,-9.722358,0.666554,0.66132,0.55616,0.47865,0.18189
1700754129804687,-9.720358,0.679554,0.67932,0.57216,0.47865,0.22989
1700754129812500,-9.725358,0.690554,0.66932,0.53216,0.43965,0.27489
1700754129820312,-9.705358,0.711554,0.66032,0.64116,0.38865,0.32289
1700754129828125,-9.689358,0.711554,0.66332,0.78716,0.42465,0.29489
1700754129835937,-9.653358,0.717554,0.66532,0.79116,0.43365,0.29089
1700754129843750,-9.631358,0.719554,0.65832,0.74716,0.43665,0.24289
1700754129851562,-9.606358,0.717554,0.66332,0.91116,0.42365,0.29489
1700754129859375,-9.613358,0.706554,0.66032,0.92316,0.47165,0.19889
1700754129867187,-9.619358,0.679554,0.67432,0.89616,0.44165,0.24789
1700754129875000,-9.664358,0.678554,0.67632,0.97416,0.44165,0.23289
1700754129882812,-9.691358,0.672554,0.69032,0.91116,0.39365,0.11889
1700754129890625,-9.698358,0.671554,0.63832,0.105916,0.35465,0.16589
1700754129898437,-9.717358,0.645554,0.60932,0.105216,0.39165,0.24889
1700754129906250,-9.695358,0.641554,0.66032,0.98616,0.34165,0.15089
1700754129914062,-9.692358,0.627554,0.66032,0.92716,0.37765,0.16789
1700754129921875,-9.710358,0.594554,0.66032,0.97616,0.34465,0.28089
1700754129929687,-9.770358,0.577554,0.66532,0.95116,0.33765,0.29289
1700754129937500,-9.799358,0.578554,0.65832,0.90716,0.38965,0.24589
1700754129945312,-9.800358,0.587554,0.62932,0.84616,0.38965,0.29389
1700754129953125,-9.802358,0.600554,0.63332,0.79816,0.43865,0.26089
1700754129960937,-9.813358,0.604554,0.66732,0.81016,0.46865,0.24389
1700754129968750,-9.809358,0.602554,0.66532,0.69016,0.45565,0.32489
1700754129976562,-9.777358,0.591554,0.66332,0.72916,0.50765,0.39189
1700754129984375,-9.743358,0.597554,0.65632,0.58816,0.47565,0.40589
1700754129992187,-9.725358,0.597554,0.65132,0.63316,0.42465,0.40589
1700754130000000,-9.699358,0.612554,0.65132,0.56516,0.37365,0.38689
1700754130007812,-9.667358,0.620554,0.64932,0.70216,0.33065,0.50389
1700754130015625,-9.649358,0.622554,0.64732,0.58316,0.22665,0.43489
1700754130023437,-9.643358,0.629554,0.62932,0.55716,0.23165,0.42089
1700754130031250,-9.633358,0.627554,0.63632,0.57816,0.26765,0.39089
1700754130039062,-9.636358,0.620554,0.64232,0.55516,0.31165,0.37189
1700754130046875,-9.633358,0.616554,0.65432,0.52916,0.26665,0.38989
1700754130054687,-9.652358,0.595554,0.66532,0.43416,0.35365,0.36789
1700754130062500,-9.687358,0.576554,0.66532,0.47516,0.32665,0.37089
1700754130070312,-9.698358,0.565554,0.67632,0.37616,0.29165,0.33589
1700754130078125,-9.716358,0.550554,0.68532,0.42616,0.32765,0.30589
1700754130085937,-9.724358,0.544554,0.68332,0.38716,0.31665,0.32389
1700754130093750,-9.734358,0.539554,0.69932,0.31516,0.37565,0.30489
1700754130101562,-9.742358,0.537554,0.69432,0.31916,0.37765,0.32189
1700754130109375,-9.738358,0.537554,0.68532,0.28816,0.39465,0.33789
1700754130117187,-9.749358,0.544554,0.68832,0.10316,0.39765,0.30489
1700754130125000,-9.763358,0.544554,0.69032,0.13216,0.46165,0.25689
1700754130132812,-9.763358,0.551554,0.70132,0.18916,0.44165,0.27089
1700754130140625,-9.763358,0.548554,0.69032,0.14316,0.47365,0.31889
1700754130148437,-9.756358,0.551554,0.69032,0.8516,0.46165,0.23989
1700754130156250,-9.756358,0.548554,0.67432,0.3316,0.47465,0.26989
1700754130164062,-9.745358,0.551554,0.66732,0.516,0.52665,0.27089
1700754130171875,-9.736358,0.558554,0.66532,0.1384,0.51965,0.19489
1700754130179687,-9.722358,0.562554,0.66332,0.14384,0.46665,0.25589
1700754130187500,-9.723358,0.577554,0.65232,0.14184,0.45065,0.30389
1700754130195312,-9.727358,0.586554,0.64932,0.14584,0.39965,0.27089
1700754130203125,-9.727358,0.584554,0.63432,0.19284,0.38265,0.28589
1700754130210937,-9.716358,0.586554,0.63132,0.17884,0.43065,0.30189
1700754130218750,-9.709358,0.579554,0.62232,0.19584,0.42965,0.31689
1700754130226562,-9.700358,0.570554,0.62032,0.18484,0.42665,0.28389
1700754130234375,-9.691358,0.558554,0.62732,0.20184,0.41065,0.23489
1700754130242187,-9.686358,0.548554,0.62532,0.21184,0.41465,0.20489
1700754130250000,-9.707358,0.550554,0.62732,0.21784,0.42865,0.12289
1700754130257812,-9.709358,0.539554,0.62532,0.31984,0.41765,0.10789
1700754130265625,-9.708358,0.535554,0.63832,0.33684,0.43265,0.12389
1700754130273437,-9.704358,0.541554,0.64732,0.35484,0.44865,0.10689
1700754130281250,-9.689358,0.574554,0.64932,0.38084,0.42565,0.7089
1700754130289062,-9.685358,0.589554,0.65632,0.44484,0.37665,0.5389
1700754130296875,-9.676358,0.596554,0.66032,0.44384,0.42565,0.8589
1700754130304687,-9.669358,0.600554,0.67232,0.46184,0.32565,0.8489
1700754130312500,-9.679358,0.618554,0.66532,0.50384,0.34665,0.2189
1700754130320312,-9.692358,0.614554,0.67232,0.44684,0.34265,0.2089
1700754130328125,-9.719358,0.601554,0.66732,0.44584,0.32865,0.7511
1700754130335937,-9.728358,0.592554,0.65432,0.48984,0.28165,0.4311
1700754130343750,-9.725358,0.597554,0.63832,0.62884,0.28265,0.2811
1700754130351562,-9.734358,0.597554,0.64332,0.57284,0.27265,0.5611
1700754130359375,-9.726358,0.612554,0.66032,0.58684,0.21265,0.3489
1700754130367187,-9.717358,0.621554,0.67432,0.64784,0.21565,0.6111
1700754130375000,-9.701358,0.636554,0.66032,0.69084,0.21665,0.5189
1700754130382812,-9.681358,0.649554,0.65832,0.58084,0.18365,0.8489
1700754130390625,-9.690358,0.636554,0.66032,0.69584,0.16365,0.11389
1700754130398437,-9.710358,0.634554,0.65132,0.70484,0.18565,0.3589
1700754130406250,-9.715358,0.630554,0.67232,0.72284,0.16765,0.5089
1700754130414062,-9.715358,0.632554,0.69032,0.80084,0.18265,0.11389
1700754130421875,-9.672358,0.647554,0.73932,0.83184,0.13565,0.9789
1700754130429687,-9.684358,0.660554,0.72632,0.93184,0.4965,0.9389
1700754130437500,-9.738358,0.681554,0.66732,0.95984,0.10165,0.6289
1700754130445312,-9.747358,0.688554,0.71232,0.92784,0.6865,0.11189
1700754130453125,-9.747358,0.681554,0.79532,0.78884,0.1765,0.7989
1700754130460937,-9.743358,0.692554,0.76232,0.77084,0.8135,0.24089
1700754130468750,-9.758358,0.684554,0.70132,0.71484,0.5835,0.21189
1700754130476562,-9.767358,0.684554,0.67232,0.70284,0.935,0.9989
1700754130484375,-9.774358,0.666554,0.73032,0.81884,0.1335,0.6389
1700754130492187,-9.762358,0.620554,0.77832,0.95584,0.4065,0.0
1700754130500000,-9.750358,0.619554,0.78932,0.83184,0.2735,0.1689
1700754130507812,-9.753358,0.655554,0.75732,0.70684,0.5465,0.289
1700754130515625,-9.747358,0.697554,0.72832,0.69884,0.2765,0.1111
1700754130523437,-9.734358,0.730554,0.70832,0.63084,0.13565,0.4511
1700754130531250,-9.730358,0.754554,0.75032,0.59984,0.13365,0.3489
1700754130539062,-9.723358,0.748554,0.77532,0.41884,0.13865,0.7189
1700754130546875,-9.687358,0.749554,0.77332,0.45084,0.15565,0.2389
1700754130554687,-9.669358,0.729554,0.77532,0.34184,0.18665,0.5689
1700754130562500,-9.635358,0.711554,0.77832,0.31184,0.20165,0.8889
1700754130570312,-9.628358,0.693554,0.77132,0.23484,0.13565,0.5689
1700754130578125,-9.632358,0.689554,0.78232,0.18584,0.10365,0.7389
1700754130585937,-9.648358,0.693554,0.78732,0.19984,0.16965,0.12289
1700754130593750,-9.684358,0.700554,0.78432,0.18684,0.16865,0.7389
1700754130601562,-9.709358,0.697554,0.80032,0.18284,0.18765,0.9089
1700754130609375,-9.729358,0.686554,0.79132,0.10584,0.17065,0.411
1700754130617187,-9.735358,0.670554,0.78432,0.216,0.16965,0.1189
1700754130625000,-9.740358,0.653554,0.78032,0.1716,0.20265,0.311
1700754130632812,-9.731358,0.648554,0.76932,0.0,0.23365,0.2789
1700754130640625,-9.739358,0.657554,0.77832,0.3916,0.20665,0.1489
1700754130648437,-9.742358,0.677554,0.75532,0.3516,0.20365,0.2989
1700754130656250,-9.733358,0.688554,0.74932,0.5716,0.27265,0.1589
1700754130664062,-9.729358,0.692554,0.76232,0.1816,0.20165,0.4489
1700754130671875,-9.740358,0.681554,0.77832,0.2916,0.16665,0.2689
1700754130679687,-9.740358,0.683554,0.79332,0.2116,0.17765,0.889
1700754130687500,-9.729358,0.694554,0.77132,0.6116,0.28165,0.1189
1700754130695312,-9.703358,0.723554,0.77732,0.4416,0.27965,0.4389
1700754130703125,-9.679358,0.760554,0.78932,0.5916,0.27965,0.411
1700754130710937,-9.679358,0.791554,0.80732,0.4316,0.29665,0.3711
1700754130718750,-9.688358,0.805554,0.80432,0.2816,0.31265,0.2111
1700754130726562,-9.677358,0.813554,0.81132,0.4316,0.21465,0.511
1700754130734375,-9.661358,0.800554,0.80032,0.12216,0.19965,0.3611
1700754130742187,-9.685358,0.774554,0.77832,0.9616,0.7065,0.7689
1700754130750000,-9.649358,0.744554,0.84032,0.5816,0.8165,0.12189
1700754130757812,-9.645358,0.758554,0.86832,0.5984,0.2165,0.10689
1700754130765625,-9.658358,0.726554,0.87632,0.11684,0.6465,0.8689
1700754130773437,-9.716358,0.721554,0.87732,0.12684,0.7935,0.10389
1700754130781250,-9.773358,0.735554,0.87932,0.3884,0.11365,0.3989
1700754130789062,-9.787358,0.755554,0.88332,0.9084,0.7665,0.10189
1700754130796875,-9.773358,0.761554,0.87232,0.20584,0.11665,0.10389
1700754130804687,-9.744358,0.774554,0.86332,0.14084,0.16465,0.23389
1700754130812500,-9.730358,0.757554,0.85932,0.16684,0.18365,0.28389
1700754130820312,-9.734358,0.748554,0.84532,0.20084,0.16665,0.28189
1700754130828125,-9.714358,0.750554,0.85632,0.17784,0.18665,0.33289
1700754130835937,-9.705358,0.727554,0.86332,0.19484,0.16865,0.36389
1700754130843750,-9.671358,0.727554,0.86532,0.18184,0.18365,0.31589
1700754130851562,-9.653358,0.733554,0.86332,0.17884,0.16865,0.38089
1700754130859375,-9.631358,0.742554,0.86332,0.19984,0.21365,0.36289
1700754130867187,-9.620358,0.742554,0.84332,0.18084,0.21665,0.37989
1700754130875000,-9.624358,0.755554,0.86132,0.19684,0.15065,0.36289
1700754130882812,-9.638358,0.762554,0.86532,0.21584,0.21365,0.36189
1700754130890625,-9.656358,0.755554,0.85432,0.18384,0.21365,0.37889
1700754130898437,-9.692358,0.751554,0.86132,0.20384,0.19465,0.36089
1700754130906250,-9.715358,0.767554,0.87032,0.13984,0.21365,0.26689
1700754130914062,-9.728358,0.758554,0.87232,0.12684,0.26165,0.21789
1700754130921875,-9.757358,0.754554,0.87932,0.15684,0.29465,0.23389
1700754130929687,-9.790358,0.742554,0.88832,0.10384,0.39665,0.23689
1700754130937500,-9.804358,0.728554,0.90832,0.6684,0.32465,0.23389
1700754130945312,-9.820358,0.720554,0.90432,0.3084,0.39265,0.26889
1700754130953125,-9.830358,0.691554,0.90132,0.4384,0.57465,0.20589
1700754130960937,-9.837358,0.678554,0.92832,0.10784,0.57465,0.17289
1700754130968750,-9.843358,0.665554,0.91732,0.6084,0.57465,0.15689
1700754130976562,-9.850358,0.649554,0.90832,0.3084,0.63865,0.17389
1700754130984375,-9.841358,0.654554,0.89032,0.3216,0.68765,0.17489
1700754130992187,-9.830358,0.656554,0.87732,0.6616,0.72165,0.17589
1700754131000000,-9.783358,0.682554,0.84132,0.16816,0.71065,0.22789
1700754131007812,-9.703358,0.712554,0.80432,0.26916,0.81765,0.24289
1700754131015625,-9.636358,0.757554,0.78932,0.39616,0.81765,0.27589
1700754131023437,-9.603358,0.792554,0.79832,0.49016,0.76865,0.29289
1700754131031250,-9.600358,0.810554,0.80032,0.54416,0.85565,0.26489
1700754131039062,-9.623358,0.812554,0.79332,0.55016,0.86665,0.14989
1700754131046875,-9.630358,0.795554,0.77132,0.56316,0.86565,0.11689
1700754131054687,-9.654358,0.764554,0.77132,0.55416,0.93565,0.11889
1700754131062500,-9.696358,0.723554,0.76432,0.64316,0.98165,0.3889
1700754131070312,-9.714358,0.707554,0.74632,0.56016,0.96265,0.1989
1700754131078125,-9.725358,0.676554,0.73532,0.54616,0.99765,0.1111
1700754131085937,-9.730358,0.625554,0.74432,0.56016,0.99765,0.9111
1700754131093750,-9.723358,0.603554,0.73232,0.56316,0.98265,0.4211
1700754131101562,-9.714358,0.590554,0.69732,0.62016,0.102165,0.611
1700754131109375,-9.712358,0.590554,0.68532,0.56416,0.103165,0.2189
1700754131117187,-9.710358,0.605554,0.66532,0.56316,0.99865,0.1011
1700754131125000,-9.728358,0.614554,0.67432,0.55216,0.103265,0.7089
1700754131132812,-9.728358,0.634554,0.70332,0.56816,0.90065,0.13489
1700754131140625,-9.737358,0.642554,0.71232,0.56116,0.82565,0.13689
1700754131148437,-9.747358,0.684554,0.71932,0.56716,0.81865,0.14989
1700754131156250,-9.740358,0.690554,0.72432,0.55916,0.88865,0.18489
1700754131164062,-9.769358,0.672554,0.75332,0.46816,0.73365,0.19489
1700754131171875,-9.751358,0.675554,0.73032,0.50116,0.71865,0.17989
1700754131179687,-9.700358,0.700554,0.69632,0.40116,0.72865,0.27289
1700754131187500,-9.682358,0.711554,0.68332,0.50316,0.71965,0.19589
1700754131195312,-9.669358,0.706554,0.67632,0.30816,0.68165,0.25589
1700754131203125,-9.657358,0.704554,0.66732,0.32016,0.68965,0.25989
1700754131210937,-9.642358,0.688554,0.66332,0.29916,0.63565,0.32189
1700754131218750,-9.618358,0.655554,0.67632,0.28816,0.55665,0.35389
1700754131226562,-9.618358,0.639554,0.66732,0.31716,0.58865,0.32189
1700754131234375,-9.625358,0.619554,0.66032,0.27916,0.45365,0.33489
1700754131242187,-9.642358,0.598554,0.66332,0.28516,0.42465,0.35289
1700754131250000,-9.662358,0.580554,0.66032,0.12616,0.43965,0.33389
1700754131257812,-9.698358,0.556554,0.66032,0.9516,0.39065,0.38189
1700754131265625,-9.725358,0.550554,0.64732,0.3916,0.42765,0.39989
1700754131273437,-9.709358,0.563554,0.71232,0.6184,0.34165,0.37989
1700754131281250,-9.716358,0.547554,0.72332,0.1216,0.37165,0.36389
1700754131289062,-9.772358,0.564554,0.64032,0.14684,0.48365,0.39289
1700754131296875,-9.777358,0.591554,0.65132,0.16884,0.44165,0.41189
1700754131304687,-9.746358,0.581554,0.70832,0.3316,0.34165,0.42889
1700754131312500,-9.718358,0.581554,0.69932,0.7116,0.37665,0.55989
1700754131320312,-9.680358,0.610554,0.63632,0.14116,0.29965,0.57889
1700754131328125,-9.641358,0.637554,0.55932,0.8316,0.24365,0.52589
1700754131335937,-9.607358,0.655554,0.59132,0.5516,0.18165,0.52689
1700754131343750,-9.583358,0.672554,0.65632,0.6216,0.17565,0.45989
1700754131351562,-9.603358,0.661554,0.69032,0.6716,0.22965,0.39789
1700754131359375,-9.660358,0.698554,0.71032,0.5016,0.18065,0.38089
1700754131367187,-9.709358,0.714554,0.67232,0.16216,0.26365,0.36789
1700754131375000,-9.714358,0.712554,0.64232,0.13316,0.23365,0.28789
1700754131382812,-9.702358,0.710554,0.65632,0.6816,0.18365,0.26989
1700754131390625,-9.731358,0.670554,0.68332,0.5416,0.25065,0.23889
1700754131398437,-9.762358,0.604554,0.71032,0.4016,0.29065,0.21789
1700754131406250,-9.806358,0.549554,0.73332,0.1916,0.28065,0.25289
1700754131414062,-9.816358,0.511554,0.72832,0.1516,0.32665,0.23589
1700754131421875,-9.789358,0.491554,0.70332,0.13284,0.37065,0.26489
1700754131429687,-9.749358,0.512554,0.66532,0.20684,0.37365,0.26489
1700754131437500,-9.700358,0.541554,0.66332,0.14284,0.27665,0.28189
1700754131445312,-9.675358,0.560554,0.65632,0.15684,0.32765,0.23389
1700754131453125,-9.662358,0.564554,0.65632,0.17784,0.32365,0.24789
1700754131460937,-9.655358,0.567554,0.66932,0.18984,0.37465,0.26589
1700754131468750,-9.693358,0.559554,0.67832,0.19984,0.31365,0.28289
1700754131476562,-9.727358,0.568554,0.69032,0.18884,0.26165,0.24989
1700754131484375,-9.759358,0.566554,0.71032,0.23284,0.34465,0.26689
1700754131492187,-9.770358,0.566554,0.69932,0.21584,0.31165,0.34689
1700754131500000,-9.781358,0.560554,0.69232,0.35684,0.32865,0.34589
1700754131507812,-9.772358,0.569554,0.68732,0.40084,0.34665,0.37789
1700754131515625,-9.770358,0.577554,0.69032,0.43784,0.31065,0.32789
1700754131523437,-9.757358,0.606554,0.68132,0.45484,0.34265,0.32689
1700754131531250,-9.737358,0.605554,0.68132,0.40984,0.39065,0.29489
1700754131539062,-9.721358,0.623554,0.67232,0.40684,0.39365,0.27989
1700754131546875,-9.690358,0.638554,0.67232,0.46584,0.41265,0.26489
1700754131554687,-9.645358,0.629554,0.66932,0.39184,0.37665,0.24789
1700754131562500,-9.625358,0.622554,0.67232,0.43684,0.42865,0.15289
1700754131570312,-9.627358,0.619554,0.69232,0.45684,0.31165,0.16689
1700754131578125,-9.678358,0.623554,0.70632,0.43284,0.31665,0.15289
1700754131585937,-9.697358,0.639554,0.68332,0.43484,0.21865,0.8789
1700754131593750,-9.723358,0.617554,0.65432,0.45484,0.23265,0.10289
1700754131601562,-9.676358,0.614554,0.70532,0.45484,0.16765,0.8589
1700754131609375,-9.654358,0.642554,0.71732,0.56984,0.21465,0.3589
1700754131617187,-9.631358,0.613554,0.70832,0.54184,0.21165,0.3489
1700754131625000,-9.659358,0.622554,0.69632,0.44984,0.12765,0.5089
1700754131632812,-9.672358,0.647554,0.69432,0.44384,0.16665,0.1111
1700754131640625,-9.677358,0.671554,0.66532,0.49584,0.16265,0.1311
1700754131648437,-9.714358,0.687554,0.66032,0.53184,0.14165,0.6489
1700754131656250,-9.754358,0.706554,0.68132,0.43484,0.22065,0.811
1700754131664062,-9.770358,0.710554,0.69932,0.45984,0.21365,0.5289
1700754131671875,-9.765358,0.708554,0.69932,0.45584,0.18365,0.2189
1700754131679687,-9.763358,0.710554,0.68532,0.50584,0.13365,0.1989
1700754131687500,-9.739358,0.701554,0.71632,0.59084,0.16065,0.3289
1700754131695312,-9.729358,0.688554,0.73032,0.59784,0.15165,0.3589
1700754131703125,-9.713358,0.670554,0.72432,0.65484,0.8865,0.10089
1700754131710937,-9.695358,0.647554,0.73932,0.70984,0.8365,0.9789
1700754131718750,-9.692358,0.623554,0.75332,0.69284,0.1865,0.11389
1700754131726562,-9.681358,0.607554,0.75332,0.76084,0.9835,0.7889
1700754131734375,-9.667358,0.618554,0.74832,0.83384,0.7935,0.15989
1700754131742187,-9.661358,0.642554,0.74832,0.91084,0.7935,0.22389
1700754131750000,-9.677358,0.687554,0.74632,0.85384,0.13135,0.12589
1700754131757812,-9.703358,0.718554,0.76232,0.82184,0.21335,0.18989
1700754131765625,-9.732358,0.752554,0.76432,0.75184,0.14235,0.12989
1700754131773437,-9.753358,0.779554,0.78932,0.75584,0.8135,0.20889
1700754131781250,-9.742358,0.790554,0.80032,0.67484,0.9435,0.17789
1700754131789062,-9.728358,0.772554,0.79532,0.70584,0.7835,0.16189
1700754131796875,-9.710358,0.740554,0.80932,0.70184,0.10235,0.17389
1700754131804687,-9.702358,0.700554,0.82732,0.71384,0.8235,0.7989
1700754131812500,-9.698358,0.687554,0.82932,0.70984,0.9735,0.19289
1700754131820312,-9.707358,0.683554,0.82932,0.69684,0.8235,0.12789
1700754131828125,-9.707358,0.692554,0.82232,0.71284,0.4935,0.11189
1700754131835937,-9.678358,0.704554,0.82232,0.63084,0.6435,0.20989
1700754131843750,-9.653358,0.720554,0.82232,0.53684,0.1535,0.17889
1700754131851562,-9.656358,0.720554,0.83632,0.55384,0.1565,0.19489
1700754131859375,-9.687358,0.698554,0.86332,0.55284,0.3165,0.22689
1700754131867187,-9.731358,0.674554,0.90332,0.54484,0.2665,0.25689
1700754131875000,-9.763358,0.677554,0.91732,0.42184,0.5065,0.31089
1700754131882812,-9.805358,0.660554,0.92432,0.45484,0.3465,0.26189
1700754131890625,-9.812358,0.647554,0.91032,0.43884,0.14765,0.30989
1700754131898437,-9.789358,0.648554,0.90132,0.45484,0.16265,0.37389
1700754131906250,-9.756358,0.672554,0.87632,0.30784,0.17165,0.35689
1700754131914062,-9.702358,0.687554,0.83632,0.23084,0.22965,0.37789
1700754131921875,-9.667358,0.720554,0.82732,0.14084,0.19465,0.37789
1700754131929687,-9.634358,0.750554,0.81632,0.16084,0.19165,0.35989
1700754131937500,-9.636358,0.770554,0.81332,0.1284,0.22965,0.33289
1700754131945312,-9.658358,0.766554,0.82732,0.4816,0.34265,0.31689
1700754131953125,-9.667358,0.751554,0.81832,0.4516,0.39165,0.23689
1700754131960937,-9.714358,0.723554,0.81132,0.1816,0.39365,0.25389
1700754131968750,-9.761358,0.681554,0.80732,0.7316,0.40665,0.15589
1700754131976562,-9.778358,0.626554,0.80932,0.12116,0.42465,0.10889
1700754131984375,-9.811358,0.589554,0.82232,0.6616,0.43565,0.8989
1700754131992187,-9.837358,0.558554,0.83832,0.5716,0.43965,0.12389
1700754132000000,-9.844358,0.547554,0.84332,0.4816,0.42665,0.17389
1700754132007812,-9.848358,0.545554,0.84032,0.5916,0.47365,0.10789
1700754132015625,-9.839358,0.556554,0.82532,0.4916,0.47565,0.22189
1700754132023437,-9.822358,0.576554,0.81632,0.9516,0.45765,0.25389
1700754132031250,-9.811358,0.587554,0.80532,0.6816,0.47665,0.28789
1700754132039062,-9.784358,0.600554,0.80032,0.10016,0.46065,0.31989
1700754132046875,-9.759358,0.606554,0.78432,0.13116,0.47465,0.36789
1700754132054687,-9.746358,0.617554,0.77532,0.16616,0.46165,0.38589
1700754132062500,-9.728358,0.619554,0.78432,0.16216,0.45865,0.36789
1700754132070312,-9.712358,0.619554,0.77832,0.16416,0.37765,0.38489
1700754132078125,-9.703358,0.616554,0.77532,0.25916,0.41065,0.46589
1700754132085937,-9.690358,0.614554,0.77532,0.28316,0.40665,0.36789
1700754132093750,-9.670358,0.604554,0.75932,0.31016,0.41865,0.41489
1700754132101562,-9.662358,0.596554,0.75332,0.29316,0.44465,0.45189
1700754132109375,-9.646358,0.578554,0.73732,0.13516,0.44465,0.40189
1700754132117187,-9.635358,0.562554,0.71732,0.7916,0.42365,0.36589
1700754132125000,-9.603358,0.541554,0.75332,0.4416,0.42065,0.37989
1700754132132812,-9.554358,0.525554,0.76932,0.9716,0.37565,0.38289
1700754132140625,-9.573358,0.503554,0.69632,0.8216,0.29465,0.36589
1700754132148437,-9.616358,0.500554,0.71732,0.11984,0.19865,0.37989
1700754132156250,-9.620358,0.475554,0.82032,0.10884,0.8065,0.36189
1700754132164062,-9.658358,0.456554,0.84332,0.4784,0.235,0.40989
1700754132171875,-9.697358,0.467554,0.79332,0.14384,0.335,0.40789
1700754132179687,-9.742358,0.472554,0.76632,0.3184,0.7965,0.39389
1700754132187500,-9.765358,0.493554,0.78432,0.19384,0.435,0.35789
1700754132195312,-9.737358,0.472554,0.83232,0.20384,0.8235,0.37589
1700754132203125,-9.706358,0.458554,0.85632,0.22684,0.2235,0.35689
1700754132210937,-9.690358,0.461554,0.86332,0.18384,0.1865,0.37789
1700754132218750,-9.683358,0.472554,0.84532,0.18484,0.4735,0.36089
1700754132226562,-9.672358,0.509554,0.81432,0.19984,0.6335,0.36089
1700754132234375,-9.673358,0.534554,0.81832,0.25084,0.3335,0.37589
1700754132242187,-9.677358,0.525554,0.86332,0.20384,0.4935,0.35989
1700754132250000,-9.695358,0.514554,0.88132,0.25084,0.11535,0.37489
1700754132257812,-9.699358,0.474554,0.89732,0.20184,0.3235,0.36089
1700754132265625,-9.696358,0.450554,0.88332,0.26184,0.1435,0.39289
1700754132273437,-9.647358,0.442554,0.86532,0.41984,0.11235,0.37389
1700754132281250,-9.606358,0.430554,0.83832,0.39784,0.8635,0.35589
1700754132289062,-9.573358,0.441554,0.81832,0.47484,0.11735,0.35489
1700754132296875,-9.548358,0.441554,0.82032,0.47384,0.9935,0.32389
1700754132304687,-9.544358,0.454554,0.83132,0.63584,0.15235,0.36789
1700754132312500,-9.548358,0.476554,0.86132,0.69584,0.19835,0.31989
1700754132320312,-9.600358,0.481554,0.87932,0.74684,0.26535,0.25389
1700754132328125,-9.670358,0.478554,0.87732,0.80484,0.32835,0.26989
1700754132335937,-9.697358,0.479554,0.88632,0.86184,0.25835,0.25589
1700754132343750,-9.726358,0.477554,0.89732,0.88484,0.31135,0.22089
1700754132351562,-9.726358,0.474554,0.89932,0.93484,0.26535,0.23489
1700754132359375,-9.739358,0.481554,0.90432,0.96284,0.26035,0.12389
1700754132367187,-9.773358,0.502554,0.93332,0.97684,0.19335,0.9289
1700754132375000,-9.799358,0.518554,0.94632,0.98184,0.14835,0.12389
1700754132382812,-9.799358,0.535554,0.95132,0.113384,0.6335,0.10789
1700754132390625,-9.774358,0.542554,0.94032,0.116284,0.6035,0.2789
1700754132398437,-9.745358,0.548554,0.94432,0.116584,0.6035,0.10111
1700754132406250,-9.709358,0.554554,0.95132,0.121484,0.1335,0.2211
1700754132414062,-9.653358,0.562554,0.95132,0.121484,0.8465,0.5311
1700754132421875,-9.619358,0.575554,0.96932,0.136684,0.4235,0.3811
1700754132429687,-9.622358,0.586554,0.96932,0.133584,0.4335,0.2589
1700754132437500,-9.666358,0.560554,0.93132,0.125884,0.14335,0.8989
1700754132445312,-9.657358,0.531554,0.98932,0.131884,0.12635,0.8989
1700754132453125,-9.680358,0.529554,-1.5232,0.154484,0.24435,0.10089
1700754132460937,-9.722358,0.530554,-1.4332,0.165284,0.29235,0.9989
1700754132468750,-9.749358,0.530554,-1.7232,0.157884,0.32735,0.8289
1700754132476562,-9.758358,0.559554,-1.9332,0.166284,0.32035,0.10189
1700754132484375,-9.763358,0.575554,-1.5932,0.171984,0.29435,0.8189
1700754132492187,-9.748358,0.595554,-1.5032,0.166284,0.22235,0.10289
1700754132500000,-9.746358,0.606554,-1.5932,0.160484,0.22635,0.13389
1700754132507812,-9.755358,0.606554,-1.8232,0.144184,0.17235,0.7389
1700754132515625,-9.728358,0.599554,-1.9132,0.145884,0.9335,0.15389
1700754132523437,-9.712358,0.609554,-1.9932,0.146584,0.6635,0.18289
1700754132531250,-9.685358,0.607554,-1.10632,0.141584,0.8135,0.21689
1700754132539062,-9.688358,0.609554,-1.14432,0.146984,0.10135,0.18189
1700754132546875,-9.690358,0.633554,-1.16732,0.138784,0.9835,0.15189
1700754132554687,-9.724358,0.656554,-1.16232,0.132384,0.8135,0.15289
1700754132562500,-9.734358,0.681554,-1.17632,0.126084,0.3235,0.12189
1700754132570312,-9.756358,0.690554,-1.16032,0.117984,0.6765,0.12389
1700754132578125,-9.770358,0.695554,-1.14232,0.122684,0.5165,0.13989
1700754132585937,-9.740358,0.665554,-1.12232,0.105184,0.10165,0.17489
1700754132593750,-9.724358,0.636554,-1.9532,0.101984,0.10265,0.11189
1700754132601562,-9.717358,0.630554,-1.7032,0.95484,0.20265,0.9789
1700754132609375,-9.694358,0.616554,-1.10232,0.95884,0.16665,0.7989
1700754132617187,-9.705358,0.596554,-1.10432,0.94184,0.15365,0.3111
1700754132625000,-9.755358,0.599554,-1.14732,0.95684,0.16965,0.1511
1700754132632812,-9.775358,0.588554,-1.17832,0.91984,0.17965,0.3411
1700754132640625,-9.795358,0.602554,-1.19432,0.79084,0.27865,0.1689
1700754132648437,-9.804358,0.611554,-1.20532,0.76184,0.31065,0.1511
1700754132656250,-9.829358,0.633554,-1.22132,0.74084,0.42765,0.289
1700754132664062,-9.870358,0.646554,-1.23032,0.56084,0.41565,0.2389
1700754132671875,-9.879358,0.644554,-1.23732,0.44584,0.43465,0.7489
1700754132679687,-9.881358,0.639554,-1.24232,0.32484,0.43065,0.12289
1700754132687500,-9.847358,0.625554,-1.23532,0.17084,0.54365,0.7589
1700754132695312,-9.797358,0.607554,-1.21532,0.14884,0.64565,0.7889
1700754132703125,-9.723358,0.607554,-1.19232,0.3116,0.70465,0.11089
1700754132710937,-9.649358,0.609554,-1.19032,0.8316,0.74065,0.4889
1700754132718750,-9.593358,0.623554,-1.15132,0.25316,0.81965,0.11489
1700754132726562,-9.537358,0.629554,-1.14732,0.46716,0.85865,0.11989
1700754132734375,-9.504358,0.640554,-1.16532,0.53616,0.80265,0.13389
1700754132742187,-9.521358,0.651554,-1.15632,0.54516,0.85865,0.8889
1700754132750000,-9.556358,0.676554,-1.18332,0.67916,0.85465,0.3989
1700754132757812,-9.592358,0.688554,-1.17632,0.80316,0.88565,0.5689
1700754132765625,-9.603358,0.683554,-1.16932,0.85816,0.94765,0.4011
1700754132773437,-9.625358,0.671554,-1.18132,0.92916,0.95265,0.5311
1700754132781250,-9.652358,0.651554,-1.17432,0.97716,0.100365,0.11611
1700754132789062,-9.658358,0.627554,-1.15832,0.103516,0.100065,0.14811
1700754132796875,-9.654358,0.633554,-1.13832,0.103516,0.98565,0.21211
1700754132804687,-9.643358,0.617554,-1.12732,0.106416,0.108165,0.18011
1700754132812500,-9.640358,0.620554,-1.10932,0.112916,0.114665,0.11511
1700754132820312,-9.645358,0.616554,-1.10032,0.116716,0.115165,0.12811
1700754132828125,-9.651358,0.605554,-1.10032,0.110516,0.111965,0.11311
1700754132835937,-9.678358,0.581554,-1.9532,0.112116,0.116865,0.9611
1700754132843750,-9.738358,0.568554,-1.9732,0.110216,0.113265,0.4911
1700754132851562,-9.797358,0.569554,-1.11532,0.119616,0.108165,0.4689
1700754132859375,-9.821358,0.579554,-1.12532,0.111316,0.112265,0.3389
1700754132867187,-9.842358,0.604554,-1.11332,0.107116,0.110865,0.5089
1700754132875000,-9.855358,0.597554,-1.9132,0.108016,0.113665,0.12889
1700754132882812,-9.858358,0.608554,-1.6632,0.107516,0.111765,0.7989
1700754132890625,-9.844358,0.610554,-1.1932,0.106616,0.120165,0.19389
1700754132898437,-9.802358,0.607554,0.95632,0.107516,0.123065,0.14389
1700754132906250,-9.723358,0.612554,0.91932,0.109016,0.122865,0.19189
1700754132914062,-9.643358,0.617554,0.91732,0.105716,0.120965,0.28689
1700754132921875,-9.593358,0.621554,0.90132,0.103716,0.112465,0.30089
1700754132929687,-9.569358,0.629554,0.91232,0.109916,0.110865,0.28489
1700754132937500,-9.576358,0.632554,0.94032,0.113216,0.112465,0.36589
1700754132945312,-9.640358,0.618554,0.94432,0.106516,0.100165,0.38489
1700754132953125,-9.698358,0.592554,0.97632,0.99516,0.101465,0.30089
1700754132960937,-9.729358,0.546554,0.97632,0.105816,0.107965,0.26989
1700754132968750,-9.747358,0.533554,0.92432,0.99616,0.106465,0.22189
1700754132976562,-9.634358,0.524554,0.91332,0.94716,0.106365,0.25289
1700754132984375,-9.490358,0.497554,0.90332,0.95316,0.102465,0.26589
1700754132992187,-9.416358,0.487554,0.80732,0.83216,0.96165,0.31289
1700754133000000,-9.396358,0.487554,0.74832,0.80616,0.78565,0.32989
1700754133007812,-9.390358,0.432554,0.80732,0.82916,0.67565,0.36389
1700754133015625,-9.406358,0.427554,0.83832,0.80316,0.45665,0.39089
1700754133023437,-9.434358,0.488554,0.78432,0.78516,0.42265,0.37389
1700754133031250,-9.506358,0.518554,0.69432,0.78916,0.40865,0.39089
1700754133039062,-9.543358,0.534554,0.69432,0.59216,0.25565,0.36889
1700754133046875,-9.533358,0.532554,0.73932,0.53616,0.17965,0.37089
1700754133054687,-9.524358,0.529554,0.77132,0.48816,0.14765,0.30489
1700754133062500,-9.551358,0.543554,0.77332,0.41216,0.1865,0.27289
1700754133070312,-9.613358,0.557554,0.76232,0.34216,0.5135,0.31689
1700754133078125,-9.669358,0.584554,0.75332,0.30916,0.11835,0.34789
1700754133085937,-9.728358,0.608554,0.78732,0.31416,0.17835,0.26989
1700754133093750,-9.777358,0.615554,0.82932,0.25216,0.22735,0.31689
1700754133101562,-9.832358,0.607554,0.86332,0.3716,0.26835,0.34189
1700754133109375,-9.883358,0.605554,0.90832,0.7216,0.26535,0.32789
1700754133117187,-9.932358,0.593554,0.93332,0.1984,0.26435,0.34389
1700754133125000,-9.948358,0.573554,0.92832,0.11884,0.23535,0.37289
1700754133132812,-9.923358,0.573554,0.91932,0.19284,0.11835,0.37389
1700754133140625,-9.887358,0.565554,0.93732,0.20984,0.5335,0.35789
1700754133148437,-9.837358,0.554554,0.95132,0.22084,0.3435,0.37489
1700754133156250,-9.787358,0.538554,0.96432,0.23484,0.1735,0.35989
1700754133164062,-9.760358,0.526554,0.95832,0.23584,0.3265,0.29589
1700754133171875,-9.726358,0.517554,0.94432,0.23684,0.3265,0.26389
1700754133179687,-9.697358,0.532554,0.92032,0.35384,0.3765,0.31289
1700754133187500,-9.666358,0.551554,0.90832,0.42884,0.1365,0.25989
1700754133195312,-9.657358,0.574554,0.89732,0.42284,0.435,0.28289
1700754133203125,-9.653358,0.600554,0.88132,0.47584,0.4065,0.28089
1700754133210937,-9.634358,0.630554,0.88332,0.53784,0.235,0.29089
1700754133218750,-9.623358,0.646554,0.90332,0.54084,0.8535,0.25689
1700754133226562,-9.623358,0.662554,0.92832,0.49984,0.6235,0.27689
1700754133234375,-9.628358,0.668554,0.94232,0.57884,0.6235,0.25989
1700754133242187,-9.641358,0.670554,0.97632,0.67884,0.13135,0.27289
1700754133250000,-9.655358,0.662554,0.98532,0.52184,0.11535,0.27489
1700754133257812,-9.666358,0.646554,-1.932,0.44284,0.135,0.25989
1700754133265625,-9.697358,0.638554,-1.1432,0.48684,0.4965,0.27689
1700754133273437,-9.701358,0.616554,-1.3932,0.43484,0.3665,0.26289
1700754133281250,-9.692358,0.596554,-1.4632,0.45184,0.265,0.29389
1700754133289062,-9.716358,0.567554,0.98232,0.43984,0.4965,0.27689
1700754133296875,-9.655358,0.544554,-1.4132,0.42184,0.18165,0.26289
1700754133304687,-9.648358,0.537554,-1.7532,0.45984,0.11265,0.22789
1700754133312500,-9.686358,0.507554,-1.5232,0.54084,0.9465,0.24289
1700754133320312,-9.753358,0.506554,-1.6332,0.63484,0.8065,0.14489
1700754133328125,-9.819358,0.536554,-1.3932,0.63284,0.8165,0.12989
1700754133335937,-9.851358,0.565554,-1.1432,0.66784,0.16965,0.22989
1700754133343750,-9.863358,0.619554,0.99132,0.59484,0.21465,0.24489
1700754133351562,-9.872358,0.643554,-1.332,0.62584,0.28065,0.22889
1700754133359375,-9.873358,0.674554,-1.1432,0.51584,0.26365,0.23089
1700754133367187,-9.826358,0.673554,-1.532,0.44084,0.35965,0.23089
1700754133375000,-9.780358,0.651554,-1.732,0.41584,0.39665,0.29789
1700754133382812,-9.724358,0.628554,0.99432,0.26284,0.36165,0.34689
1700754133390625,-9.645358,0.617554,0.98232,0.21384,0.44265,0.37989
1700754133398437,-9.586358,0.621554,0.98332,0.19484,0.42965,0.36589
1700754133406250,-9.526358,0.644554,0.98532,0.16884,0.40865,0.37989
1700754133414062,-9.511358,0.675554,0.98732,0.15384,0.42565,0.36389
1700754133421875,-9.527358,0.673554,-1.1232,0.4384,0.37565,0.38089
1700754133429687,-9.592358,0.679554,-1.3032,0.0,0.30865,0.33189
1700754133437500,-9.637358,0.677554,-1.2732,0.2916,0.27665,0.26789
1700754133445312,-9.659358,0.676554,-1.1232,0.316,0.34765,0.12589
1700754133453125,-9.672358,0.671554,-1.1932,0.4384,0.29865,0.12489
1700754133460937,-9.677358,0.660554,-1.2332,0.2016,0.25065,0.9389
1700754133468750,-9.679358,0.629554,-1.2332,0.5616,0.35765,0.10689
1700754133476562,-9.696358,0.598554,-1.3032,0.4616,0.34565,0.10889
1700754133484375,-9.741358,0.577554,-1.4832,0.3016,0.39465,0.9289
1700754133492187,-9.792358,0.560554,-1.5732,0.9384,0.41065,0.12389
1700754133500000,-9.803358,0.556554,-1.4832,0.316,0.39565,0.20589
1700754133507812,-9.819358,0.552554,-1.4132,0.484,0.46465,0.27289
1700754133515625,-9.824358,0.554554,-1.4332,0.7384,0.49365,0.23789
1700754133523437,-9.810358,0.549554,-1.3032,0.5684,0.46065,0.30189
1700754133531250,-9.780358,0.536554,-1.4132,0.8384,0.48165,0.23989
1700754133539062,-9.763358,0.542554,-1.3932,0.15084,0.47665,0.31689
1700754133546875,-9.788358,0.551554,-1.3732,0.21084,0.41265,0.38089
1700754133554687,-9.810358,0.562554,-1.7732,0.21784,0.29465,0.36189
1700754133562500,-9.835358,0.576554,-1.5932,0.17784,0.38165,0.38189
1700754133570312,-9.833358,0.581554,-1.5932,0.17984,0.37865,0.46089
1700754133578125,-9.808358,0.584554,-1.5732,0.22984,0.21365,0.47489
1700754133585937,-9.808358,0.571554,-1.6632,0.22784,0.22965,0.52289
1700754133593750,-9.813358,0.573554,-1.9332,0.18284,0.16265,0.53889
1700754133601562,-9.815358,0.582554,-1.12232,0.19384,0.18165,0.60489
1700754133609375,-9.826358,0.585554,-1.14732,0.17684,0.16465,0.65289
1700754133617187,-9.836358,0.612554,-1.15132,0.9784,0.19765,0.70189
1700754133625000,-9.833358,0.618554,-1.14932,0.5116,0.29865,0.77089
1700754133632812,-9.831358,0.612554,-1.12432,0.6216,0.31165,0.78589
1700754133640625,-9.820358,0.631554,-1.9332,0.24516,0.40465,0.80189
1700754133648437,-9.832358,0.642554,-1.10032,0.34416,0.44065,0.85289
1700754133656250,-9.885358,0.626554,-1.9332,0.33116,0.42665,0.80589
1700754133664062,-9.950358,0.606554,-1.10232,0.41716,0.63465,0.72589
1700754133671875,-10.4358,0.563554,-1.9732,0.43516,0.69965,0.82289
1700754133679687,-10.17358,0.535554,-1.8632,0.48916,0.88365,0.81089
1700754133687500,-9.969358,0.512554,-1.4332,0.46316,0.103365,0.82889
1700754133695312,-9.877358,0.501554,0.98232,0.48916,0.111165,0.84389
1700754133703125,-9.796358,0.506554,0.96032,0.49916,0.116965,0.98589
1700754133710937,-9.711358,0.510554,0.91732,0.52716,0.127565,0.100689
1700754133718750,-9.646358,0.527554,0.89932,0.59316,0.130965,0.107289
1700754133726562,-9.634358,0.533554,0.91132,0.67616,0.131065,0.117089
1700754133734375,-9.652358,0.514554,0.92932,0.84716,0.135765,0.120489
1700754133742187,-9.651358,0.453554,0.94032,0.83916,0.138365,0.125089
1700754133750000,-9.619358,0.433554,0.92932,0.97716,0.122765,0.138289
1700754133757812,-9.565358,0.390554,0.87032,0.104016,0.119065,0.157589
1700754133765625,-9.520358,0.374554,0.86332,0.112416,0.104565,0.170589
1700754133773437,-9.504358,0.382554,0.87232,0.124216,0.93965,0.184789
1700754133781250,-9.509358,0.396554,0.85432,0.140316,0.84365,0.193089
1700754133789062,-9.513358,0.412554,0.84132,0.157016,0.76765,0.196789
1700754133796875,-9.538358,0.385554,0.83032,0.166116,0.74665,0.209489
1700754133804687,-9.579358,0.331554,0.84832,0.180716,0.73465,0.209889
1700754133812500,-9.603358,0.269554,0.85432,0.188016,0.89465,0.206689
1700754133820312,-9.573358,0.173554,0.89732,0.203616,0.94365,0.200489
1700754133828125,-9.510358,0.70554,0.95632,0.215016,0.89865,0.191089
1700754133835937,-9.478358,0.9446,0.88632,0.222416,0.97765,0.187889
1700754133843750,-9.461358,0.49446,0.82832,0.209816,0.93065,0.174889
1700754133851562,-9.437358,0.130446,0.88832,0.217516,0.98165,0.157389
1700754133859375,-9.416358,0.185446,0.88832,0.226716,0.96365,0.157389
1700754133867187,-9.403358,0.195446,0.84532,0.206316,0.90765,0.138989
1700754133875000,-9.444358,0.187446,0.80332,0.212816,0.89565,0.121589
1700754133882812,-9.500358,0.173446,0.79632,0.201216,0.99165,0.110089
1700754133890625,-9.552358,0.188446,0.85432,0.181616,0.99065,0.85589
1700754133898437,-9.625358,0.247446,0.90032,0.183616,0.97965,0.69789
1700754133906250,-9.678358,0.295446,0.91832,0.181716,0.91465,0.59989
1700754133914062,-9.740358,0.327446,0.88232,0.181316,0.81565,0.51889
1700754133921875,-9.803358,0.322446,0.84832,0.178216,0.78265,0.53389
1700754133929687,-9.833358,0.297446,0.82532,0.181716,0.78565,0.50389
1700754133937500,-9.828358,0.301446,0.82132,0.178916,0.68965,0.55189
1700754133945312,-9.821358,0.321446,0.81232,0.167816,0.70465,0.54989
1700754133953125,-9.801358,0.335446,0.80132,0.170716,0.68765,0.56589
1700754133960937,-9.735358,0.371446,0.78332,0.162316,0.71065,0.55189
1700754133968750,-9.634358,0.362446,0.74032,0.159716,0.68965,0.43689
1700754133976562,-9.469358,0.298446,0.68332,0.167316,0.70465,0.40489
1700754133984375,-9.235358,0.196446,0.63832,0.155116,0.64765,0.38289
1700754133992187,-9.16358,0.56446,0.58232,0.168616,0.65365,0.38789
1700754134000000,-8.832358,0.115554,0.56232,0.175916,0.63865,0.14689
1700754134007812,-8.754358,0.260554,0.63132,0.167216,0.47065,0.6189
1700754134015625,-8.820358,0.335554,0.73132,0.155316,0.39765,0.17711
1700754134023437,-9.79358,0.332554,0.81132,0.130416,0.21365,0.40911
1700754134031250,-9.437358,0.244554,0.87532,0.102416,0.13765,0.58811
1700754134039062,-9.826358,0.128554,0.90432,0.71316,0.7835,0.88511
1700754134046875,-10.251358,0.2554,0.85932,0.41716,0.10535,0.104811
1700754134054687,-10.575358,0.119446,0.81632,0.3716,0.15335,0.122911
1700754134062500,-10.715358,0.235446,0.83232,0.14384,0.2735,0.129811
1700754134070312,-10.667358,0.293446,0.85932,0.39284,0.7435,0.130011
1700754134078125,-10.473358,0.340446,0.88832,0.52584,0.3935,0.112311
1700754134085937,-10.214358,0.353446,0.87032,0.82384,0.4235,0.90211
1700754134093750,-9.954358,0.311446,0.83432,0.101084,0.6035,0.76011
1700754134101562,-9.791358,0.224446,0.78932,0.127284,0.1035,0.64911
1700754134109375,-9.720358,0.55446,0.76932,0.152084,0.10635,0.57211
1700754134117187,-9.668358,0.101554,0.76632,0.168184,0.30735,0.46411
1700754134125000,-9.655358,0.276554,0.76432,0.167284,0.41935,0.25411
1700754134132812,-9.674358,0.436554,0.75532,0.153484,0.58635,0.15811
1700754134140625,-9.724358,0.508554,0.78932,0.145584,0.65135,0.10911
1700754134148437,-9.730358,0.577554,0.87232,0.147284,0.68435,0.15811
1700754134156250,-9.736358,0.584554,0.90432,0.140784,0.68135,0.23711
1700754134164062,-9.709358,0.532554,0.94932,0.133084,0.71535,0.20411
1700754134171875,-9.704358,0.506554,0.98332,0.135784,0.79135,0.34811
1700754134179687,-9.683358,0.487554,0.99632,0.138584,0.73235,0.46411
1700754134187500,-9.648358,0.518554,-1.1032,0.142484,0.69235,0.55711
1700754134195312,-9.644358,0.578554,-1.6132,0.147984,0.66335,0.68811
1700754134203125,-9.663358,0.633554,-1.13132,0.129684,0.58435,0.76711
1700754134210937,-9.689358,0.691554,-1.16932,0.134384,0.61535,0.86411
1700754134218750,-9.705358,0.709554,-1.19432,0.137584,0.46735,0.92811
1700754134226562,-9.696358,0.718554,-1.20332,0.134984,0.35635,0.94511
1700754134234375,-9.655358,0.684554,-1.22632,0.143884,0.32135,0.91211
1700754134242187,-9.628358,0.670554,-1.25532,0.147184,0.19135,0.92811
1700754134250000,-9.621358,0.661554,-1.24832,0.143884,0.10935,0.91111
1700754134257812,-9.627358,0.644554,-1.25032,0.143884,0.10935,0.87911
1700754134265625,-9.661358,0.637554,-1.26432,0.151784,0.14435,0.80011
1700754134273437,-9.697358,0.629554,-1.28232,0.151284,0.9235,0.76611
1700754134281250,-9.683358,0.629554,-1.25932,0.145784,0.4065,0.60211
1700754134289062,-9.654358,0.644554,-1.23032,0.148984,0.8865,0.57111
1700754134296875,-9.659358,0.642554,-1.23732,0.138984,0.18865,0.51911
1700754134304687,-9.688358,0.645554,-1.20532,0.126284,0.27065,0.45311
1700754134312500,-9.731358,0.659554,-1.19932,0.121784,0.33265,0.35711
1700754134320312,-9.776358,0.662554,-1.21032,0.121784,0.38165,0.37211
1700754134328125,-9.803358,0.667554,-1.21432,0.116384,0.46565,0.25711
1700754134335937,-9.830358,0.678554,-1.20332,0.107284,0.57765,0.27311
1700754134343750,-9.896358,0.710554,-1.18732,0.103884,0.67765,0.25511
1700754134351562,-9.993358,0.741554,-1.17232,0.92684,0.89165,0.31611
1700754134359375,-10.56358,0.744554,-1.16032,0.95884,0.95565,0.26811
1700754134367187,-10.69358,0.735554,-1.12732,0.86484,0.113565,0.33011
1700754134375000,-10.44358,0.721554,-1.9732,0.72384,0.121765,0.36011
1700754134382812,-9.930358,0.715554,-1.3932,0.72284,0.137965,0.29511
1700754134390625,-9.781358,0.711554,0.98532,0.70084,0.151665,0.40411
1700754134398437,-9.653358,0.709554,0.94432,0.65584,0.151565,0.38811
1700754134406250,-9.572358,0.688554,0.91932,0.60984,0.144765,0.32411
1700754134414062,-9.553358,0.652554,0.90632,0.64484,0.141265,0.32611
1700754134421875,-9.553358,0.625554,0.89932,0.53384,0.134665,0.24511
1700754134429687,-9.577358,0.601554,0.90132,0.52584,0.122665,0.20011
1700754134437500,-9.624358,0.573554,0.89732,0.40684,0.128065,0.13111
1700754134445312,-9.669358,0.569554,0.89032,0.45584,0.123165,0.18011
1700754134453125,-9.727358,0.559554,0.87732,0.33684,0.128565,0.12811
1700754134460937,-9.761358,0.569554,0.84332,0.19784,0.134965,0.17511
1700754134468750,-9.761358,0.602554,0.82332,0.16684,0.136465,0.11011
1700754134476562,-9.759358,0.622554,0.80932,0.12884,0.138465,0.7611
1700754134484375,-9.741358,0.634554,0.81032,0.2616,0.146265,0.6711
1700754134492187,-9.719358,0.640554,0.80032,0.8316,0.145565,0.5411
1700754134500000,-9.667358,0.640554,0.80532,0.8916,0.147965,0.2289
1700754134507812,-9.669358,0.620554,0.82332,0.20016,0.149565,0.5589
1700754134515625,-9.698358,0.572554,0.82932,0.22816,0.144565,0.3989
1700754134523437,-9.695358,0.543554,0.86832,0.21116,0.146065,0.3889
1700754134531250,-9.744358,0.531554,0.87932,0.29316,0.146265,0.2489
1700754134539062,-9.776358,0.538554,0.87932,0.31816,0.142765,0.5711
1700754134546875,-9.803358,0.536554,0.87232,0.29816,0.144165,0.12311
1700754134554687,-9.857358,0.539554,0.85932,0.42816,0.137965,0.13611
1700754134562500,-9.909358,0.524554,0.84132,0.50216,0.131165,0.12111
1700754134570312,-9.913358,0.529554,0.83832,0.45716,0.124765,0.13711
1700754134578125,-9.890358,0.517554,0.82032,0.47516,0.124865,0.12011
1700754134585937,-9.843358,0.521554,0.79632,0.49216,0.126665,0.13511
1700754134593750,-9.780358,0.524554,0.77132,0.58516,0.126465,0.8611
1700754134601562,-9.698358,0.536554,0.74632,0.53016,0.124365,0.9011
1700754134609375,-9.666358,0.534554,0.71232,0.72616,0.131365,0.13311
1700754134617187,-9.592358,0.533554,0.66132,0.83816,0.138065,0.13011
1700754134625000,-9.526358,0.507554,0.61832,0.80016,0.132765,0.11711
1700754134632812,-9.465358,0.489554,0.59132,0.82216,0.138065,0.11411
1700754134640625,-9.417358,0.473554,0.59332,0.82116,0.140565,0.6111
1700754134648437,-9.431358,0.459554,0.57332,0.71916,0.125965,0.7211
1700754134656250,-9.419358,0.423554,0.65232,0.58216,0.118165,0.13611
1700754134664062,-9.481358,0.363554,0.69532,0.58916,0.105565,0.11811
1700754134671875,-9.614358,0.351554,0.66332,0.58416,0.110165,0.10411
1700754134679687,-9.764358,0.340554,0.68532,0.43916,0.98565,0.12311
1700754134687500,-9.813358,0.314554,0.75132,0.43616,0.98265,0.12411
1700754134695312,-9.836358,0.308554,0.71032,0.39116,0.93465,0.7611
1700754134703125,-9.903358,0.324554,0.58832,0.26716,0.95165,0.289
1700754134710937,-9.897358,0.331554,0.60632,0.25116,0.93365,0.6589
1700754134718750,-9.832358,0.363554,0.65632,0.11216,0.86965,0.8089
1700754134726562,-9.805358,0.392554,0.68332,0.516,0.87265,0.3289
1700754134734375,-9.790358,0.369554,0.68732,0.384,0.73465,0.10889
1700754134742187,-9.780358,0.340554,0.69432,0.6384,0.72065,0.7689
1700754134750000,-9.802358,0.343554,0.67632,0.3184,0.72065,0.7789
1700754134757812,-9.825358,0.354554,0.64932,0.17384,0.65565,0.9189
1700754134765625,-9.814358,0.372554,0.65432,0.20684,0.62165,0.8989
1700754134773437,-9.808358,0.378554,0.65832,0.18884,0.62065,0.21889
1700754134781250,-9.760358,0.369554,0.65632,0.20084,0.65665,0.18889
1700754134789062,-9.692358,0.361554,0.62732,0.17884,0.70765,0.28689
1700754134796875,-9.629358,0.338554,0.64032,0.32384,0.69065,0.21989
1700754134804687,-9.578358,0.328554,0.65432,0.40784,0.68665,0.23389
1700754134812500,-9.535358,0.334554,0.65632,0.37284,0.65665,0.21889
1700754134820312,-9.477358,0.355554,0.64532,0.46984,0.68865,0.16889
1700754134828125,-9.441358,0.366554,0.62732,0.46884,0.65765,0.10489
1700754134835937,-9.432358,0.379554,0.62232,0.60484,0.62865,0.8889
1700754134843750,-9.489358,0.407554,0.64732,0.62484,0.52965,0.2289
1700754134851562,-9.574358,0.422554,0.65432,0.68884,0.51365,0.2611
1700754134859375,-9.631358,0.455554,0.66932,0.70984,0.50965,0.2811
1700754134867187,-9.669358,0.447554,0.68532,0.70584,0.49565,0.2711
1700754134875000,-9.714358,0.432554,0.70632,0.69084,0.44665,0.1111
1700754134882812,-9.763358,0.406554,0.71732,0.74084,0.46165,0.9311
1700754134890625,-9.794358,0.380554,0.72632,0.80284,0.51065,0.6111
1700754134898437,-9.839358,0.363554,0.73232,0.79484,0.65365,0.14311
1700754134906250,-9.867358,0.330554,0.72832,0.94384,0.70865,0.12511
1700754134914062,-9.910358,0.329554,0.72632,0.94984,0.72965,0.4211
1700754134921875,-9.931358,0.347554,0.71032,0.103684,0.82265,0.9311
1700754134929687,-9.911358,0.371554,0.66732,0.104884,0.84065,0.4411
1700754134937500,-9.864358,0.399554,0.65132,0.103484,0.87165,0.4511
1700754134945312,-9.799358,0.409554,0.62532,0.115884,0.71065,0.9411
1700754134953125,-9.716358,0.426554,0.60732,0.118584,0.71165,0.1889
1700754134960937,-9.662358,0.427554,0.53432,0.100384,0.69165,0.1311
1700754134968750,-9.617358,0.442554,0.55932,0.102784,0.64765,0.489
1700754134976562,-9.542358,0.496554,0.59132,0.114384,0.49665,0.1689
1700754134984375,-9.513358,0.503554,0.57332,0.120284,0.48265,0.1689
1700754134992187,-9.502358,0.535554,0.55232,0.113684,0.44165,0.311
1700754135000000,-9.559358,0.565554,0.55232,0.106984,0.34765,0.4911
1700754135007812,-9.584358,0.614554,0.54332,0.104184,0.29765,0.9811
1700754135015625,-9.616358,0.666554,0.53032,0.93484,0.32865,0.14511
1700754135023437,-9.639358,0.686554,0.53032,0.93784,0.37865,0.29011
1700754135031250,-9.657358,0.698554,0.54332,0.78584,0.40165,0.26911
1700754135039062,-9.657358,0.687554,0.55032,0.68184,0.38265,0.34911
1700754135046875,-9.616358,0.664554,0.54332,0.73484,0.41165,0.36811
1700754135054687,-9.574358,0.661554,0.56832,0.58984,0.49565,0.39711
1700754135062500,-9.576358,0.641554,0.59332,0.60684,0.47965,0.44511
1700754135070312,-9.589358,0.637554,0.60932,0.73684,0.41165,0.48111
1700754135078125,-9.600358,0.648554,0.58832,0.69984,0.28465,0.39911
1700754135085937,-9.621358,0.662554,0.59132,0.78084,0.20165,0.43311
1700754135093750,-9.682358,0.674554,0.61332,0.82784,0.13765,0.48211
1700754135101562,-9.758358,0.686554,0.61532,0.93984,0.5465,0.48411
1700754135109375,-9.831358,0.698554,0.64932,0.97484,0.6335,0.45511
1700754135117187,-9.898358,0.677554,0.67632,0.98784,0.6235,0.40611
1700754135125000,-9.940358,0.666554,0.67832,0.110084,0.6435,0.36011
1700754135132812,-9.947358,0.666554,0.69032,0.111484,0.21035,0.36111
1700754135140625,-9.938358,0.660554,0.68732,0.119884,0.17235,0.23011
1700754135148437,-9.918358,0.671554,0.71732,0.121484,0.19035,0.16611
1700754135156250,-9.884358,0.683554,0.72832,0.120084,0.9535,0.7011
1700754135164062,-9.855358,0.719554,0.73732,0.121084,0.4435,0.2011
1700754135171875,-9.852358,0.767554,0.74432,0.122284,0.2635,0.7689
1700754135179687,-9.841358,0.831554,0.73232,0.119684,0.7935,0.10689
1700754135187500,-9.795358,0.877554,0.71032,0.121884,0.3435,0.8889
1700754135195312,-9.746358,0.899554,0.69232,0.119284,0.7735,0.10789
1700754135203125,-9.728358,0.894554,0.69832,0.121684,0.3335,0.8989
1700754135210937,-9.707358,0.882554,0.68932,0.119784,0.8265,0.10789
1700754135218750,-9.691358,0.856554,0.69232,0.116484,0.1865,0.9189
1700754135226562,-9.679358,0.820554,0.68332,0.113184,0.3665,0.7689
1700754135234375,-9.670358,0.811554,0.67832,0.116884,0.4935,0.10589
1700754135242187,-9.648358,0.815554,0.66532,0.108884,0.4835,0.9189
1700754135250000,-9.649358,0.853554,0.66032,0.95984,0.4735,0.17389
1700754135257812,-9.655358,0.855554,0.66032,0.101884,0.9435,0.22289
1700754135265625,-9.666358,0.851554,0.67432,0.90884,0.2935,0.20889
1700754135273437,-9.677358,0.829554,0.68332,0.76984,0.1765,0.25689
1700754135281250,-9.675358,0.807554,0.71032,0.65784,0.6765,0.27589
1700754135289062,-9.690358,0.785554,0.73032,0.66584,0.15465,0.26289
1700754135296875,-9.710358,0.767554,0.72832,0.49584,0.18465,0.29589
1700754135304687,-9.737358,0.761554,0.73032,0.43384,0.20065,0.28089
1700754135312500,-9.791358,0.766554,0.73532,0.45384,0.32765,0.27889
1700754135320312,-9.829358,0.736554,0.76932,0.42984,0.33265,0.33089
1700754135328125,-9.889358,0.699554,0.79332,0.41184,0.42165,0.27889
1700754135335937,-9.940358,0.671554,0.79132,0.29984,0.45565,0.29689
1700754135343750,-9.929358,0.651554,0.76632,0.29484,0.50865,0.26689
1700754135351562,-9.897358,0.660554,0.73732,0.16084,0.62865,0.25589
1700754135359375,-9.833358,0.696554,0.70132,0.20284,0.62265,0.18789
1700754135367187,-9.731358,0.769554,0.66032,0.2816,0.69965,0.23689
1700754135375000,-9.648358,0.835554,0.66532,0.4816,0.68765,0.20689
1700754135382812,-9.622358,0.897554,0.67132,0.26616,0.70165,0.22489
1700754135390625,-9.611358,0.923554,0.66032,0.32916,0.76765,0.17789
1700754135398437,-9.566358,0.929554,0.64932,0.33216,0.72265,0.6689
1700754135406250,-9.553358,0.904554,0.66032,0.36916,0.76665,0.3111
1700754135414062,-9.563358,0.865554,0.68132,0.45416,0.70665,0.9311
1700754135421875,-9.612358,0.810554,0.70132,0.50816,0.48965,0.14411
1700754135429687,-9.683358,0.754554,0.70332,0.56016,0.60765,0.12511
1700754135437500,-9.768358,0.704554,0.70532,0.54016,0.58865,0.14311
1700754135445312,-9.816358,0.660554,0.69632,0.56116,0.63965,0.10911
1700754135453125,-9.838358,0.632554,0.67432,0.55316,0.70965,0.4211
1700754135460937,-9.835358,0.581554,0.69032,0.56316,0.80165,0.5289
1700754135468750,-9.837358,0.565554,0.68332,0.53616,0.80465,0.6989
1700754135476562,-9.819358,0.569554,0.67432,0.42616,0.83565,0.13289
1700754135484375,-9.781358,0.564554,0.75732,0.50816,0.78965,0.11789
1700754135492187,-9.763358,0.577554,0.74832,0.58316,0.70265,0.27789
1700754135500000,-9.795358,0.584554,0.65632,0.50216,0.83065,0.29289
1700754135507812,-9.795358,0.578554,0.71232,0.34716,0.68465,0.35489
1700754135515625,-9.763358,0.560554,0.76632,0.54416,0.77165,0.39189
1700754135523437,-9.768358,0.568554,0.67232,0.56616,0.76565,0.37289
1700754135531250,-9.772358,0.546554,0.57532,0.55416,0.70265,0.37389
1700754135539062,-9.724358,0.526554,0.57332,0.58616,0.86565,0.39189
1700754135546875,-9.644358,0.533554,0.61732,0.45316,0.66565,0.37089
1700754135554687,-9.576358,0.541554,0.65132,0.30616,0.65665,0.33989
1700754135562500,-9.525358,0.545554,0.66932,0.31616,0.48965,0.30489
1700754135570312,-9.532358,0.576554,0.65632,0.29816,0.42365,0.30389
1700754135578125,-9.544358,0.621554,0.64932,0.31516,0.47565,0.20889
1700754135585937,-9.603358,0.655554,0.66032,0.30316,0.47865,0.17789
1700754135593750,-9.666358,0.685554,0.67432,0.31616,0.44465,0.12889
1700754135601562,-9.749358,0.686554,0.71732,0.30116,0.41265,0.9689
1700754135609375,-9.816358,0.645554,0.75332,0.31016,0.49065,0.4789
1700754135617187,-9.836358,0.612554,0.76932,0.30516,0.48165,0.6689
1700754135625000,-9.815358,0.561554,0.76432,0.32016,0.44665,0.16289
1700754135632812,-9.808358,0.531554,0.75132,0.30016,0.49365,0.12889
1700754135640625,-9.771358,0.520554,0.73732,0.30516,0.59465,0.16389
1700754135648437,-9.751358,0.513554,0.73532,0.24916,0.63665,0.15989
1700754135656250,-9.731358,0.515554,0.72832,0.11316,0.70665,0.12889
1700754135664062,-9.699358,0.508554,0.71732,0.6416,0.68965,0.9489
1700754135671875,-9.675358,0.507554,0.72332,0.3316,0.70365,0.19089
1700754135679687,-9.657358,0.525554,0.70532,0.1916,0.68865,0.19089
1700754135687500,-9.639358,0.535554,0.68132,0.18284,0.70565,0.26989
1700754135695312,-9.632358,0.538554,0.66532,0.17784,0.64365,0.27089
1700754135703125,-9.619358,0.537554,0.65432,0.23184,0.49065,0.34789
1700754135710937,-9.603358,0.550554,0.65132,0.26184,0.50865,0.33189
1700754135718750,-9.596358,0.546554,0.65132,0.40284,0.42865,0.26589
1700754135726562,-9.619358,0.564554,0.65132,0.45384,0.40765,0.37589
1700754135734375,-9.637358,0.571554,0.66032,0.49984,0.39365,0.32789
1700754135742187,-9.667358,0.569554,0.67632,0.57284,0.46165,0.34489
1700754135750000,-9.707358,0.567554,0.69232,0.65984,0.42365,0.35689
1700754135757812,-9.751358,0.544554,0.69932,0.68084,0.52865,0.34489
1700754135765625,-9.801358,0.525554,0.70632,0.71484,0.44665,0.24689
1700754135773437,-9.832358,0.505554,0.69932,0.78084,0.52665,0.22989
1700754135781250,-9.847358,0.497554,0.67632,0.91984,0.54465,0.24489
1700754135789062,-9.854358,0.486554,0.66732,0.87584,0.47765,0.22789
1700754135796875,-9.838358,0.481554,0.64532,0.84784,0.45865,0.25889
1700754135804687,-9.864358,0.428554,0.58832,0.71384,0.49465,0.37589
1700754135812500,-9.837358,0.434554,0.65632,0.91784,0.44565,0.35689
1700754135820312,-9.838358,0.454554,0.66932,0.95084,0.42765,0.37189
1700754135828125,-9.834358,0.456554,0.66032,0.97084,0.44165,0.35389
1700754135835937,-9.838358,0.470554,0.64932,0.95484,0.42565,0.36989
1700754135843750,-9.807358,0.520554,0.64932,0.101584,0.44265,0.35389
1700754135851562,-9.748358,0.595554,0.60932,0.94384,0.41665,0.35789
1700754135859375,-9.713358,0.657554,0.58632,0.94984,0.37965,0.37189
1700754135867187,-9.693358,0.678554,0.58832,0.91684,0.41465,0.35689
1700754135875000,-9.679358,0.681554,0.60932,0.70984,0.41465,0.37589
1700754135882812,-9.637358,0.671554,0.61332,0.72184,0.29365,0.32389
1700754135890625,-9.619358,0.655554,0.61132,0.56784,0.25965,0.29189
1700754135898437,-9.603358,0.653554,0.60632,0.41884,0.31365,0.29689
1700754135906250,-9.594358,0.650554,0.60832,0.44084,0.35965,0.23089
1700754135914062,-9.592358,0.654554,0.62432,0.34884,0.32665,0.13489
1700754135921875,-9.611358,0.644554,0.62932,0.29784,0.33065,0.5689
1700754135929687,-9.623358,0.631554,0.62932,0.22484,0.29565,0.789
1700754135937500,-9.627358,0.619554,0.62432,0.19984,0.38965,0.5711
1700754135945312,-9.623358,0.608554,0.62632,0.21984,0.40565,0.18711
1700754135953125,-9.624358,0.597554,0.63132,0.29084,0.44565,0.29711
1700754135960937,-9.651358,0.573554,0.62932,0.19684,0.47865,0.34411
1700754135968750,-9.700358,0.552554,0.65132,0.27684,0.46065,0.29711
1700754135976562,-9.740358,0.519554,0.66332,0.23384,0.47465,0.33011
1700754135984375,-9.767358,0.509554,0.66132,0.25284,0.48265,0.27811
1700754135992187,-9.769358,0.515554,0.66332,0.21084,0.42865,0.23211
1700754136000000,-9.772358,0.540554,0.65632,0.21184,0.31265,0.15311
1700754136007812,-9.754358,0.548554,0.64732,0.17884,0.34465,0.5611
1700754136015625,-9.736358,0.557554,0.64732,0.19384,0.18065,0.2389
1700754136023437,-9.709358,0.554554,0.65132,0.13284,0.27765,0.789
1700754136031250,-9.689358,0.565554,0.65832,0.3716,0.27465,0.5689
1700754136039062,-9.651358,0.571554,0.66032,0.4516,0.19765,0.12389
1700754136046875,-9.653358,0.571554,0.66532,0.2916,0.16465,0.10689
1700754136054687,-9.662358,0.578554,0.68332,0.184,0.18165,0.12289
1700754136062500,-9.681358,0.594554,0.66932,0.3916,0.22665,0.10589
1700754136070312,-9.672358,0.605554,0.66732,0.6116,0.18165,0.12389
1700754136078125,-9.683358,0.598554,0.67032,0.4916,0.23365,0.10889
1700754136085937,-9.699358,0.605554,0.67232,0.6216,0.18265,0.5989
1700754136093750,-9.712358,0.601554,0.66732,0.4616,0.26665,0.3511
1700754136101562,-9.698358,0.596554,0.66932,0.7416,0.21465,0.511
1700754136109375,-9.682358,0.581554,0.66332,0.3684,0.32965,0.10211
1700754136117187,-9.685358,0.578554,0.66032,0.8984,0.32565,0.12011
1700754136125000,-9.698358,0.583554,0.64932,0.19184,0.33165,0.13511
1700754136132812,-9.689358,0.576554,0.66932,0.18684,0.30865,0.18711
1700754136140625,-9.694358,0.583554,0.66032,0.22984,0.31165,0.17011
1700754136148437,-9.689358,0.605554,0.64232,0.20484,0.41465,0.13411
1700754136156250,-9.712358,0.625554,0.66332,0.22784,0.33065,0.24911
1700754136164062,-9.771358,0.628554,0.66932,0.22584,0.41265,0.18411
1700754136171875,-9.809358,0.622554,0.70832,0.27184,0.29765,0.12111
1700754136179687,-9.863358,0.617554,0.72832,0.31484,0.38165,0.10311
1700754136187500,-9.885358,0.615554,0.73932,0.30184,0.31365,0.4011
1700754136195312,-9.887358,0.608554,0.73732,0.42884,0.31265,0.4211
1700754136203125,-9.881358,0.606554,0.72132,0.45384,0.38165,0.2411
1700754136210937,-9.854358,0.625554,0.69432,0.36284,0.39565,0.2389
1700754136218750,-9.810358,0.642554,0.68032,0.40184,0.37365,0.489
1700754136226562,-9.776358,0.641554,0.68732,0.40384,0.42165,0.1989
1700754136234375,-9.722358,0.654554,0.67232,0.36084,0.44465,0.10489
1700754136242187,-9.661358,0.676554,0.66332,0.43784,0.44565,0.7189
1700754136250000,-9.632358,0.693554,0.68132,0.45084,0.43065,0.12089
1700754136257812,-9.606358,0.712554,0.68132,0.44184,0.44365,0.7089
1700754136265625,-9.602358,0.723554,0.66932,0.45984,0.40865,0.6989
1700754136273437,-9.599358,0.728554,0.66332,0.44084,0.39565,0.3889
1700754136281250,-9.617358,0.717554,0.66032,0.44584,0.35865,0.6889
1700754136289062,-9.653358,0.691554,0.66932,0.47384,0.27965,0.8589
1700754136296875,-9.684358,0.680554,0.66932,0.58084,0.29865,0.5389
1700754136304687,-9.704358,0.669554,0.68032,0.71984,0.30565,0.1489
1700754136312500,-9.698358,0.687554,0.75732,0.69084,0.26665,0.389
1700754136320312,-9.691358,0.691554,0.80932,0.64584,0.19965,0.5189
1700754136328125,-9.732358,0.701554,0.74832,0.69484,0.32865,0.1889
1700754136335937,-9.750358,0.710554,0.73932,0.71984,0.40465,0.3211
1700754136343750,-9.736358,0.704554,0.79632,0.62484,0.35065,0.1011
1700754136351562,-9.711358,0.710554,0.79832,0.45484,0.39565,0.10289
1700754136359375,-9.680358,0.714554,0.71232,0.48184,0.46365,0.13689
1700754136367187,-9.693358,0.690554,0.63632,0.48184,0.46365,0.12089
1700754136375000,-9.691358,0.690554,0.64532,0.59284,0.43065,0.7089
1700754136382812,-9.666358,0.685554,0.73532,0.64284,0.44665,0.3789
1700754136390625,-9.655358,0.698554,0.75532,0.56084,0.44765,0.8789
1700754136398437,-9.685358,0.742554,0.74832,0.55184,0.42865,0.2611
1700754136406250,-9.724358,0.786554,0.73032,0.52784,0.45065,0.2311
1700754136414062,-9.758358,0.830554,0.71932,0.46784,0.39765,0.5589
1700754136421875,-9.810358,0.869554,0.72332,0.43484,0.39965,0.2489
1700754136429687,-9.871358,0.857554,0.77532,0.44684,0.45165,0.4289
1700754136437500,-9.891358,0.837554,0.77532,0.43684,0.43065,0.5689
1700754136445312,-9.881358,0.784554,0.78032,0.42884,0.46765,0.12389
1700754136453125,-9.840358,0.728554,0.77132,0.35084,0.53265,0.10889
1700754136460937,-9.803358,0.705554,0.76432,0.26084,0.57765,0.17289
1700754136468750,-9.770358,0.699554,0.74432,0.26484,0.55865,0.13889
1700754136476562,-9.736358,0.708554,0.73332,0.18184,0.65965,0.17389
1700754136484375,-9.709358,0.710554,0.73532,0.19684,0.69165,0.18989
1700754136492187,-9.707358,0.707554,0.71032,0.18884,0.65565,0.10789
1700754136500000,-9.693358,0.712554,0.67832,0.20084,0.65665,0.20489
1700754136507812,-9.700358,0.723554,0.68332,0.17184,0.58965,0.18789
1700754136515625,-9.716358,0.734554,0.69432,0.14284,0.68665,0.12389
1700754136523437,-9.714358,0.730554,0.70332,0.13484,0.77365,0.11089
1700754136531250,-9.734358,0.723554,0.71432,0.10384,0.65965,0.14289
1700754136539062,-9.785358,0.707554,0.72432,0.9984,0.61265,0.17589
1700754136546875,-9.817358,0.718554,0.68732,0.4784,0.71965,0.17289
1700754136554687,-9.813358,0.738554,0.66032,0.7884,0.68665,0.18889
1700754136562500,-9.800358,0.751554,0.66032,0.4516,0.63765,0.15789
1700754136570312,-9.789358,0.760554,0.62732,0.8116,0.68865,0.17589
1700754136578125,-9.748358,0.754554,0.61332,0.16916,0.75065,0.12689
1700754136585937,-9.714358,0.747554,0.62932,0.32916,0.75265,0.11389
1700754136593750,-9.690358,0.749554,0.61532,0.31416,0.90065,0.8289
1700754136601562,-9.691358,0.725554,0.64532,0.38016,0.95065,0.13289
1700754136609375,-9.700358,0.696554,0.65832,0.49116,0.98465,0.8689
1700754136617187,-9.720358,0.681554,0.65132,0.53116,0.101365,0.2089
1700754136625000,-9.765358,0.679554,0.65832,0.53516,0.96665,0.3789
1700754136632812,-9.780358,0.662554,0.61332,0.56916,0.91865,0.10289
1700754136640625,-9.805358,0.624554,0.55732,0.57516,0.91265,0.11589
1700754136648437,-9.786358,0.578554,0.55732,0.60016,0.96665,0.15189
1700754136656250,-9.739358,0.595554,0.55032,0.57016,0.95165,0.13589
1700754136664062,-9.727358,0.557554,0.55532,0.55216,0.85165,0.14989
1700754136671875,-9.729358,0.546554,0.55232,0.55016,0.86665,0.14989
1700754136679687,-9.716358,0.563554,0.54532,0.55816,0.82865,0.17889
1700754136687500,-9.651358,0.589554,0.51232,0.56716,0.81765,0.22989
1700754136695312,-9.595358,0.608554,0.50732,0.69516,0.85165,0.26489
1700754136703125,-9.584358,0.623554,0.52132,0.64616,0.83365,0.26289
1700754136710937,-9.584358,0.628554,0.52132,0.64816,0.73665,0.26289
1700754136718750,-9.587358,0.641554,0.51432,0.64516,0.71865,0.24589
1700754136726562,-9.589358,0.657554,0.53032,0.64516,0.68665,0.26189
1700754136734375,-9.587358,0.646554,0.55732,0.69616,0.64165,0.19989
1700754136742187,-9.607358,0.655554,0.53932,0.59316,0.56965,0.21089
1700754136750000,-9.600358,0.639554,0.56632,0.72416,0.50865,0.16589
1700754136757812,-9.607358,0.622554,0.58632,0.61216,0.44265,0.16389
1700754136765625,-9.631358,0.618554,0.57532,0.59716,0.52565,0.8489
1700754136773437,-9.670358,0.620554,0.57732,0.54116,0.55365,0.1689
1700754136781250,-9.670358,0.627554,0.55032,0.55516,0.53565,0.1689
1700754136789062,-9.632358,0.633554,0.52732,0.53816,0.51965,0.3211
1700754136796875,-9.605358,0.637554,0.52732,0.47916,0.53765,0.1589
1700754136804687,-9.569358,0.619554,0.52532,0.38716,0.53865,0.3189
1700754136812500,-9.553358,0.630554,0.54132,0.32916,0.44465,0.1689
1700754136820312,-9.580358,0.643554,0.58132,0.27616,0.40765,0.2989
1700754136828125,-9.621358,0.651554,0.59732,0.26416,0.34565,0.1489
1700754136835937,-9.679358,0.656554,0.61732,0.10416,0.32665,0.5989
1700754136843750,-9.724358,0.663554,0.62732,0.10516,0.17965,0.9089
1700754136851562,-9.731358,0.677554,0.61832,0.4616,0.21565,0.7589
1700754136859375,-9.743358,0.688554,0.61332,0.6316,0.21565,0.14089
1700754136867187,-9.767358,0.693554,0.61832,0.4984,0.16365,0.16989
1700754136875000,-9.792358,0.682554,0.63332,0.5684,0.17665,0.10389
1700754136882812,-9.808358,0.677554,0.64432,0.20284,0.17065,0.22789
1700754136890625,-9.837358,0.665554,0.66032,0.21084,0.20865,0.24689
1700754136898437,-9.868358,0.654554,0.67132,0.41384,0.27665,0.16489
1700754136906250,-9.904358,0.641554,0.66332,0.45784,0.27765,0.21389
1700754136914062,-9.908358,0.650554,0.65332,0.47484,0.32565,0.19689
1700754136921875,-9.895358,0.663554,0.63332,0.50484,0.39265,0.18189
1700754136929687,-9.862358,0.674554,0.61532,0.59584,0.39365,0.21389
1700754136937500,-9.810358,0.686554,0.60432,0.62984,0.47265,0.22889
1700754136945312,-9.774358,0.690554,0.55732,0.70784,0.47465,0.19589
1700754136953125,-9.741358,0.707554,0.54532,0.76284,0.43665,0.19289
1700754136960937,-9.689358,0.716554,0.53232,0.81084,0.51165,0.22989
1700754136968750,-9.631358,0.728554,0.50732,0.87784,0.44365,0.22689
1700754136976562,-9.609358,0.743554,0.50532,0.72584,0.47365,0.16289
1700754136984375,-9.602358,0.746554,0.51632,0.81784,0.50765,0.13089
1700754136992187,-9.624358,0.728554,0.52332,0.90884,0.44465,0.11489
1700754137000000,-9.658358,0.722554,0.54332,0.98884,0.42765,0.14489
1700754137007812,-9.662358,0.713554,0.56332,0.96284,0.44165,0.9589
1700754137015625,-9.698358,0.700554,0.58432,0.96084,0.45865,0.8089
1700754137023437,-9.729358,0.688554,0.59532,0.93984,0.43065,0.6689
1700754137031250,-9.761358,0.690554,0.60632,0.96184,0.44265,0.1589
1700754137039062,-9.776358,0.686554,0.58132,0.97784,0.47565,0.1589
1700754137046875,-9.781358,0.675554,0.55432,0.96584,0.47265,0.111
1700754137054687,-9.774358,0.673554,0.55732,0.101084,0.47465,0.0
1700754137062500,-9.763358,0.672554,0.55032,0.95084,0.57165,0.6511
1700754137070312,-9.770358,0.683554,0.53432,0.96984,0.56865,0.3411
1700754137078125,-9.748358,0.714554,0.53432,0.98284,0.61965,0.1711
1700754137085937,-9.744358,0.743554,0.54332,0.93384,0.62065,0.1689
1700754137093750,-9.721358,0.763554,0.54532,0.94484,0.62265,0.1789
1700754137101562,-9.717358,0.772554,0.53432,0.96384,0.57065,0.6389
1700754137109375,-9.731358,0.785554,0.51832,0.83784,0.65465,0.3011
1700754137117187,-9.724358,0.780554,0.51132,0.92184,0.71465,0.4789
1700754137125000,-9.722358,0.776554,0.51832,0.94584,0.59065,0.1689
1700754137132812,-9.706358,0.785554,0.51632,0.93584,0.65165,0.0
1700754137140625,-9.675358,0.788554,0.52732,0.96884,0.55265,0.1389
1700754137148437,-9.650358,0.813554,0.59932,0.93284,0.45765,0.0
1700754137156250,-9.659358,0.815554,0.54832,0.86484,0.51065,0.2911
1700754137164062,-9.698358,0.847554,0.50232,0.93284,0.60565,0.6311
1700754137171875,-9.714358,0.840554,0.55032,0.90084,0.45965,0.8011
1700754137179687,-9.694358,0.844554,0.58332,0.77984,0.53665,0.0
1700754137187500,-9.702358,0.843554,0.50532,0.72084,0.52865,0.2189
1700754137195312,-9.744358,0.801554,0.44432,0.69284,0.49265,0.1989
1700754137203125,-9.695358,0.778554,0.46632,0.69784,0.52365,0.2911
1700754137210937,-9.636358,0.788554,0.52132,0.69684,0.45865,0.4511
1700754137218750,-9.618358,0.790554,0.53932,0.70784,0.49465,0.1111
1700754137226562,-9.618358,0.786554,0.53432,0.69184,0.36465,0.6011
1700754137234375,-9.641358,0.801554,0.51432,0.60484,0.40865,0.4511
1700754137242187,-9.655358,0.822554,0.50532,0.50984,0.34465,0.6011
1700754137250000,-9.658358,0.851554,0.52332,0.44584,0.34365,0.2089
1700754137257812,-9.658358,0.869554,0.53232,0.45484,0.23465,0.689
1700754137265625,-9.676358,0.871554,0.52732,0.44584,0.21265,0.5289
1700754137273437,-9.696358,0.849554,0.54332,0.34584,0.23165,0.13589
1700754137281250,-9.689358,0.838554,0.55732,0.23984,0.17865,0.15089
1700754137289062,-9.673358,0.844554,0.56132,0.26284,0.17565,0.10089
1700754137296875,-9.651358,0.846554,0.55932,0.22284,0.21365,0.13589
1700754137304687,-9.642358,0.853554,0.57532,0.23584,0.5165,0.13589
1700754137312500,-9.638358,0.861554,0.57932,0.13284,0.7965,0.16689
1700754137320312,-9.644358,0.864554,0.59132,0.20484,0.3565,0.11989
1700754137328125,-9.660358,0.842554,0.58832,0.14584,0.6565,0.11989
1700754137335937,-9.673358,0.824554,0.58632,0.17884,0.8065,0.10289
1700754137343750,-9.700358,0.809554,0.59032,0.11684,0.4665,0.19889
1700754137351562,-9.738358,0.796554,0.56132,0.7384,0.5435,0.19789
1700754137359375,-9.749358,0.810554,0.57232,0.13184,0.2965,0.23089
1700754137367187,-9.749358,0.816554,0.55232,0.584,0.4565,0.24889
1700754137375000,-9.742358,0.815554,0.55732,0.216,0.1865,0.28389
1700754137382812,-9.733358,0.819554,0.57032,0.1084,0.6865,0.26789
1700754137390625,-9.733358,0.803554,0.57732,0.1184,0.11665,0.31589
1700754137398437,-9.740358,0.810554,0.57532,0.1816,0.14765,0.34789
1700754137406250,-9.722358,0.823554,0.58632,0.6316,0.16465,0.25189
1700754137414062,-9.713358,0.832554,0.59132,0.5916,0.18765,0.31989
1700754137421875,-9.698358,0.831554,0.58832,0.5916,0.14365,0.31489
1700754137429687,-9.680358,0.840554,0.59532,0.4616,0.16165,0.34789
1700754137437500,-9.700358,0.833554,0.61132,0.5716,0.15865,0.29789
1700754137445312,-9.727358,0.825554,0.61532,0.6116,0.17765,0.29989
1700754137453125,-9.738358,0.798554,0.62432,0.3716,0.18965,0.28089
1700754137460937,-9.760358,0.766554,0.64232,0.6216,0.24365,0.34789
1700754137468750,-9.786358,0.746554,0.59932,0.7616,0.17665,0.37989
1700754137476562,-9.786358,0.699554,0.64032,0.16616,0.22265,0.33089
1700754137484375,-9.777358,0.715554,0.66932,0.8316,0.28065,0.30189
1700754137492187,-9.788358,0.708554,0.66332,0.4516,0.22765,0.29989
1700754137500000,-9.815358,0.707554,0.65632,0.6816,0.32965,0.31889
1700754137507812,-9.847358,0.727554,0.64732,0.4616,0.32565,0.31689
1700754137515625,-9.836358,0.758554,0.62232,0.6716,0.37865,0.28689
1700754137523437,-9.794358,0.782554,0.57532,0.5016,0.37565,0.38189
1700754137531250,-9.753358,0.790554,0.57032,0.14116,0.35765,0.33389
1700754137539062,-9.722358,0.803554,0.57932,0.26316,0.43665,0.35089
1700754137546875,-9.673358,0.815554,0.56832,0.31716,0.39165,0.38489
1700754137554687,-9.657358,0.802554,0.58132,0.30116,0.44065,0.36889
1700754137562500,-9.668358,0.789554,0.60432,0.30116,0.39165,0.38489
1700754137570312,-9.668358,0.780554,0.61132,0.32616,0.33865,0.36689
1700754137578125,-9.663358,0.789554,0.61832,0.46416,0.42765,0.38889
1700754137585937,-9.666358,0.795554,0.62232,0.50216,0.38965,0.36989
1700754137593750,-9.668358,0.782554,0.61132,0.39116,0.32365,0.38389
1700754137601562,-9.672358,0.758554,0.59732,0.44916,0.33065,0.38889
1700754137609375,-9.676358,0.711554,0.58632,0.43816,0.30665,0.38489
1700754137617187,-9.671358,0.682554,0.58632,0.45916,0.29465,0.38689
1700754137625000,-9.666358,0.671554,0.59332,0.35916,0.25765,0.38289
1700754137632812,-9.673358,0.665554,0.59332,0.42316,0.25865,0.38489
1700754137640625,-9.693358,0.662554,0.60632,0.31216,0.25765,0.38289
1700754137648437,-9.731358,0.665554,0.62732,0.31716,0.47365,0.38589
1700754137656250,-9.754358,0.677554,0.62632,0.30016,0.50465,0.38489
1700754137664062,-9.772358,0.682554,0.64532,0.35016,0.47465,0.38689
1700754137671875,-9.788358,0.686554,0.65632,0.31516,0.43965,0.38489
1700754137679687,-9.794358,0.682554,0.64432,0.31516,0.37365,0.38389
1700754137687500,-9.794358,0.680554,0.65132,0.28716,0.44165,0.36989
1700754137695312,-9.779358,0.677554,0.65332,0.21816,0.35665,0.38289
1700754137703125,-9.763358,0.666554,0.64732,0.10716,0.42065,0.36489
1700754137710937,-9.760358,0.659554,0.64532,0.9716,0.32665,0.38189
1700754137718750,-9.760358,0.655554,0.64732,0.5016,0.37565,0.36589
1700754137726562,-9.738358,0.652554,0.63632,0.4816,0.37465,0.39689
1700754137734375,-9.717358,0.648554,0.64032,0.7016,0.36165,0.41589
1700754137742187,-9.708358,0.639554,0.62232,0.2016,0.32765,0.36589
1700754137750000,-9.692358,0.630554,0.61332,0.2184,0.34665,0.41489
1700754137757812,-9.701358,0.625554,0.61132,0.9284,0.32565,0.41189
1700754137765625,-9.701358,0.614554,0.60832,0.17184,0.34065,0.44189
1700754137773437,-9.692358,0.612554,0.62232,0.17784,0.28165,0.47689
1700754137781250,-9.681358,0.616554,0.63132,0.15884,0.30065,0.46289
1700754137789062,-9.699358,0.623554,0.64232,0.13784,0.29365,0.44389
1700754137796875,-9.733358,0.643554,0.62632,0.16184,0.30465,0.39289
1700754137804687,-9.733358,0.650554,0.61532,0.15784,0.35665,0.36189
1700754137812500,-9.736358,0.670554,0.61332,0.22284,0.35565,0.37689
1700754137820312,-9.709358,0.670554,0.57232,0.13784,0.44165,0.36389
1700754137828125,-9.692358,0.650554,0.55532,0.17884,0.42965,0.36589
1700754137835937,-9.672358,0.627554,0.56432,0.19384,0.49465,0.38189
1700754137843750,-9.645358,0.622554,0.59032,0.18784,0.53765,0.36289
1700754137851562,-9.661358,0.613554,0.61832,0.20384,0.47365,0.28289
1700754137859375,-9.696358,0.607554,0.63332,0.20284,0.48965,0.33089
1700754137867187,-9.710358,0.614554,0.64032,0.24784,0.50865,0.25089
1700754137875000,-9.721358,0.632554,0.65632,0.24684,0.42665,0.31489
1700754137882812,-9.746358,0.644554,0.64232,0.24384,0.44565,0.28489
1700754137890625,-9.771358,0.646554,0.62932,0.18384,0.37865,0.26789
1700754137898437,-9.793358,0.649554,0.62932,0.22584,0.38165,0.31689
1700754137906250,-9.817358,0.658554,0.62032,0.19484,0.40365,0.26389
1700754137914062,-9.832358,0.647554,0.60232,0.19884,0.31365,0.31589
1700754137921875,-9.809358,0.645554,0.61832,0.18484,0.37765,0.31589
1700754137929687,-9.800358,0.618554,0.63832,0.22884,0.44465,0.33189
1700754137937500,-9.784358,0.607554,0.62732,0.22884,0.39565,0.33189
1700754137945312,-9.768358,0.593554,0.59332,0.23284,0.35965,0.34689
1700754137953125,-9.748358,0.577554,0.57932,0.21484,0.44265,0.33189
1700754137960937,-9.736358,0.550554,0.59332,0.25484,0.40465,0.32889
1700754137968750,-9.722358,0.539554,0.58832,0.44784,0.42865,0.37789
1700754137976562,-9.698358,0.545554,0.61132,0.40084,0.37865,0.36189
1700754137984375,-9.662358,0.558554,0.65432,0.43884,0.29365,0.37489
1700754137992187,-9.707358,0.563554,0.62632,0.46084,0.22365,0.37289
1700754138000000,-9.761358,0.582554,0.57332,0.48384,0.31065,0.35889
1700754138007812,-9.741358,0.588554,0.59932,0.50584,0.24165,0.34089
1700754138015625,-9.727358,0.570554,0.64732,0.48084,0.18265,0.37589
1700754138023437,-9.734358,0.577554,0.61732,0.31584,0.20965,0.35889
1700754138031250,-9.709358,0.579554,0.58232,0.21684,0.29465,0.37789
1700754138039062,-9.699358,0.596554,0.57032,0.32984,0.21165,0.32789
1700754138046875,-9.714358,0.590554,0.60632,0.43484,0.20065,0.23189
1700754138054687,-9.741358,0.570554,0.65432,0.45184,0.23265,0.21589
1700754138062500,-9.759358,0.559554,0.68532,0.42484,0.19865,0.11789
1700754138070312,-9.786358,0.586554,0.66232,0.41684,0.19365,0.13189
1700754138078125,-9.820358,0.622554,0.62032,0.28584,0.26265,0.10389
1700754138085937,-9.814358,0.649554,0.61332,0.24084,0.16265,0.10289
1700754138093750,-9.805358,0.665554,0.62732,0.12384,0.10265,0.13889
1700754138101562,-9.760358,0.644554,0.65632,0.9884,0.6365,0.18389
1700754138109375,-9.743358,0.610554,0.65832,0.10584,0.6965,0.25089
1700754138117187,-9.766358,0.593554,0.65632,0.1484,0.8465,0.18689
1700754138125000,-9.759358,0.570554,0.66232,0.2684,0.9165,0.23089
1700754138132812,-9.739358,0.566554,0.65132,0.7616,0.11265,0.31489
1700754138140625,-9.707358,0.557554,0.64532,0.9816,0.18165,0.31789
1700754138148437,-9.671358,0.556554,0.63332,0.12816,0.16365,0.34989
1700754138156250,-9.648358,0.549554,0.62732,0.26916,0.17965,0.35189
1700754138164062,-9.633358,0.560554,0.62532,0.19516,0.21765,0.25589
1700754138171875,-9.635358,0.562554,0.62032,0.21516,0.17665,0.25189
1700754138179687,-9.630358,0.551554,0.64032,0.34416,0.14665,0.27089
1700754138187500,-9.631358,0.553554,0.63132,0.40316,0.17565,0.28689
1700754138195312,-9.631358,0.566554,0.62432,0.43816,0.17865,0.23989
1700754138203125,-9.630358,0.562554,0.63132,0.47416,0.21565,0.20989
1700754138210937,-9.622358,0.573554,0.62732,0.46716,0.19565,0.12789
1700754138218750,-9.615358,0.573554,0.63832,0.51616,0.24565,0.14489
1700754138226562,-9.624358,0.573554,0.65132,0.39116,0.27865,0.12789
1700754138234375,-9.657358,0.565554,0.66932,0.51716,0.19865,0.11389
1700754138242187,-9.691358,0.550554,0.67232,0.45116,0.22965,0.3189
1700754138250000,-9.723358,0.552554,0.67632,0.46316,0.26065,0.3089
1700754138257812,-9.725358,0.554554,0.66332,0.39916,0.34065,0.211
1700754138265625,-9.734358,0.550554,0.66332,0.40116,0.29465,0.3311
1700754138273437,-9.767358,0.546554,0.67832,0.35916,0.24765,0.0
1700754138281250,-9.790358,0.542554,0.68532,0.34316,0.28265,0.8011
1700754138289062,-9.806358,0.547554,0.68132,0.37116,0.31265,0.9711
1700754138296875,-9.812358,0.531554,0.68132,0.38016,0.29065,0.1911
1700754138304687,-9.814358,0.530554,0.63632,0.39316,0.26565,0.6489
1700754138312500,-9.812358,0.505554,0.58832,0.45816,0.29765,0.12989
1700754138320312,-9.737358,0.488554,0.66332,0.35916,0.14765,0.14289
1700754138328125,-9.677358,0.499554,0.66532,0.33216,0.16665,0.17589
1700754138335937,-9.658358,0.485554,0.65232,0.30316,0.18465,0.17689
1700754138343750,-9.667358,0.497554,0.64732,0.30716,0.13965,0.12989
1700754138351562,-9.655358,0.533554,0.63332,0.22916,0.16165,0.12389
1700754138359375,-9.655358,0.563554,0.62232,0.17416,0.15065,0.12589
1700754138367187,-9.656358,0.589554,0.60432,0.6416,0.16765,0.10889
1700754138375000,-9.640358,0.609554,0.62732,0.11016,0.19865,0.12489
1700754138382812,-9.644358,0.602554,0.62732,0.5216,0.20365,0.9389
1700754138390625,-9.635358,0.591554,0.62932,0.1216,0.19765,0.4289
1700754138398437,-9.622358,0.600554,0.61132,0.1216,0.19865,0.1089
1700754138406250,-9.588358,0.597554,0.61532,0.284,0.21465,0.4289
1700754138414062,-9.526358,0.625554,0.62732,0.7184,0.20365,0.12489
1700754138421875,-9.483358,0.640554,0.64332,0.716,0.22065,0.7789
1700754138429687,-9.456358,0.648554,0.66732,0.3716,0.20265,0.12589
1700754138437500,-9.465358,0.646554,0.71232,0.5316,0.10465,0.14189
1700754138445312,-9.530358,0.654554,0.72832,0.716,0.4065,0.12489
1700754138453125,-9.595358,0.639554,0.75132,0.15084,0.5765,0.7489
1700754138460937,-9.674358,0.620554,0.78432,0.20184,0.6965,0.13689
1700754138468750,-9.748358,0.621554,0.79832,0.19084,0.13265,0.7189
1700754138476562,-9.800358,0.609554,0.79332,0.20084,0.13665,0.7389
1700754138484375,-9.858358,0.610554,0.82032,0.25384,0.11665,0.5489
1700754138492187,-9.943358,0.598554,0.86132,0.39184,0.16865,0.3889
1700754138500000,-10.10358,0.572554,0.85032,0.45684,0.14965,0.11789
1700754138507812,-10.37358,0.570554,0.83632,0.47184,0.28065,0.10189
1700754138515625,-10.29358,0.590554,0.81432,0.63984,0.38065,0.16589
1700754138523437,-9.995358,0.614554,0.80732,0.68784,0.36265,0.22889
1700754138531250,-9.940358,0.631554,0.76432,0.70584,0.44165,0.30889
1700754138539062,-9.885358,0.642554,0.75532,0.69284,0.46565,0.34489
1700754138546875,-9.845358,0.649554,0.74132,0.89184,0.42465,0.37089
1700754138554687,-9.812358,0.676554,0.71432,0.77784,0.54265,0.37489
1700754138562500,-9.770358,0.688554,0.68332,0.84384,0.63765,0.35689
1700754138570312,-9.734358,0.699554,0.65832,0.85884,0.65565,0.32589
1700754138578125,-9.718358,0.710554,0.63632,0.93684,0.73765,0.27689
1700754138585937,-9.702358,0.705554,0.61132,0.93884,0.62165,0.33989
1700754138593750,-9.680358,0.716554,0.59032,0.95184,0.70565,0.32489
1700754138601562,-9.683358,0.731554,0.58832,0.94184,0.65365,0.25889
1700754138609375,-9.671358,0.738554,0.59732,0.95284,0.60665,0.33989
1700754138617187,-9.658358,0.727554,0.61532,0.93184,0.59465,0.29389
1700754138625000,-9.698358,0.725554,0.64032,0.95084,0.57565,0.34089
1700754138632812,-9.712358,0.718554,0.64932,0.93984,0.44165,0.35489
1700754138640625,-9.734358,0.696554,0.66732,0.88084,0.43865,0.33789
1700754138648437,-9.756358,0.681554,0.68732,0.78084,0.50865,0.34089
1700754138656250,-9.774358,0.671554,0.70132,0.80884,0.54365,0.30989
1700754138664062,-9.783358,0.648554,0.69232,0.76784,0.47465,0.30789
1700754138671875,-9.787358,0.631554,0.68332,0.68184,0.62665,0.28089
1700754138679687,-9.782358,0.620554,0.68532,0.66984,0.67165,0.32789
1700754138687500,-9.768358,0.611554,0.67232,0.67084,0.70465,0.27989
1700754138695312,-9.733358,0.623554,0.67432,0.70284,0.68865,0.26289
1700754138703125,-9.683358,0.641554,0.66932,0.65084,0.74065,0.28089
1700754138710937,-9.632358,0.653554,0.67832,0.65984,0.76965,0.11889
1700754138718750,-9.621358,0.659554,0.67832,0.66984,0.70765,0.15189
1700754138726562,-9.623358,0.671554,0.68532,0.66984,0.69365,0.7189
1700754138734375,-9.621358,0.679554,0.69432,0.70884,0.70465,0.3689
1700754138742187,-9.653358,0.697554,0.67632,0.64584,0.67165,0.5389
1700754138750000,-9.660358,0.704554,0.65832,0.66084,0.65665,0.589
1700754138757812,-9.698358,0.685554,0.66732,0.69084,0.55965,0.2089
1700754138765625,-9.740358,0.668554,0.68132,0.68684,0.48065,0.3789
1700754138773437,-9.773358,0.649554,0.68132,0.70384,0.61065,0.2189
1700754138781250,-9.782358,0.620554,0.69932,0.67084,0.56265,0.5489
1700754138789062,-9.800358,0.602554,0.68132,0.64384,0.54365,0.3789
1700754138796875,-9.788358,0.596554,0.68332,0.57584,0.52865,0.11989
1700754138804687,-9.775358,0.595554,0.66732,0.56984,0.53865,0.10089
1700754138812500,-9.752358,0.577554,0.65632,0.43484,0.60965,0.18589
1700754138820312,-9.738358,0.566554,0.65632,0.51184,0.52665,0.26489
1700754138828125,-9.756358,0.551554,0.65832,0.54484,0.65665,0.23289
1700754138835937,-9.729358,0.550554,0.71732,0.53084,0.55865,0.19989
1700754138843750,-9.734358,0.548554,0.67832,0.50184,0.49065,0.27889
1700754138851562,-9.766358,0.573554,0.60832,0.59984,0.47165,0.26089
1700754138859375,-9.739358,0.606554,0.63532,0.53584,0.43965,0.27789
1700754138867187,-9.710358,0.601554,0.66732,0.40484,0.41065,0.26489
1700754138875000,-9.692358,0.612554,0.65132,0.32984,0.44065,0.28089
1700754138882812,-9.708358,0.645554,0.59932,0.25584,0.41965,0.32789
1700754138890625,-9.698358,0.678554,0.56832,0.25484,0.37265,0.32789
1700754138898437,-9.709358,0.687554,0.58132,0.36484,0.35765,0.21489
1700754138906250,-9.702358,0.661554,0.58432,0.30184,0.37565,0.13589
1700754138914062,-9.691358,0.645554,0.59332,0.19884,0.43765,0.7089
1700754138921875,-9.695358,0.678554,0.59332,0.20484,0.36265,0.7389
1700754138929687,-9.680358,0.687554,0.54832,0.2584,0.37165,0.12089
1700754138937500,-9.649358,0.699554,0.54332,0.5316,0.30765,0.8989
1700754138945312,-9.630358,0.704554,0.58232,0.4816,0.33065,0.10889
1700754138953125,-9.626358,0.686554,0.60932,0.15916,0.28265,0.7889
1700754138960937,-9.645358,0.644554,0.60632,0.10816,0.32865,0.7689
1700754138968750,-9.676358,0.598554,0.62632,0.7216,0.27565,0.13889
1700754138976562,-9.714358,0.557554,0.62432,0.15316,0.31065,0.9289
1700754138984375,-9.743358,0.553554,0.61132,0.20516,0.34665,0.11089
1700754138992187,-9.740358,0.555554,0.59132,0.20816,0.33065,0.15989
1700754139000000,-9.727358,0.559554,0.58432,0.24816,0.29465,0.12589
1700754139007812,-9.707358,0.570554,0.57932,0.18716,0.34465,0.12589
1700754139015625,-9.662358,0.571554,0.57332,0.17116,0.29565,0.10989
1700754139023437,-9.630358,0.560554,0.55232,0.31516,0.29665,0.15989
1700754139031250,-9.601358,0.564554,0.53232,0.23816,0.26365,0.20789
1700754139039062,-9.599358,0.559554,0.52132,0.28116,0.22965,0.14289
1700754139046875,-9.617358,0.562554,0.54132,0.29716,0.24665,0.15889
1700754139054687,-9.666358,0.565554,0.54332,0.29916,0.15065,0.11089
1700754139062500,-9.723358,0.577554,0.53232,0.17416,0.16765,0.12589
1700754139070312,-9.764358,0.604554,0.53432,0.21516,0.17965,0.10889
1700754139078125,-9.779358,0.604554,0.53732,0.25116,0.16465,0.20589
1700754139085937,-9.782358,0.606554,0.52332,0.19816,0.7865,0.25089
1700754139093750,-9.775358,0.604554,0.52332,0.28116,0.9865,0.17389
1700754139101562,-9.766358,0.595554,0.54632,0.28316,0.11665,0.15889
1700754139109375,-9.759358,0.588554,0.56632,0.10816,0.18165,0.12389
1700754139117187,-9.747358,0.575554,0.60632,0.16016,0.11965,0.10989
1700754139125000,-9.759358,0.584554,0.61532,0.28516,0.26565,0.11189
1700754139132812,-9.741358,0.580554,0.61132,0.14716,0.18665,0.12689
1700754139140625,-9.730358,0.601554,0.57932,0.12716,0.21665,0.10989
1700754139148437,-9.725358,0.601554,0.56632,0.4916,0.23165,0.17289
1700754139156250,-9.759358,0.597554,0.51232,0.14016,0.18065,0.15689
1700754139164062,-9.730358,0.588554,0.54632,0.14616,0.21765,0.14289
1700754139171875,-9.687358,0.598554,0.60232,0.4616,0.13165,0.17189
1700754139179687,-9.669358,0.583554,0.59332,0.6216,0.6665,0.23589
1700754139187500,-9.666358,0.556554,0.58832,0.6716,0.8665,0.18889
1700754139195312,-9.675358,0.556554,0.58432,0.1716,0.3465,0.25189
1700754139203125,-9.673358,0.561554,0.57532,0.4584,0.7935,0.24989
1700754139210937,-9.666358,0.583554,0.56832,0.4316,0.865,0.25489
1700754139218750,-9.667358,0.614554,0.59132,0.516,0.5365,0.22089
1700754139226562,-9.685358,0.621554,0.58932,0.3984,0.5565,0.23689
1700754139234375,-9.712358,0.621554,0.58832,0.116,0.1665,0.31489
1700754139242187,-9.701358,0.630554,0.59732,0.5884,0.11865,0.23589
1700754139250000,-9.677358,0.629554,0.60832,0.8184,0.9665,0.23289
1700754139257812,-9.650358,0.629554,0.61832,0.1684,0.8165,0.28289
1700754139265625,-9.611358,0.630554,0.64732,0.14384,0.11265,0.26489
1700754139273437,-9.587358,0.643554,0.65132,0.19384,0.9565,0.24689
1700754139281250,-9.607358,0.659554,0.67232,0.18384,0.565,0.20189
1700754139289062,-9.670358,0.671554,0.70132,0.29784,0.5065,0.24789
1700754139296875,-9.751358,0.670554,0.73532,0.39284,0.6765,0.19789
1700754139304687,-9.850358,0.667554,0.73732,0.42784,0.11365,0.16489
1700754139312500,-9.935358,0.653554,0.73532,0.44084,0.11665,0.13389
1700754139320312,-9.953358,0.631554,0.72432,0.54684,0.10265,0.14989
1700754139328125,-9.952358,0.603554,0.73932,0.63884,0.8865,0.14889
1700754139335937,-9.932358,0.580554,0.73732,0.59684,0.21565,0.14889
1700754139343750,-9.886358,0.539554,0.75132,0.68884,0.24765,0.21189
1700754139351562,-9.850358,0.505554,0.74832,0.69084,0.21365,0.24389
1700754139359375,-9.794358,0.498554,0.73932,0.71184,0.25865,0.25789
1700754139367187,-9.746358,0.502554,0.72832,0.71784,0.23065,0.34089
1700754139375000,-9.702358,0.532554,0.71932,0.70684,0.29265,0.35489
1700754139382812,-9.657358,0.562554,0.72632,0.85884,0.18165,0.37089
1700754139390625,-9.627358,0.602554,0.73532,0.84284,0.18165,0.38689
1700754139398437,-9.612358,0.637554,0.72832,0.67284,0.17865,0.43589
1700754139406250,-9.616358,0.679554,0.75132,0.74484,0.23365,0.38989
1700754139414062,-9.651358,0.709554,0.77332,0.76684,0.16465,0.35489
1700754139421875,-9.689358,0.718554,0.79832,0.79784,0.19665,0.35489
1700754139429687,-9.707358,0.703554,0.80732,0.82584,0.18365,0.33989
1700754139437500,-9.734358,0.688554,0.80432,0.84384,0.16565,0.35489
1700754139445312,-9.764358,0.662554,0.81432,0.94684,0.30065,0.32489
1700754139453125,-9.787358,0.644554,0.82332,0.88684,0.28365,0.30789
1700754139460937,-9.796358,0.622554,0.84032,0.94384,0.32565,0.25589
1700754139468750,-9.800358,0.595554,0.83632,0.84784,0.40865,0.27489
1700754139476562,-9.789358,0.606554,0.83832,0.89284,0.42665,0.25889
1700754139484375,-9.768358,0.586554,0.85032,0.82484,0.39765,0.22889
1700754139492187,-9.741358,0.581554,0.84732,0.75084,0.41165,0.21289
1700754139500000,-9.718358,0.570554,0.83432,0.75684,0.43865,0.25889
1700754139507812,-9.684358,0.574554,0.83032,0.70784,0.41765,0.31289
1700754139515625,-9.660358,0.596554,0.83432,0.71784,0.49165,0.34189
1700754139523437,-9.649358,0.607554,0.82332,0.71584,0.36365,0.32589
1700754139531250,-9.645358,0.622554,0.81832,0.68884,0.36065,0.29289
1700754139539062,-9.672358,0.643554,0.80532,0.66684,0.34865,0.32689
1700754139546875,-9.681358,0.654554,0.82132,0.55284,0.33565,0.23389
1700754139554687,-9.702358,0.656554,0.83632,0.51284,0.31265,0.35989
1700754139562500,-9.708358,0.652554,0.85032,0.51284,0.33065,0.29589
1700754139570312,-9.703358,0.641554,0.85432,0.42984,0.38165,0.31489
1700754139578125,-9.703358,0.621554,0.87232,0.41884,0.39465,0.34489
1700754139585937,-9.714358,0.617554,0.85932,0.27584,0.38065,0.28389
1700754139593750,-9.723358,0.615554,0.85932,0.28884,0.44765,0.25289
1700754139601562,-9.730358,0.608554,0.85032,0.26584,0.43665,0.27089
1700754139609375,-9.728358,0.595554,0.83632,0.21784,0.39565,0.13889
1700754139617187,-9.759358,0.586554,0.82332,0.18684,0.39565,0.10689
1700754139625000,-9.793358,0.587554,0.81432,0.19784,0.33265,0.17189
1700754139632812,-9.801358,0.589554,0.81632,0.19184,0.36765,0.25389
1700754139640625,-9.790358,0.589554,0.81832,0.17084,0.34465,0.23489
1700754139648437,-9.788358,0.582554,0.82032,0.2184,0.25165,0.25489
1700754139656250,-9.797358,0.596554,0.80332,0.3116,0.33765,0.27389
1700754139664062,-9.793358,0.582554,0.80032,0.17716,0.26365,0.30289
1700754139671875,-9.770358,0.586554,0.78232,0.25816,0.21565,0.35289
1700754139679687,-9.716358,0.581554,0.77532,0.32316,0.24965,0.38689
1700754139687500,-9.649358,0.584554,0.73932,0.30016,0.29365,0.36789
1700754139695312,-9.566358,0.592554,0.78232,0.48316,0.20865,0.35189
1700754139703125,-9.518358,0.571554,0.78932,0.56416,0.19365,0.38589
1700754139710937,-9.527358,0.585554,0.72632,0.58316,0.21265,0.32289
1700754139718750,-9.528358,0.602554,0.74632,0.67016,0.22465,0.28989
1700754139726562,-9.514358,0.587554,0.82032,0.80316,0.3365,0.32489
1700754139734375,-9.527358,0.585554,0.82732,0.88016,0.4765,0.35689
1700754139742187,-9.541358,0.585554,0.78732,0.92816,0.3265,0.32589
1700754139750000,-9.570358,0.567554,0.75732,0.85816,0.335,0.24289
1700754139757812,-9.604358,0.555554,0.80432,0.76116,0.8435,0.12789
1700754139765625,-9.645358,0.518554,0.87032,0.76616,0.165,0.8289
1700754139773437,-9.683358,0.494554,0.89932,0.78316,0.6865,0.1989
1700754139781250,-9.749358,0.517554,0.89932,0.80616,0.8435,0.3189
1700754139789062,-9.810358,0.536554,0.88332,0.81016,0.4965,0.1889
1700754139796875,-9.835358,0.550554,0.85932,0.81316,0.11665,0.1989
1700754139804687,-9.828358,0.554554,0.86332,0.80816,0.19365,0.3389
1700754139812500,-9.808358,0.551554,0.88632,0.79916,0.14865,0.8389
1700754139820312,-9.780358,0.529554,0.89732,0.84716,0.13165,0.16489
1700754139828125,-9.774358,0.506554,0.90132,0.81316,0.14365,0.29189
1700754139835937,-9.753358,0.477554,0.89732,0.81816,0.6565,0.27689
1700754139843750,-9.735358,0.466554,0.89032,0.80416,0.14965,0.27789
1700754139851562,-9.721358,0.483554,0.87432,0.81716,0.14665,0.32489
1700754139859375,-9.706358,0.503554,0.86532,0.76816,0.17665,0.38789
1700754139867187,-9.695358,0.527554,0.84732,0.66016,0.16165,0.37089
1700754139875000,-9.698358,0.534554,0.84132,0.59516,0.16065,0.38589
1700754139882812,-9.693358,0.532554,0.84132,0.55216,0.11565,0.32289
1700754139890625,-9.700358,0.525554,0.83632,0.56516,0.22965,0.24289
1700754139898437,-9.729358,0.515554,0.83832,0.55316,0.18265,0.24289
1700754139906250,-9.724358,0.512554,0.84332,0.48716,0.21265,0.25789
1700754139914062,-9.731358,0.517554,0.84132,0.34916,0.31265,0.25689
1700754139921875,-9.744358,0.502554,0.85032,0.28416,0.31165,0.23989
1700754139929687,-9.760358,0.515554,0.85632,0.20716,0.32965,0.22389
1700754139937500,-9.769358,0.517554,0.85232,0.21016,0.36865,0.26789
1700754139945312,-9.798358,0.520554,0.84132,0.16116,0.36165,0.28789
1700754139953125,-9.808358,0.538554,0.83632,0.6916,0.36365,0.25489
1700754139960937,-9.803358,0.551554,0.84332,0.6416,0.39365,0.22189
1700754139968750,-9.794358,0.544554,0.83632,0.1516,0.42365,0.26889
1700754139976562,-9.772358,0.539554,0.81332,0.1884,0.43765,0.34789
1700754139984375,-9.761358,0.555554,0.82932,0.7916,0.40865,0.26989
1700754139992187,-9.763358,0.548554,0.82932,0.4816,0.39265,0.26889
1700754140000000,-9.725358,0.559554,0.83432,0.6816,0.42765,0.31989
1700754140007812,-9.703358,0.569554,0.78932,0.4616,0.43865,0.38089
1700754140015625,-9.680358,0.563554,0.76232,0.16216,0.44265,0.36789
1700754140023437,-9.613358,0.571554,0.83632,0.916,0.42865,0.38389
1700754140031250,-9.597358,0.568554,0.84132,0.2584,0.44265,0.36589
1700754140039062,-9.605358,0.526554,0.83432,0.1784,0.40465,0.37989
1700754140046875,-9.641358,0.509554,0.83632,0.10584,0.42665,0.33289
1700754140054687,-9.659358,0.498554,0.85932,0.14284,0.43865,0.29889
1700754140062500,-9.679358,0.503554,0.84332,0.19884,0.49365,0.25289
1700754140070312,-9.715358,0.510554,0.85432,0.22884,0.60865,0.26889
1700754140078125,-9.767358,0.493554,0.85632,0.26584,0.47465,0.21789
1700754140085937,-9.807358,0.500554,0.84132,0.42284,0.52465,0.21689
1700754140093750,-9.823358,0.492554,0.84332,0.40284,0.61065,0.12289
1700754140101562,-9.834358,0.494554,0.83232,0.44784,0.65965,0.17089
1700754140109375,-9.818358,0.485554,0.83832,0.38684,0.72265,0.25089
1700754140117187,-9.795358,0.471554,0.84332,0.42084,0.73765,0.21789
1700754140125000,-9.809358,0.451554,0.84332,0.51384,0.72265,0.20189
1700754140132812,-9.802358,0.462554,0.83832,0.43884,0.62165,0.23289
1700754140140625,-9.804358,0.456554,0.80932,0.44784,0.62465,0.31489
1700754140148437,-9.800358,0.462554,0.78932,0.53084,0.58865,0.37589
1700754140156250,-9.800358,0.496554,0.78932,0.43084,0.59165,0.36289
1700754140164062,-9.778358,0.497554,0.78032,0.45184,0.57165,0.37689
1700754140171875,-9.753358,0.493554,0.78032,0.42984,0.51165,0.36289
1700754140179687,-9.733358,0.500554,0.76432,0.44184,0.46465,0.37989
1700754140187500,-9.692358,0.505554,0.76432,0.28784,0.57665,0.36589
1700754140195312,-9.659358,0.529554,0.77832,0.36584,0.47965,0.33189
