time,Acceleration X (m/s^2),Acceleration Y (m/s^2),Acceleration Z (m/s^2),Angular Velocity X (rad/s),Angular Velocity Y (rad/s),Angular Velocity Z (rad/s)
1702324640101562,-9.382795,-2.109797,-0.386229,,,
1702324640109375,-9.388795,0.760592,-2.161797,0.112918,0.400129,0.27687
1702324640117187,-9.297795,0.657592,-2.127797,0.124318,0.434629,0.27527
1702324640125000,-9.326795,0.693592,-2.35797,0.134018,0.447829,0.28987
1702324640132812,-9.561795,0.814592,-2.30797,0.119518,0.450929,0.29147
1702324640140625,-9.790795,0.877592,-1.948797,0.103618,0.471229,0.30107
1702324640156250,-9.868795,0.900592,-1.709797,0.65718,0.507129,0.30717
1702324640164062,-9.840795,0.999592,-1.644797,0.65718,0.526829,0.31857
1702324640171875,-9.574795,1.147592,-1.562797,0.52018,0.561129,0.33267
1702324640179687,-9.188795,0.994592,-1.583797,0.32418,0.579929,0.34257
1702324640203125,-8.113795,0.716592,-1.629797,0.3382,0.563929,0.31847
1702324640210937,-7.833795,0.562592,-1.575797,0.13382,0.547129,0.31377
1702324640218750,-7.439795,0.468592,-1.410797,0.21682,0.534929,0.30897
1702324640226562,-7.31795,0.514592,-1.304797,0.36482,0.497229,0.29297
1702324640234375,-6.800795,0.524592,-1.291797,0.40082,0.469129,0.27847
1702324640242187,-6.652795,0.538592,-1.187797,0.42082,0.470829,0.25767
1702324640250000,-6.606795,0.583592,-1.135797,0.40682,0.462929,0.24007
1702324640257812,-6.592795,0.552592,-1.45797,0.48782,0.481529,0.22717
1702324640265625,-6.510795,0.456592,0.860797,0.39082,0.488929,0.21267
1702324640273437,-6.473795,0.375592,0.747797,0.37682,0.495029,0.19827
1702324640281250,-6.407795,0.297592,0.589797,0.42482,0.542229,0.18867
1702324640289062,-6.266795,0.262592,0.383797,0.40582,0.579229,0.18047
1702324640296875,-6.198795,0.230592,0.196797,0.46982,0.591329,0.17237
1702324640304687,-6.138795,0.244592,0.40797,0.59882,0.602229,0.17077
1702324640312500,-6.87795,0.360592,0.67797,0.56182,0.624229,0.16567
1702324640320312,-5.928795,0.445592,0.31203,0.40482,0.668029,0.15317
1702324640328125,-5.829795,0.388592,0.33203,0.50182,0.668829,0.12897
1702324640335937,-5.805795,0.292592,0.22797,0.55282,0.667129,0.10977
1702324640343750,-5.809795,0.230592,0.63797,0.65082,0.665129,0.9197
1702324640351562,-5.832795,0.133592,0.13203,0.47382,0.678629,0.7267
1702324640359375,-5.961795,0.47592,0.38203,0.30182,0.664329,0.3097
1702324640367187,-6.164795,0.6592,0.6797,0.30682,0.660229,0.1497
1702324640375000,-6.493795,0.39408,0.33797,0.17782,0.645429,0.113
1702324640382812,-6.813795,0.140408,0.77203,0.16382,0.658829,0.387
1702324640390625,-7.24795,0.111408,0.224203,0.24682,0.658729,0.1863
1702324640398437,-7.478795,0.168408,0.199203,0.21582,0.634629,0.3313
1702324640406250,-7.846795,0.203408,0.330203,0.7818,0.634829,0.3823
1702324640414062,-8.123795,0.178408,0.421203,0.12018,0.631729,0.4593
1702324640421875,-8.438795,0.129408,0.471203,0.19918,0.637429,0.7333
1702324640429687,-8.785795,0.133408,0.516203,0.31118,0.650429,0.7483
1702324640437500,-9.38795,0.116408,0.505203,0.41318,0.680629,0.7023
1702324640445312,-9.228795,0.33408,0.517203,0.60818,0.708929,0.6543
1702324640453125,-9.359795,0.43592,0.584203,0.59518,0.732029,0.5903
1702324640460937,-9.414795,0.105592,0.693203,0.61118,0.743229,0.6063
1702324640468750,-9.457795,0.152592,0.765203,0.61318,0.758429,0.6393
1702324640476562,-9.491795,0.162592,0.831203,0.66018,0.771129,0.7193
1702324640484375,-9.562795,0.199592,0.946203,0.81818,0.784429,0.8133
1702324640492187,-9.632795,0.211592,1.36203,0.86918,0.791529,0.8633
1702324640500000,-9.641795,0.226592,1.70203,0.86718,0.804529,0.9423
1702324640507812,-9.571795,0.265592,1.57203,0.96518,0.824029,0.10723
1702324640515625,-9.484795,0.283592,1.81203,0.103318,0.846629,0.11223
1702324640523437,-9.419795,0.298592,1.174203,0.100018,0.873429,0.11693
1702324640531250,-9.327795,0.287592,1.280203,0.111518,0.896329,0.12353
1702324640539062,-9.192795,0.257592,1.424203,0.124218,0.923629,0.13293
1702324640546875,-8.997795,0.212592,1.551203,0.116718,0.942629,0.13163
1702324640554687,-8.753795,0.194592,1.634203,0.136218,0.937329,0.13503
1702324640562500,-8.475795,0.186592,1.740203,0.135718,0.936929,0.14433
1702324640570312,-8.287795,0.156592,1.869203,0.169418,0.892329,0.15573
1702324640578125,-8.131795,0.144592,1.936203,0.175118,0.850229,0.15693
1702324640585937,-8.5795,0.152592,1.954203,0.184918,0.802029,0.16203
1702324640593750,-7.969795,0.192592,2.13203,0.192318,0.738829,0.16183
1702324640601562,-8.53795,0.237592,2.140203,0.195318,0.676329,0.16183
1702324640609375,-8.213795,0.290592,2.289203,0.209418,0.623029,0.17143
1702324640617187,-8.364795,0.390592,2.361203,0.215218,0.585329,0.17433
1702324640625000,-8.529795,0.474592,2.330203,0.240918,0.552329,0.17443
1702324640632812,-8.750795,0.474592,2.278203,0.258418,0.531129,0.16783
1702324640640625,-9.26795,0.477592,2.305203,0.255418,0.505429,0.15673
1702324640648437,-9.318795,0.555592,2.409203,0.242018,0.479929,0.15813
1702324640656250,-9.557795,0.649592,2.549203,0.245418,0.457529,0.15343
1702324640664062,-9.711795,0.724592,2.647203,0.253518,0.437129,0.14223
1702324640671875,-9.813795,0.828592,2.721203,0.243518,0.439929,0.14513
1702324640679687,-9.920795,0.953592,2.852203,0.216318,0.445529,0.14053
1702324640687500,-10.23795,1.43592,2.970203,0.197218,0.451229,0.13903
1702324640695312,-9.940795,1.51592,2.945203,0.179418,0.464029,0.13573
1702324640703125,-9.753795,1.42592,2.906203,0.159818,0.474629,0.13393
1702324640710937,-9.570795,0.999592,3.3203,0.150418,0.469129,0.12763
1702324640718750,-9.383795,0.972592,3.19203,0.135818,0.472529,0.12923
1702324640726562,-9.217795,0.949592,3.26203,0.126018,0.461329,0.13723
1702324640734375,-9.141795,0.931592,3.53203,0.109818,0.438029,0.13083
1702324640742187,-9.114795,0.934592,3.107203,0.92118,0.433029,0.13253
1702324640750000,-9.107795,0.934592,3.190203,0.74018,0.400729,0.13393
1702324640757812,-9.126795,0.974592,3.231203,0.61118,0.380229,0.13083
1702324640765625,-9.164795,0.975592,3.285203,0.51118,0.365629,0.12733
1702324640773437,-9.167795,0.990592,3.195203,0.38418,0.338029,0.12283
1702324640781250,-9.174795,1.66592,3.166203,0.23718,0.313529,0.12103
1702324640789062,-9.189795,1.126592,3.285203,0.28518,0.310329,0.12273
1702324640796875,-9.164795,1.123592,3.297203,0.15518,0.304229,0.12103
1702324640804687,-9.132795,1.114592,3.251203,0.5518,0.293929,0.12573
1702324640812500,-9.88795,1.144592,3.184203,0.5618,0.276129,0.12903
1702324640820312,-9.53795,1.134592,3.190203,0.7218,0.250629,0.13233
1702324640828125,-9.7795,1.127592,3.249203,0.418,0.223229,0.12743
1702324640835937,-8.963795,1.142592,3.297203,0.11182,0.194029,0.12893
1702324640843750,-8.895795,1.141592,3.245203,0.9682,0.172229,0.12883
1702324640851562,-8.878795,1.143592,3.220203,0.12882,0.137129,0.13063
1702324640859375,-8.862795,1.148592,3.208203,0.27982,0.116629,0.13033
1702324640867187,-8.860795,1.143592,3.174203,0.24682,0.89529,0.12563
1702324640875000,-8.875795,1.119592,3.136203,0.42582,0.55829,0.10943
1702324640882812,-8.919795,1.91592,3.127203,0.44382,0.26229,0.11103
1702324640890625,-8.982795,1.87592,3.91203,0.42882,0.2929,0.10613
1702324640898437,-9.14795,1.85592,3.35203,0.45882,0.11671,0.9823
1702324640906250,-9.29795,1.112592,2.978203,0.47682,0.37771,0.9333
1702324640914062,-9.67795,1.140592,2.942203,0.49582,0.44871,0.9483
1702324640921875,-9.108795,1.149592,2.908203,0.49582,0.62271,0.9163
1702324640929687,-9.131795,1.147592,2.854203,0.46282,0.80371,0.9663
1702324640937500,-9.184795,1.141592,2.818203,0.57782,0.84371,0.9483
1702324640945312,-9.259795,1.67592,2.816203,0.70982,0.94671,0.9633
1702324640953125,-9.355795,1.42592,2.804203,0.70882,0.102771,0.9643
1702324640960937,-9.432795,1.90592,2.811203,0.95082,0.91471,0.9473
1702324640968750,-9.484795,1.117592,2.777203,0.108082,0.91471,0.9953
1702324640976562,-9.515795,1.131592,2.755203,0.112782,0.82471,0.10123
1702324640984375,-9.509795,1.146592,2.725203,0.115782,0.79971,0.9813
1702324640992187,-9.501795,1.159592,2.685203,0.120282,0.85871,0.9843
1702324641000000,-9.469795,1.166592,2.651203,0.119282,0.74371,0.10433
1702324641007812,-9.428795,1.161592,2.662203,0.119182,0.62271,0.10443
1702324641015625,-9.393795,1.151592,2.662203,0.126882,0.69371,0.9983
1702324641023437,-9.360795,1.143592,2.669203,0.126582,0.80271,0.10813
1702324641031250,-9.337795,1.125592,2.691203,0.133382,0.80571,0.10153
1702324641039062,-9.306795,1.117592,2.716203,0.129082,0.84971,0.9783
1702324641046875,-9.278795,1.98592,2.716203,0.125382,0.99171,0.9503
1702324641054687,-9.277795,1.43592,2.723203,0.124082,0.106071,0.9643
1702324641062500,-9.277795,1.25592,2.719203,0.127282,0.113771,0.9163
1702324641070312,-9.295795,1.23592,2.685203,0.125482,0.127171,0.8863
1702324641078125,-9.281795,1.17592,2.649203,0.132382,0.142971,0.8673
1702324641085937,-9.251795,1.67592,2.705203,0.130382,0.153171,0.7563
1702324641093750,-9.338795,1.84592,2.752203,0.117682,0.160371,0.7393
1702324641101562,-9.357795,1.53592,2.633203,0.112982,0.158171,0.6893
1702324641109375,-9.347795,1.64592,2.588203,0.123982,0.162471,0.6923
1702324641117187,-9.374795,1.106592,2.597203,0.115882,0.176471,0.6273
1702324641125000,-9.408795,1.91592,2.603203,0.117682,0.179271,0.6753
1702324641132812,-9.396795,1.87592,2.563203,0.120882,0.187071,0.6113
1702324641140625,-9.369795,1.78592,2.527203,0.120982,0.194471,0.5463
1702324641148437,-9.348795,1.53592,2.556203,0.117882,0.200371,0.5453
1702324641156250,-9.351795,1.22592,2.533203,0.99882,0.204471,0.5633
1702324641164062,-9.346795,1.2592,2.509203,0.101282,0.212771,0.5163
1702324641171875,-9.365795,0.974592,2.529203,0.100082,0.222471,0.4973
1702324641179687,-9.396795,0.976592,2.520203,0.101882,0.229871,0.4803
1702324641187500,-9.448795,0.981592,2.495203,0.95182,0.232071,0.4343
1702324641195312,-9.500795,1.2592,2.468203,0.87082,0.232071,0.4343
1702324641203125,-9.494795,1.15592,2.407203,0.77282,0.222771,0.4183
1702324641210937,-9.494795,1.42592,2.353203,0.78882,0.221171,0.4023
1702324641218750,-9.486795,1.75592,2.319203,0.83482,0.220171,0.3233
1702324641226562,-9.466795,1.115592,2.283203,0.88582,0.220471,0.2723
1702324641234375,-9.446795,1.125592,2.271203,0.86782,0.217571,0.2243
1702324641242187,-9.438795,1.142592,2.285203,0.88282,0.218571,0.2903
1702324641250000,-9.446795,1.147592,2.269203,0.83682,0.216171,0.3213
1702324641257812,-9.487795,1.121592,2.253203,0.89782,0.212371,0.3073
1702324641265625,-9.510795,1.89592,2.251203,0.99782,0.205171,0.3213
1702324641273437,-9.546795,1.76592,2.229203,0.99882,0.204871,0.3043
1702324641281250,-9.579795,1.72592,2.213203,0.106082,0.205471,0.2733
1702324641289062,-9.631795,1.81592,2.193203,0.118682,0.192071,0.2273
1702324641296875,-9.671795,1.69592,2.197203,0.127082,0.188071,0.2893
1702324641304687,-9.684795,1.60592,2.165203,0.127082,0.182971,0.2243
1702324641312500,-9.682795,1.31592,2.179203,0.138082,0.178871,0.1453
1702324641320312,-9.648795,1.29592,2.197203,0.147782,0.164271,0.963
1702324641328125,-9.612795,1.22592,2.211203,0.144382,0.159871,0.483
1702324641335937,-9.627795,1.11592,2.202203,0.149382,0.157671,0.473
1702324641343750,-9.629795,1.2592,2.165203,0.152582,0.157671,0.473
1702324641351562,-9.582795,0.999592,2.134203,0.150882,0.143671,0.153
1702324641359375,-9.567795,1.19592,2.132203,0.153782,0.142971,0.333
1702324641367187,-9.516795,1.38592,2.136203,0.160282,0.144571,0.173
1702324641375000,-9.480795,1.53592,2.136203,0.163582,0.142271,0.637
1702324641382812,-9.468795,1.57592,2.147203,0.171182,0.146971,0.447
1702324641390625,-9.463795,1.43592,2.150203,0.174282,0.145671,0.607
1702324641398437,-9.474795,1.50592,2.136203,0.177982,0.149171,0.307
1702324641406250,-9.473795,1.28592,2.134203,0.182782,0.149071,0.787
1702324641414062,-9.480795,1.40592,2.152203,0.192782,0.157471,0.647
1702324641421875,-9.475795,1.49592,2.113203,0.197682,0.157471,0.807
1702324641429687,-9.458795,1.37592,2.89203,0.199082,0.154971,0.637
1702324641437500,-9.473795,1.33592,2.93203,0.208782,0.162771,0.797
1702324641445312,-9.445795,1.22592,2.82203,0.220582,0.167471,0.667
1702324641453125,-9.460795,1.24592,2.91203,0.249182,0.171971,0.797
1702324641460937,-9.455795,1.19592,2.203,0.252582,0.176371,0.647
1702324641468750,-9.436795,1.63592,1.903203,0.263882,0.195371,0.807
1702324641476562,-9.472795,1.95592,1.958203,0.262482,0.199371,0.657
1702324641484375,-9.545795,1.52592,1.973203,0.270382,0.185671,0.967
1702324641492187,-9.562795,1.17592,1.885203,0.278482,0.179071,0.977
1702324641500000,-9.544795,1.12592,1.781203,0.279982,0.171671,0.327
1702324641507812,-9.520795,1.14592,1.800203,0.283282,0.176671,0.323
1702324641515625,-9.508795,0.978592,1.860203,0.283282,0.175171,0.483
1702324641523437,-9.489795,0.927592,1.874203,0.286982,0.182471,0.2553
1702324641531250,-9.473795,0.885592,1.849203,0.294882,0.184671,0.2883
1702324641539062,-9.493795,0.861592,1.795203,0.306082,0.183371,0.2573
1702324641546875,-9.533795,0.837592,1.802203,0.306282,0.184271,0.2403
1702324641554687,-9.606795,0.807592,1.829203,0.309582,0.185471,0.2073
1702324641562500,-9.662795,0.770592,1.831203,0.314182,0.183371,0.2893
1702324641570312,-9.711795,0.735592,1.831203,0.307482,0.183971,0.2263
1702324641578125,-9.738795,0.672592,1.791203,0.293082,0.176471,0.953
1702324641585937,-9.756795,0.635592,1.712203,0.281682,0.164371,0.1443
1702324641593750,-9.773795,0.593592,1.651203,0.267082,0.153471,0.1123
1702324641601562,-9.757795,0.564592,1.621203,0.255682,0.139171,0.643
1702324641609375,-9.750795,0.533592,1.621203,0.242882,0.129571,0.793
1702324641617187,-9.750795,0.495592,1.653203,0.224782,0.122671,0.653
1702324641625000,-9.756795,0.473592,1.664203,0.206982,0.109971,0.653
1702324641632812,-9.769795,0.478592,1.705203,0.197482,0.105071,0.1453
1702324641640625,-9.752795,0.504592,1.732203,0.179382,0.104071,0.503
1702324641648437,-9.712795,0.517592,1.745203,0.168182,0.96071,0.813
1702324641656250,-9.660795,0.530592,1.745203,0.148882,0.84571,0.643
1702324641664062,-9.611795,0.528592,1.750203,0.151782,0.81171,0.833
1702324641671875,-9.600795,0.499592,1.734203,0.129082,0.81171,0.353
1702324641679687,-9.619795,0.462592,1.703203,0.121482,0.80271,0.1453
1702324641687500,-9.663795,0.443592,1.680203,0.97282,0.74171,0.2263
1702324641695312,-9.701795,0.430592,1.664203,0.71382,0.64871,0.2423
1702324641703125,-9.711795,0.479592,1.671203,0.55082,0.59371,0.3233
1702324641710937,-9.714795,0.530592,1.651203,0.48882,0.47571,0.3543
1702324641718750,-9.735795,0.581592,1.615203,0.46982,0.34571,0.3563
1702324641726562,-9.768795,0.611592,1.567203,0.32782,0.20871,0.4183
1702324641734375,-9.810795,0.644592,1.574203,0.24582,0.13771,0.4833
1702324641742187,-9.828795,0.676592,1.578203,0.21382,0.6071,0.5483
1702324641750000,-9.809795,0.726592,1.574203,0.30982,0.7571,0.5313
1702324641757812,-9.786795,0.739592,1.599203,0.31082,0.7271,0.5313
1702324641765625,-9.780795,0.746592,1.610203,0.26082,0.1329,0.6133
1702324641773437,-9.764795,0.721592,1.569203,0.34182,0.12629,0.5643
1702324641781250,-9.685795,0.731592,1.553203,0.37482,0.10929,0.6603
1702324641789062,-9.623795,0.768592,1.682203,0.34282,0.17129,0.6923
1702324641796875,-9.619795,0.770592,1.745203,0.32482,0.23129,0.6613
1702324641804687,-9.593795,0.791592,1.653203,0.45082,0.17229,0.6633
1702324641812500,-9.593795,0.851592,1.655203,0.45582,0.18729,0.6923
1702324641820312,-9.634795,0.872592,1.669203,0.56682,0.16529,0.7103
1702324641828125,-9.651795,0.907592,1.630203,0.90482,0.17529,0.8073
1702324641835937,-9.617795,0.933592,1.603203,0.101982,0.16629,0.7903
1702324641843750,-9.579795,0.968592,1.547203,0.97382,0.10629,0.8533
1702324641851562,-9.568795,0.961592,1.522203,0.108682,0.16829,0.8693
1702324641859375,-9.572795,0.946592,1.524203,0.118482,0.19429,0.7873
1702324641867187,-9.598795,0.972592,1.531203,0.111382,0.18829,0.8083
1702324641875000,-9.658795,0.976592,1.544203,0.118282,0.15729,0.7883
1702324641882812,-9.718795,0.991592,1.571203,0.126882,0.24829,0.8023
1702324641890625,-9.717795,1.23592,1.635203,0.145382,0.27229,0.7903
1702324641898437,-9.687795,1.69592,1.696203,0.153482,0.24229,0.7423
1702324641906250,-9.678795,1.98592,1.696203,0.167682,0.34829,0.6793
1702324641914062,-9.724795,1.57592,1.666203,0.177782,0.39229,0.6603
1702324641921875,-9.800795,1.5592,1.603203,0.185582,0.54529,0.5973
1702324641929687,-9.830795,0.943592,1.594203,0.196682,0.60429,0.5973
1702324641937500,-9.809795,0.901592,1.644203,0.211182,0.58929,0.5333
1702324641945312,-9.757795,0.922592,1.669203,0.225382,0.62729,0.5193
1702324641953125,-9.667795,0.958592,1.682203,0.228982,0.59329,0.4683
1702324641960937,-9.631795,0.991592,1.680203,0.232382,0.58429,0.4673
1702324641968750,-9.605795,1.20592,1.693203,0.238782,0.64629,0.4353
1702324641976562,-9.595795,1.20592,1.707203,0.240482,0.57229,0.4023
1702324641984375,-9.604795,0.975592,1.709203,0.230582,0.63229,0.3073
1702324641992187,-9.612795,0.900592,1.707203,0.235382,0.59429,0.4203
1702324642000000,-9.629795,0.870592,1.671203,0.235582,0.53829,0.3873
1702324642007812,-9.633795,0.843592,1.648203,0.240282,0.50429,0.4033
1702324642015625,-9.662795,0.833592,1.603203,0.237182,0.46029,0.3383
1702324642023437,-9.700795,0.815592,1.583203,0.232282,0.42929,0.3383
1702324642031250,-9.689795,0.826592,1.576203,0.230682,0.39929,0.2583
1702324642039062,-9.669795,0.839592,1.594203,0.235482,0.41429,0.2743
1702324642046875,-9.649795,0.837592,1.601203,0.225682,0.39529,0.2593
1702324642054687,-9.642795,0.808592,1.621203,0.209582,0.41129,0.2593
1702324642062500,-9.679795,0.722592,1.635203,0.203082,0.45729,0.2593
1702324642070312,-9.743795,0.663592,1.619203,0.201282,0.54029,0.3733
1702324642078125,-9.742795,0.632592,1.594203,0.194982,0.56529,0.3553
1702324642085937,-9.715795,0.616592,1.594203,0.191682,0.64029,0.3883
1702324642093750,-9.666795,0.613592,1.612203,0.177082,0.63629,0.4053
1702324642101562,-9.610795,0.586592,1.664203,0.175282,0.63029,0.3903
1702324642109375,-9.573795,0.519592,1.698203,0.151282,0.65129,0.4053
1702324642117187,-9.612795,0.447592,1.732203,0.144982,0.67629,0.3713
1702324642125000,-9.645795,0.425592,1.642203,0.141782,0.62329,0.4853
1702324642132812,-9.654795,0.547592,1.529203,0.123982,0.47929,0.4853
1702324642140625,-9.734795,0.674592,1.603203,0.106582,0.58129,0.5313
1702324642148437,-9.746795,0.723592,1.671203,0.88382,0.66229,0.5503
1702324642156250,-9.719795,0.718592,1.628203,0.80482,0.69929,0.5813
1702324642164062,-9.677795,0.729592,1.547203,0.80282,0.82429,0.4853
1702324642171875,-9.707795,0.793592,1.560203,0.73782,0.77429,0.5183
1702324642179687,-9.726795,0.891592,1.626203,0.74082,0.84529,0.5003
1702324642187500,-9.659795,0.928592,1.576203,0.62682,0.73729,0.4193
1702324642195312,-9.594795,0.900592,1.524203,0.65882,0.75329,0.3553
1702324642203125,-9.562795,0.877592,1.510203,0.54382,0.73129,0.3243
1702324642210937,-9.535795,0.861592,1.544203,0.47982,0.71529,0.3563
1702324642218750,-9.548795,0.824592,1.666203,0.56182,0.66029,0.2753
1702324642226562,-9.576795,0.774592,1.702203,0.62582,0.58629,0.1463
1702324642234375,-9.601795,0.763592,1.666203,0.47682,0.50029,0.353
1702324642242187,-9.610795,0.765592,1.623203,0.46182,0.56829,0.137
1702324642250000,-9.605795,0.748592,1.592203,0.44482,0.55329,0.777
1702324642257812,-9.581795,0.740592,1.599203,0.42682,0.62529,0.287
1702324642265625,-9.538795,0.744592,1.596203,0.36182,0.62529,0.767
1702324642273437,-9.534795,0.766592,1.574203,0.24982,0.45329,0.607
1702324642281250,-9.521795,0.795592,1.553203,0.13782,0.42529,0.777
1702324642289062,-9.564795,0.840592,1.542203,0.7382,0.36329,0.617
1702324642296875,-9.586795,0.869592,1.585203,0.5318,0.36929,0.787
1702324642304687,-9.591795,0.849592,1.614203,0.8818,0.31329,0.767
1702324642312500,-9.624795,0.838592,1.617203,0.10318,0.37829,0.617
1702324642320312,-9.634795,0.836592,1.599203,0.18518,0.37529,0.767
1702324642328125,-9.649795,0.812592,1.614203,0.30018,0.38429,0.1077
1702324642335937,-9.642795,0.790592,1.653203,0.30018,0.40329,0.1247
1702324642343750,-9.673795,0.768592,1.660203,0.30118,0.38529,0.1557
1702324642351562,-9.679795,0.751592,1.630203,0.33118,0.40929,0.1577
1702324642359375,-9.667795,0.747592,1.639203,0.36018,0.44629,0.787
1702324642367187,-9.647795,0.740592,1.637203,0.44218,0.49329,0.1587
1702324642375000,-9.609795,0.703592,1.642203,0.55618,0.50529,0.1097
1702324642382812,-9.595795,0.686592,1.646203,0.55518,0.42729,0.617
1702324642390625,-9.590795,0.690592,1.666203,0.60218,0.43029,0.947
1702324642398437,-9.602795,0.690592,1.678203,0.55618,0.42429,0.937
1702324642406250,-9.624795,0.684592,1.700203,0.56918,0.37229,0.1437
1702324642414062,-9.662795,0.662592,1.712203,0.57118,0.36929,0.2227
1702324642421875,-9.679795,0.650592,1.696203,0.60218,0.43329,0.957
1702324642429687,-9.701795,0.619592,1.666203,0.58718,0.49329,0.1267
1702324642437500,-9.713795,0.588592,1.662203,0.55918,0.54629,0.2047
1702324642445312,-9.630795,0.593592,1.671203,0.55918,0.53129,0.2367
1702324642453125,-9.606795,0.621592,1.754203,0.65418,0.45629,0.1577
1702324642460937,-9.662795,0.598592,1.773203,0.73718,0.51229,0.1727
1702324642468750,-9.623795,0.582592,1.703203,0.73718,0.62029,0.1077
1702324642476562,-9.655795,0.620592,1.743203,0.75118,0.62629,0.607
1702324642484375,-9.642795,0.648592,1.759203,0.63918,0.63929,0.767
1702324642492187,-9.647795,0.677592,1.768203,0.55718,0.54529,0.607
1702324642500000,-9.632795,0.710592,1.761203,0.57618,0.55529,0.757
1702324642507812,-9.614795,0.703592,1.736203,0.58918,0.53029,0.607
1702324642515625,-9.627795,0.686592,1.734203,0.59018,0.54529,0.767
1702324642523437,-9.620795,0.659592,1.721203,0.60518,0.59529,0.607
1702324642531250,-9.597795,0.654592,1.745203,0.55818,0.48029,0.597
1702324642539062,-9.600795,0.647592,1.766203,0.70618,0.55129,0.747
1702324642546875,-9.613795,0.637592,1.782203,0.75218,0.54229,0.597
1702324642554687,-9.624795,0.639592,1.775203,0.79918,0.57929,0.767
1702324642562500,-9.628795,0.629592,1.759203,0.83018,0.59829,0.617
1702324642570312,-9.626795,0.637592,1.775203,0.83318,0.58829,0.437
1702324642578125,-9.629795,0.655592,1.793203,0.80018,0.66929,0.767
1702324642585937,-9.608795,0.664592,1.804203,0.81418,0.55129,0.617
1702324642593750,-9.599795,0.679592,1.772203,0.79718,0.52329,0.787
1702324642601562,-9.606795,0.688592,1.791203,0.81318,0.42729,0.617
1702324642609375,-9.609795,0.681592,1.797203,0.81518,0.50129,0.777
1702324642617187,-9.634795,0.688592,1.802203,0.86418,0.44829,0.597
1702324642625000,-9.640795,0.693592,1.797203,0.84618,0.45829,0.777
1702324642632812,-9.658795,0.684592,1.777203,0.83118,0.40529,0.607
1702324642640625,-9.642795,0.704592,1.784203,0.76218,0.52929,0.477
1702324642648437,-9.645795,0.728592,1.797203,0.74918,0.44229,0.777
1702324642656250,-9.636795,0.753592,1.809203,0.64818,0.40429,0.637
1702324642664062,-9.599795,0.778592,1.788203,0.63618,0.40829,0.777
1702324642671875,-9.564795,0.789592,1.772203,0.62118,0.34029,0.597
1702324642679687,-9.566795,0.789592,1.768203,0.62118,0.20029,0.1247
1702324642687500,-9.573795,0.800592,1.763203,0.55618,0.18829,0.1897
1702324642695312,-9.571795,0.804592,1.777203,0.39818,0.13029,0.1867
1702324642703125,-9.570795,0.811592,1.791203,0.31218,0.971,0.2227
1702324642710937,-9.559795,0.829592,1.784203,0.29618,0.929,0.3037
1702324642718750,-9.557795,0.833592,1.777203,0.15018,0.6771,0.2877
1702324642726562,-9.546795,0.815592,1.781203,0.13718,0.4571,0.3017
1702324642734375,-9.503795,0.810592,1.802203,0.29718,0.10271,0.3347
1702324642742187,-9.494795,0.815592,1.815203,0.31118,0.14271,0.3527
1702324642750000,-9.492795,0.806592,1.813203,0.28018,0.11471,0.3677
1702324642757812,-9.572795,0.789592,1.822203,0.24818,0.21071,0.3507
1702324642765625,-9.606795,0.796592,1.838203,0.26518,0.7071,0.3827
1702324642773437,-9.646795,0.784592,1.820203,0.23218,0.5171,0.3677
1702324642781250,-9.668795,0.753592,1.752203,0.12218,0.10371,0.4787
1702324642789062,-9.654795,0.739592,1.678203,0.8918,0.8571,0.4957
1702324642796875,-9.684795,0.744592,1.696203,0.13818,0.6971,0.4797
1702324642804687,-9.752795,0.677592,1.750203,0.17018,0.8929,0.4957
1702324642812500,-9.798795,0.602592,1.718203,0.31818,0.35029,0.4787
1702324642820312,-9.781795,0.536592,1.628203,0.28618,0.38129,0.4787
1702324642828125,-9.768795,0.513592,1.644203,0.31918,0.40529,0.3977
1702324642835937,-9.755795,0.478592,1.680203,0.55718,0.39829,0.3187
1702324642843750,-9.744795,0.413592,1.703203,0.60918,0.40429,0.3007
1702324642851562,-9.732795,0.355592,1.671203,0.81818,0.35629,0.2527
1702324642859375,-9.700795,0.320592,1.590203,0.81618,0.39029,0.2207
1702324642867187,-9.697795,0.318592,1.644203,0.76618,0.48629,0.1097
1702324642875000,-9.724795,0.307592,1.736203,0.83318,0.51129,0.1237
1702324642882812,-9.735795,0.296592,1.752203,0.63818,0.51429,0.927
1702324642890625,-9.744795,0.309592,1.761203,0.75018,0.43629,0.607
1702324642898437,-9.742795,0.320592,1.761203,0.81518,0.49829,0.767
1702324642906250,-9.740795,0.349592,1.750203,0.87718,0.53829,0.627
1702324642914062,-9.707795,0.387592,1.746203,0.90918,0.60429,0.787
1702324642921875,-9.663795,0.439592,1.755203,0.91218,0.65729,0.447
1702324642929687,-9.631795,0.466592,1.766203,0.93118,0.59729,0.53
1702324642937500,-9.600795,0.479592,1.754203,0.90118,0.70329,0.97
1702324642945312,-9.580795,0.523592,1.743203,0.97918,0.57029,0.587
1702324642953125,-9.591795,0.566592,1.748203,0.96118,0.57629,0.767
1702324642960937,-9.594795,0.608592,1.734203,0.94518,0.60729,0.767
1702324642968750,-9.595795,0.630592,1.748203,0.85018,0.47329,0.587
1702324642976562,-9.619795,0.646592,1.748203,0.81518,0.53329,0.767
1702324642984375,-9.631795,0.657592,1.754203,0.83218,0.49529,0.597
1702324642992187,-9.624795,0.664592,1.766203,0.78018,0.50829,0.787
1702324643000000,-9.625795,0.688592,1.791203,0.70318,0.44929,0.597
1702324643007812,-9.638795,0.692592,1.797203,0.65618,0.49629,0.1567
1702324643015625,-9.642795,0.691592,1.779203,0.62118,0.56729,0.1097
1702324643023437,-9.638795,0.697592,1.804203,0.59018,0.54529,0.767
1702324643031250,-9.668795,0.678592,1.831203,0.55318,0.57629,0.797
1702324643039062,-9.670795,0.661592,1.836203,0.55318,0.57629,0.637
1702324643046875,-9.660795,0.649592,1.845203,0.57218,0.54829,0.447
1702324643054687,-9.644795,0.655592,1.856203,0.58718,0.63229,0.627
1702324643062500,-9.651795,0.653592,1.856203,0.55618,0.64529,0.297
1702324643070312,-9.646795,0.649592,1.840203,0.57218,0.62629,0.193
1702324643078125,-9.639795,0.629592,1.822203,0.56918,0.63529,0.333
1702324643085937,-9.639795,0.620592,1.809203,0.52318,0.64429,0.183
1702324643093750,-9.637795,0.609592,1.797203,0.42718,0.62629,0.193
1702324643101562,-9.583795,0.626592,1.822203,0.32918,0.64529,0.343
1702324643109375,-9.555795,0.638592,1.870203,0.50918,0.58829,0.683
1702324643117187,-9.581795,0.608592,1.849203,0.57118,0.59429,0.513
1702324643125000,-9.544795,0.588592,1.791203,0.55218,0.55729,0.333
1702324643132812,-9.546795,0.574592,1.845203,0.57018,0.47329,0.183
1702324643140625,-9.551795,0.583592,1.901203,0.47218,0.38029,0.503
1702324643148437,-9.567795,0.590592,1.933203,0.42218,0.29329,0.173
1702324643156250,-9.563795,0.621592,1.897203,0.32818,0.24929,0.353
1702324643164062,-9.579795,0.621592,1.870203,0.29718,0.13829,0.33
1702324643171875,-9.603795,0.606592,1.854203,0.31218,0.18729,0.353
1702324643179687,-9.632795,0.589592,1.838203,0.29318,0.19729,0.173
1702324643187500,-9.645795,0.614592,1.829203,0.30518,0.12629,0.323
1702324643195312,-9.648795,0.622592,1.804203,0.35718,0.18129,0.173
1702324643203125,-9.655795,0.624592,1.777203,0.37618,0.17229,0.353
1702324643210937,-9.664795,0.625592,1.779203,0.37418,0.14729,0.183
1702324643218750,-9.670795,0.618592,1.773203,0.39118,0.28729,0.183
1702324643226562,-9.661795,0.602592,1.784203,0.42418,0.28429,0.343
1702324643234375,-9.650795,0.587592,1.788203,0.40918,0.37329,0.833
1702324643242187,-9.616795,0.570592,1.815203,0.39518,0.37129,0.363
1702324643250000,-9.589795,0.566592,1.815203,0.43918,0.29029,0.147
1702324643257812,-9.592795,0.568592,1.833203,0.37918,0.26329,0.607
1702324643265625,-9.599795,0.572592,1.847203,0.36718,0.32829,0.417
1702324643273437,-9.606795,0.581592,1.818203,0.41218,0.25929,0.437
1702324643281250,-9.614795,0.581592,1.822203,0.31418,0.26229,0.287
1702324643289062,-9.616795,0.589592,1.811203,0.31218,0.30329,0.787
1702324643296875,-9.616795,0.582592,1.818203,0.31318,0.28129,0.447
1702324643304687,-9.628795,0.591592,1.809203,0.32918,0.24729,0.203
1702324643312500,-9.619795,0.579592,1.822203,0.29818,0.27529,0.203
1702324643320312,-9.616795,0.586592,1.806203,0.30918,0.30529,0.493
1702324643328125,-9.633795,0.560592,1.800203,0.29218,0.27829,0.163
1702324643335937,-9.645795,0.560592,1.784203,0.31018,0.34929,0.663
1702324643343750,-9.641795,0.569592,1.775203,0.29718,0.26229,0.523
1702324643351562,-9.640795,0.562592,1.784203,0.31018,0.27129,0.343
1702324643359375,-9.614795,0.546592,1.770203,0.31218,0.26529,0.193
1702324643367187,-9.625795,0.549592,1.763203,0.29518,0.15929,0.183
1702324643375000,-9.643795,0.538592,1.739203,0.31118,0.14129,0.353
1702324643382812,-9.638795,0.527592,1.745203,0.27918,0.15629,0.513
1702324643390625,-9.653795,0.527592,1.766203,0.23018,0.14429,0.183
1702324643398437,-9.670795,0.554592,1.793203,0.16718,0.16929,0.683
1702324643406250,-9.661795,0.567592,1.793203,0.19918,0.25329,0.137
1702324643414062,-9.667795,0.581592,1.782203,0.11618,0.30629,0.173
1702324643421875,-9.650795,0.582592,1.768203,0.3618,0.33429,0.183
1702324643429687,-9.642795,0.576592,1.761203,0.9518,0.37729,0.643
1702324643437500,-9.639795,0.577592,1.766203,0.7118,0.26229,0.683
1702324643445312,-9.629795,0.573592,1.775203,0.5318,0.26929,0.183
1702324643453125,-9.652795,0.585592,1.800203,0.6718,0.30629,0.333
1702324643460937,-9.641795,0.582592,1.809203,0.3818,0.29729,0.193
1702324643468750,-9.627795,0.582592,1.763203,0.5118,0.32129,0.333
1702324643476562,-9.595795,0.589592,1.693203,0.3418,0.24729,0.323
1702324643484375,-9.607795,0.615592,1.736203,0.5118,0.19329,0.983
1702324643492187,-9.666795,0.600592,1.782203,0.3818,0.18429,0.683
1702324643500000,-9.678795,0.556592,1.784203,0.318,0.29029,0.493
1702324643507812,-9.647795,0.542592,1.689203,0.1182,0.30029,0.673
1702324643515625,-9.577795,0.546592,1.671203,0.11082,0.24329,0.1133
1702324643523437,-9.593795,0.573592,1.791203,0.1382,0.20929,0.1143
1702324643531250,-9.627795,0.564592,1.806203,0.18118,0.26829,0.993
1702324643539062,-9.622795,0.544592,1.761203,0.24418,0.15529,0.2763
1702324643546875,-9.600795,0.549592,1.666203,0.29018,0.16029,0.3233
1702324643554687,-9.633795,0.553592,1.673203,0.29018,0.20729,0.3233
1702324643562500,-9.676795,0.561592,1.766203,0.19518,0.18929,0.2753
1702324643570312,-9.667795,0.565592,1.775203,0.11118,0.12029,0.2893
1702324643578125,-9.665795,0.574592,1.739203,0.1718,0.14629,0.2263
1702324643585937,-9.672795,0.592592,1.725203,0.1682,0.14929,0.2903
1702324643593750,-9.677795,0.589592,1.723203,0.1718,0.3029,0.2923
1702324643601562,-9.670795,0.592592,1.716203,0.1618,0.11829,0.2093
1702324643609375,-9.648795,0.589592,1.698203,0.118,0.14329,0.2433
1702324643617187,-9.647795,0.589592,1.696203,0.12782,0.16229,0.2103
1702324643625000,-9.639795,0.589592,1.684203,0.17482,0.12529,0.1633
1702324643632812,-9.630795,0.591592,1.664203,0.18982,0.21829,0.1473
1702324643640625,-9.634795,0.588592,1.669203,0.4382,0.19929,0.1643
1702324643648437,-9.632795,0.582592,1.671203,0.12482,0.23029,0.1963
1702324643656250,-9.638795,0.576592,1.689203,0.17782,0.18029,0.2423
1702324643664062,-9.641795,0.558592,1.703203,0.14282,0.14029,0.2113
1702324643671875,-9.652795,0.551592,1.691203,0.7682,0.19929,0.2123
1702324643679687,-9.650795,0.548592,1.700203,0.982,0.18629,0.3273
1702324643687500,-9.663795,0.551592,1.714203,0.1282,0.18329,0.3083
1702324643695312,-9.666795,0.547592,1.712203,0.418,0.16129,0.3583
1702324643703125,-9.674795,0.549592,1.709203,0.3618,0.24229,0.3093
1702324643710937,-9.665795,0.547592,1.718203,0.2018,0.22629,0.2933
1702324643718750,-9.645795,0.551592,1.723203,0.2018,0.14929,0.2773
1702324643726562,-9.640795,0.549592,1.700203,0.1818,0.20229,0.2763
1702324643734375,-9.636795,0.544592,1.703203,0.3618,0.27629,0.2933
1702324643742187,-9.625795,0.553592,1.696203,0.1918,0.17129,0.1953
1702324643750000,-9.625795,0.553592,1.703203,0.1382,0.18629,0.3083
1702324643757812,-9.636795,0.555592,1.671203,0.5118,0.20229,0.2443
1702324643765625,-9.641795,0.553592,1.660203,0.3718,0.30829,0.2283
1702324643773437,-9.663795,0.551592,1.653203,0.5118,0.32629,0.2763
1702324643781250,-9.677795,0.565592,1.651203,0.3818,0.28929,0.2293
1702324643789062,-9.672795,0.553592,1.657203,0.2218,0.20829,0.2133
1702324643796875,-9.632795,0.582592,1.642203,0.4918,0.17329,0.2913
