time,Acceleration X (m/s^2),Acceleration Y (m/s^2),Acceleration Z (m/s^2),Angular Velocity X (rad/s),Angular Velocity Y (rad/s),Angular Velocity Z (rad/s)
1702325264101562,-9.490346,1.94921,-0.150735,,,
1702325264109375,-9.506346,0.674898,2.3021,0.234707,0.152235,0.13922
1702325264117187,-9.524346,0.688898,2.9621,0.244307,0.157135,0.18822
1702325264125000,-9.545346,0.723898,2.12521,0.253907,0.153935,0.17122
1702325264132812,-9.561346,0.745898,2.12121,0.257607,0.153435,0.17122
1702325264140625,-9.579346,0.757898,2.10921,0.247607,0.155335,0.13922
1702325264156250,-9.568346,0.793898,2.12121,0.253807,0.146435,0.20422
1702325264164062,-9.546346,0.807898,2.16121,0.257507,0.139435,0.23522
1702325264171875,-9.531346,0.827898,2.18621,0.244207,0.140035,0.23622
1702325264179687,-9.493346,0.833898,2.22021,0.232907,0.129135,0.22022
1702325264203125,-9.408346,0.908898,2.34221,0.200307,0.114335,0.38222
1702325264210937,-9.398346,0.922898,2.36021,0.186707,0.105335,0.50822
1702325264218750,-9.405346,0.913898,2.32821,0.185107,0.98935,0.46022
1702325264226562,-9.400346,0.923898,2.29721,0.166807,0.99835,0.46122
1702325264234375,-9.407346,0.895898,2.33321,0.156007,0.92735,0.44422
1702325264242187,-9.419346,0.846898,2.24521,0.142207,0.64335,0.49422
1702325264250000,-9.433346,0.883898,2.20421,0.127607,0.48835,0.54222
1702325264257812,-9.508346,0.922898,2.39421,0.129407,0.50235,0.52622
1702325264265625,-9.584346,0.869898,2.49121,0.128307,0.47935,0.55722
1702325264273437,-9.578346,0.806898,2.33721,0.129507,0.48535,0.57422
1702325264281250,-9.535346,0.773898,2.17721,0.117007,0.49535,0.54122
1702325264289062,-9.495346,0.811898,2.26121,0.89007,0.48735,0.55822
1702325264296875,-9.482346,0.823898,2.35321,0.99307,0.49335,0.52522
1702325264304687,-9.479346,0.809898,2.31521,0.103407,0.33135,0.47822
1702325264312500,-9.492346,0.798898,2.19721,0.98507,0.25335,0.49422
1702325264320312,-9.544346,0.797898,2.19121,0.80707,0.19335,0.57522
1702325264328125,-9.585346,0.794898,2.32221,0.50607,0.15435,0.59022
1702325264335937,-9.571346,0.761898,2.34021,0.42607,0.9035,0.58922
1702325264343750,-9.507346,0.707898,2.22021,0.24707,0.6335,0.65422
1702325264351562,-9.474346,0.645898,2.11621,0.1907,0.635,0.73522
1702325264359375,-9.470346,0.689898,2.11821,0.35293,0.7065,0.76722
1702325264367187,-9.456346,0.790898,2.9621,0.44793,0.18165,0.83122
1702325264375000,-9.470346,0.793898,2.4221,0.23993,0.24165,0.84822
1702325264382812,-9.483346,0.683898,1.99621,0.9893,0.23965,0.68822
1702325264390625,-9.549346,0.560898,1.95321,0.24007,0.25565,0.65622
1702325264398437,-9.579346,0.460898,1.88621,0.53307,0.30965,0.55922
1702325264406250,-9.630346,0.354898,1.89321,0.76607,0.28965,0.49322
1702325264414062,-9.650346,0.314898,1.92921,0.106207,0.39965,0.52722
1702325264421875,-9.711346,0.274898,1.98321,0.156707,0.31265,0.54222
1702325264429687,-9.766346,0.253898,1.92421,0.205207,0.21765,0.63822
1702325264437500,-9.737346,0.248898,1.81121,0.250607,0.6435,0.78322
1702325264445312,-9.733346,0.164898,1.81121,0.323407,0.9235,0.83022
1702325264453125,-9.731346,0.99898,1.58121,0.401307,0.835,0.90922
1702325264460937,-9.683346,0.111898,1.30821,0.446407,0.34235,0.102222
1702325264468750,-9.691346,0.67898,1.35521,0.504607,0.74735,0.97422
1702325264476562,-9.799346,0.64102,1.48921,0.580507,0.66635,0.92522
1702325264484375,-9.957346,0.285102,1.59021,0.662507,0.47935,0.84622
1702325264492187,-10.35346,0.472102,1.67421,0.735607,0.77035,0.87722
1702325264500000,-10.33346,0.604102,1.77621,0.837507,0.122135,0.86022
1702325264507812,-10.53346,0.615102,1.82521,0.937807,0.159335,0.84322
1702325264515625,-9.987346,0.548102,1.65421,1.31907,0.188635,0.95522
1702325264523437,-9.861346,0.423102,1.43021,1.125607,0.207635,0.116322
1702325264531250,-9.726346,0.313102,1.33521,1.210207,0.230835,0.148322
1702325264539062,-9.620346,0.233102,1.39121,1.304707,0.264835,0.178722
1702325264546875,-9.565346,0.192102,1.37121,1.418207,0.281235,0.183422
1702325264554687,-9.636346,0.164102,1.46421,1.511507,0.294535,0.196322
1702325264562500,-9.724346,0.142102,1.50421,1.582607,0.302435,0.209222
1702325264570312,-9.783346,0.104102,1.51621,1.652707,0.307635,0.212222
1702325264578125,-9.853346,0.85102,1.59921,1.714007,0.317335,0.226722
1702325264585937,-9.858346,0.99102,1.67421,1.774507,0.332335,0.249022
1702325264593750,-9.896346,0.47102,1.72321,1.832107,0.333335,0.258822
1702325264601562,-9.910346,0.46898,1.76221,1.880707,0.364835,0.279622
1702325264609375,-9.842346,0.241898,1.77121,1.929607,0.381335,0.279522
1702325264617187,-9.714346,0.360898,1.70121,1.997807,0.379135,0.282622
1702325264625000,-9.590346,0.448898,1.54521,2.57107,0.385935,0.281122
1702325264632812,-9.492346,0.528898,1.67121,2.118207,0.396835,0.265122
1702325264640625,-9.492346,0.585898,1.80921,2.142807,0.392835,0.255322
1702325264648437,-9.471346,0.700898,1.93521,2.187607,0.391535,0.242522
1702325264656250,-9.472346,0.811898,1.97221,2.223007,0.391435,0.236122
1702325264664062,-9.463346,0.943898,1.89521,2.250607,0.398935,0.232822
1702325264671875,-9.484346,0.996898,1.91321,2.271507,0.406635,0.226422
1702325264679687,-9.496346,1.38898,1.93121,2.276607,0.421935,0.224822
1702325264687500,-9.512346,0.953898,1.94021,2.300407,0.430235,0.220022
1702325264695312,-9.578346,0.865898,2.5721,2.342607,0.430035,0.224822
1702325264703125,-9.665346,0.811898,2.19121,2.379907,0.414035,0.226422
1702325264710937,-9.674346,0.847898,2.19521,2.421207,0.402435,0.229722
1702325264718750,-9.762346,0.815898,2.17721,2.452407,0.395435,0.234422
1702325264726562,-9.761346,0.932898,2.4621,2.473507,0.394035,0.250422
1702325264734375,-9.721346,1.64898,2.16621,2.489807,0.394035,0.261722
1702325264742187,-9.759346,1.93898,2.14321,2.486807,0.391135,0.284122
1702325264750000,-9.757346,1.64898,2.13421,2.482207,0.390935,0.288922
1702325264757812,-9.797346,0.977898,2.3321,2.470807,0.393035,0.305022
1702325264765625,-9.694346,1.221898,1.96521,2.482607,0.416235,0.319422
1702325264773437,-9.618346,1.122898,1.94921,2.478007,0.403735,0.335422
1702325264781250,-9.683346,1.142898,1.78221,2.461307,0.393935,0.353222
1702325264789062,-9.601346,1.308898,1.77121,2.452407,0.396135,0.361122
1702325264796875,-9.570346,1.403898,1.78621,2.432607,0.395435,0.370922
1702325264804687,-9.613346,1.483898,1.96021,2.392707,0.398135,0.375622
1702325264812500,-9.608346,1.635898,2.4421,2.325107,0.415435,0.383622
1702325264820312,-9.676346,1.782898,2.11621,2.284907,0.421235,0.369122
1702325264828125,-9.635346,1.735898,2.19521,2.262407,0.438135,0.356222
1702325264835937,-9.546346,1.937898,2.38521,2.234607,0.443335,0.354722
1702325264843750,-9.465346,1.896898,2.26321,2.194007,0.421335,0.335522
1702325264851562,-9.357346,1.760898,2.18821,2.201707,0.427835,0.325922
1702325264859375,-9.347346,1.658898,2.19721,2.195007,0.403935,0.298622
1702325264867187,-9.277346,1.672898,2.26321,2.169007,0.405735,0.292222
1702325264875000,-9.74346,1.781898,2.24721,2.111607,0.408035,0.296922
1702325264882812,-9.73346,1.771898,2.19021,2.79907,0.378235,0.298722
1702325264890625,-9.90346,1.720898,2.21321,2.41107,0.351435,0.293922
1702325264898437,-9.213346,1.864898,2.24521,1.978007,0.357935,0.289122
1702325264906250,-9.280346,1.946898,2.43021,1.947807,0.373035,0.287422
1702325264914062,-9.425346,1.796898,2.52721,1.923007,0.345035,0.266722
1702325264921875,-9.523346,1.607898,2.51621,1.893707,0.335635,0.244222
1702325264929687,-9.538346,1.559898,2.61321,1.851507,0.348235,0.234622
1702325264937500,-9.612346,1.582898,2.62721,1.824007,0.323235,0.228222
1702325264945312,-9.646346,1.576898,2.64921,1.796107,0.326635,0.213822
1702325264953125,-9.601346,1.611898,2.76421,1.784307,0.327135,0.202722
1702325264960937,-9.524346,1.553898,2.65121,1.766407,0.316235,0.191522
1702325264968750,-9.501346,1.350898,2.59321,1.757207,0.330935,0.184922
1702325264976562,-9.584346,1.361898,2.53621,1.721307,0.320535,0.181822
1702325264984375,-9.466346,1.650898,2.50521,1.707207,0.349135,0.157622
1702325264992187,-9.335346,1.765898,2.49621,1.692807,0.384635,0.136722
1702325265000000,-9.398346,1.495898,2.44821,1.666107,0.379235,0.119222
1702325265007812,-9.350346,1.531898,2.55421,1.621007,0.381435,0.82222
1702325265015625,-9.198346,1.578898,2.40721,1.570407,0.356935,0.75822
1702325265023437,-9.19346,1.587898,2.38421,1.578107,0.352335,0.53422
1702325265031250,-8.907346,1.571898,2.35121,1.586407,0.348335,0.32422
1702325265039062,-8.719346,1.627898,2.24421,1.576007,0.344635,0.32622
1702325265046875,-8.759346,1.634898,2.13621,1.559607,0.314735,0.13422
1702325265054687,-8.939346,1.531898,2.18321,1.533507,0.324435,0.7022
1702325265062500,-9.14346,1.595898,2.33321,1.517607,0.318935,0.12378
1702325265070312,-9.112346,1.521898,2.15921,1.491707,0.335735,0.39678
1702325265078125,-9.278346,1.405898,2.10921,1.472207,0.378035,0.49278
1702325265085937,-9.463346,1.516898,2.22421,1.477107,0.416835,0.70178
1702325265093750,-9.621346,1.452898,2.36921,1.446207,0.410535,0.81378
1702325265101562,-9.649346,1.642898,2.41721,1.401307,0.443035,0.87878
1702325265109375,-9.467346,1.918898,2.42821,1.380407,0.488335,0.97478
1702325265117187,-9.236346,2.10898,2.48021,1.403007,0.492435,0.118478
1702325265125000,-8.908346,1.972898,2.54521,1.444507,0.475335,0.137678
1702325265132812,-8.639346,2.17898,2.48821,1.445007,0.430935,0.158278
1702325265140625,-8.513346,2.41898,2.25521,1.448307,0.374235,0.161578
1702325265148437,-8.537346,2.114898,2.18621,1.442107,0.340735,0.164878
1702325265156250,-8.556346,2.164898,2.21721,1.410307,0.349935,0.179078
1702325265164062,-8.727346,2.186898,2.35921,1.418307,0.346335,0.199978
1702325265171875,-8.909346,2.238898,2.38921,1.431007,0.363435,0.222378
1702325265179687,-9.52346,2.587898,2.48221,1.450807,0.398535,0.238578
1702325265187500,-9.256346,2.632898,2.41821,1.445907,0.409635,0.233778
1702325265195312,-9.393346,2.337898,2.43221,1.454107,0.407135,0.267578
1702325265203125,-9.541346,2.829898,2.21521,1.411507,0.407635,0.286778
1702325265210937,-9.507346,3.98898,2.1921,1.373007,0.406535,0.254578
1702325265218750,-9.615346,2.969898,2.18421,1.383607,0.454335,0.233878
1702325265226562,-9.673346,2.970898,2.25221,1.347207,0.543335,0.217978
1702325265234375,-9.598346,3.22898,2.32821,1.313207,0.559135,0.224378
1702325265242187,-9.404346,2.771898,2.26721,1.307907,0.513935,0.235478
1702325265250000,-9.432346,2.881898,2.24221,1.302607,0.501835,0.241878
1702325265257812,-9.434346,2.905898,2.11821,1.268907,0.512835,0.235378
1702325265265625,-9.430346,3.35898,2.5921,1.222207,0.523335,0.249978
1702325265273437,-9.115346,3.364898,2.5921,1.106307,0.545335,0.238678
1702325265281250,-9.207346,3.765898,2.52021,1.50507,0.566835,0.219578
1702325265289062,-9.176346,3.493898,2.66921,1.4907,0.597935,0.258078
1702325265296875,-9.142346,3.97898,2.27421,1.307,0.524735,0.318878
1702325265304687,-9.114346,2.916898,2.11121,0.970707,0.534335,0.346078
1702325265312500,-8.908346,3.421898,2.50221,1.11807,0.585035,0.343078
1702325265320312,-8.909346,3.707898,2.41121,1.5407,0.590535,0.310878
1702325265328125,-8.923346,3.653898,2.45921,0.964207,0.588535,0.282078
1702325265335937,-8.982346,3.747898,2.52921,0.925307,0.564435,0.253078
1702325265343750,-8.748346,3.994898,2.48121,0.889907,0.564835,0.235378
1702325265351562,-8.461346,4.239898,2.52821,0.824107,0.557135,0.209778
1702325265359375,-8.363346,4.277898,2.52821,0.777707,0.524435,0.177678
1702325265367187,-8.419346,4.146898,2.57821,0.748407,0.515835,0.156678
1702325265375000,-8.414346,3.982898,2.47021,0.715007,0.492335,0.126278
1702325265382812,-8.472346,3.927898,2.50421,0.674607,0.463035,0.108578
1702325265390625,-8.523346,4.57898,2.36421,0.587307,0.438535,0.98878
1702325265398437,-8.453346,4.183898,2.32721,0.487807,0.458435,0.86078
1702325265406250,-8.209346,4.173898,2.49221,0.408707,0.444535,0.84478
1702325265414062,-8.74346,4.269898,2.91421,0.345207,0.446435,0.103678
1702325265421875,-8.42346,4.476898,3.38621,0.266007,0.448035,0.116478
1702325265429687,-7.975346,4.621898,3.41821,0.228907,0.422835,0.122878
1702325265437500,-7.904346,4.567898,3.39121,0.245907,0.359035,0.140478
1702325265445312,-7.980346,4.388898,3.10921,0.245507,0.262235,0.141978
1702325265453125,-8.144346,4.442898,2.86921,0.190007,0.217835,0.135378
1702325265460937,-8.253346,4.551898,2.80121,0.104607,0.203035,0.95178
1702325265468750,-8.334346,4.621898,2.91421,0.14407,0.189735,0.51778
1702325265476562,-8.397346,4.653898,3.10421,0.79193,0.171435,0.35678
1702325265484375,-8.450346,4.706898,3.14721,0.141893,0.132035,0.27678
1702325265492187,-8.420346,4.806898,3.8621,0.183093,0.78335,0.30678
1702325265500000,-8.435346,4.925898,3.13621,0.260693,0.26735,0.35478
1702325265507812,-8.544346,5.6898,3.7521,0.346593,0.20065,0.43478
1702325265515625,-8.666346,4.951898,3.7021,0.443893,0.49065,0.48178
1702325265523437,-8.760346,4.937898,3.2721,0.541393,0.103265,0.54478
1702325265531250,-8.809346,4.900898,3.8921,0.646393,0.115765,0.65678
1702325265539062,-8.849346,4.689898,3.38221,0.737893,0.99265,0.72278
1702325265546875,-8.827346,4.420898,3.67421,0.810993,0.106165,0.67278
1702325265554687,-8.717346,4.443898,3.61921,0.846893,0.149465,0.60778
1702325265562500,-8.501346,4.616898,3.39121,0.886693,0.174965,0.47978
1702325265570312,-8.286346,4.672898,3.7921,0.961093,0.199365,0.31878
1702325265578125,-8.145346,4.677898,3.9521,-1.38593,0.214565,0.15778
1702325265585937,-7.995346,4.745898,3.1821,-1.96193,0.252865,0.15878
1702325265593750,-7.981346,4.778898,2.93021,-1.147293,0.312865,0.26878
1702325265601562,-8.101346,4.572898,2.80821,-1.223493,0.354665,0.28478
1702325265609375,-8.187346,4.375898,2.86921,-1.298293,0.398065,0.42778
1702325265617187,-8.258346,4.321898,2.91421,-1.371393,0.438265,0.47478
1702325265625000,-8.363346,4.127898,2.86921,-1.414993,0.461665,0.45878
1702325265632812,-8.559346,3.911898,2.95521,-1.443993,0.461565,0.39478
1702325265640625,-8.756346,3.894898,3.10021,-1.503593,0.461465,0.33078
1702325265648437,-8.803346,3.868898,3.7521,-1.546593,0.447565,0.9078
1702325265656250,-8.806346,3.780898,3.5721,-1.553393,0.448565,0.5778
1702325265664062,-8.768346,3.728898,3.8921,-1.559293,0.452865,0.20378
1702325265671875,-8.641346,3.669898,3.2821,-1.598893,0.473665,0.24978
1702325265679687,-8.477346,3.543898,3.1421,-1.628593,0.496465,0.34478
1702325265687500,-8.256346,3.312898,2.94221,-1.655993,0.530765,0.26478
1702325265695312,-8.199346,3.12898,2.82021,-1.660593,0.579665,0.16878
1702325265703125,-8.311346,2.883898,2.82921,-1.692893,0.626165,0.822
1702325265710937,-8.405346,2.869898,2.85221,-1.765793,0.661765,0.4122
1702325265718750,-8.363346,2.943898,2.94621,-1.854593,0.696065,0.5722
1702325265726562,-8.313346,3.4898,2.81821,-1.920893,0.719265,0.10622
1702325265734375,-8.401346,2.957898,2.72321,-1.950193,0.731465,0.9022
1702325265742187,-8.457346,2.817898,2.70721,-1.979393,0.745165,0.15522
1702325265750000,-8.520346,2.699898,2.46321,-1.987693,0.752565,0.23622
1702325265757812,-8.698346,2.509898,2.22121,-2.5593,0.733465,0.23622
1702325265765625,-8.771346,2.355898,2.31021,-2.33893,0.687765,0.9022
1702325265773437,-8.860346,2.210898,2.60821,-2.85393,0.634365,0.12222
1702325265781250,-8.930346,2.249898,2.92621,-2.126393,0.634165,0.16578
1702325265789062,-8.819346,2.453898,2.97421,-2.141793,0.674965,0.67878
1702325265796875,-8.643346,2.521898,2.96021,-2.171093,0.681765,0.107978
1702325265804687,-8.486346,2.578898,3.5321,-2.206893,0.695065,0.160978
1702325265812500,-8.342346,2.578898,2.97121,-2.265793,0.713765,0.202678
1702325265820312,-8.197346,2.506898,2.77721,-2.336793,0.776765,0.244078
1702325265828125,-8.78346,2.340898,2.58921,-2.397293,0.847165,0.280978
1702325265835937,-8.70346,2.139898,2.36821,-2.460693,0.892265,0.296878
1702325265843750,-8.159346,2.90898,2.25521,-2.488493,0.926465,0.306478
1702325265851562,-8.399346,2.106898,2.17221,-2.507793,0.944265,0.320978
1702325265859375,-8.597346,2.175898,2.13821,-2.505993,0.928965,0.330678
1702325265867187,-8.852346,2.159898,2.12921,-2.506193,0.902465,0.351578
1702325265875000,-9.69346,2.130898,2.22921,-2.495193,0.855565,0.377178
1702325265882812,-9.349346,2.31898,2.63521,-2.489493,0.842365,0.397878
1702325265890625,-9.763346,1.928898,2.87021,-2.464993,0.829365,0.422078
1702325265898437,-10.106346,1.888898,2.87321,-2.430393,0.793065,0.443178
1702325265906250,-10.471346,1.935898,2.71821,-2.386793,0.740465,0.465778
1702325265914062,-10.785346,1.835898,2.41321,-2.371093,0.702765,0.489778
1702325265921875,-10.988346,1.791898,2.421,-2.396593,0.699965,0.491378
1702325265929687,-10.947346,1.658898,1.61521,-2.438793,0.672365,0.471978
1702325265937500,-10.694346,1.459898,1.81421,-2.464893,0.615165,0.427278
1702325265945312,-10.340346,1.308898,2.16621,-2.509493,0.586665,0.380778
1702325265953125,-9.822346,1.398898,2.14321,-2.481693,0.606665,0.347078
1702325265960937,-9.322346,1.368898,2.13621,-2.433093,0.601465,0.306878
1702325265968750,-9.70346,1.309898,1.98221,-2.426193,0.598165,0.276378
1702325265976562,-8.928346,1.446898,1.61921,-2.413093,0.602665,0.252378
1702325265984375,-8.892346,1.417898,1.41521,-2.383793,0.585565,0.247578
1702325265992187,-8.844346,1.500898,1.33621,-2.397793,0.554765,0.242878
1702325266000000,-8.870346,1.627898,1.25921,-2.422493,0.541565,0.244378
1702325266007812,-8.814346,1.781898,1.28221,-2.446793,0.541765,0.265178
1702325266015625,-8.846346,1.878898,1.34021,-2.455793,0.534565,0.274678
1702325266023437,-8.850346,1.912898,1.40921,-2.451593,0.540965,0.294178
1702325266031250,-8.810346,1.922898,1.46121,-2.471293,0.559765,0.308578
1702325266039062,-8.756346,1.944898,1.49221,-2.491193,0.570365,0.324578
1702325266046875,-8.965346,1.929898,1.39721,-2.515893,0.614465,0.363078
1702325266054687,-9.226346,1.878898,1.34121,-2.537893,0.643765,0.401478
1702325266062500,-9.566346,1.894898,1.31221,-2.551193,0.643665,0.422278
1702325266070312,-10.5346,1.701898,1.31021,-2.557293,0.630565,0.440078
1702325266078125,-10.232346,1.549898,1.36021,-2.569393,0.598465,0.460678
1702325266085937,-10.346346,1.474898,1.34621,-2.554393,0.598165,0.489878
1702325266093750,-10.324346,1.380898,1.30621,-2.552193,0.595965,0.518478
1702325266101562,-10.305346,1.391898,1.30421,-2.551593,0.597165,0.534778
1702325266109375,-10.284346,1.529898,1.36421,-2.540693,0.578065,0.545978
1702325266117187,-10.295346,1.514898,1.39621,-2.516493,0.567265,0.557178
1702325266125000,-10.263346,1.642898,1.45221,-2.476393,0.551665,0.573178
1702325266132812,-10.258346,1.633898,1.43621,-2.440993,0.546465,0.557078
1702325266140625,-10.209346,1.565898,1.42821,-2.430493,0.511565,0.557278
1702325266148437,-10.198346,1.735898,1.53621,-2.422393,0.464865,0.570178
1702325266156250,-10.124346,1.878898,1.63521,-2.420593,0.441265,0.562178
1702325266164062,-9.980346,2.9898,1.62821,-2.431793,0.431865,0.557378
1702325266171875,-9.814346,2.13898,1.59221,-2.418893,0.412765,0.544478
1702325266179687,-9.608346,1.930898,1.64021,-2.380893,0.388765,0.538278
1702325266187500,-9.551346,1.918898,1.71621,-2.377593,0.374065,0.514078
1702325266195312,-9.635346,1.966898,1.66221,-2.387093,0.367765,0.496478
1702325266203125,-9.705346,2.26898,1.58121,-2.402793,0.372865,0.490178
1702325266210937,-9.740346,2.140898,1.31221,-2.436993,0.408165,0.477178
1702325266218750,-9.763346,2.283898,1.6121,-2.457493,0.411965,0.475678
1702325266226562,-9.696346,2.283898,1.7321,-2.491493,0.386665,0.477278
1702325266234375,-9.570346,2.153898,1.21921,-2.499493,0.353765,0.477278
1702325266242187,-9.476346,2.4898,1.33021,-2.507793,0.348765,0.478778
1702325266250000,-9.359346,1.937898,1.29121,-2.506093,0.356665,0.478878
1702325266257812,-9.383346,1.887898,1.10621,-2.473693,0.369265,0.467678
1702325266265625,-9.546346,1.795898,0.94821,-2.456393,0.370165,0.464278
1702325266273437,-9.745346,1.724898,0.88521,-2.483593,0.365765,0.467578
1702325266281250,-9.857346,1.560898,0.90121,-2.539493,0.340665,0.467178
1702325266289062,-9.894346,1.529898,1.1421,-2.562293,0.350465,0.462878
1702325266296875,-9.818346,1.573898,1.6821,-2.606393,0.338565,0.462678
1702325266304687,-9.740346,1.507898,1.24221,-2.624993,0.323865,0.459678
1702325266312500,-9.654346,1.490898,1.37521,-2.602393,0.325465,0.454878
1702325266320312,-9.610346,1.487898,1.34821,-2.568493,0.348965,0.456478
1702325266328125,-9.589346,1.468898,1.13821,-2.568793,0.365665,0.448378
1702325266335937,-9.571346,1.643898,0.88321,-2.593293,0.355765,0.448178
1702325266343750,-9.555346,1.636898,0.78121,-2.620993,0.346265,0.457778
1702325266351562,-9.591346,1.651898,0.82021,-2.646293,0.337665,0.462778
1702325266359375,-9.638346,1.645898,0.83821,-2.664093,0.334565,0.470778
1702325266367187,-9.680346,1.622898,0.92121,-2.679393,0.329065,0.481878
1702325266375000,-9.663346,1.634898,0.98221,-2.696493,0.320865,0.496478
1702325266382812,-9.664346,1.591898,1.7721,-2.698393,0.305065,0.512478
1702325266390625,-9.724346,1.543898,1.14921,-2.708493,0.279665,0.525278
1702325266398437,-9.671346,1.596898,1.26721,-2.700393,0.268865,0.528478
1702325266406250,-9.739346,1.555898,1.27621,-2.705493,0.277765,0.528378
1702325266414062,-9.865346,1.548898,1.26221,-2.700493,0.273565,0.539678
1702325266421875,-9.984346,1.598898,1.29421,-2.695893,0.281165,0.541278
1702325266429687,-10.58346,1.665898,1.30821,-2.705393,0.288065,0.558978
1702325266437500,-9.992346,1.795898,1.25821,-2.745693,0.283565,0.563878
1702325266445312,-9.809346,1.799898,1.30721,-2.781193,0.255365,0.565478
1702325266453125,-9.731346,1.817898,1.56321,-2.817693,0.243565,0.562378
1702325266460937,-9.822346,1.884898,1.63321,-2.843293,0.245465,0.564078
1702325266468750,-9.855346,1.849898,1.63721,-2.830593,0.236065,0.581678
1702325266476562,-9.863346,1.810898,1.44121,-2.808693,0.254265,0.591178
1702325266484375,-9.933346,1.722898,1.23321,-2.819793,0.235865,0.600878
1702325266492187,-10.30346,1.924898,1.24921,-2.852593,0.200865,0.613578
1702325266500000,-10.142346,2.35898,1.33521,-2.853393,0.173565,0.608978
1702325266507812,-10.217346,1.824898,1.53621,-2.829193,0.173865,0.618678
1702325266515625,-10.141346,1.807898,1.39621,-2.804993,0.187965,0.618578
1702325266523437,-10.106346,1.727898,1.27221,-2.798793,0.195765,0.631478
1702325266531250,-9.978346,1.699898,1.29921,-2.798693,0.192365,0.613778
1702325266539062,-9.703346,1.438898,1.40921,-2.795493,0.171765,0.602478
1702325266546875,-9.566346,1.306898,1.62121,-2.801793,0.177865,0.591278
1702325266554687,-9.553346,1.99898,1.61521,-2.778993,0.203365,0.592978
1702325266562500,-9.550346,1.385898,1.57821,-2.742393,0.221565,0.591178
1702325266570312,-9.495346,1.302898,1.27821,-2.712993,0.254765,0.580078
1702325266578125,-9.457346,1.313898,1.13621,-2.731293,0.266565,0.583178
1702325266585937,-9.392346,1.500898,1.40721,-2.756993,0.247865,0.581578
1702325266593750,-9.336346,1.639898,1.56921,-2.755493,0.250565,0.573478
1702325266601562,-9.292346,1.229898,1.61021,-2.670193,0.249065,0.584678
1702325266609375,-9.395346,1.523898,1.51921,-2.642793,0.228965,0.597478
1702325266617187,-9.413346,1.560898,1.16321,-2.663393,0.237165,0.591178
1702325266625000,-9.572346,1.676898,1.3221,-2.655393,0.280465,0.567078
1702325266632812,-9.601346,1.754898,1.4721,-2.631293,0.289065,0.534878
1702325266640625,-9.419346,1.474898,1.19721,-2.614093,0.255365,0.510978
1702325266648437,-9.227346,1.188898,1.42921,-2.607293,0.247665,0.491778
1702325266656250,-9.314346,1.757898,1.46121,-2.613593,0.269565,0.483778
1702325266664062,-9.214346,1.533898,1.51921,-2.587693,0.250465,0.462878
1702325266671875,-9.218346,1.515898,1.61421,-2.582893,0.247165,0.456378
1702325266679687,-9.217346,1.493898,1.39321,-2.581493,0.270465,0.461178
1702325266687500,-9.328346,1.361898,1.35321,-2.535793,0.274465,0.462978
1702325266695312,-9.557346,1.533898,1.40921,-2.548693,0.258665,0.461378
1702325266703125,-9.631346,1.248898,1.57021,-2.562593,0.238865,0.453478
1702325266710937,-9.955346,1.223898,1.57921,-2.540193,0.229265,0.453378
1702325266718750,-10.154346,1.516898,1.63521,-2.513093,0.206465,0.435578
1702325266726562,-10.229346,1.267898,1.51121,-2.530093,0.202065,0.406878
1702325266734375,-10.254346,1.6898,1.32221,-2.489393,0.204065,0.397278
1702325266742187,-10.226346,1.236898,1.23621,-2.437893,0.206765,0.389178
1702325266750000,-10.90346,1.4898,1.39121,-2.437793,0.186065,0.373078
1702325266757812,-10.16346,0.954898,1.65821,-2.472593,0.191265,0.352378
1702325266765625,-10.53346,1.192898,1.66921,-2.471293,0.199765,0.328178
1702325266773437,-10.2346,1.100898,1.59521,-2.459493,0.199465,0.284878
1702325266781250,-9.714346,0.589898,1.31721,-2.413693,0.196365,0.252878
1702325266789062,-9.719346,0.587898,1.22921,-2.408693,0.211765,0.227178
1702325266796875,-9.819346,0.726898,1.6421,-2.418193,0.224065,0.203078
1702325266804687,-9.830346,0.637898,1.22921,-2.378593,0.204265,0.179178
1702325266812500,-9.584346,0.435898,1.51321,-2.359893,0.182665,0.166078
1702325266820312,-9.175346,0.466898,1.65321,-2.361393,0.156465,0.180578
1702325266828125,-9.246346,0.564898,1.59021,-2.362593,0.126065,0.198378
1702325266835937,-9.406346,0.487898,1.77921,-2.334993,0.85665,0.204878
1702325266843750,-9.331346,0.512898,1.81621,-2.284393,0.73365,0.177678
1702325266851562,-9.195346,0.26102,1.68921,-2.235993,0.62065,0.166378
1702325266859375,-9.238346,0.284102,1.74321,-2.166193,0.45465,0.168078
1702325266867187,-9.354346,0.314102,1.54321,-2.154293,0.25765,0.155378
1702325266875000,-9.295346,0.195102,1.34821,-2.51193,0.14465,0.152078
1702325266882812,-9.338346,0.346102,1.51521,-1.934293,0.29165,0.126578
1702325266890625,-9.532346,0.368102,1.58121,-1.936293,0.4435,0.123278
1702325266898437,-9.846346,0.104898,1.57021,-1.916493,0.45935,0.139378
1702325266906250,-10.183346,0.598898,1.56521,-1.874893,0.78435,0.173078
1702325266914062,-10.521346,0.709898,1.80721,-1.858693,0.126535,0.194078
1702325266921875,-10.350346,0.981898,1.81621,-1.871393,0.182135,0.222978
1702325266929687,-10.115346,1.131898,1.91321,-1.857593,0.199635,0.256678
1702325266937500,-9.974346,0.940898,1.87021,-1.870193,0.228435,0.284078
1702325266945312,-9.780346,0.727898,1.85721,-1.888093,0.260635,0.322578
1702325266953125,-9.664346,0.655898,1.76421,-1.861493,0.262435,0.359378
1702325266960937,-9.657346,0.475898,1.68521,-1.830893,0.274435,0.389978
1702325266968750,-9.511346,0.137898,1.73721,-1.787693,0.266935,0.393078
1702325266976562,-9.96346,0.117102,1.87921,-1.729093,0.250335,0.398078
1702325266984375,-8.787346,0.649102,1.80621,-1.724793,0.220035,0.383478
1702325266992187,-8.988346,0.662102,2.4621,-1.745593,0.207835,0.359378
1702325267000000,-9.478346,0.168102,2.41421,-1.773893,0.254535,0.332178
1702325267007812,-9.723346,0.299898,2.88421,-1.700893,0.265435,0.309778
1702325267015625,-9.618346,0.200898,2.90221,-1.692593,0.251135,0.301778
1702325267023437,-9.566346,0.16898,2.37821,-1.707093,0.270035,0.298578
1702325267031250,-9.643346,0.33102,2.11621,-1.645793,0.251035,0.303378
1702325267039062,-9.892346,0.191102,1.87321,-1.585793,0.247235,0.309978
1702325267046875,-9.985346,0.360102,1.86821,-1.478193,0.267935,0.324278
1702325267054687,-9.717346,0.559102,2.27221,-1.395293,0.271435,0.332478
1702325267062500,-9.688346,0.387102,2.45121,-1.365193,0.281135,0.359678
1702325267070312,-9.683346,0.281102,2.39921,-1.319993,0.275935,0.375778
1702325267078125,-9.339346,0.326102,2.43921,-1.231493,0.238435,0.377378
1702325267085937,-9.97346,0.506102,2.36221,-1.141093,0.194835,0.358078
1702325267093750,-8.970346,0.963102,2.34821,-1.27193,0.183635,0.330578
1702325267101562,-8.975346,-1.465102,2.43921,0.898893,0.142835,0.277778
1702325267109375,-9.112346,-1.614102,2.42321,0.773493,0.140935,0.218478
1702325267117187,-9.426346,-1.565102,2.47321,0.661693,0.156735,0.178478
1702325267125000,-9.523346,-1.488102,2.49821,0.543593,0.119935,0.120578
1702325267132812,-9.479346,-1.276102,2.64521,0.419093,0.107535,0.93378
1702325267140625,-9.661346,-1.106102,2.69721,0.289693,0.69935,0.59678
1702325267148437,-9.619346,-1.215102,2.69721,0.174893,0.56235,0.24378
1702325267156250,-9.448346,-1.443102,2.80821,0.72393,0.77635,0.6022
1702325267164062,-9.390346,-1.597102,2.92921,0.58807,0.94735,0.36422
1702325267171875,-9.331346,-1.712102,2.97221,0.212007,0.80235,0.86322
1702325267179687,-9.246346,-1.740102,2.96321,0.329107,0.78435,0.132722
1702325267187500,-9.326346,-1.500102,2.63121,0.387707,0.68835,0.158322
1702325267195312,-9.413346,-1.182102,2.17521,0.458707,0.57835,0.161522
1702325267203125,-9.389346,0.842102,1.93321,0.551907,0.69035,0.155222
1702325267210937,-9.208346,0.528102,2.9621,0.634307,0.84435,0.151922
1702325267218750,-9.42346,0.425102,2.66221,0.739507,0.71535,0.156722
1702325267226562,-9.63346,0.356102,3.5121,0.774907,0.48635,0.179222
1702325267234375,-9.333346,0.137102,3.1921,0.773607,0.56335,0.193622
1702325267242187,-9.701346,0.87102,2.74921,0.794507,0.45635,0.208122
1702325267250000,-10.42346,0.231102,2.47821,0.862707,0.40335,0.206422
1702325267257812,-10.113346,0.499102,2.30621,0.901707,0.59035,0.224022
1702325267265625,-9.948346,0.601102,2.27021,0.958307,0.74735,0.227222
1702325267273437,-9.886346,0.410102,2.38821,1.53707,0.85235,0.227122
1702325267281250,-9.784346,0.243102,2.51621,1.152307,0.72735,0.243222
1702325267289062,-9.572346,0.238102,2.64021,1.262507,0.51935,0.263922
1702325267296875,-9.479346,0.167102,2.67621,1.336707,0.31835,0.278422
1702325267304687,-9.419346,0.45102,2.70821,1.400707,0.30935,0.270522
1702325267312500,-9.523346,0.150898,2.67821,1.443707,0.23235,0.246522
1702325267320312,-9.583346,0.299898,2.70821,1.469507,0.32235,0.230422
1702325267328125,-9.559346,0.456898,2.79421,1.484107,0.39435,0.209522
1702325267335937,-9.518346,0.714898,2.92721,1.501607,0.26935,0.195022
1702325267343750,-9.343346,0.894898,2.92921,1.526107,0.11165,0.201422
1702325267351562,-9.156346,0.888898,2.61721,1.499607,0.47765,0.200022
1702325267359375,-9.6346,0.797898,2.16821,1.467407,0.44765,0.199922
1702325267367187,-8.965346,0.756898,1.95121,1.478707,0.32365,0.191922
1702325267375000,-9.40346,0.833898,1.90821,1.518907,0.29165,0.188722
1702325267382812,-9.192346,0.901898,1.98721,1.578907,0.20365,0.187022
1702325267390625,-9.300346,0.941898,1.94421,1.604607,0.26465,0.185422
1702325267398437,-9.236346,1.37898,1.84521,1.604707,0.4865,0.175822
1702325267406250,-9.173346,1.142898,1.98521,1.652907,0.17765,0.153322
1702325267414062,-9.170346,1.118898,2.23821,1.681307,0.32965,0.137322
1702325267421875,-9.224346,1.22898,2.39621,1.691807,0.39865,0.124622
1702325267429687,-9.208346,0.988898,2.42121,1.685807,0.38865,0.131022
1702325267437500,-9.93346,1.48898,2.34621,1.682707,0.52965,0.139022
1702325267445312,-9.17346,1.195898,2.21321,1.671707,0.53265,0.142122
1702325267453125,-9.24346,1.337898,2.19921,1.678207,0.67265,0.150222
1702325267460937,-9.188346,1.357898,2.26921,1.700807,0.81465,0.151822
1702325267468750,-9.296346,1.286898,2.33521,1.687407,0.71465,0.145522
1702325267476562,-9.426346,1.277898,2.35121,1.664907,0.66865,0.145422
1702325267484375,-9.563346,1.237898,2.16621,1.646707,0.83665,0.135922
1702325267492187,-9.712346,1.275898,1.78921,1.654607,0.88465,0.123122
1702325267500000,-9.789346,1.346898,1.46421,1.652007,0.51665,0.124522
1702325267507812,-9.772346,1.275898,1.37321,1.705107,0.62665,0.119722
1702325267515625,-9.740346,1.235898,1.72521,1.735707,0.76765,0.116522
1702325267523437,-9.674346,1.478898,2.8421,1.701507,0.64965,0.131122
1702325267531250,-9.575346,1.830898,2.39621,1.671607,0.32965,0.132522
1702325267539062,-9.464346,2.41898,2.57221,1.652107,0.10565,0.142222
1702325267546875,-9.345346,1.984898,2.51621,1.629907,0.7665,0.153422
1702325267554687,-9.273346,1.886898,2.23521,1.571607,0.16335,0.151822
1702325267562500,-9.177346,1.890898,1.84021,1.556107,0.42035,0.153322
1702325267570312,-8.963346,1.688898,1.52621,1.596407,0.54635,0.151722
1702325267578125,-8.723346,1.373898,1.50321,1.637907,0.23835,0.153422
1702325267585937,-8.636346,1.53898,1.60021,1.666907,0.1435,0.134122
1702325267593750,-8.707346,0.713898,1.63221,1.687907,0.365,0.124422
1702325267601562,-8.933346,0.546898,1.49921,1.696107,0.13635,0.130822
1702325267609375,-9.197346,0.544898,1.48621,1.760807,0.48035,0.137222
1702325267617187,-9.448346,0.738898,1.86521,1.870907,0.82335,0.150022
1702325267625000,-9.652346,0.854898,2.33721,1.916507,0.110635,0.178922
1702325267632812,-9.820346,0.982898,2.41721,1.868707,0.135635,0.206122
1702325267640625,-9.928346,1.156898,2.18621,1.801807,0.164735,0.228422
1702325267648437,-9.914346,1.452898,2.8021,1.769807,0.191835,0.260622
1702325267656250,-10.7346,1.684898,2.5521,1.794207,0.209235,0.278222
1702325267664062,-10.6346,1.734898,1.97021,1.820807,0.197635,0.300622
1702325267671875,-9.815346,1.544898,1.76221,1.870507,0.201335,0.305422
1702325267679687,-9.635346,1.353898,1.39621,1.922207,0.202735,0.305422
1702325267687500,-9.615346,1.280898,1.31021,1.983507,0.227935,0.313422
1702325267695312,-9.621346,1.174898,1.49121,1.992007,0.229235,0.327822
1702325267703125,-9.811346,1.301898,1.74821,1.968007,0.250035,0.353522
1702325267710937,-9.890346,1.516898,2.11221,1.970007,0.254935,0.379222
1702325267718750,-9.793346,1.622898,2.25121,1.934107,0.227935,0.408222
1702325267726562,-9.799346,1.822898,2.33721,1.923407,0.200935,0.430622
1702325267734375,-9.923346,1.928898,2.44821,1.905607,0.182535,0.446722
1702325267742187,-10.346,1.990898,2.48421,1.866507,0.176735,0.443622
1702325267750000,-10.79346,2.24898,2.45021,1.837707,0.171735,0.445122
1702325267757812,-10.209346,2.46898,2.34221,1.801807,0.155035,0.442022
1702325267765625,-10.75346,1.938898,2.18821,1.785407,0.148735,0.424422
1702325267773437,-9.709346,1.706898,1.90121,1.807807,0.129435,0.395522
1702325267781250,-9.373346,1.571898,1.67521,1.850807,0.123135,0.361822
1702325267789062,-9.248346,1.449898,1.65521,1.892507,0.124135,0.328122
1702325267796875,-9.337346,1.355898,1.58121,1.924907,0.121835,0.305522
1702325267804687,-9.372346,1.154898,1.47721,1.924907,0.128035,0.303922
1702325267812500,-9.461346,1.183898,1.41821,1.908407,0.161435,0.299222
1702325267820312,-9.529346,1.401898,1.59921,1.908507,0.174135,0.308822
1702325267828125,-9.394346,1.513898,2.1721,1.917607,0.171435,0.323122
1702325267835937,-9.336346,1.568898,2.30821,1.941607,0.149035,0.356922
1702325267843750,-9.320346,1.451898,2.30521,1.928607,0.120035,0.387422
1702325267851562,-9.381346,1.406898,2.17521,1.903807,0.123835,0.408122
1702325267859375,-9.477346,1.457898,2.4421,1.877607,0.123135,0.424322
1702325267867187,-9.491346,1.481898,1.98921,1.856707,0.141535,0.413022
1702325267875000,-9.436346,1.420898,1.84921,1.852607,0.136135,0.395522
1702325267882812,-9.408346,1.373898,1.67821,1.839807,0.128235,0.393922
1702325267890625,-9.399346,1.314898,1.52421,1.838607,0.125835,0.389022
1702325267898437,-9.481346,1.172898,1.54221,1.862107,0.135735,0.366622
1702325267906250,-9.706346,1.78898,1.70321,1.881507,0.149235,0.342522
1702325267914062,-9.742346,0.854898,1.89521,1.889807,0.146735,0.316722
1702325267921875,-9.815346,0.710898,2.1221,1.886107,0.152135,0.315222
1702325267929687,-9.854346,0.601898,2.1521,1.867907,0.118335,0.318522
1702325267937500,-9.852346,0.604898,1.82321,1.836107,0.108535,0.334522
1702325267945312,-9.904346,0.705898,1.72621,1.815307,0.121435,0.357022
1702325267953125,-10.68346,0.872898,1.70121,1.802107,0.116035,0.374722
1702325267960937,-10.117346,0.996898,1.74121,1.773707,0.135935,0.389122
1702325267968750,-10.83346,1.117898,1.92021,1.746207,0.164335,0.392322
1702325267976562,-9.921346,1.210898,2.11421,1.722507,0.170035,0.395422
1702325267984375,-9.703346,1.313898,2.14321,1.694807,0.159435,0.393922
1702325267992187,-9.467346,1.411898,2.1421,1.676807,0.155135,0.392322
1702325268000000,-9.250346,1.308898,1.81521,1.681507,0.147335,0.390722
1702325268007812,-9.20346,1.327898,1.63221,1.663707,0.118935,0.381122
1702325268015625,-8.993346,1.392898,1.57121,1.644607,0.100435,0.347322
1702325268023437,-9.52346,1.334898,1.75021,1.653507,0.99735,0.334622
1702325268031250,-9.55346,1.227898,1.88821,1.632107,0.63635,0.307322
1702325268039062,-9.29346,1.138898,1.76621,1.607507,0.23135,0.297822
1702325268046875,-9.74346,1.30898,1.63221,1.602507,0.6865,0.286522
1702325268054687,-9.308346,1.105898,1.52021,1.582707,0.26765,0.275422
1702325268062500,-9.549346,1.201898,1.50221,1.558507,0.36265,0.272122
1702325268070312,-9.743346,1.291898,1.62121,1.535507,0.16865,0.269022
1702325268078125,-9.919346,1.355898,1.77321,1.506707,0.25165,0.269022
1702325268085937,-9.969346,1.432898,1.92021,1.479107,0.4265,0.270622
1702325268093750,-9.946346,1.401898,1.90821,1.453107,0.2135,0.265822
1702325268101562,-9.904346,1.418898,1.91121,1.429007,0.39435,0.257822
1702325268109375,-9.811346,1.454898,1.91721,1.401807,0.43835,0.256122
1702325268117187,-9.733346,1.418898,1.86121,1.380307,0.45835,0.237022
1702325268125000,-9.668346,1.361898,1.78221,1.343407,0.43735,0.227322
1702325268132812,-9.663346,1.370898,1.72721,1.320407,0.49135,0.230622
1702325268140625,-9.643346,1.336898,1.76421,1.285007,0.64335,0.214522
1702325268148437,-9.633346,1.316898,1.74321,1.243007,0.64335,0.212922
1702325268156250,-9.586346,1.298898,1.55621,1.199407,0.47035,0.206522
1702325268164062,-9.518346,1.385898,1.34121,1.165407,0.26735,0.203322
1702325268171875,-9.506346,1.460898,1.52021,1.138107,0.45135,0.195222
1702325268179687,-9.577346,1.455898,1.63021,1.102207,0.30035,0.187322
1702325268187500,-9.535346,1.464898,1.50421,1.72007,0.23135,0.188822
1702325268195312,-9.447346,1.370898,1.44521,1.49307,0.21535,0.185622
1702325268203125,-9.439346,1.313898,1.37121,1.26207,0.3235,0.169622
1702325268210937,-9.530346,1.317898,1.23721,1.35307,0.29365,0.156822
1702325268218750,-9.616346,1.320898,1.16521,1.14207,0.65365,0.152122
1702325268226562,-9.694346,1.312898,1.13821,0.964207,0.63765,0.152122
1702325268234375,-9.738346,1.287898,1.27421,0.938407,0.51265,0.147222
1702325268242187,-9.822346,1.217898,1.56321,0.889507,0.30465,0.134522
1702325268250000,-9.938346,1.222898,1.82921,0.829307,0.15465,0.133122
1702325268257812,-10.40346,1.251898,1.89521,0.770707,0.16035,0.142422
1702325268265625,-10.102346,1.334898,1.79321,0.740207,0.30135,0.150422
1702325268273437,-10.201346,1.402898,1.48821,0.701207,0.32135,0.147322
1702325268281250,-10.285346,1.477898,1.19721,0.659407,0.54035,0.152122
1702325268289062,-10.278346,1.504898,1.3221,0.615407,0.83135,0.150722
1702325268296875,-10.186346,1.486898,1.2521,0.574207,0.103635,0.137622
1702325268304687,-10.98346,1.419898,1.9321,0.538507,0.121235,0.134422
1702325268312500,-10.12346,1.373898,1.19721,0.488307,0.142935,0.115122
1702325268320312,-9.925346,1.376898,1.28921,0.453107,0.151935,0.108722
1702325268328125,-9.804346,1.325898,1.34121,0.423907,0.145435,0.92622
1702325268335937,-9.684346,1.235898,1.41121,0.414107,0.143835,0.79822
1702325268343750,-9.595346,1.125898,1.42021,0.396107,0.128235,0.73422
1702325268351562,-9.652346,1.46898,1.34821,0.370307,0.137335,0.57322
1702325268359375,-9.791346,1.111898,1.17421,0.352107,0.167335,0.33322
1702325268367187,-9.890346,1.139898,0.98421,0.298907,0.204935,0.34922
1702325268375000,-9.839346,1.106898,0.85121,0.257807,0.238035,0.26722
1702325268382812,-9.755346,1.50898,0.81321,0.233207,0.230635,0.20322
1702325268390625,-9.658346,1.67898,0.86721,0.198707,0.226735,0.9222
1702325268398437,-9.555346,1.25898,0.97321,0.174907,0.219735,0.7522
1702325268406250,-9.447346,1.21898,1.8821,0.158507,0.194835,0.3678
1702325268414062,-9.385346,1.60898,1.19721,0.149907,0.171535,0.17978
1702325268421875,-9.366346,1.101898,1.32821,0.138707,0.141435,0.30878
1702325268429687,-9.343346,1.69898,1.34121,0.131407,0.111235,0.32278
1702325268437500,-9.379346,1.42898,1.29621,0.118907,0.86735,0.43678
1702325268445312,-9.441346,1.21898,1.34621,0.99107,0.88535,0.58078
1702325268453125,-9.565346,0.988898,1.40021,0.111407,0.87935,0.61078
1702325268460937,-9.647346,0.993898,1.31721,0.108707,0.75735,0.75778
1702325268468750,-9.629346,1.31898,1.24621,0.92007,0.84335,0.77178
1702325268476562,-9.570346,1.132898,1.32121,0.58107,0.98535,0.78778
1702325268484375,-9.506346,1.218898,1.42021,0.48007,0.102335,0.77078
1702325268492187,-9.486346,1.363898,1.46721,0.15807,0.100535,0.83578
1702325268500000,-9.473346,1.506898,1.44521,0.24293,0.98735,0.80378
1702325268507812,-9.460346,1.577898,1.39821,0.51493,0.93635,0.83678
1702325268515625,-9.510346,1.593898,1.36821,0.78993,0.81035,0.93278
1702325268523437,-9.570346,1.540898,1.35921,0.109493,0.71335,0.93378
1702325268531250,-9.607346,1.495898,1.36221,0.138793,0.78035,0.94878
1702325268539062,-9.639346,1.452898,1.41321,0.160393,0.75635,0.99578
1702325268546875,-9.706346,1.395898,1.42021,0.181293,0.72135,0.112478
1702325268554687,-9.737346,1.382898,1.43221,0.181393,0.70535,0.118878
1702325268562500,-9.754346,1.408898,1.43021,0.191993,0.69335,0.127078
1702325268570312,-9.756346,1.422898,1.45221,0.200693,0.68435,0.138178
1702325268578125,-9.703346,1.448898,1.45621,0.221993,0.70135,0.152578
1702325268585937,-9.625346,1.484898,1.49721,0.241593,0.62335,0.163778
1702325268593750,-9.565346,1.505898,1.52221,0.252593,0.55535,0.168678
1702325268601562,-9.541346,1.522898,1.45921,0.278693,0.52535,0.178278
1702325268609375,-9.572346,1.512898,1.36621,0.295093,0.54235,0.192678
1702325268617187,-9.601346,1.497898,1.36421,0.322493,0.55635,0.197478
1702325268625000,-9.603346,1.499898,1.38621,0.356493,0.57135,0.210278
1702325268632812,-9.604346,1.459898,1.42321,0.366293,0.54035,0.215178
1702325268640625,-9.570346,1.442898,1.45221,0.389493,0.53235,0.222978
1702325268648437,-9.539346,1.436898,1.50421,0.420093,0.41935,0.231078
1702325268656250,-9.536346,1.395898,1.49921,0.447793,0.28335,0.229378
1702325268664062,-9.546346,1.332898,1.48621,0.466793,0.23135,0.227878
1702325268671875,-9.562346,1.333898,1.48121,0.497893,0.28435,0.230978
1702325268679687,-9.573346,1.337898,1.44121,0.529793,0.24835,0.232678
1702325268687500,-9.576346,1.342898,1.44121,0.558993,0.10835,0.229478
1702325268695312,-9.571346,1.351898,1.45421,0.590093,0.2565,0.227678
1702325268703125,-9.563346,1.370898,1.47921,0.623493,0.14065,0.224578
1702325268710937,-9.572346,1.397898,1.48621,0.659493,0.10165,0.222878
1702325268718750,-9.596346,1.365898,1.51721,0.690193,0.11465,0.216378
1702325268726562,-9.623346,1.405898,1.49721,0.712793,0.17565,0.206778
1702325268734375,-9.668346,1.405898,1.43621,0.742993,0.24265,0.203678
1702325268742187,-9.677346,1.378898,1.41621,0.762093,0.24565,0.198878
1702325268750000,-9.706346,1.334898,1.43021,0.771693,0.26265,0.198978
1702325268757812,-9.711346,1.268898,1.46321,0.773393,0.24565,0.198878
1702325268765625,-9.702346,1.205898,1.50421,0.779193,0.33465,0.203878
1702325268773437,-9.705346,1.175898,1.53821,0.792993,0.30565,0.206878
1702325268781250,-9.655346,1.139898,1.58121,0.805993,0.25665,0.203678
1702325268789062,-9.588346,1.131898,1.47221,0.810693,0.47765,0.198878
1702325268796875,-9.513346,1.206898,1.29821,0.831793,0.67965,0.197178
1702325268804687,-9.537346,1.315898,1.54921,0.833693,0.48765,0.200378
1702325268812500,-9.570346,1.395898,1.82921,0.859493,0.45665,0.201978
1702325268820312,-9.568346,1.431898,1.65521,0.868093,0.65265,0.203378
1702325268828125,-9.496346,1.443898,1.59221,0.880793,0.56065,0.201878
1702325268835937,-9.435346,1.465898,1.76621,0.881593,0.43265,0.205278
1702325268843750,-9.396346,1.461898,1.80021,0.883893,0.65865,0.203478
1702325268851562,-9.350346,1.407898,1.58921,0.882793,0.121665,0.206678
1702325268859375,-9.346346,1.373898,1.45621,0.903293,0.144265,0.201978
1702325268867187,-9.346346,1.351898,1.56921,0.907893,0.133365,0.195578
1702325268875000,-9.422346,1.343898,1.72521,0.920993,0.144065,0.193878
1702325268882812,-9.500346,1.318898,1.80221,0.939793,0.141365,0.179578
1702325268890625,-9.523346,1.286898,1.84021,0.943993,0.146065,0.171278
1702325268898437,-9.567346,1.253898,1.84321,0.945393,0.149265,0.163278
1702325268906250,-9.597346,1.222898,1.78421,0.934993,0.159165,0.139378
1702325268914062,-9.628346,1.187898,1.75021,0.942793,0.149965,0.128178
1702325268921875,-9.643346,1.169898,1.75521,0.958593,0.151565,0.112178
1702325268929687,-9.637346,1.189898,1.84321,0.958593,0.148165,0.99278
1702325268937500,-9.618346,1.251898,1.84721,0.958293,0.152865,0.81678
1702325268945312,-9.594346,1.284898,1.84521,0.953193,0.149965,0.73678
1702325268953125,-9.623346,1.297898,1.83221,0.943293,0.149865,0.60878
1702325268960937,-9.627346,1.295898,1.79521,0.928993,0.146365,0.52778
1702325268968750,-9.632346,1.275898,1.75921,0.910793,0.134265,0.51278
1702325268976562,-9.661346,1.267898,1.72321,0.902593,0.132965,0.52878
1702325268984375,-9.684346,1.243898,1.67621,0.883693,0.120065,0.60778
1702325268992187,-9.729346,1.211898,1.61021,0.880293,0.117165,0.65678
1702325269000000,-9.743346,1.140898,1.56121,0.856193,0.98365,0.70478
1702325269007812,-9.764346,1.50898,1.53821,0.825693,0.88965,0.81678
1702325269015625,-9.750346,1.15898,1.52721,0.809793,0.90365,0.86478
1702325269023437,-9.693346,0.932898,1.53321,0.793693,0.93565,0.91278
1702325269031250,-9.631346,0.898898,1.56521,0.772993,0.83665,0.87978
1702325269039062,-9.626346,0.836898,1.58321,0.750493,0.85065,0.84778
1702325269046875,-9.652346,0.774898,1.60821,0.722393,0.73365,0.76878
1702325269054687,-9.681346,0.739898,1.60821,0.701393,0.70265,0.78478
1702325269062500,-9.712346,0.733898,1.60821,0.683693,0.57465,0.73678
1702325269070312,-9.712346,0.737898,1.57421,0.655593,0.48565,0.52878
1702325269078125,-9.694346,0.737898,1.60321,0.631593,0.46665,0.52878
1702325269085937,-9.672346,0.748898,1.69821,0.606993,0.28365,0.44878
1702325269093750,-9.674346,0.771898,1.69621,0.568693,0.29265,0.43178
1702325269101562,-9.688346,0.779898,1.53821,0.534193,0.25365,0.41778
1702325269109375,-9.698346,0.817898,1.43021,0.501893,0.19165,0.38578
1702325269117187,-9.658346,0.838898,1.46821,0.467893,0.8365,0.33778
1702325269125000,-9.634346,0.835898,1.56521,0.464093,0.4165,0.27478
1702325269132812,-9.609346,0.837898,1.65121,0.451393,0.4065,0.32178
1702325269140625,-9.638346,0.853898,1.63121,0.430493,0.2365,0.30578
1702325269148437,-9.658346,0.849898,1.60621,0.396493,0.3935,0.22578
1702325269156250,-9.658346,0.836898,1.60821,0.377193,0.2235,0.30578
1702325269164062,-9.661346,0.813898,1.59921,0.352393,0.0,0.17878
1702325269171875,-9.687346,0.803898,1.56121,0.320493,0.2235,0.11378
1702325269179687,-9.722346,0.773898,1.54321,0.289693,0.20935,0.9778
1702325269187500,-9.748346,0.718898,1.51821,0.268793,0.30635,0.178
1702325269195312,-9.729346,0.691898,1.53821,0.257593,0.29235,0.1522
1702325269203125,-9.745346,0.694898,1.56521,0.233193,0.40135,0.9522
1702325269210937,-9.831346,0.753898,1.54921,0.207493,0.44935,0.7922
1702325269218750,-9.775346,0.772898,1.57421,0.181293,0.50835,0.14222
1702325269226562,-9.672346,0.773898,1.55121,0.158893,0.49635,0.19122
1702325269234375,-9.657346,0.776898,1.47021,0.145593,0.55535,0.22222
1702325269242187,-9.650346,0.772898,1.44821,0.114793,0.50435,0.20622
1702325269250000,-9.632346,0.757898,1.42521,0.100793,0.49535,0.20722
1702325269257812,-9.640346,0.714898,1.39621,0.85893,0.50435,0.12622
1702325269265625,-9.663346,0.703898,1.42521,0.64693,0.59335,0.9322
1702325269273437,-9.676346,0.706898,1.45921,0.50293,0.61035,0.6122
1702325269281250,-9.683346,0.711898,1.51121,0.28093,0.66235,0.178
1702325269289062,-9.713346,0.739898,1.49521,0.9993,0.68735,0.278
1702325269296875,-9.735346,0.758898,1.49521,0.793,0.75635,0.6578
1702325269304687,-9.759346,0.781898,1.47521,0.25907,0.72435,0.18078
1702325269312500,-9.760346,0.786898,1.46621,0.48107,0.76135,0.19578
1702325269320312,-9.749346,0.773898,1.44521,0.54407,0.84235,0.17978
1702325269328125,-9.715346,0.757898,1.42321,0.63907,0.92135,0.24378
1702325269335937,-9.687346,0.758898,1.42321,0.73407,0.89735,0.4978
1702325269343750,-9.713346,0.815898,1.43621,0.80407,0.90535,0.3578
1702325269351562,-9.723346,0.883898,1.46821,0.95007,0.95235,0.378
1702325269359375,-9.713346,0.914898,1.50621,0.101707,0.99735,0.4422
1702325269367187,-9.687346,0.971898,1.54921,0.109707,0.103035,0.10922
1702325269375000,-9.652346,1.20898,1.56921,0.127507,0.110935,0.14122
1702325269382812,-9.626346,1.68898,1.56021,0.124507,0.126435,0.22122
1702325269390625,-9.646346,1.113898,1.57621,0.132407,0.127035,0.31822
1702325269398437,-9.648346,1.129898,1.54021,0.129107,0.124135,0.38222
1702325269406250,-9.664346,1.142898,1.51321,0.129207,0.124035,0.43022
1702325269414062,-9.692346,1.124898,1.54921,0.128307,0.132435,0.44422
1702325269421875,-9.720346,1.92898,1.59921,0.134407,0.131435,0.46122
1702325269429687,-9.686346,1.53898,1.60621,0.133107,0.139035,0.52522
1702325269437500,-9.638346,1.57898,1.42721,0.111607,0.114535,0.51022
1702325269445312,-9.604346,1.154898,1.39321,0.115007,0.119235,0.55822
1702325269453125,-9.638346,1.161898,1.69621,0.123507,0.137335,0.50922
1702325269460937,-9.651346,1.106898,1.78821,0.126407,0.148735,0.49422
1702325269468750,-9.610346,1.74898,1.60121,0.129707,0.146735,0.38122
1702325269476562,-9.547346,1.51898,1.52021,0.131207,0.150035,0.34922
1702325269484375,-9.513346,1.33898,1.63921,0.144107,0.163935,0.30122
1702325269492187,-9.515346,1.5898,1.68021,0.161407,0.137835,0.22122
1702325269500000,-9.515346,1.9898,1.55421,0.174207,0.107735,0.12522
1702325269507812,-9.497346,1.898,1.44321,0.180507,0.95335,0.7722
1702325269515625,-9.516346,0.956898,1.56021,0.167307,0.99035,0.9422
1702325269523437,-9.558346,0.914898,1.72721,0.153007,0.100235,0.7722
1702325269531250,-9.589346,0.920898,1.84521,0.143207,0.97335,0.9422
1702325269539062,-9.608346,0.964898,1.81321,0.133807,0.85835,0.7722
1702325269546875,-9.629346,0.993898,1.72821,0.152907,0.76835,0.9322
1702325269554687,-9.663346,1.13898,1.68221,0.153007,0.76635,0.9322
1702325269562500,-9.669346,1.16898,1.67321,0.144707,0.84835,0.9422
1702325269570312,-9.649346,1.27898,1.68021,0.141407,0.83435,0.9422
1702325269578125,-9.631346,1.49898,1.67521,0.133207,0.77235,0.7822
1702325269585937,-9.621346,1.55898,1.64421,0.126907,0.80235,0.9422
1702325269593750,-9.571346,1.38898,1.64221,0.128907,0.74935,0.7722
1702325269601562,-9.533346,1.40898,1.65321,0.128607,0.73835,0.9422
1702325269609375,-9.515346,1.38898,1.65121,0.125507,0.64235,0.7722
1702325269617187,-9.500346,1.55898,1.66721,0.112707,0.65635,0.7722
1702325269625000,-9.522346,1.55898,1.71621,0.118907,0.59535,0.1322
1702325269632812,-9.539346,1.37898,1.75721,0.108507,0.49635,0.4722
1702325269640625,-9.571346,1.30898,1.75721,0.117107,0.50435,0.178
1702325269648437,-9.593346,1.23898,1.75521,0.109107,0.62935,0.4622
1702325269656250,-9.623346,1.28898,1.70021,0.104207,0.59735,0.178
1702325269664062,-9.636346,1.53898,1.68221,0.105507,0.57035,0.1778
1702325269671875,-9.636346,1.44898,1.67821,0.104107,0.59735,0.8278
1702325269679687,-9.659346,1.20898,1.68521,0.101007,0.57735,0.19578
1702325269687500,-9.672346,0.995898,1.68221,0.101007,0.59235,0.21178
1702325269695312,-9.673346,0.989898,1.69421,0.102407,0.62735,0.16278
1702325269703125,-9.667346,0.985898,1.72121,0.100807,0.65835,0.22678
1702325269710937,-9.645346,0.993898,1.70021,0.102507,0.74935,0.25978
1702325269718750,-9.613346,1.22898,1.62821,0.89407,0.70435,0.30678
1702325269726562,-9.549346,1.49898,1.68021,0.99507,0.63735,0.27578
1702325269734375,-9.520346,1.53898,1.81621,0.105307,0.65635,0.45178
1702325269742187,-9.529346,1.40898,1.79321,0.111907,0.60535,0.51678
1702325269750000,-9.545346,1.20898,1.74121,0.107407,0.56835,0.56578
1702325269757812,-9.555346,1.20898,1.76421,0.103607,0.54535,0.59578
1702325269765625,-9.564346,1.17898,1.78221,0.101807,0.54935,0.56378
1702325269773437,-9.564346,1.18898,1.77921,0.98807,0.49835,0.54778
1702325269781250,-9.556346,1.31898,1.76821,0.100707,0.46435,0.51678
1702325269789062,-9.567346,1.45898,1.73021,0.102007,0.49835,0.53178
1702325269796875,-9.585346,1.43898,1.74321,0.100407,0.48335,0.53178
1702325269804687,-9.609346,1.49898,1.77521,0.101507,0.50535,0.57878
1702325269812500,-9.603346,1.57898,1.78421,0.105307,0.48335,0.51578
1702325269820312,-9.612346,1.63898,1.76821,0.107107,0.49535,0.53278
1702325269828125,-9.604346,1.85898,1.74321,0.115307,0.53935,0.54878
1702325269835937,-9.619346,1.95898,1.70321,0.113207,0.62635,0.53178
1702325269843750,-9.610346,1.101898,1.72521,0.122807,0.69035,0.54678
1702325269851562,-9.582346,1.127898,1.74321,0.128107,0.66735,0.53278
1702325269859375,-9.557346,1.149898,1.75521,0.126407,0.71635,0.56378
1702325269867187,-9.535346,1.153898,1.75521,0.128307,0.69735,0.51678
1702325269875000,-9.558346,1.130898,1.73221,0.124007,0.76035,0.49778
1702325269882812,-9.570346,1.98898,1.73421,0.120307,0.66435,0.48478
1702325269890625,-9.588346,1.96898,1.75021,0.124907,0.69835,0.53278
1702325269898437,-9.601346,1.112898,1.75721,0.123107,0.71835,0.48378
1702325269906250,-9.600346,1.102898,1.73721,0.130207,0.72435,0.51778
1702325269914062,-9.597346,1.78898,1.74121,0.133407,0.70835,0.50178
1702325269921875,-9.619346,1.52898,1.76421,0.152807,0.73935,0.53378
1702325269929687,-9.665346,1.34898,1.78221,0.153607,0.68835,0.53178
1702325269937500,-9.683346,1.9898,1.77521,0.162007,0.79635,0.43578
1702325269945312,-9.687346,1.19898,1.76421,0.173007,0.78435,0.38678
1702325269953125,-9.679346,1.20898,1.74621,0.176707,0.76335,0.35578
1702325269960937,-9.656346,1.16898,1.71821,0.181407,0.79835,0.29078
1702325269968750,-9.642346,1.2898,1.70021,0.184507,0.81635,0.25878
1702325269976562,-9.615346,0.984898,1.69421,0.202407,0.79835,0.24278
1702325269984375,-9.586346,0.983898,1.73721,0.197907,0.74835,0.14778
1702325269992187,-9.564346,0.985898,1.77021,0.206207,0.74735,0.3578
1702325270000000,-9.557346,0.988898,1.81121,0.194407,0.72435,0.3378
1702325270007812,-9.526346,0.996898,1.80921,0.201207,0.65835,0.2922
1702325270015625,-9.499346,1.11898,1.79821,0.206307,0.65535,0.9322
1702325270023437,-9.495346,1.37898,1.78621,0.204807,0.57535,0.7722
1702325270031250,-9.496346,1.64898,1.80421,0.206207,0.53035,0.9322
1702325270039062,-9.505346,1.88898,1.84021,0.204607,0.56135,0.7722
1702325270046875,-9.512346,1.97898,1.84121,0.203207,0.48035,0.9222
1702325270054687,-9.523346,1.115898,1.80921,0.198007,0.54835,0.7722
1702325270062500,-9.537346,1.127898,1.82721,0.201107,0.50335,0.9422
1702325270070312,-9.553346,1.122898,1.73021,0.191807,0.43535,0.10922
1702325270078125,-9.540346,1.197898,1.52421,0.178607,0.23835,0.20622
1702325270085937,-9.572346,1.258898,1.70921,0.191107,0.36735,0.11122
1702325270093750,-9.646346,1.183898,2.7521,0.180407,0.51535,0.7722
1702325270101562,-9.602346,1.145898,1.84721,0.172107,0.43935,0.7722
1702325270109375,-9.519346,1.182898,1.54721,0.179907,0.58535,0.9422
1702325270117187,-9.502346,1.219898,1.79521,0.173707,0.83235,0.4522
1702325270125000,-9.507346,1.230898,1.96221,0.191607,0.68535,0.5178
1702325270132812,-9.473346,1.250898,1.77721,0.203907,0.25535,0.8178
1702325270140625,-9.427346,1.260898,1.59021,0.184707,0.18935,0.5078
1702325270148437,-9.411346,1.235898,1.64421,0.163907,0.28135,0.5078
1702325270156250,-9.461346,1.188898,1.74521,0.134507,0.27235,0.178
1702325270164062,-9.506346,1.173898,1.80921,0.120007,0.6835,0.178
1702325270171875,-9.560346,1.193898,1.83421,0.111807,0.665,0.4722
1702325270179687,-9.600346,1.176898,1.79721,0.108807,0.735,0.9422
1702325270187500,-9.651346,1.166898,1.73021,0.112007,0.735,0.9422
1702325270195312,-9.649346,1.153898,1.70021,0.105607,0.865,0.14322
1702325270203125,-9.597346,1.125898,1.70321,0.89507,0.2335,0.12722
1702325270210937,-9.593346,1.127898,1.67821,0.84707,0.835,0.17522
1702325270218750,-9.575346,1.122898,1.61721,0.75207,0.435,0.15822
1702325270226562,-9.560346,1.140898,1.61921,0.73707,0.2865,0.19022
1702325270234375,-9.548346,1.162898,1.63321,0.57107,0.5735,0.19122
1702325270242187,-9.533346,1.175898,1.65721,0.52607,0.735,0.23922
1702325270250000,-9.531346,1.188898,1.66421,0.42907,0.865,0.25522
1702325270257812,-9.549346,1.184898,1.67121,0.26807,0.2565,0.17422
1702325270265625,-9.569346,1.162898,1.65321,0.28207,0.5565,0.11022
1702325270273437,-9.602346,1.174898,1.65121,0.13407,0.5165,0.12722
1702325270281250,-9.638346,1.174898,1.66421,0.2507,0.535,0.7822
1702325270289062,-9.670346,1.167898,1.66221,0.1993,0.0,0.9322
1702325270296875,-9.708346,1.159898,1.64421,0.1207,0.0,0.7722
1702325270304687,-9.717346,1.160898,1.64421,0.8593,0.15835,0.4622
1702325270312500,-9.723346,1.152898,1.65121,0.28593,0.27435,0.6578
1702325270320312,-9.712346,1.124898,1.64921,0.32993,0.28435,0.5078
1702325270328125,-9.698346,1.100898,1.66921,0.26393,0.40935,0.278
1702325270335937,-9.689346,1.73898,1.64621,0.32893,0.39135,0.8278
1702325270343750,-9.670346,1.59898,1.62221,0.47293,0.43935,0.278
1702325270351562,-9.656346,1.55898,1.54021,0.54093,0.47535,0.4978
1702325270359375,-9.592346,1.54898,1.59221,0.52293,0.42535,0.5078
1702325270367187,-9.561346,1.58898,1.72521,0.52393,0.40935,0.9878
1702325270375000,-9.511346,1.53898,1.73021,0.49093,0.37835,0.5078
1702325270382812,-9.494346,1.72898,1.63721,0.57093,0.36135,0.6678
1702325270390625,-9.528346,1.119898,1.61021,0.70093,0.28535,0.3378
1702325270398437,-9.537346,1.129898,1.69421,0.75293,0.29135,0.3278
1702325270406250,-9.564346,1.107898,1.73021,0.94493,0.14535,0.9778
1702325270414062,-9.600346,1.111898,1.71921,0.97493,0.1365,0.1878
1702325270421875,-9.619346,1.101898,1.73421,0.97793,0.2135,0.11378
1702325270429687,-9.643346,1.93898,1.69821,0.98293,0.10635,0.11278
1702325270437500,-9.654346,1.64898,1.67821,0.101193,0.13435,0.3378
1702325270445312,-9.661346,1.37898,1.67121,0.100893,0.19235,0.3378
1702325270453125,-9.661346,1.22898,1.68721,0.96093,0.27235,0.1778
1702325270460937,-9.665346,1.5898,1.71621,0.79993,0.27435,0.3022
1702325270468750,-9.676346,0.998898,1.72121,0.78093,0.23935,0.9422
1702325270476562,-9.671346,1.3898,1.72821,0.77193,0.24235,0.7622
1702325270484375,-9.656346,1.16898,1.71221,0.79893,0.27435,0.9522
1702325270492187,-9.654346,1.22898,1.72321,0.76893,0.32535,0.7922
1702325270500000,-9.643346,1.13898,1.74821,0.77893,0.26935,0.9422
1702325270507812,-9.642346,1.18898,1.74121,0.80293,0.18435,0.6322
1702325270515625,-9.643346,1.33898,1.68721,0.82993,0.33535,0.7822
1702325270523437,-9.638346,1.35898,1.62421,0.102493,0.33735,0.9522
1702325270531250,-9.655346,1.48898,1.61721,0.111393,0.34135,0.7722
1702325270539062,-9.668346,1.52898,1.62421,0.121193,0.37535,0.7722
1702325270546875,-9.675346,1.37898,1.63321,0.129593,0.28535,0.9422
1702325270554687,-9.676346,1.31898,1.62121,0.128093,0.41335,0.7822
1702325270562500,-9.678346,1.25898,1.59421,0.129893,0.47735,0.3022
1702325270570312,-9.677346,1.33898,1.56021,0.131293,0.47335,0.1422
1702325270578125,-9.667346,1.15898,1.58121,0.121593,0.48935,0.3022
1702325270585937,-9.658346,0.996898,1.60121,0.117093,0.51035,0.3122
1702325270593750,-9.657346,0.974898,1.61221,0.120993,0.48735,0.1578
1702325270601562,-9.632346,0.945898,1.61021,0.117193,0.47835,0.78
1702325270609375,-9.612346,0.951898,1.59021,0.125193,0.54135,0.1778
1702325270617187,-9.602346,0.991898,1.59621,0.144593,0.58735,0.4978
1702325270625000,-9.600346,1.37898,1.59221,0.159193,0.49735,0.1522
1702325270632812,-9.605346,1.68898,1.58721,0.155993,0.49435,0.8178
1702325270640625,-9.603346,1.85898,1.60821,0.157193,0.44235,0.4978
1702325270648437,-9.603346,1.81898,1.61921,0.165493,0.41335,0.9778
1702325270656250,-9.594346,1.72898,1.61721,0.175593,0.44735,0.24178
1702325270664062,-9.605346,1.61898,1.61521,0.180093,0.41035,0.25878
1702325270671875,-9.605346,1.47898,1.61721,0.181593,0.39235,0.30678
1702325270679687,-9.627346,1.49898,1.61721,0.183893,0.37035,0.28978
1702325270687500,-9.654346,1.44898,1.62121,0.181793,0.40935,0.32278
1702325270695312,-9.652346,1.33898,1.61021,0.178893,0.41335,0.38678
1702325270703125,-9.660346,1.3898,1.61521,0.185693,0.29235,0.38578
1702325270710937,-9.617346,0.980898,1.45421,0.201593,0.8735,0.30578
1702325270718750,-9.620346,1.30898,1.40921,0.211293,0.2535,0.25778
1702325270726562,-9.657346,1.50898,1.68721,0.209193,0.12835,0.27478
1702325270734375,-9.663346,1.18898,1.75721,0.216093,0.22935,0.25778
1702325270742187,-9.653346,0.982898,1.70721,0.212793,0.15035,0.27378
1702325270750000,-9.631346,0.966898,1.76621,0.210693,0.28235,0.32278
1702325270757812,-9.583346,0.959898,1.70521,0.206593,0.26235,0.28878
1702325270765625,-9.523346,0.927898,1.56521,0.181693,0.22135,0.30678
1702325270773437,-9.516346,0.932898,1.49921,0.191993,0.7135,0.35378
1702325270781250,-9.500346,0.969898,1.55821,0.185893,0.3035,0.35278
1702325270789062,-9.541346,0.978898,1.63521,0.193493,0.3965,0.35378
1702325270796875,-9.609346,0.986898,1.73021,0.217793,0.5335,0.45078
