time,Acceleration X (m/s^2),Acceleration Y (m/s^2),Acceleration Z (m/s^2),Angular Velocity X (rad/s),Angular Velocity Y (rad/s),Angular Velocity Z (rad/s)
1702325178101562,-9.602042,-0.026422,1.838651,,,
1702325178109375,-9.573042,0.55422,1.838651,0.27436,0.2919,0.964
1702325178117187,-9.626042,0.54422,1.878651,0.37336,0.10881,0.1124
1702325178125000,-9.648042,0.96422,1.953651,0.27536,0.22281,0.2084
1702325178132812,-9.626042,0.110422,2.43651,0.16136,0.33781,0.3064
1702325178140625,-9.626042,0.89422,2.50651,0.3636,0.48781,0.3204
1702325178156250,-9.583042,0.81422,2.54651,0.25064,0.21781,0.3994
1702325178164062,-9.552042,0.109422,2.95651,0.25664,0.55681,0.3864
1702325178171875,-9.547042,0.132422,2.106651,0.20164,0.62481,0.3204
1702325178179687,-9.569042,0.132422,2.158651,0.12364,0.69081,0.2724
1702325178203125,-9.661042,0.176422,2.290651,0.11964,0.157081,0.5614
1702325178210937,-9.667042,0.175422,2.296651,0.24364,0.159481,0.5764
1702325178218750,-9.682042,0.140422,2.301651,0.31064,0.155281,0.6254
1702325178226562,-9.642042,0.101422,2.256651,0.19664,0.170781,0.5924
1702325178234375,-9.575042,0.91422,2.213651,0.23264,0.169581,0.5454
1702325178242187,-9.563042,0.137422,2.159651,0.21264,0.175481,0.6084
1702325178250000,-9.565042,0.141422,2.86651,0.23864,0.198281,0.6874
1702325178257812,-9.549042,0.114422,2.57651,0.34664,0.208781,0.7984
1702325178265625,-9.534042,0.82422,2.32651,0.36164,0.232781,0.9764
1702325178273437,-9.544042,0.2422,1.994651,0.45764,0.246781,0.9754
1702325178281250,-9.502042,0.16578,2.7651,0.45964,0.246981,0.9284
1702325178289062,-9.439042,0.4422,2.34651,0.44364,0.260581,0.7514
1702325178296875,-9.479042,0.59422,1.966651,0.43264,0.256481,0.6724
1702325178304687,-9.543042,0.97422,1.840651,0.22064,0.259381,0.6874
1702325178312500,-9.584042,0.70422,1.754651,0.20264,0.274981,0.7514
1702325178320312,-9.645042,0.12422,1.662651,0.41364,0.275181,0.7844
1702325178328125,-9.639042,0.22578,1.608651,0.46164,0.286381,0.8644
1702325178335937,-9.617042,0.26578,1.626651,0.50764,0.283081,0.9444
1702325178343750,-9.634042,0.8422,1.596651,0.31364,0.301681,0.9284
1702325178351562,-9.738042,0.50578,1.594651,0.18664,0.324281,0.9774
1702325178359375,-9.877042,0.86578,1.531651,0.27364,0.358981,0.10064
1702325178367187,-9.913042,0.78578,1.495651,0.45064,0.372981,0.9584
1702325178375000,-9.856042,0.103578,1.540651,0.29564,0.372281,0.9764
1702325178382812,-9.736042,0.108578,1.510651,0.3064,0.366481,0.9584
1702325178390625,-9.631042,0.53578,1.452651,0.6136,0.384481,0.9594
1702325178398437,-9.663042,0.7578,1.300651,0.4536,0.387581,0.9274
1702325178406250,-9.724042,0.52578,1.181651,0.7736,0.357881,0.9754
1702325178414062,-9.742042,0.75578,1.237651,0.30336,0.332781,0.10234
1702325178421875,-9.753042,0.44578,1.179651,0.65636,0.336181,0.10084
1702325178429687,-9.713042,0.59578,1.124651,0.74136,0.343481,0.10714
1702325178437500,-9.698042,0.92578,1.163651,0.83536,0.356481,0.10724
1702325178445312,-9.596042,0.44578,1.151651,0.85836,0.394781,0.10704
1702325178453125,-9.502042,0.63578,1.106651,0.95836,0.417981,0.10704
1702325178460937,-9.406042,0.41578,1.140651,0.119736,0.420081,0.11354
1702325178468750,-9.406042,0.48578,1.171651,0.136236,0.460281,0.11664
1702325178476562,-9.416042,0.92578,1.176651,0.140936,0.513681,0.10704
1702325178484375,-9.323042,0.35578,1.235651,0.115836,0.566081,0.10204
1702325178492187,-9.220042,0.25578,1.286651,0.83836,0.603481,0.10684
1702325178500000,-9.127042,0.28422,1.329651,0.53536,0.621881,0.10674
1702325178507812,-9.258042,0.95422,1.302651,0.50236,0.604981,0.12284
1702325178515625,-9.341042,0.13578,1.287651,0.78936,0.596181,0.12774
1702325178523437,-9.341042,0.31578,1.293651,0.100436,0.607081,0.15014
1702325178531250,-9.327042,0.27578,1.293651,0.88136,0.614481,0.17254
1702325178539062,-9.369042,0.80578,1.241651,0.80036,0.619581,0.18224
1702325178546875,-9.414042,0.132578,1.108651,0.62336,0.617881,0.18214
1702325178554687,-9.449042,0.194578,1.16651,0.57236,0.622681,0.17094
1702325178562500,-9.450042,0.195578,0.805651,0.86236,0.604981,0.15164
1702325178570312,-9.397042,0.167578,0.661651,0.109636,0.599281,0.12614
1702325178578125,-9.354042,0.195578,0.440651,0.142136,0.608181,0.12284
1702325178585937,-9.178042,0.131578,0.259651,0.143636,0.583281,0.12454
1702325178593750,-9.161042,0.132578,0.327651,0.143536,0.596081,0.12934
1702325178601562,-9.126042,0.85578,0.202651,0.142236,0.652081,0.12444
1702325178609375,-9.97042,0.97578,0.198651,0.113936,0.684081,0.12914
1702325178617187,-9.4042,0.11422,0.112651,0.107336,0.728481,0.13564
1702325178625000,-8.953042,0.71422,0.119651,0.87436,0.762181,0.16274
1702325178632812,-8.985042,0.14422,0.7349,0.89536,0.763581,0.18354
1702325178640625,-9.100042,0.147578,0.6651,0.93936,0.739281,0.19164
1702325178648437,-9.350042,0.293578,0.135349,0.124736,0.738981,0.19484
1702325178656250,-9.450042,0.332578,0.284349,0.135636,0.706681,0.19494
1702325178664062,-9.428042,0.304578,0.352349,0.81636,0.733381,0.17854
1702325178671875,-9.279042,0.183578,0.580349,0.17936,0.731281,0.17244
1702325178679687,-9.298042,0.201578,0.702349,0.21164,0.696281,0.19664
1702325178687500,-9.467042,0.343578,0.921349,0.37164,0.656881,0.19494
1702325178695312,-9.468042,0.374578,-1.102349,0.20364,0.577781,0.18224
1702325178703125,-9.422042,0.307578,-1.443349,0.17764,0.515681,0.17914
1702325178710937,-9.356042,0.284578,-1.669349,0.63164,0.470881,0.19534
1702325178718750,-9.389042,0.370578,-1.818349,0.149964,0.477781,0.23544
1702325178726562,-9.319042,0.325578,-1.892349,0.255664,0.502681,0.27074
1702325178734375,-9.222042,0.288578,-1.874349,0.360064,0.540881,0.31884
1702325178742187,-9.394042,0.419578,-1.813349,0.421864,0.564681,0.39264
1702325178750000,-9.668042,0.643578,-1.910349,0.388864,0.567581,0.42464
1702325178757812,-9.778042,0.894578,-1.788349,0.313764,0.547981,0.41834
1702325178765625,-10.75042,1.155578,-1.903349,0.200664,0.589081,0.37494
1702325178773437,-10.121042,1.91578,-1.957349,0.103064,0.596981,0.33324
1702325178781250,-10.159042,1.74578,-2.206349,0.6264,0.585081,0.30104
1702325178789062,-10.67042,0.900578,-2.170349,0.68236,0.503881,0.24504
1702325178796875,-10.89042,0.797578,-2.296349,0.108036,0.503181,0.18724
1702325178804687,-10.24042,0.623578,-2.222349,0.91236,0.433381,0.17774
1702325178812500,-10.171042,0.577578,-2.192349,0.47636,0.395981,0.18574
1702325178820312,-10.227042,0.655578,-2.32349,0.8036,0.318881,0.19244
1702325178828125,-10.203042,0.613578,-1.854349,0.21636,0.291781,0.21634
1702325178835937,-10.154042,0.619578,-1.818349,0.17536,0.335181,0.23874
1702325178843750,-10.38042,0.786578,-1.718349,0.52436,0.402081,0.27224
1702325178851562,-10.89042,0.930578,-1.666349,0.124836,0.425581,0.26104
1702325178859375,-10.200042,0.967578,-1.867349,0.192036,0.446981,0.20494
1702325178867187,-10.135042,0.837578,-2.213349,0.210636,0.412681,0.17124
1702325178875000,-9.957042,0.744578,-2.147349,0.185536,0.364781,0.15054
1702325178882812,-9.816042,0.698578,-2.245349,0.180036,0.391581,0.14394
1702325178890625,-9.824042,0.713578,-2.409349,0.118036,0.395981,0.15854
1702325178898437,-9.843042,0.721578,-2.516349,0.78236,0.359181,0.15364
1702325178906250,-9.812042,0.709578,-2.590349,0.13036,0.323781,0.14574
1702325178914062,-9.780042,0.799578,-2.597349,0.8564,0.291681,0.14104
1702325178921875,-9.646042,0.808578,-2.525349,0.28136,0.238181,0.11854
1702325178929687,-9.476042,0.799578,-2.416349,0.85736,0.221281,0.10264
1702325178937500,-9.463042,0.845578,-2.308349,0.140936,0.234781,0.10254
1702325178945312,-9.531042,0.798578,-2.301349,0.189636,0.249781,0.9274
1702325178953125,-9.693042,0.766578,-2.482349,0.172736,0.255581,0.9294
1702325178960937,-9.867042,0.794578,-2.590349,0.113236,0.219381,0.9774
1702325178968750,-9.794042,0.823578,-2.394349,0.43836,0.194781,0.11064
1702325178976562,-9.668042,0.890578,-2.278349,0.14364,0.224781,0.11544
1702325178984375,-9.596042,0.880578,-2.369349,0.46564,0.227681,0.10584
1702325178992187,-9.506042,0.874578,-2.227349,0.51664,0.212081,0.8984
1702325179000000,-9.385042,0.846578,-2.242349,0.31364,0.190181,0.6094
1702325179007812,-9.193042,0.779578,-2.265349,0.21164,0.192281,0.4474
1702325179015625,-9.247042,0.793578,-2.347349,0.47264,0.211281,0.3844
1702325179023437,-9.330042,0.828578,-2.432349,0.57264,0.177081,0.3044
1702325179031250,-9.336042,0.885578,-2.511349,0.78964,0.147681,0.484
1702325179039062,-9.288042,0.847578,-2.611349,0.98564,0.131881,0.1436
1702325179046875,-9.212042,0.819578,-2.575349,0.126064,0.124081,0.1756
1702325179054687,-9.284042,0.857578,-2.620349,0.128064,0.124681,0.2066
1702325179062500,-9.215042,0.816578,-2.523349,0.144964,0.116981,0.2416
1702325179070312,-9.198042,0.777578,-2.419349,0.158164,0.160181,0.1116
1702325179078125,-9.305042,0.761578,-2.378349,0.190064,0.197381,0.806
1702325179085937,-9.421042,0.837578,-2.331349,0.199864,0.196081,0.956
1702325179093750,-9.453042,0.893578,-2.245349,0.167564,0.192881,0.796
1702325179101562,-9.397042,0.877578,-2.220349,0.141864,0.205481,0.796
1702325179109375,-9.467042,0.927578,-2.326349,0.138364,0.206681,0.966
1702325179117187,-9.467042,0.951578,-2.423349,0.151564,0.183581,0.796
1702325179125000,-9.317042,0.900578,-2.443349,0.156864,0.176281,0.1756
1702325179132812,-9.211042,0.766578,-2.466349,0.151364,0.189281,0.1926
1702325179140625,-9.222042,0.746578,-2.459349,0.135264,0.186381,0.966
1702325179148437,-9.250042,0.705578,-2.342349,0.128264,0.201481,0.176
1702325179156250,-9.314042,0.637578,-2.188349,0.124964,0.230181,0.1914
1702325179164062,-9.419042,0.619578,-2.155349,0.116164,0.253081,0.3514
1702325179171875,-9.497042,0.703578,-2.154349,0.129764,0.235581,0.5134
1702325179179687,-9.608042,0.818578,-2.247349,0.156964,0.216681,0.6094
1702325179187500,-9.683042,0.904578,-2.348349,0.178064,0.182281,0.5774
1702325179195312,-9.622042,0.994578,-2.373349,0.161864,0.161881,0.6574
1702325179203125,-9.583042,1.48578,-2.403349,0.123164,0.168281,0.6734
1702325179210937,-9.633042,1.64578,-2.430349,0.86564,0.182881,0.6104
1702325179218750,-9.672042,1.29578,-2.484349,0.55664,0.177481,0.4494
1702325179226562,-9.623042,0.914578,-2.468349,0.57064,0.175581,0.4484
1702325179234375,-9.600042,0.887578,-2.461349,0.76564,0.174481,0.5774
1702325179242187,-9.605042,0.909578,-2.536349,0.94464,0.149681,0.5624
1702325179250000,-9.571042,0.916578,-2.575349,0.117064,0.94681,0.5294
1702325179257812,-9.565042,0.915578,-2.638349,0.94664,0.74681,0.6424
1702325179265625,-9.566042,0.902578,-2.746349,0.68764,0.87081,0.6424
1702325179273437,-9.554042,0.858578,-2.778349,0.52364,0.100881,0.6254
1702325179281250,-9.562042,0.878578,-2.769349,0.15164,0.124281,0.6414
1702325179289062,-9.688042,0.928578,-2.789349,0.4336,0.154081,0.7054
1702325179296875,-9.791042,0.925578,-2.768349,0.18636,0.151381,0.7864
1702325179304687,-9.782042,0.889578,-2.703349,0.30036,0.140281,0.7864
1702325179312500,-9.741042,0.887578,-2.710349,0.41336,0.126281,0.8504
1702325179320312,-9.731042,0.904578,-2.712349,0.42636,0.109581,0.9484
1702325179328125,-9.710042,0.904578,-2.676349,0.42736,0.82781,0.9634
1702325179335937,-9.652042,0.876578,-2.687349,0.58636,0.79981,0.9324
1702325179343750,-9.671042,0.875578,-2.739349,0.37036,0.80381,0.10264
1702325179351562,-9.744042,0.940578,-2.775349,0.33136,0.49781,0.9954
1702325179359375,-9.669042,0.981578,-2.787349,0.53736,0.17281,0.9484
1702325179367187,-9.473042,0.925578,-2.807349,0.53736,0.6519,0.8514
1702325179375000,-9.421042,0.900578,-2.846349,0.34036,0.3119,0.7714
1702325179382812,-9.504042,0.919578,-2.893349,0.8436,0.0,0.8194
1702325179390625,-9.508042,0.892578,-2.870349,0.8636,0.10681,0.8194
1702325179398437,-9.452042,0.825578,-2.803349,0.25936,0.28381,0.7724
1702325179406250,-9.421042,0.774578,-2.708349,0.31436,0.49281,0.7384
1702325179414062,-9.466042,0.769578,-2.667349,0.26036,0.53281,0.7074
1702325179421875,-9.554042,0.805578,-2.674349,0.3636,0.38481,0.5784
1702325179429687,-9.579042,0.865578,-2.685349,0.19164,0.24681,0.5464
1702325179437500,-9.494042,0.943578,-2.717349,0.5064,0.4781,0.5154
1702325179445312,-9.312042,0.931578,-2.766349,0.10636,0.6019,0.3714
1702325179453125,-9.125042,0.873578,-2.819349,0.6764,0.23919,0.3064
1702325179460937,-9.89042,0.886578,-2.884349,0.40664,0.25719,0.1774
1702325179468750,-9.80042,0.870578,-2.877349,0.52764,0.21719,0.834
1702325179476562,-9.106042,0.826578,-2.880349,0.45964,0.6519,0.504
1702325179484375,-9.170042,0.792578,-2.848349,0.48764,0.9981,0.174
1702325179492187,-9.247042,0.804578,-2.776349,0.53964,0.31181,0.664
1702325179500000,-9.292042,0.823578,-2.715349,0.55164,0.39981,0.494
1702325179507812,-9.352042,0.801578,-2.710349,0.79464,0.35281,0.334
1702325179515625,-9.334042,0.776578,-2.633349,0.92564,0.44981,0.14
1702325179523437,-9.312042,0.783578,-2.631349,0.98764,0.46181,0.174
1702325179531250,-9.292042,0.805578,-2.672349,0.100664,0.38881,0.664
1702325179539062,-9.210042,0.841578,-2.685349,0.95664,0.33781,0.174
1702325179546875,-9.128042,0.841578,-2.728349,0.101664,0.31681,0.484
1702325179554687,-9.116042,0.893578,-2.796349,0.106764,0.28781,0.156
1702325179562500,-9.134042,0.931578,-2.855349,0.68364,0.8581,0.626
1702325179570312,-9.65042,0.916578,-2.875349,0.49264,0.13781,0.24
1702325179578125,-9.70042,0.900578,-2.852349,0.44464,0.35981,0.24
1702325179585937,-9.172042,0.909578,-2.852349,0.26264,0.47881,0.174
1702325179593750,-9.263042,0.930578,-2.864349,0.42764,0.51481,0.24
1702325179601562,-9.260042,0.908578,-2.816349,0.47164,0.47881,0.654
1702325179609375,-9.241042,0.911578,-2.801349,0.40064,0.47281,0.1924
1702325179617187,-9.221042,0.884578,-2.839349,0.26964,0.53481,0.3044
1702325179625000,-9.223042,0.876578,-2.866349,0.26764,0.51581,0.3204
1702325179632812,-9.225042,0.880578,-2.864349,0.22264,0.52181,0.2894
1702325179640625,-9.237042,0.917578,-2.893349,0.32064,0.52581,0.4184
1702325179648437,-9.253042,0.921578,-2.918349,0.5064,0.48181,0.3384
1702325179656250,-9.298042,0.911578,-2.956349,0.1464,0.47581,0.2894
1702325179664062,-9.322042,0.889578,-2.947349,0.4964,0.49781,0.3704
1702325179671875,-9.344042,0.874578,-2.945349,0.4836,0.47981,0.3384
1702325179679687,-9.333042,0.845578,-2.913349,0.6236,0.40181,0.2744
1702325179687500,-9.317042,0.809578,-2.952349,0.12036,0.34881,0.2754
1702325179695312,-9.294042,0.798578,-2.970349,0.2936,0.35781,0.3384
1702325179703125,-9.292042,0.818578,-2.997349,0.2736,0.36181,0.3554
1702325179710937,-9.308042,0.836578,-3.31349,0.1536,0.41781,0.3224
1702325179718750,-9.292042,0.833578,-3.35349,0.6236,0.54381,0.2744
1702325179726562,-9.307042,0.832578,-3.49349,0.3636,0.51881,0.2724
1702325179734375,-9.342042,0.850578,-3.65349,0.6236,0.46581,0.3064
1702325179742187,-9.376042,0.870578,-3.69349,0.9336,0.45281,0.3544
1702325179750000,-9.342042,0.867578,-3.40349,0.15936,0.40481,0.3864
1702325179757812,-9.281042,0.834578,-3.15349,0.4836,0.41581,0.3054
1702325179765625,-9.234042,0.847578,-3.8349,0.1936,0.27081,0.3374
1702325179773437,-9.192042,0.876578,-3.4349,0.1636,0.35381,0.3384
1702325179781250,-9.230042,0.877578,-3.24349,0.14536,0.49381,0.3054
1702325179789062,-9.333042,0.894578,-3.38349,0.19436,0.51181,0.3864
1702325179796875,-9.344042,0.870578,-2.995349,0.3736,0.45781,0.4014
1702325179804687,-9.305042,0.834578,-2.936349,0.3636,0.45981,0.4494
1702325179812500,-9.280042,0.814578,-2.965349,0.1736,0.36781,0.3694
1702325179820312,-9.287042,0.828578,-3.29349,0.2336,0.28381,0.4804
1702325179828125,-9.357042,0.906578,-3.135349,0.23664,0.23881,0.4654
1702325179835937,-9.377042,0.943578,-3.214349,0.16364,0.10781,0.3704
1702325179843750,-9.312042,0.980578,-3.227349,0.4936,0.7081,0.3854
1702325179851562,-9.272042,0.995578,-3.200349,0.3036,0.10481,0.3384
1702325179859375,-9.302042,0.936578,-3.178349,0.1736,0.14581,0.2734
1702325179867187,-9.346042,0.868578,-3.196349,0.20436,0.5881,0.1624
1702325179875000,-9.359042,0.871578,-3.234349,0.49736,0.1019,0.814
1702325179882812,-9.397042,0.896578,-3.275349,0.51636,0.181,0.964
1702325179890625,-9.404042,0.914578,-3.214349,0.56736,0.419,0.6
1702325179898437,-9.407042,0.917578,-3.187349,0.55936,0.3981,0.174
1702325179906250,-9.402042,0.895578,-3.164349,0.56136,0.819,0.1614
1702325179914062,-9.379042,0.835578,-3.126349,0.48236,0.781,0.2414
1702325179921875,-9.393042,0.840578,-3.123349,0.40136,0.14719,0.3064
1702325179929687,-9.386042,0.871578,-3.166349,0.28836,0.33519,0.3544
1702325179937500,-9.332042,0.853578,-3.176349,0.4836,0.25819,0.3214
1702325179945312,-9.310042,0.834578,-3.232349,0.4336,0.45519,0.3394
1702325179953125,-9.322042,0.881578,-3.250349,0.836,0.56219,0.2754
1702325179960937,-9.313042,0.885578,-3.282349,0.17136,0.56719,0.2424
1702325179968750,-9.295042,0.876578,-3.302349,0.42436,0.53219,0.834
1702325179976562,-9.263042,0.847578,-3.234349,0.39436,0.56919,0.14
1702325179984375,-9.251042,0.807578,-3.171349,0.24936,0.52219,0.146
1702325179992187,-9.294042,0.812578,-3.99349,0.3736,0.48719,0.24
1702325180000000,-9.337042,0.845578,-3.112349,0.2964,0.51419,0.286
1702325180007812,-9.324042,0.867578,-3.101349,0.1264,0.70519,0.296
1702325180015625,-9.245042,0.869578,-3.117349,0.13536,0.67819,0.456
1702325180023437,-9.202042,0.848578,-3.167349,0.26636,0.62019,0.946
1702325180031250,-9.220042,0.857578,-3.198349,0.8636,0.69319,0.776
1702325180039062,-9.275042,0.887578,-3.189349,0.864,0.67919,0.626
1702325180046875,-9.314042,0.886578,-3.153349,0.4536,0.64919,0.916
1702325180054687,-9.256042,0.833578,-3.56349,0.2036,0.67619,0.936
1702325180062500,-9.228042,0.768578,-3.17349,0.2864,0.61119,0.456
1702325180070312,-9.249042,0.760578,-3.40349,0.20764,0.70319,0.446
1702325180078125,-9.231042,0.766578,-3.81349,0.32064,0.75119,0.776
1702325180085937,-9.215042,0.811578,-3.157349,0.28564,0.87919,0.616
1702325180093750,-9.149042,0.872578,-3.155349,0.12364,0.95919,0.136
1702325180101562,-9.111042,0.875578,-3.128349,0.4464,0.83119,0.136
1702325180109375,-9.162042,0.821578,-3.94349,0.336,0.73619,0.616
1702325180117187,-9.240042,0.791578,-3.35349,0.5336,0.74019,0.616
1702325180125000,-9.296042,0.806578,-3.6349,0.864,0.80619,0.946
1702325180132812,-9.326042,0.861578,-3.10349,0.236,0.78319,0.776
1702325180140625,-9.333042,0.863578,-3.8349,0.964,0.72319,0.504
1702325180148437,-9.332042,0.815578,-3.17349,0.11964,0.64919,0.494
1702325180156250,-9.329042,0.797578,-2.997349,0.19864,0.72819,0.1134
1702325180164062,-9.284042,0.799578,-2.993349,0.5064,0.72719,0.2904
1702325180171875,-9.188042,0.786578,-3.17349,0.2436,0.73819,0.1624
1702325180179687,-9.132042,0.821578,-3.85349,0.1136,0.77819,0.334
1702325180187500,-9.134042,0.873578,-3.128349,0.6636,0.90219,0.1804
1702325180195312,-9.105042,0.911578,-3.198349,0.29536,0.97019,0.1634
1702325180203125,-9.53042,0.875578,-3.182349,0.47536,0.81719,0.984
1702325180210937,-9.37042,0.812578,-3.115349,0.50436,0.73419,0.1314
1702325180218750,-9.137042,0.796578,-3.108349,0.53736,0.71819,0.1954
1702325180226562,-9.188042,0.759578,-3.33349,0.52136,0.73319,0.1954
1702325180234375,-9.191042,0.709578,-2.981349,0.45036,0.73019,0.2734
1702325180242187,-9.214042,0.711578,-2.957349,0.51336,0.69519,0.3544
1702325180250000,-9.244042,0.747578,-2.938349,0.43036,0.66019,0.3554
1702325180257812,-9.249042,0.775578,-2.915349,0.35936,0.55519,0.4204
1702325180265625,-9.240042,0.761578,-2.925349,0.41136,0.52519,0.5324
1702325180273437,-9.245042,0.768578,-2.884349,0.21836,0.48019,0.5164
1702325180281250,-9.217042,0.777578,-2.866349,0.19136,0.50219,0.5314
1702325180289062,-9.157042,0.801578,-2.886349,0.17236,0.48319,0.5154
1702325180296875,-9.136042,0.817578,-2.915349,0.2036,0.48719,0.5984
1702325180304687,-9.105042,0.816578,-2.952349,0.1736,0.66319,0.5464
1702325180312500,-9.25042,0.789578,-3.11349,0.13436,0.80719,0.4044
1702325180320312,-8.918042,0.731578,-3.45349,0.28636,0.59919,0.3384
1702325180328125,-9.20042,0.748578,-3.45349,0.4536,0.22119,0.3864
1702325180335937,-9.186042,0.815578,-3.4349,0.40236,0.22619,0.3544
1702325180343750,-9.277042,0.831578,-2.952349,0.62236,0.28119,0.3394
1702325180351562,-9.298042,0.787578,-2.889349,0.67536,0.8219,0.3704
1702325180359375,-9.333042,0.796578,-2.835349,0.60436,0.1719,0.4164
1702325180367187,-9.334042,0.815578,-2.791349,0.50036,0.14519,0.4824
1702325180375000,-9.319042,0.829578,-2.805349,0.25236,0.24919,0.4194
1702325180382812,-9.301042,0.841578,-2.866349,0.7736,0.33019,0.4034
1702325180390625,-9.220042,0.849578,-2.918349,0.5164,0.52119,0.3064
1702325180398437,-9.112042,0.823578,-2.981349,0.264,0.64719,0.3224
1702325180406250,-9.33042,0.770578,-3.24349,0.2836,0.56819,0.3064
1702325180414062,-9.10042,0.764578,-3.45349,0.1736,0.32419,0.3214
1702325180421875,-9.75042,0.794578,-3.65349,0.13436,0.22219,0.2554
1702325180429687,-9.170042,0.804578,-3.56349,0.46936,0.2819,0.2244
1702325180437500,-9.244042,0.789578,-2.979349,0.43336,0.781,0.2094
1702325180445312,-9.257042,0.742578,-2.823349,0.31536,0.4381,0.984
1702325180453125,-9.212042,0.731578,-2.733349,0.20736,0.8381,0.974
1702325180460937,-9.172042,0.726578,-2.744349,0.5364,0.10281,0.654
1702325180468750,-9.119042,0.780578,-2.789349,0.31364,0.9181,0.1144
1702325180476562,-9.93042,0.833578,-2.886349,0.39464,0.4281,0.184
1702325180484375,-9.66042,0.850578,-2.990349,0.42564,0.519,0.824
1702325180492187,-9.31042,0.845578,-2.965349,0.40964,0.18881,0.2434
1702325180500000,-9.45042,0.818578,-2.905349,0.42964,0.36081,0.2884
1702325180507812,-9.87042,0.776578,-2.841349,0.43364,0.47481,0.2574
1702325180515625,-9.105042,0.760578,-2.844349,0.25764,0.46081,0.2574
1702325180523437,-9.42042,0.751578,-2.841349,0.24164,0.48881,0.1124
1702325180531250,-9.31042,0.741578,-2.884349,0.22964,0.55681,0.494
1702325180539062,-9.63042,0.779578,-2.902349,0.24364,0.65081,0.1294
1702325180546875,-9.94042,0.789578,-2.857349,0.25664,0.82081,0.2254
1702325180554687,-9.40042,0.743578,-2.767349,0.23964,0.97781,0.2734
1702325180562500,-9.6042,0.706578,-2.744349,0.17264,0.89481,0.2564
1702325180570312,-9.49042,0.728578,-2.778349,0.6664,0.81081,0.2744
1702325180578125,-9.63042,0.752578,-2.841349,0.19464,0.74681,0.2584
1702325180585937,-9.63042,0.746578,-2.866349,0.21064,0.79581,0.3384
1702325180593750,-9.76042,0.744578,-2.886349,0.23864,0.93281,0.4504
1702325180601562,-9.136042,0.754578,-2.918349,0.21964,0.99381,0.4974
1702325180609375,-9.181042,0.770578,-2.954349,0.23264,0.106781,0.4974
1702325180617187,-9.183042,0.768578,-2.999349,0.13664,0.98981,0.5134
1702325180625000,-9.170042,0.770578,-3.6349,0.4064,0.95981,0.5294
1702325180632812,-9.163042,0.761578,-3.49349,0.7036,0.97981,0.6104
1702325180640625,-9.205042,0.768578,-3.106349,0.3636,0.94481,0.6854
1702325180648437,-9.242042,0.787578,-3.106349,0.7636,0.91081,0.7054
1702325180656250,-9.212042,0.753578,-3.106349,0.19036,0.91081,0.7534
1702325180664062,-9.164042,0.726578,-3.94349,0.1536,0.117381,0.7684
1702325180671875,-9.280042,0.781578,-3.182349,0.37364,0.128981,0.8984
1702325180679687,-9.298042,0.816578,-3.225349,0.47264,0.94781,0.9144
1702325180687500,-9.252042,0.840578,-3.306349,0.34564,0.90281,0.8504
1702325180695312,-9.204042,0.810578,-3.297349,0.10664,0.85881,0.8514
1702325180703125,-9.170042,0.801578,-3.295349,0.8936,0.91681,0.7864
1702325180710937,-9.142042,0.786578,-3.234349,0.24636,0.105681,0.7824
1702325180718750,-9.150042,0.779578,-3.225349,0.30236,0.125681,0.7694
1702325180726562,-9.147042,0.770578,-3.212349,0.12636,0.142881,0.7854
1702325180734375,-9.176042,0.753578,-3.191349,0.5064,0.152181,0.7694
1702325180742187,-9.215042,0.813578,-3.212349,0.6464,0.140981,0.7854
1702325180750000,-9.167042,0.859578,-3.205349,0.7736,0.127281,0.7694
1702325180757812,-9.127042,0.918578,-3.248349,0.20936,0.134681,0.8174
1702325180765625,-9.62042,0.914578,-3.250349,0.31936,0.133681,0.8664
1702325180773437,-9.53042,0.912578,-3.295349,0.33936,0.150481,0.8974
1702325180781250,-9.57042,0.904578,-3.323349,0.50236,0.145681,0.9614
1702325180789062,-9.101042,0.922578,-3.352349,0.16236,0.175881,0.10424
1702325180796875,-9.173042,0.949578,-3.385349,0.1864,0.165381,0.10264
1702325180804687,-9.198042,0.989578,-3.415349,0.14664,0.152781,0.10104
1702325180812500,-9.233042,0.975578,-3.480349,0.4636,0.127381,0.9304
1702325180820312,-9.163042,0.943578,-3.456349,0.14236,0.118081,0.9304
1702325180828125,-9.256042,0.972578,-3.516349,0.10736,0.101281,0.9474
1702325180835937,-9.102042,0.900578,-3.435349,0.32136,0.88081,0.9294
1702325180843750,-9.22042,0.900578,-3.408349,0.25436,0.133981,0.9464
1702325180851562,-9.43042,0.970578,-3.424349,0.14564,0.130581,0.10264
1702325180859375,-9.86042,1.35578,-3.492349,0.14664,0.110181,0.9464
1702325180867187,-8.974042,1.6578,-3.508349,0.36236,0.90581,0.8994
1702325180875000,-8.755042,0.914578,-3.415349,0.54636,0.133781,0.9784
1702325180882812,-8.839042,0.973578,-3.490349,0.9364,0.202381,0.10904
1702325180890625,-9.44042,1.69578,-3.609349,0.14464,0.161981,0.10584
1702325180898437,-8.932042,1.45578,-3.643349,0.51236,0.116581,0.8824
1702325180906250,-8.794042,0.973578,-3.666349,0.80536,0.130081,0.8174
1702325180914062,-8.778042,0.901578,-3.618349,0.56136,0.133681,0.8504
1702325180921875,-8.815042,0.865578,-3.619349,0.49936,0.141081,0.8494
1702325180929687,-8.873042,0.874578,-3.621349,0.33636,0.143081,0.8824
1702325180937500,-8.885042,0.872578,-3.609349,0.25436,0.135481,0.8984
1702325180945312,-8.896042,0.876578,-3.641349,0.31836,0.135481,0.8824
1702325180953125,-8.905042,0.881578,-3.677349,0.17536,0.136681,0.8174
1702325180960937,-8.921042,0.916578,-3.675349,0.2536,0.135881,0.8834
1702325180968750,-8.990042,0.999578,-3.720349,0.20036,0.131581,0.9484
1702325180976562,-8.966042,1.72578,-3.792349,0.26536,0.101681,0.9154
1702325180984375,-8.922042,1.138578,-3.831349,0.5836,0.97981,0.8184
1702325180992187,-8.920042,1.180578,-3.869349,0.2536,0.83681,0.7224
1702325181000000,-8.853042,1.150578,-3.851349,0.29636,0.73081,0.7064
1702325181007812,-8.740042,1.82578,-3.831349,0.43936,0.92081,0.6594
1702325181015625,-8.785042,1.49578,-3.869349,0.38836,0.100481,0.6764
1702325181023437,-8.829042,1.72578,-3.869349,0.33136,0.100981,0.7224
1702325181031250,-8.845042,1.99578,-3.903349,0.24836,0.80881,0.7224
1702325181039062,-8.807042,1.67578,-3.905349,0.24336,0.72081,0.6434
1702325181046875,-8.771042,1.38578,-3.944349,0.19736,0.73281,0.6274
1702325181054687,-8.748042,1.18578,-3.939349,0.936,0.96081,0.6734
1702325181062500,-8.773042,1.30578,-3.912349,0.13664,0.116481,0.6254
1702325181070312,-8.883042,1.51578,-3.926349,0.7164,0.116481,0.6254
1702325181078125,-8.973042,1.75578,-3.962349,0.2436,0.119581,0.5454
1702325181085937,-9.10042,1.49578,-3.887349,0.9036,0.117781,0.5774
1702325181093750,-8.934042,0.953578,-3.777349,0.24036,0.124781,0.5274
1702325181101562,-8.900042,0.924578,-3.745349,0.6636,0.124181,0.4774
1702325181109375,-8.938042,0.940578,-3.788349,0.3036,0.93381,0.4794
1702325181117187,-8.940042,0.993578,-3.847349,0.21964,0.72481,0.4654
1702325181125000,-8.870042,1.16578,-3.869349,0.21764,0.75181,0.4324
1702325181132812,-8.820042,1.50578,-3.905349,0.6264,0.96681,0.4504
1702325181140625,-8.797042,1.147578,-3.917349,0.7136,0.117881,0.4334
1702325181148437,-8.750042,1.171578,-3.892349,0.26836,0.125281,0.4644
1702325181156250,-8.679042,1.117578,-3.899349,0.30236,0.135981,0.4324
1702325181164062,-8.784042,1.103578,-3.962349,0.1036,0.128181,0.3844
1702325181171875,-8.899042,1.123578,-4.25349,0.736,0.84681,0.3684
1702325181179687,-8.942042,1.125578,-4.90349,0.9764,0.71481,0.2904
1702325181187500,-8.999042,1.91578,-4.190349,0.1164,0.75381,0.2564
1702325181195312,-8.907042,1.16578,-4.203349,0.1436,0.65281,0.2744
1702325181203125,-8.710042,0.905578,-4.115349,0.3636,0.75381,0.2404
1702325181210937,-8.586042,0.845578,-4.34349,0.1464,0.80381,0.2094
1702325181218750,-8.519042,0.840578,-3.982349,0.11264,0.80381,0.1294
1702325181226562,-8.628042,0.926578,-4.93349,0.21064,0.75681,0.324
1702325181234375,-8.765042,1.30578,-4.176349,0.33764,0.53381,0.484
1702325181242187,-8.909042,1.164578,-4.249349,0.48764,0.36781,0.334
1702325181250000,-8.929042,1.191578,-4.201349,0.49164,0.319,0.504
1702325181257812,-8.915042,1.116578,-4.122349,0.50564,0.18181,0.334
1702325181265625,-8.965042,1.15578,-4.41349,0.53464,0.44381,0.494
1702325181273437,-9.60042,0.957578,-3.987349,0.28964,0.69081,0.484
1702325181281250,-9.65042,0.947578,-4.20349,0.14864,0.79081,0.14
1702325181289062,-8.943042,1.19578,-4.97349,0.11564,0.94681,0.174
1702325181296875,-8.824042,1.177578,-4.208349,0.22664,0.69181,0.156
1702325181304687,-8.848042,1.265578,-4.285349,0.48964,0.74681,0.306
1702325181312500,-8.804042,1.182578,-4.343349,0.48764,0.107081,0.956
1702325181320312,-8.583042,0.977578,-4.314349,0.49464,0.123081,0.816
1702325181328125,-8.468042,0.784578,-4.226349,0.48364,0.104981,0.806
1702325181335937,-8.555042,0.781578,-4.195349,0.51364,0.79581,0.966
1702325181343750,-8.694042,0.952578,-4.190349,0.30464,0.63981,0.806
1702325181351562,-8.786042,1.61578,-4.210349,0.3164,0.74981,0.1446
1702325181359375,-8.849042,1.89578,-4.226349,0.4736,0.56481,0.956
1702325181367187,-8.835042,1.57578,-4.197349,0.2936,0.51981,0.796
1702325181375000,-8.882042,0.980578,-4.163349,0.3764,0.50881,0.626
1702325181382812,-8.938042,0.904578,-4.212349,0.10164,0.36681,0.786
1702325181390625,-8.949042,0.909578,-4.231349,0.9964,0.36281,0.796
1702325181398437,-8.888042,0.985578,-4.244349,0.5936,0.52681,0.174
1702325181406250,-8.874042,1.64578,-4.300349,0.13936,0.74581,0.306
1702325181414062,-8.867042,1.82578,-4.262349,0.25636,0.80381,0.164
1702325181421875,-8.837042,1.22578,-4.280349,0.16436,0.84381,0.326
1702325181429687,-8.807042,0.924578,-4.287349,0.4336,0.66581,0.146
1702325181437500,-8.802042,0.890578,-4.346349,0.22136,0.72581,0.1116
1702325181445312,-8.669042,0.880578,-4.371349,0.41836,0.59481,0.1126
1702325181453125,-8.544042,0.866578,-4.323349,0.34836,0.62081,0.786
1702325181460937,-8.499042,0.875578,-4.285349,0.16136,0.76881,0.316
1702325181468750,-8.585042,0.927578,-4.321349,0.364,0.64881,0.174
1702325181476562,-8.738042,0.974578,-4.368349,0.22864,0.44281,0.476
1702325181484375,-8.819042,0.988578,-4.350349,0.32564,0.36581,0.0
1702325181492187,-8.782042,0.937578,-4.325349,0.10264,0.29181,0.174
1702325181500000,-8.734042,0.901578,-4.312349,0.3064,0.28181,0.484
1702325181507812,-8.716042,0.887578,-4.335349,0.264,0.25681,0.654
1702325181515625,-8.716042,0.885578,-4.332349,0.7864,0.26981,0.2574
1702325181523437,-8.749042,0.909578,-4.373349,0.936,0.26081,0.3024
1702325181531250,-8.761042,0.938578,-4.448349,0.2436,0.12081,0.3184
1702325181539062,-8.777042,0.958578,-4.486349,0.6936,0.1719,0.2714
1702325181546875,-8.718042,0.931578,-4.457349,0.16936,0.11981,0.3024
1702325181554687,-8.725042,0.921578,-4.432349,0.24636,0.25281,0.3044
1702325181562500,-8.767042,0.929578,-4.470349,0.26536,0.6081,0.3674
1702325181570312,-8.829042,0.976578,-4.497349,0.32436,0.13919,0.2404
1702325181578125,-8.759042,0.966578,-4.493349,0.43836,0.26719,0.2074
1702325181585937,-8.653042,0.973578,-4.508349,0.47836,0.25519,0.1784
1702325181593750,-8.665042,0.978578,-4.545349,0.13036,0.29819,0.954
1702325181601562,-8.738042,0.964578,-4.583349,0.14164,0.35119,0.454
1702325181609375,-8.740042,0.886578,-4.468349,0.23964,0.20419,0.1434
1702325181617187,-8.775042,0.863578,-4.414349,0.8864,0.14781,0.1414
1702325181625000,-8.776042,0.914578,-4.457349,0.16336,0.2781,0.336
1702325181632812,-8.669042,1.8578,-4.423349,0.21736,0.20319,0.686
1702325181640625,-8.639042,1.47578,-4.425349,0.2436,0.4981,0.196
1702325181648437,-8.558042,0.986578,-4.441349,0.10964,0.881,0.496
1702325181656250,-8.590042,0.947578,-4.504349,0.39564,0.4219,0.124
1702325181664062,-8.651042,0.929578,-4.493349,0.47064,0.24619,0.164
1702325181671875,-8.741042,0.951578,-4.486349,0.20364,0.11719,0.1094
1702325181679687,-8.716042,0.989578,-4.441349,0.25236,0.5081,0.2204
1702325181687500,-8.659042,0.989578,-4.380349,0.36136,0.20081,0.2554
1702325181695312,-8.619042,1.6578,-4.346349,0.30836,0.13981,0.804
1702325181703125,-8.573042,1.60578,-4.346349,0.9964,0.30919,0.164
1702325181710937,-8.600042,1.117578,-4.407349,0.30664,0.64319,0.314
1702325181718750,-8.708042,1.114578,-4.477349,0.30964,0.66719,0.1294
1702325181726562,-8.733042,1.41578,-4.472349,0.236,0.43719,0.2724
1702325181734375,-8.705042,0.960578,-4.378349,0.20536,0.21619,0.3004
1702325181742187,-8.644042,0.896578,-4.231349,0.32536,0.0,0.1764
1702325181750000,-8.588042,0.882578,-4.213349,0.24436,0.15881,0.2404
1702325181757812,-8.559042,0.919578,-4.240349,0.7336,0.25981,0.2864
1702325181765625,-8.547042,1.8578,-4.339349,0.13464,0.36981,0.3664
1702325181773437,-8.614042,1.19578,-4.425349,0.21564,0.45181,0.4314
1702325181781250,-8.622042,1.50578,-4.443349,0.664,0.53281,0.4964
1702325181789062,-8.598042,1.89578,-4.407349,0.15136,0.77281,0.5294
1702325181796875,-8.663042,1.100578,-4.380349,0.25636,0.82481,0.5754
1702325181804687,-8.664042,1.46578,-4.312349,0.23536,0.56581,0.5614
1702325181812500,-8.705042,1.13578,-4.343349,0.5036,0.32681,0.6114
1702325181820312,-8.684042,1.7578,-4.323349,0.5864,0.5281,0.5774
1702325181828125,-8.685042,1.44578,-4.319349,0.10664,0.9981,0.6254
1702325181835937,-8.681042,1.75578,-4.314349,0.1936,0.24481,0.5624
1702325181843750,-8.615042,1.61578,-4.274349,0.964,0.23881,0.5134
1702325181851562,-8.611042,1.79578,-4.262349,0.23464,0.28681,0.5774
1702325181859375,-8.629042,1.50578,-4.237349,0.27064,0.43181,0.5304
1702325181867187,-8.614042,1.8578,-4.224349,0.24764,0.45181,0.5274
1702325181875000,-8.549042,0.988578,-4.199349,0.22664,0.49281,0.5094
1702325181882812,-8.575042,1.9578,-4.235349,0.20264,0.55281,0.5294
1702325181890625,-8.636042,1.72578,-4.303349,0.21764,0.48781,0.5134
1702325181898437,-8.577042,1.59578,-4.287349,0.18464,0.43981,0.5284
1702325181906250,-8.573042,1.58578,-4.310349,0.18964,0.50881,0.5144
1702325181914062,-8.587042,1.81578,-4.308349,0.23464,0.48781,0.5134
1702325181921875,-8.586042,1.77578,-4.328349,0.19664,0.33581,0.4134
1702325181929687,-8.571042,1.102578,-4.371349,0.9164,0.25381,0.4014
1702325181937500,-8.511042,1.79578,-4.468349,0.21064,0.24581,0.3704
1702325181945312,-8.483042,1.15578,-4.470349,0.33764,0.25781,0.3214
1702325181953125,-8.512042,1.9578,-4.473349,0.46364,0.38081,0.3854
1702325181960937,-8.539042,1.13578,-4.491349,0.38264,0.30281,0.4174
1702325181968750,-8.527042,0.988578,-4.495349,0.28964,0.38381,0.3214
1702325181976562,-8.479042,0.948578,-4.484349,0.43364,0.44381,0.3054
1702325181984375,-8.525042,0.932578,-4.513349,0.65164,0.47981,0.3024
1702325181992187,-8.618042,0.935578,-4.543349,0.62464,0.36281,0.3044
1702325182000000,-8.600042,0.948578,-4.547349,0.50964,0.20181,0.3194
1702325182007812,-8.594042,0.981578,-4.574349,0.46564,0.34881,0.2414
1702325182015625,-8.621042,1.12578,-4.570349,0.38664,0.19481,0.2574
1702325182023437,-8.640042,1.37578,-4.574349,0.45264,0.24281,0.2414
1702325182031250,-8.597042,1.23578,-4.536349,0.49864,0.27081,0.1934
1702325182039062,-8.573042,1.65578,-4.570349,0.38464,0.30181,0.2734
1702325182046875,-8.534042,1.152578,-4.617349,0.37264,0.21181,0.2094
1702325182054687,-8.499042,1.183578,-4.653349,0.40564,0.16481,0.1614
1702325182062500,-8.502042,1.175578,-4.753349,0.48164,0.17281,0.1284
1702325182070312,-8.477042,1.108578,-4.796349,0.46864,0.25381,0.484
1702325182078125,-8.480042,1.48578,-4.811349,0.41364,0.24781,0.1754
1702325182085937,-8.506042,1.34578,-4.800349,0.26164,0.25981,0.1454
1702325182093750,-8.538042,1.42578,-4.798349,0.9364,0.24981,0.1444
1702325182101562,-8.564042,1.85578,-4.789349,0.5136,0.23681,0.2244
1702325182109375,-8.607042,1.101578,-4.750349,0.5336,0.25081,0.3044
1702325182117187,-8.664042,1.89578,-4.628349,0.10636,0.32281,0.2864
1702325182125000,-8.696042,1.69578,-4.579349,0.16536,0.22181,0.3364
1702325182132812,-8.734042,1.99578,-4.606349,0.20536,0.4119,0.3174
1702325182140625,-8.704042,1.153578,-4.631349,0.9836,0.27819,0.3214
1702325182148437,-8.665042,1.135578,-4.635349,0.6836,0.28119,0.2884
1702325182156250,-8.575042,1.91578,-4.615349,0.19236,0.29019,0.2894
1702325182164062,-8.555042,1.63578,-4.651349,0.40536,0.24819,0.2734
1702325182171875,-8.539042,1.29578,-4.653349,0.46836,0.29219,0.3054
1702325182179687,-8.505042,1.38578,-4.638349,0.53836,0.28519,0.2874
1702325182187500,-8.522042,1.25578,-4.633349,0.55836,0.5419,0.3174
1702325182195312,-8.525042,1.9578,-4.651349,0.50036,0.24419,0.3054
1702325182203125,-8.542042,0.976578,-4.721349,0.27236,0.28819,0.2904
1702325182210937,-8.546042,0.948578,-4.741349,0.6636,0.31319,0.1924
1702325182218750,-8.557042,0.905578,-4.746349,0.1036,0.25919,0.174
1702325182226562,-8.590042,0.895578,-4.759349,0.3136,0.24819,0.644
1702325182234375,-8.615042,0.907578,-4.710349,0.3436,0.41019,0.624
1702325182242187,-8.588042,0.893578,-4.705349,0.1436,0.53219,0.486
1702325182250000,-8.586042,0.912578,-4.721349,0.4236,0.46319,0.14
1702325182257812,-8.581042,0.923578,-4.728349,0.3836,0.43619,0.526
1702325182265625,-8.581042,0.922578,-4.755349,0.24164,0.45719,0.16
1702325182273437,-8.602042,0.926578,-4.771349,0.47464,0.57119,0.174
1702325182281250,-8.571042,0.950578,-4.753349,0.50464,0.49519,0.14
1702325182289062,-8.506042,0.971578,-4.805349,0.37664,0.52419,0.174
1702325182296875,-8.430042,0.973578,-4.868349,0.25864,0.55019,0.336
1702325182304687,-8.347042,0.974578,-4.868349,0.17864,0.52019,0.976
1702325182312500,-8.268042,0.968578,-4.861349,0.3264,0.48919,0.816
1702325182320312,-8.250042,0.941578,-4.841349,0.0,0.20619,0.966
1702325182328125,-8.279042,0.922578,-4.760349,0.8336,0.3981,0.986
1702325182335937,-8.328042,0.882578,-4.676349,0.31736,0.11481,0.796
1702325182343750,-8.382042,0.883578,-4.628349,0.51436,0.12681,0.476
1702325182351562,-8.398042,0.939578,-4.595349,0.61836,0.13281,0.26
1702325182359375,-8.396042,0.988578,-4.592349,0.56936,0.13281,0.186
1702325182367187,-8.427042,1.578,-4.588349,0.47736,0.6081,0.526
1702325182375000,-8.490042,0.978578,-4.635349,0.35836,0.7081,0.826
1702325182382812,-8.550042,0.927578,-4.707349,0.22436,0.3019,0.476
1702325182390625,-8.541042,0.890578,-4.732349,0.19036,0.9019,0.316
1702325182398437,-8.439042,0.849578,-4.732349,0.8036,0.20619,0.806
1702325182406250,-8.342042,0.815578,-4.739349,0.32936,0.12219,0.676
1702325182414062,-8.324042,0.794578,-4.771349,0.46736,0.3219,0.806
1702325182421875,-8.386042,0.845578,-4.805349,0.54536,0.9781,0.156
1702325182429687,-8.452042,0.959578,-4.829349,0.53336,0.23781,0.1764
1702325182437500,-8.529042,1.11578,-4.784349,0.53636,0.25181,0.2724
1702325182445312,-8.514042,1.7578,-4.723349,0.58536,0.22081,0.3684
1702325182453125,-8.459042,0.939578,-4.723349,0.58436,0.8081,0.3534
1702325182460937,-8.470042,0.904578,-4.777349,0.42036,0.2081,0.2734
1702325182468750,-8.479042,0.920578,-4.755349,0.32536,0.4319,0.3214
1702325182476562,-8.464042,0.932578,-4.691349,0.43036,0.119,0.2744
1702325182484375,-8.427042,0.896578,-4.653349,0.51736,0.13081,0.2894
1702325182492187,-8.424042,0.895578,-4.662349,0.48836,0.4781,0.3204
1702325182500000,-8.439042,0.961578,-4.653349,0.22536,0.5219,0.3704
1702325182507812,-8.397042,0.975578,-4.660349,0.20936,0.619,0.3864
1702325182515625,-8.354042,0.953578,-4.750349,0.27436,0.4219,0.2254
1702325182523437,-8.389042,0.934578,-4.838349,0.11036,0.4019,0.1294
1702325182531250,-8.455042,0.977578,-4.870349,0.14436,0.681,0.2574
1702325182539062,-8.428042,0.970578,-4.838349,0.32336,0.14681,0.2734
1702325182546875,-8.443042,0.925578,-4.764349,0.29136,0.29181,0.4024
1702325182554687,-8.507042,0.921578,-4.707349,0.17136,0.25181,0.3394
1702325182562500,-8.493042,0.937578,-4.689349,0.1536,0.15181,0.3704
1702325182570312,-8.457042,0.946578,-4.703349,0.6364,0.5281,0.3054
1702325182578125,-8.380042,0.927578,-4.721349,0.25364,0.6319,0.2884
1702325182585937,-8.347042,0.924578,-4.730349,0.32264,0.919,0.2574
1702325182593750,-8.405042,0.938578,-4.753349,0.16064,0.3681,0.2254
1702325182601562,-8.388042,0.953578,-4.737349,0.3664,0.2019,0.1624
1702325182609375,-8.360042,0.927578,-4.730349,0.9836,0.6281,0.1124
1702325182617187,-8.323042,0.909578,-4.705349,0.5536,0.24381,0.1584
1702325182625000,-8.318042,0.928578,-4.723349,0.1836,0.26981,0.2244
1702325182632812,-8.399042,0.956578,-4.807349,0.22464,0.28781,0.2734
1702325182640625,-8.479042,0.984578,-4.863349,0.7664,0.23781,0.3044
1702325182648437,-8.475042,0.979578,-4.890349,0.336,0.17481,0.3214
1702325182656250,-8.466042,0.984578,-4.881349,0.3536,0.19281,0.3534
1702325182664062,-8.457042,0.979578,-4.870349,0.1836,0.22281,0.2414
1702325182671875,-8.434042,0.968578,-4.798349,0.22064,0.23581,0.3044
1702325182679687,-8.416042,0.930578,-4.762349,0.36964,0.27281,0.3214
1702325182687500,-8.436042,0.942578,-4.811349,0.31464,0.31081,0.3514
1702325182695312,-8.466042,1.8578,-4.825349,0.26964,0.34681,0.3044
1702325182703125,-8.501042,1.44578,-4.838349,0.23764,0.31581,0.2724
1702325182710937,-8.502042,1.18578,-4.834349,0.26664,0.18281,0.2704
1702325182718750,-8.533042,1.6578,-4.845349,0.19864,0.3681,0.2524
1702325182726562,-8.533042,0.979578,-4.834349,0.2664,0.17519,0.2714
1702325182734375,-8.490042,0.971578,-4.850349,0.25836,0.31019,0.2084
1702325182742187,-8.482042,1.21578,-4.872349,0.33636,0.27619,0.1614
1702325182750000,-8.479042,1.72578,-4.832349,0.18936,0.34919,0.2744
1702325182757812,-8.454042,1.56578,-4.798349,0.2064,0.31719,0.2424
1702325182765625,-8.362042,1.24578,-4.798349,0.17964,0.41419,0.2574
1702325182773437,-8.240042,0.949578,-4.800349,0.23164,0.30019,0.2264
1702325182781250,-8.205042,0.931578,-4.859349,0.24064,0.1981,0.2574
1702325182789062,-8.233042,0.945578,-4.902349,0.22364,0.9781,0.2734
1702325182796875,-8.255042,0.949578,-4.967349,0.25964,0.11881,0.2734
1702325182804687,-8.421042,0.958578,-4.990349,0.21164,0.26081,0.2584
1702325182812500,-8.533042,0.891578,-4.971349,0.13464,0.25081,0.2754
1702325182820312,-8.592042,0.875578,-4.893349,0.11264,0.20981,0.2574
1702325182828125,-8.536042,0.903578,-4.759349,0.3636,0.17281,0.2884
1702325182835937,-8.459042,0.945578,-4.746349,0.8464,0.3819,0.1614
1702325182843750,-8.345042,0.988578,-4.757349,0.21364,0.22919,0.0
1702325182851562,-8.330042,1.17578,-4.825349,0.40564,0.13719,0.164
1702325182859375,-8.370042,1.18578,-4.879349,0.41764,0.4381,0.0
1702325182867187,-8.410042,0.971578,-4.920349,0.22764,0.19281,0.654
1702325182875000,-8.408042,0.922578,-4.884349,0.3964,0.42681,0.124
1702325182882812,-8.440042,0.886578,-4.850349,0.16436,0.48481,0.964
1702325182890625,-8.467042,0.906578,-4.832349,0.8436,0.46681,0.314
1702325182898437,-8.472042,0.935578,-4.809349,0.6264,0.31381,0.804
1702325182906250,-8.437042,0.950578,-4.820349,0.24464,0.23981,0.164
1702325182914062,-8.417042,0.970578,-4.913349,0.22664,0.6481,0.0
1702325182921875,-8.346042,0.936578,-4.931349,0.11164,0.4519,0.1284
1702325182929687,-8.317042,0.926578,-4.942349,0.24264,0.2619,0.1614
1702325182937500,-8.328042,0.931578,-4.963349,0.17664,0.3019,0.1124
1702325182945312,-8.337042,0.926578,-4.909349,0.11164,0.15119,0.3374
1702325182953125,-8.358042,0.933578,-4.857349,0.12764,0.5819,0.3054
1702325182960937,-8.378042,0.941578,-4.802349,0.3936,0.3519,0.3354
1702325182968750,-8.358042,0.951578,-4.773349,0.1736,0.9881,0.2894
1702325182976562,-8.348042,1.6578,-4.750349,0.3436,0.22581,0.4014
1702325182984375,-8.339042,1.8578,-4.778349,0.1264,0.23981,0.3694
1702325182992187,-8.332042,1.4578,-4.836349,0.7664,0.26881,0.3044
1702325183000000,-8.338042,0.993578,-4.911349,0.23564,0.21681,0.2714
1702325183007812,-8.336042,1.9578,-4.949349,0.12264,0.24781,0.2554
1702325183015625,-8.356042,1.29578,-4.938349,0.15436,0.25981,0.3024
1702325183023437,-8.383042,1.21578,-4.952349,0.30236,0.41681,0.4624
1702325183031250,-8.386042,1.14578,-4.949349,0.26536,0.36081,0.4324
1702325183039062,-8.332042,0.977578,-4.945349,0.5136,0.24181,0.4654
1702325183046875,-8.228042,0.914578,-4.940349,0.2864,0.8181,0.3374
1702325183054687,-8.75042,0.858578,-4.952349,0.19164,0.5519,0.4014
1702325183062500,-8.13042,0.822578,-5.13349,0.28364,0.3181,0.4324
1702325183070312,-8.97042,0.874578,-5.137349,0.33564,0.27381,0.4174
1702325183078125,-8.143042,0.937578,-5.130349,0.26964,0.38081,0.4494
1702325183085937,-8.188042,0.968578,-5.105349,0.18964,0.55581,0.4654
1702325183093750,-8.223042,0.954578,-5.56349,0.1964,0.71581,0.4954
1702325183101562,-8.194042,0.931578,-4.994349,0.5564,0.95581,0.4644
1702325183109375,-8.185042,0.898578,-4.990349,0.21464,0.97081,0.5124
1702325183117187,-8.241042,0.907578,-5.35349,0.29564,0.83081,0.5444
1702325183125000,-8.311042,0.973578,-5.96349,0.47664,0.59681,0.4004
1702325183132812,-8.298042,0.992578,-5.103349,0.30364,0.42881,0.3854
1702325183140625,-8.208042,0.956578,-5.94349,0.23664,0.37781,0.3364
1702325183148437,-8.132042,0.902578,-5.55349,0.24464,0.45081,0.2904
1702325183156250,-8.149042,0.897578,-5.40349,0.44764,0.45581,0.2564
1702325183164062,-8.162042,0.917578,-4.977349,0.47864,0.36081,0.2884
1702325183171875,-8.122042,0.906578,-4.986349,0.49564,0.45581,0.2884
1702325183179687,-8.88042,0.883578,-5.83349,0.47964,0.31381,0.2404
1702325183187500,-8.77042,0.914578,-5.180349,0.51364,0.25081,0.1284
1702325183195312,-8.87042,0.958578,-5.209349,0.51664,0.25681,0.1934
1702325183203125,-8.63042,0.971578,-5.218349,0.41964,0.26981,0.964
1702325183210937,-8.74042,0.969578,-5.202349,0.22464,0.45581,0.644
1702325183218750,-8.118042,0.970578,-5.173349,0.20064,0.46181,0.1744
1702325183226562,-8.155042,1.1578,-5.155349,0.15964,0.50481,0.1764
1702325183234375,-8.135042,0.996578,-5.119349,0.20764,0.42481,0.1604
1702325183242187,-8.107042,1.1578,-5.132349,0.23664,0.40281,0.944
1702325183250000,-8.67042,0.980578,-5.146349,0.22364,0.26581,0.634
1702325183257812,-7.980042,0.906578,-5.162349,0.23364,0.30281,0.284
1702325183265625,-7.931042,0.878578,-5.164349,0.35264,0.51581,0.154
1702325183273437,-7.984042,0.892578,-5.220349,0.47064,0.74281,0.174
1702325183281250,-8.35042,0.884578,-5.254349,0.48364,0.67481,0.316
1702325183289062,-8.34042,0.864578,-5.281349,0.45164,0.76781,0.966
1702325183296875,-8.12042,0.823578,-5.259349,0.42264,0.72781,0.174
1702325183304687,-8.12042,0.740578,-5.230349,0.35164,0.73181,0.806
1702325183312500,-8.45042,0.710578,-5.205349,0.47764,0.75981,0.496
1702325183320312,-8.171042,0.740578,-5.223349,0.49964,0.69181,0.484
1702325183328125,-8.205042,0.781578,-5.241349,0.48164,0.50081,0.484
1702325183335937,-8.105042,0.837578,-5.266349,0.42964,0.24381,0.464
1702325183343750,-8.35042,0.913578,-5.259349,0.35164,0.45481,0.1284
1702325183351562,-8.62042,0.952578,-5.291349,0.40964,0.64881,0.1734
1702325183359375,-8.158042,0.966578,-5.331349,0.46364,0.56181,0.954
1702325183367187,-8.188042,0.993578,-5.333349,0.49564,0.48681,0.2244
1702325183375000,-8.195042,1.4578,-5.367349,0.39864,0.49981,0.1114
1702325183382812,-8.238042,0.995578,-5.376349,0.6564,0.48981,0.644
1702325183390625,-8.262042,0.996578,-5.354349,0.5136,0.50281,0.2084
1702325183398437,-8.280042,0.963578,-5.313349,0.23136,0.59481,0.2564
1702325183406250,-8.250042,0.945578,-5.320349,0.26536,0.51481,0.2724
1702325183414062,-8.187042,0.940578,-5.315349,0.6836,0.29881,0.2564
1702325183421875,-8.157042,0.902578,-5.277349,0.1036,0.38481,0.3024
1702325183429687,-8.194042,0.884578,-5.320349,0.236,0.49681,0.2984
1702325183437500,-8.246042,0.852578,-5.320349,0.15136,0.45281,0.2884
1702325183445312,-8.273042,0.842578,-5.313349,0.47836,0.30681,0.3504
1702325183453125,-8.273042,0.855578,-5.286349,0.54136,0.21281,0.2704
1702325183460937,-8.336042,0.858578,-5.261349,0.65236,0.20081,0.3194
1702325183468750,-8.367042,0.859578,-5.302349,0.58636,0.15681,0.3364
1702325183476562,-8.369042,0.861578,-5.367349,0.54036,0.3619,0.3184
1702325183484375,-8.354042,0.856578,-5.437349,0.19236,0.24319,0.2734
1702325183492187,-8.347042,0.842578,-5.507349,0.3136,0.29019,0.2894
1702325183500000,-8.321042,0.821578,-5.523349,0.564,0.29819,0.3074
1702325183507812,-8.272042,0.764578,-5.485349,0.11436,0.13619,0.3054
1702325183515625,-8.331042,0.823578,-5.482349,0.28036,0.9181,0.3034
1702325183523437,-8.395042,0.892578,-5.453349,0.8336,0.4519,0.2404
1702325183531250,-8.386042,0.876578,-5.421349,0.6336,0.10619,0.804
1702325183539062,-8.397042,0.850578,-5.414349,0.11136,0.21319,0.2094
1702325183546875,-8.355042,0.824578,-5.374349,0.39536,0.16319,0.2864
1702325183554687,-8.275042,0.828578,-5.326349,0.27436,0.1019,0.2574
1702325183562500,-8.226042,0.825578,-5.297349,0.9736,0.24519,0.2574
1702325183570312,-8.198042,0.865578,-5.322349,0.11136,0.30619,0.2734
1702325183578125,-8.152042,0.903578,-5.367349,0.2736,0.31519,0.2744
1702325183585937,-8.149042,0.910578,-5.410349,0.1136,0.28419,0.3224
1702325183593750,-8.216042,0.907578,-5.464349,0.1436,0.17919,0.2904
1702325183601562,-8.267042,0.874578,-5.462349,0.7736,0.25319,0.3704
1702325183609375,-8.274042,0.859578,-5.421349,0.22436,0.27019,0.4344
1702325183617187,-8.276042,0.870578,-5.392349,0.28936,0.41219,0.4184
1702325183625000,-8.274042,0.872578,-5.399349,0.24136,0.61619,0.4664
1702325183632812,-8.251042,0.877578,-5.403349,0.11536,0.71619,0.4654
1702325183640625,-8.236042,0.869578,-5.390349,0.12636,0.69119,0.4514
1702325183648437,-8.238042,0.876578,-5.363349,0.17736,0.53719,0.5144
1702325183656250,-8.207042,0.884578,-5.297349,0.7836,0.48719,0.5314
1702325183664062,-8.131042,0.878578,-5.277349,0.5264,0.50019,0.4994
1702325183671875,-8.37042,0.886578,-5.302349,0.24364,0.48919,0.4344
1702325183679687,-7.932042,0.891578,-5.351349,0.23364,0.65719,0.2914
1702325183687500,-7.821042,0.848578,-5.422349,0.3564,0.64819,0.2904
1702325183695312,-7.793042,0.781578,-5.435349,0.11136,0.40119,0.2094
1702325183703125,-7.904042,0.809578,-5.476349,0.27236,0.10019,0.3064
1702325183710937,-8.49042,0.933578,-5.478349,0.27336,0.3981,0.3064
1702325183718750,-8.85042,0.982578,-5.410349,0.46536,0.17819,0.2584
1702325183726562,-8.73042,0.929578,-5.351349,0.56536,0.12019,0.2734
1702325183734375,-8.117042,0.850578,-5.263349,0.47236,0.3481,0.4174
1702325183742187,-8.138042,0.773578,-5.153349,0.26736,0.7781,0.5284
1702325183750000,-8.146042,0.742578,-5.76349,0.5436,0.2181,0.5774
1702325183757812,-8.109042,0.770578,-5.58349,0.14164,0.14719,0.6424
1702325183765625,-8.66042,0.858578,-5.130349,0.22664,0.42619,0.4984
1702325183773437,-7.995042,0.933578,-5.245349,0.33764,0.52519,0.4494
1702325183781250,-7.823042,0.926578,-5.334349,0.49164,0.46019,0.3334
1702325183789062,-7.800042,0.956578,-5.492349,0.51464,0.45119,0.2564
1702325183796875,-7.896042,0.962578,-5.591349,0.55164,0.41619,0.1134
1702325183804687,-7.990042,0.946578,-5.605349,0.6536,0.27819,0.2414
1702325183812500,-8.20042,0.959578,-5.537349,0.64436,0.719,0.3224
1702325183820312,-8.11042,0.963578,-5.356349,0.91836,0.13381,0.2904
1702325183828125,-8.102042,0.997578,-5.286349,0.89736,0.3081,0.2754
1702325183835937,-8.174042,0.957578,-5.302349,0.54636,0.21119,0.2574
1702325183843750,-8.104042,0.829578,-5.277349,0.25236,0.28319,0.2754
1702325183851562,-8.61042,0.766578,-5.322349,0.18864,0.29919,0.2714
1702325183859375,-8.136042,0.777578,-5.322349,0.49964,0.27519,0.3374
1702325183867187,-8.120042,0.773578,-5.378349,0.50064,0.27319,0.3224
1702325183875000,-8.32042,0.743578,-5.417349,0.46664,0.27719,0.2894
1702325183882812,-7.958042,0.753578,-5.424349,0.43064,0.34619,0.2874
1702325183890625,-7.941042,0.868578,-5.474349,0.46064,0.23919,0.3184
1702325183898437,-7.966042,0.943578,-5.487349,0.46864,0.10319,0.2094
1702325183906250,-7.937042,0.980578,-5.546349,0.24264,0.1319,0.804
1702325183914062,-7.971042,1.1578,-5.503349,0.2964,0.7881,0.1604
1702325183921875,-8.16042,0.985578,-5.369349,0.20936,0.36681,0.2094
1702325183929687,-8.51042,0.962578,-5.297349,0.19336,0.30181,0.1284
1702325183937500,-8.49042,0.941578,-5.250349,0.664,0.7381,0.174
1702325183945312,-8.48042,0.903578,-5.266349,0.20864,0.18919,0.154
1702325183953125,-8.41042,0.909578,-5.374349,0.24664,0.27619,0.306
1702325183960937,-7.983042,0.939578,-5.458349,0.27464,0.28319,0.166
1702325183968750,-7.964042,0.985578,-5.550349,0.25764,0.23619,0.0
1702325183976562,-8.26042,0.942578,-5.609349,0.24164,0.5919,0.1444
1702325183984375,-8.114042,0.864578,-5.613349,0.14264,0.181,0.2404
1702325183992187,-8.80042,0.828578,-5.550349,0.19164,0.3581,0.2894
1702325184000000,-8.81042,0.877578,-5.489349,0.26964,0.6081,0.2394
1702325184007812,-8.98042,0.958578,-5.559349,0.40664,0.32119,0.974
1702325184015625,-8.31042,0.970578,-5.627349,0.50464,0.36819,0.334
1702325184023437,-7.988042,0.946578,-5.702349,0.48564,0.42219,0.0
1702325184031250,-7.935042,0.876578,-5.772349,0.51964,0.32619,0.476
1702325184039062,-7.912042,0.836578,-5.842349,0.66864,0.24319,0.946
1702325184046875,-7.963042,0.810578,-5.912349,0.94164,0.32219,0.786
1702325184054687,-8.53042,0.852578,-5.997349,0.121664,0.51019,0.1436
1702325184062500,-8.162042,0.946578,-6.115349,0.137864,0.68319,0.1596
1702325184070312,-8.226042,1.38578,-6.210349,0.154564,0.83819,0.3996
1702325184078125,-8.249042,1.148578,-6.266349,0.188864,0.84819,0.4786
1702325184085937,-8.220042,1.214578,-6.304349,0.237464,0.86619,0.6876
1702325184093750,-8.149042,1.246578,-6.320349,0.253964,0.120919,0.7826
1702325184101562,-8.16042,1.225578,-6.402349,0.295964,0.184119,0.9606
1702325184109375,-7.935042,1.217578,-6.677349,0.354664,0.218419,0.12486
1702325184117187,-7.914042,1.193578,-6.973349,0.446764,0.231119,0.14096
1702325184125000,-7.847042,1.182578,-7.242349,0.589764,0.224919,0.14546
1702325184132812,-7.703042,1.120578,-7.463349,0.775264,0.217019,0.15186
1702325184140625,-7.571042,0.970578,-7.486349,1.64,0.196519,0.18706
1702325184148437,-7.370042,0.584578,-7.366349,1.108464,0.193619,0.21756
1702325184156250,-6.968042,0.66578,-6.863349,1.87764,0.77819,0.21626
1702325184164062,-7.324042,0.100578,-7.10349,0.974764,0.87281,0.17316
1702325184171875,-7.438042,0.94422,-6.976349,0.710564,0.28219,0.16026
1702325184179687,-7.214042,0.428422,-6.865349,0.395464,0.97819,0.16806
1702325184187500,-6.942042,0.527422,-6.626349,0.251164,0.84219,0.14576
1702325184195312,-6.886042,0.395422,-6.237349,0.214664,0.29719,0.10416
1702325184203125,-6.785042,0.264422,-5.901349,0.245264,0.24519,0.8326
1702325184210937,-6.547042,0.278422,-5.745349,0.267364,0.68319,0.4316
1702325184218750,-6.380042,0.334422,-5.599349,0.317264,0.93419,0.3676
1702325184226562,-6.277042,0.335422,-5.644349,0.337664,0.84519,0.2256
1702325184234375,-6.514042,0.23578,-5.544349,0.356964,0.73919,0.2904
1702325184242187,-6.994042,0.400578,-5.639349,0.369564,0.70119,0.6764
1702325184250000,-7.819042,0.850578,-5.537349,0.303164,0.92019,0.8844
1702325184257812,-8.570042,1.67578,-5.593349,0.205164,0.118819,0.6444
1702325184265625,-9.11042,0.932578,-5.267349,0.87864,0.195319,0.5804
1702325184273437,-9.30042,0.532578,-4.897349,0.82264,0.221919,0.1324
1702325184281250,-8.683042,0.299578,-3.840349,0.201964,0.240719,0.926
1702325184289062,-8.58042,0.55422,-3.160349,0.115964,0.140819,0.456
1702325184296875,-7.405042,0.246422,-3.373349,0.24336,0.131419,0.9644
1702325184304687,-7.239042,0.122422,-3.114349,0.48036,0.163619,0.19754
1702325184312500,-7.329042,0.212578,-3.633349,0.119836,0.112919,0.26324
1702325184320312,-7.695042,0.627578,-4.466349,0.151336,0.260519,0.38364
1702325184328125,-8.572042,1.133578,-4.364349,0.3164,0.302619,0.48174
1702325184335937,-9.437042,1.7578,-4.481349,0.208364,0.59819,0.46054
1702325184343750,-9.826042,0.570578,-4.282349,0.368664,0.18019,0.39154
1702325184351562,-10.749042,0.197578,-3.378349,0.262164,0.233319,0.35974
1702325184359375,-11.561042,0.581422,-3.266349,0.7836,0.539219,0.29104
1702325184367187,-11.759042,0.970422,-3.187349,0.180836,0.924119,0.25454
1702325184375000,-11.99042,0.505422,-3.79349,0.279336,-1.67019,0.23564
1702325184382812,-10.686042,0.64422,-3.477349,0.373536,-1.113819,0.28534
1702325184390625,-10.102042,0.609578,-3.261349,0.316536,-1.105619,0.31054
1702325184398437,-10.45042,1.150578,-3.733349,0.214236,0.832219,0.39054
1702325184406250,-10.342042,1.323578,-4.566349,0.69636,0.581419,0.39554
1702325184414062,-10.87042,1.195578,-4.713349,0.44864,0.382019,0.32804
1702325184421875,-10.295042,0.934578,-5.40349,0.56264,0.205719,0.30834
1702325184429687,-10.196042,0.596578,-5.40349,0.44664,0.128019,0.28584
1702325184437500,-9.644042,0.539578,-4.490349,0.2436,0.100619,0.27444
1702325184445312,-8.703042,0.313578,-4.285349,0.20136,0.117719,0.27444
1702325184453125,-7.983042,0.284578,-4.30349,0.37664,0.125119,0.31144
1702325184460937,-7.415042,0.112422,-4.180349,0.86464,0.125419,0.37054
1702325184468750,-7.204042,0.721578,-3.767349,0.57164,0.142919,0.44294
1702325184476562,-8.200042,1.678578,-3.666349,0.19036,0.9019,0.41874
1702325184484375,-8.820042,1.416578,-3.948349,0.143736,0.166719,0.39644
1702325184492187,-8.620042,1.499578,-3.813349,0.261136,0.376019,0.32924
1702325184500000,-8.484042,1.579578,-4.491349,0.275536,0.371819,0.30194
1702325184507812,-8.564042,1.888578,-5.365349,0.200736,0.435519,0.29084
1702325184515625,-8.413042,1.967578,-5.853349,0.184936,0.525119,0.27504
1702325184523437,-8.441042,1.906578,-5.986349,0.260836,0.547719,0.25574
1702325184531250,-8.492042,1.699578,-5.999349,0.338036,0.512019,0.22844
1702325184539062,-8.579042,1.550578,-6.29349,0.378536,0.497119,0.20744
1702325184546875,-8.581042,1.395578,-5.920349,0.362036,0.498819,0.18024
1702325184554687,-8.578042,1.207578,-5.735349,0.304536,0.451219,0.16714
1702325184562500,-8.739042,0.835578,-5.550349,0.238136,0.389919,0.15284
1702325184570312,-8.948042,0.718578,-5.421349,0.205236,0.369019,0.13364
1702325184578125,-8.780042,0.568578,-5.283349,0.234236,0.372219,0.12724
1702325184585937,-8.727042,0.193578,-5.439349,0.274936,0.344119,0.13844
1702325184593750,-8.875042,0.72578,-5.721349,0.286436,0.355619,0.13514
1702325184601562,-9.48042,0.436578,-5.884349,0.291536,0.383019,0.12374
1702325184609375,-9.84042,0.683578,-5.881349,0.300036,0.410019,0.10644
1702325184617187,-8.943042,0.878578,-5.608349,0.327236,0.461819,0.9354
1702325184625000,-9.58042,0.736578,-5.394349,0.305636,0.509419,0.9534
1702325184632812,-9.28042,0.683578,-5.211349,0.262636,0.516019,0.11934
1702325184640625,-9.270042,0.841578,-5.172349,0.198336,0.508219,0.12894
1702325184648437,-9.229042,0.511578,-5.222349,0.167936,0.420719,0.12404
1702325184656250,-9.88042,0.507578,-5.143349,0.130536,0.307619,0.13504
1702325184664062,-9.376042,0.593578,-5.70349,0.57836,0.203019,0.9814
1702325184671875,-9.674042,0.900578,-5.292349,0.67336,0.198219,0.9174
1702325184679687,-10.231042,1.242578,-5.325349,0.61336,0.340519,0.8964
1702325184687500,-9.954042,1.57578,-5.127349,0.50036,0.614619,0.5364
1702325184695312,-9.415042,1.118578,-4.899349,0.64536,0.770619,0.76
1702325184703125,-9.444042,1.751578,-4.931349,0.38036,0.732119,0.2624
1702325184710937,-9.450042,1.553578,-4.964349,0.3364,0.715119,0.4704
1702325184718750,-9.523042,1.505578,-5.21349,0.10064,0.725619,0.5354
1702325184726562,-9.677042,1.531578,-5.168349,0.19836,0.782219,0.6674
1702325184742187,-9.340042,1.223578,-5.30349,0.60736,0.975919,0.4914
1702325184750000,-9.67042,1.251578,-4.881349,0.86936,0.994019,0.4884
1702325184757812,-9.283042,1.123578,-5.10349,0.102336,-1.46319,0.4754
1702325184765625,-9.190042,1.26578,-4.770349,0.120636,-1.112119,0.5114
1702325184773437,-9.435042,0.952578,-4.795349,0.133136,-1.151119,0.3994
1702325184781250,-9.390042,0.920578,-4.628349,0.146836,-1.221419,0.314
1702325184789062,-9.458042,0.691578,-4.727349,0.164336,-1.232419,0.806
1702325184796875,-9.144042,0.514578,-4.592349,0.174336,-1.261319,0.1306
1702325184804687,-9.45042,0.597578,-4.285349,0.151536,-1.212919,0.4196
