time,Acceleration X (m/s^2),Acceleration Y (m/s^2),Acceleration Z (m/s^2),Angular Velocity X (rad/s),Angular Velocity Y (rad/s),Angular Velocity Z (rad/s)
1698343812875000,-7.278585,7.063451,-0.151469,,,
1698343812882812,-7.937585,0.856169,7.178451,0.190811,0.146469,0.27425
1698343812890625,-8.411585,0.515169,7.205451,0.233111,0.156769,0.28745
1698343812898437,-8.510585,0.685169,6.968451,0.278611,0.193669,0.28155
1698343812906250,-8.343585,0.676169,6.889451,0.338311,0.255969,0.26495
1698343812914062,-7.974585,0.327169,7.410451,0.342811,0.322669,0.26475
1698343812929687,-7.398585,0.709169,7.660451,0.246511,0.307069,0.21735
1698343812937500,-6.983585,0.904169,7.714451,0.221211,0.273869,0.19165
1698343812945312,-6.464585,1.193169,7.950451,0.199211,0.231369,0.17885
1698343812953125,-6.265585,1.401169,8.25451,0.204411,0.120669,0.17935
1698343812976562,-7.83585,1.143169,7.475451,0.181811,0.87431,0.22905
1698343812984375,-7.672585,1.165169,7.252451,0.183711,0.117231,0.23105
1698343812992187,-7.706585,1.152169,7.322451,0.209011,0.65531,0.23935
1698343813000000,-7.799585,1.68169,7.511451,0.214711,0.18331,0.25295
1698343813007812,-7.763585,1.47169,7.498451,0.236911,0.11031,0.24875
1698343813015625,-7.736585,1.84169,7.448451,0.285311,0.15431,0.24755
1698343813023437,-7.719585,0.982169,7.414451,0.322111,0.531,0.21555
1698343813031250,-7.631585,0.918169,7.390451,0.363511,0.53731,0.21355
1698343813039062,-7.457585,0.860169,7.340451,0.372211,0.27231,0.19395
1698343813046875,-7.261585,1.17169,7.475451,0.367111,0.16769,0.18565
1698343813054687,-7.68585,1.171169,7.480451,0.340411,0.29769,0.18685
1698343813062500,-6.936585,1.198169,7.480451,0.331311,0.3969,0.20285
1698343813070312,-6.795585,1.247169,7.473451,0.347111,0.40031,0.19525
1698343813078125,-6.722585,1.204169,7.446451,0.345411,0.64731,0.18255
1698343813085937,-6.901585,1.240169,7.273451,0.367511,0.91031,0.17505
1698343813093750,-7.115585,1.168169,7.196451,0.386411,0.164031,0.17065
1698343813101562,-7.262585,1.203169,7.171451,0.400711,0.202431,0.15205
1698343813109375,-7.433585,1.374169,7.273451,0.417311,0.213631,0.12485
1698343813117187,-7.617585,1.515169,7.270451,0.418811,0.219531,0.10275
1698343813125000,-7.757585,1.546169,7.97451,0.383311,0.225431,0.6665
1698343813132812,-7.780585,1.451169,7.18451,0.354711,0.232631,0.3915
1698343813140625,-7.676585,1.374169,6.962451,0.321711,0.273331,0.2605
1698343813148437,-7.569585,1.337169,6.867451,0.261711,0.228931,0.2495
1698343813156250,-7.401585,1.354169,6.935451,0.189111,0.132831,0.2525
1698343813164062,-7.253585,1.345169,6.915451,0.188311,0.144431,0.5275
1698343813171875,-7.314585,1.375169,6.973451,0.245211,0.178331,0.7285
1698343813179687,-7.308585,1.464169,6.971451,0.294411,0.242931,0.9615
1698343813187500,-7.406585,1.491169,6.761451,0.330011,0.310631,0.11335
1698343813195312,-7.390585,1.655169,6.579451,0.354111,0.367331,0.13315
1698343813203125,-7.229585,1.717169,6.444451,0.358011,0.418731,0.14195
1698343813210937,-6.963585,1.775169,6.381451,0.356711,0.457731,0.14845
1698343813218750,-6.867585,1.840169,6.374451,0.357111,0.499231,0.14415
1698343813226562,-6.930585,1.863169,6.273451,0.344711,0.558231,0.13485
1698343813234375,-7.45585,1.880169,6.95451,0.325811,0.600231,0.12655
1698343813242187,-7.150585,1.864169,6.52451,0.322611,0.611731,0.12185
1698343813250000,-7.319585,1.847169,6.64451,0.325011,0.656131,0.14165
1698343813257812,-7.494585,1.841169,5.989451,0.349211,0.711931,0.15045
1698343813265625,-7.669585,1.792169,5.949451,0.373111,0.768831,0.15905
1698343813273437,-7.484585,1.727169,5.822451,0.400511,0.773031,0.17585
1698343813281250,-7.704585,1.788169,5.931451,0.398411,0.752431,0.17685
1698343813289062,-7.966585,1.832169,5.845451,0.400511,0.849031,0.17115
1698343813296875,-7.759585,1.827169,5.690451,0.394611,0.883231,0.17775
1698343813304687,-8.171585,2.49169,5.904451,0.372311,0.896331,0.16145
1698343813312500,-8.890585,2.182169,5.724451,0.382511,1.32431,0.15295
1698343813320312,-8.619585,2.37169,5.661451,0.423511,1.19731,0.15835
1698343813328125,-8.414585,2.12169,6.212451,0.389911,0.909231,0.14785
1698343813335937,-8.389585,2.121169,6.397451,0.336111,0.923531,0.12775
1698343813343750,-8.462585,2.233169,6.357451,0.326611,0.988031,0.9455
1698343813351562,-8.616585,2.271169,6.300451,0.327711,1.46631,0.6255
1698343813359375,-8.992585,2.239169,6.291451,0.324111,1.69131,0.3995
1698343813367187,-9.305585,2.228169,6.212451,0.319111,1.89031,0.1755
1698343813375000,-9.591585,2.142169,6.39451,0.328411,1.77431,0.1755
1698343813382812,-9.548585,2.72169,5.863451,0.350611,1.37231,0.2905
1698343813390625,-9.140585,2.179169,5.832451,0.371911,0.956231,0.3325
1698343813398437,-8.915585,2.175169,5.821451,0.360711,0.926931,0.3145
1698343813406250,-8.904585,2.193169,5.643451,0.381211,0.985931,0.1595
1698343813414062,-8.791585,2.147169,5.343451,0.403411,1.81531,0.1655
1698343813421875,-8.553585,2.141169,5.122451,0.392911,1.103631,0.2015
1698343813429687,-8.433585,2.139169,4.881451,0.348611,1.62631,0.1605
1698343813437500,-8.466585,2.34169,4.640451,0.314311,1.14931,0.1265
1698343813445312,-8.545585,1.963169,4.451451,0.300911,0.972831,0.1005
1698343813453125,-8.522585,1.893169,4.402451,0.321511,0.937531,0.1365
1698343813460937,-8.353585,1.871169,4.480451,0.336511,0.933531,0.55
1698343813468750,-8.302585,1.894169,4.548451,0.326911,0.961631,0.2505
1698343813476562,-8.353585,1.891169,4.397451,0.309611,1.7931,0.4735
1698343813484375,-8.414585,1.907169,4.206451,0.314211,1.41631,0.5375
1698343813492187,-8.535585,1.984169,4.131451,0.323711,1.8431,0.5825
1698343813500000,-8.687585,2.113169,4.176451,0.322811,0.979331,0.6865
1698343813507812,-8.840585,2.229169,4.217451,0.324511,0.981631,0.7635
1698343813515625,-9.2585,2.245169,4.235451,0.332511,0.989631,0.6825
1698343813523437,-9.83585,2.273169,4.208451,0.331011,0.997431,0.5705
1698343813531250,-9.94585,2.262169,4.118451,0.310511,0.969631,0.5425
1698343813539062,-9.119585,2.286169,3.976451,0.293411,0.941731,0.4175
1698343813546875,-9.121585,2.271169,3.789451,0.282811,0.935831,0.3205
1698343813554687,-9.80585,2.237169,3.614451,0.273111,0.923931,0.3245
1698343813562500,-8.984585,2.286169,3.474451,0.271911,0.937531,0.3055
1698343813570312,-8.964585,2.428169,3.379451,0.271511,0.930331,0.3405
1698343813578125,-9.44585,2.540169,3.328451,0.285511,0.930331,0.3715
1698343813585937,-9.103585,2.556169,3.274451,0.288411,0.941831,0.5315
1698343813593750,-9.136585,2.488169,3.224451,0.279011,0.940731,0.6435
1698343813601562,-9.177585,2.384169,3.118451,0.272211,0.940331,0.8065
1698343813609375,-9.174585,2.340169,3.26451,0.265711,0.916131,0.8885
1698343813617187,-9.253585,2.228169,2.931451,0.248311,0.905931,0.8925
1698343813625000,-9.254585,2.188169,2.778451,0.254311,0.892731,0.9255
1698343813632812,-9.254585,2.183169,2.681451,0.273111,0.868431,0.9235
1698343813640625,-9.240585,2.125169,2.668451,0.292011,0.858731,0.8895
1698343813648437,-9.166585,2.162169,2.629451,0.299911,0.868531,0.8885
1698343813656250,-9.138585,2.235169,2.575451,0.284411,0.882931,0.7775
1698343813664062,-9.153585,2.295169,2.458451,0.276611,0.917231,0.8405
1698343813671875,-9.199585,2.353169,2.337451,0.265911,0.914231,0.7765
1698343813679687,-9.269585,2.385169,2.240451,0.259811,0.922931,0.7905
1698343813687500,-9.337585,2.460169,2.161451,0.264311,0.925731,0.8245
1698343813695312,-9.436585,2.448169,2.94451,0.257911,0.917531,0.8415
1698343813703125,-9.492585,2.444169,2.46451,0.254711,0.910831,0.8265
1698343813710937,-9.543585,2.403169,1.949451,0.242311,0.908131,0.8425
1698343813718750,-9.574585,2.341169,1.816451,0.226611,0.905031,0.8925
1698343813726562,-9.553585,2.307169,1.672451,0.202611,0.883331,0.9305
1698343813734375,-9.538585,2.241169,1.598451,0.196111,0.871531,0.9335
1698343813742187,-9.538585,2.198169,1.521451,0.198111,0.883631,0.9305
1698343813750000,-9.576585,2.184169,1.512451,0.196211,0.869831,0.9175
1698343813757812,-9.632585,2.202169,1.533451,0.199411,0.863831,0.9485
1698343813765625,-9.720585,2.177169,1.569451,0.202211,0.857531,0.11085
1698343813773437,-9.761585,2.117169,1.589451,0.203611,0.850931,0.11575
1698343813781250,-9.835585,2.61169,1.510451,0.199011,0.838531,0.12045
1698343813789062,-9.836585,1.972169,1.424451,0.195611,0.829731,0.11915
1698343813796875,-9.832585,1.921169,1.334451,0.201811,0.816431,0.11285
1698343813804687,-9.803585,1.898169,1.201451,0.201911,0.795031,0.10335
1698343813812500,-9.844585,1.795169,1.78451,0.198811,0.781631,0.9235
1698343813820312,-9.764585,1.991169,0.976451,0.223611,0.757131,0.9855
1698343813828125,-9.654585,1.989169,0.882451,0.205011,0.751631,0.10655
1698343813835937,-9.721585,1.848169,0.760451,0.230111,0.775031,0.9205
1698343813843750,-9.733585,1.899169,0.780451,0.255111,0.796231,0.10125
1698343813851562,-9.671585,1.796169,0.722451,0.240911,0.798631,0.11885
1698343813859375,-9.591585,1.844169,0.728451,0.234111,0.759231,0.13055
1698343813867187,-9.523585,1.820169,0.755451,0.223111,0.741431,0.12915
1698343813875000,-9.539585,1.712169,0.713451,0.222811,0.742931,0.13885
1698343813882812,-9.539585,1.710169,0.672451,0.235711,0.773031,0.14465
1698343813890625,-9.835585,1.672169,0.607451,0.261211,0.791731,0.11715
1698343813898437,-10.23585,1.777169,0.587451,0.272111,0.747431,0.10285
1698343813906250,-10.27585,1.837169,0.557451,0.268711,0.698431,0.10485
1698343813914062,-9.947585,1.809169,0.460451,0.254111,0.666331,0.10075
1698343813921875,-9.850585,1.768169,0.276451,0.248411,0.667331,0.9085
1698343813929687,-9.830585,1.772169,0.116451,0.268711,0.670631,0.9375
1698343813937500,-9.907585,1.786169,0.8451,0.270511,0.662931,0.9205
1698343813945312,-9.954585,1.789169,0.27549,0.270211,0.655831,0.9385
1698343813953125,-9.990585,1.819169,0.72549,0.266911,0.640931,0.9245
1698343813960937,-9.989585,1.863169,0.113549,0.254111,0.619731,0.9755
1698343813968750,-9.996585,1.923169,0.162549,0.244111,0.584531,0.10155
1698343813976562,-10.28585,1.928169,0.183549,0.227011,0.574131,0.10945
1698343813984375,-10.136585,1.907169,0.234549,0.205411,0.559631,0.9515
1698343813992187,-10.318585,1.797169,0.277549,0.206911,0.540131,0.9365
1698343814000000,-10.399585,1.769169,0.358549,0.192911,0.533131,0.7955
1698343814007812,-10.421585,1.749169,0.469549,0.207311,0.518731,0.6805
1698343814015625,-10.311585,1.746169,0.552549,0.215011,0.513331,0.6335
1698343814023437,-10.133585,1.761169,0.638549,0.192611,0.496131,0.6565
1698343814031250,-9.983585,1.618169,0.752549,0.161211,0.488531,0.7235
1698343814039062,-9.926585,1.558169,0.816549,0.155011,0.456131,0.6445
1698343814046875,-9.910585,1.553169,0.795549,0.184911,0.438031,0.5295
1698343814054687,-9.905585,1.537169,0.728549,0.225911,0.461231,0.5865
1698343814062500,-9.883585,1.544169,0.633549,0.228911,0.464331,0.5865
1698343814070312,-9.845585,1.570169,0.642549,0.250711,0.465731,0.6325
1698343814078125,-9.763585,1.644169,0.683549,0.265911,0.456131,0.8725
1698343814085937,-9.675585,1.618169,0.687549,0.235811,0.424931,0.8955
1698343814093750,-9.693585,1.618169,0.705549,0.231111,0.407631,0.9585
1698343814101562,-9.851585,1.672169,0.651549,0.240211,0.376131,0.9455
1698343814109375,-9.975585,1.694169,0.559549,0.235111,0.349331,0.9665
1698343814117187,-10.46585,1.741169,0.520549,0.226211,0.357031,0.9465
1698343814125000,-10.78585,1.791169,0.550549,0.221411,0.373031,0.9635
1698343814132812,-10.62585,1.790169,0.631549,0.218211,0.395331,0.9485
1698343814140625,-9.970585,1.822169,0.775549,0.220011,0.418631,0.9615
1698343814148437,-9.860585,1.818169,0.879549,0.223111,0.418131,0.9145
1698343814156250,-9.754585,1.796169,0.962549,0.212911,0.410831,0.6865
1698343814164062,-9.701585,1.820169,-1.14549,0.197111,0.392631,0.6745
1698343814171875,-9.585585,1.738169,-1.47549,0.176611,0.365231,0.6935
1698343814179687,-9.559585,1.703169,-1.47549,0.193711,0.323431,0.4885
1698343814187500,-9.619585,1.785169,0.991549,0.184211,0.302531,0.5375
1698343814195312,-9.780585,1.748169,0.953549,0.180911,0.305531,0.5715
1698343814203125,-9.942585,1.748169,0.856549,0.180911,0.292931,0.6025
1698343814210937,-10.13585,1.707169,0.791549,0.172811,0.291031,0.6535
1698343814218750,-9.993585,1.667169,0.852549,0.164911,0.285931,0.6715
1698343814226562,-9.927585,1.633169,-1.2549,0.151011,0.284631,0.6075
1698343814234375,-9.938585,1.651169,-1.135549,0.154211,0.261631,0.5125
1698343814242187,-9.896585,1.661169,-1.255549,0.150811,0.252931,0.4985
1698343814250000,-9.739585,1.577169,-1.347549,0.144511,0.231831,0.4685
1698343814257812,-9.619585,1.612169,-1.300549,0.144411,0.207431,0.4695
1698343814265625,-9.549585,1.589169,-1.232549,0.130411,0.194631,0.4545
1698343814273437,-9.535585,1.576169,-1.140549,0.136711,0.187731,0.3595
1698343814281250,-9.526585,1.571169,-1.90549,0.135011,0.179531,0.3755
1698343814289062,-9.525585,1.531169,-1.50549,0.134811,0.179431,0.4415
1698343814296875,-9.501585,1.517169,-1.72549,0.141411,0.185031,0.4695
1698343814304687,-9.495585,1.491169,-1.124549,0.142511,0.188731,0.4575
1698343814312500,-9.500585,1.475169,-1.131549,0.166111,0.195831,0.5485
1698343814320312,-9.547585,1.496169,-1.104549,0.164811,0.191331,0.4995
1698343814328125,-9.581585,1.479169,-1.45549,0.169111,0.189231,0.6135
1698343814335937,-9.602585,1.525169,0.982549,0.152211,0.206531,0.6915
1698343814343750,-9.581585,1.494169,-1.81549,0.145811,0.232431,0.7235
1698343814351562,-9.590585,1.506169,-1.189549,0.153411,0.236431,0.6775
1698343814359375,-9.570585,1.543169,-1.210549,0.169511,0.233631,0.5935
1698343814367187,-9.649585,1.513169,-1.235549,0.185411,0.266331,0.5895
1698343814375000,-9.703585,1.556169,-1.198549,0.177411,0.254731,0.5915
1698343814382812,-9.615585,1.533169,-1.205549,0.156711,0.223731,0.6285
1698343814390625,-9.536585,1.531169,-1.230549,0.159911,0.200131,0.4225
1698343814398437,-9.556585,1.523169,-1.255549,0.161811,0.197031,0.3095
1698343814406250,-9.602585,1.528169,-1.271549,0.150711,0.184131,0.3425
1698343814414062,-9.642585,1.553169,-1.302549,0.131711,0.175031,0.2205
1698343814421875,-9.645585,1.555169,-1.329549,0.127311,0.177231,0.2025
1698343814429687,-9.620585,1.553169,-1.334549,0.132011,0.175731,0.2015
1698343814437500,-9.565585,1.492169,-1.374549,0.122611,0.157931,0.2195
1698343814445312,-9.511585,1.458169,-1.340549,0.133511,0.136731,0.1705
1698343814453125,-9.502585,1.462169,-1.338549,0.122711,0.133431,0.1075
1698343814460937,-9.524585,1.460169,-1.347549,0.117911,0.130031,0.1095
1698343814468750,-9.524585,1.473169,-1.390549,0.119411,0.142831,0.935
1698343814476562,-9.520585,1.496169,-1.451549,0.114911,0.156031,0.925
1698343814484375,-9.529585,1.489169,-1.534549,0.105611,0.161031,0.765
1698343814492187,-9.545585,1.489169,-1.586549,0.110111,0.165531,0.1255
1698343814500000,-9.583585,1.487169,-1.635549,0.99311,0.161131,0.925
1698343814507812,-9.599585,1.499169,-1.714549,0.92911,0.149331,0.795
1698343814515625,-9.632585,1.499169,-1.784549,0.97611,0.133331,0.955
1698343814523437,-9.664585,1.491169,-1.813549,0.102311,0.107031,0.165
1698343814531250,-9.666585,1.502169,-1.809549,0.100411,0.87131,0.25
1698343814539062,-9.668585,1.471169,-1.775549,0.106811,0.80831,0.175
1698343814546875,-9.666585,1.460169,-1.746549,0.108411,0.84631,0.795
1698343814554687,-9.657585,1.449169,-1.696549,0.111611,0.81031,0.0
1698343814562500,-9.652585,1.451169,-1.676549,0.111811,0.92831,0.185
1698343814570312,-9.620585,1.435169,-1.656549,0.105111,0.87231,0.665
1698343814578125,-9.564585,1.412169,-1.676549,0.111311,0.93631,0.815
1698343814585937,-9.526585,1.416169,-1.712549,0.111611,0.92531,0.155
1698343814593750,-9.528585,1.451169,-1.723549,0.116311,0.92531,0.315
1698343814601562,-9.551585,1.463169,-1.719549,0.114411,0.90331,0.655
1698343814609375,-9.567585,1.481169,-1.721549,0.107811,0.78631,0.1325
1698343814617187,-9.583585,1.496169,-1.728549,0.103211,0.68931,0.1175
1698343814625000,-9.617585,1.503169,-1.730549,0.104911,0.74331,0.1305
1698343814632812,-9.624585,1.510169,-1.734549,0.101511,0.60931,0.1495
1698343814640625,-9.615585,1.523169,-1.746549,0.98611,0.69431,0.1645
1698343814648437,-9.608585,1.504169,-1.780549,0.101211,0.60631,0.2315
1698343814656250,-9.599585,1.525169,-1.804549,0.93811,0.61331,0.1495
1698343814664062,-9.598585,1.503169,-1.791549,0.93411,0.50431,0.1375
1698343814671875,-9.590585,1.494169,-1.768549,0.92211,0.36731,0.1025
1698343814679687,-9.574585,1.487169,-1.730549,0.94011,0.25531,0.215
1698343814687500,-9.558585,1.494169,-1.707549,0.92311,0.18431,0.235
1698343814695312,-9.547585,1.505169,-1.705549,0.87411,0.20131,0.405
1698343814703125,-9.533585,1.480169,-1.712549,0.84411,0.18531,0.65
1698343814710937,-9.525585,1.500169,-1.710549,0.91111,0.21131,0.435
1698343814718750,-9.531585,1.491169,-1.689549,0.89211,0.16831,0.875
1698343814726562,-9.506585,1.460169,-1.689549,0.87411,0.1731,0.695
1698343814734375,-9.526585,1.444169,-1.694549,0.75011,0.7369,0.535
1698343814742187,-9.552585,1.414169,-1.732549,0.66911,0.11469,0.975
1698343814750000,-9.566585,1.418169,-1.775549,0.68811,0.11069,0.1635
1698343814757812,-9.550585,1.423169,-1.820549,0.67211,0.9369,0.1155
1698343814765625,-9.544585,1.420169,-1.827549,0.69011,0.10569,0.1655
1698343814773437,-9.564585,1.414169,-1.827549,0.67011,0.12569,0.505
1698343814781250,-9.578585,1.443169,-1.795549,0.68611,0.20969,0.985
1698343814789062,-9.555585,1.445169,-1.759549,0.67111,0.30469,0.1305
1698343814796875,-9.528585,1.462169,-1.739549,0.68511,0.24069,0.505
1698343814804687,-9.515585,1.447169,-1.741549,0.65111,0.26169,0.155
1698343814812500,-9.513585,1.460169,-1.753549,0.65411,0.30269,0.345
1698343814820312,-9.524585,1.469169,-1.705549,0.71511,0.30769,0.495
1698343814828125,-9.513585,1.480169,-1.631549,0.74811,0.28669,0.195
1698343814835937,-9.495585,1.497169,-1.611549,0.69911,0.26069,0.165
1698343814843750,-9.484585,1.493169,-1.642549,0.70011,0.16069,0.345
1698343814851562,-9.486585,1.502169,-1.714549,0.67111,0.7669,0.515
1698343814859375,-9.469585,1.526169,-1.782549,0.68511,0.3269,0.495
1698343814867187,-9.466585,1.526169,-1.798549,0.68711,0.331,0.675
1698343814875000,-9.494585,1.519169,-1.743549,0.84711,0.169,0.255
1698343814882812,-9.500585,1.513169,-1.701549,0.75211,0.2169,0.395
1698343814890625,-9.498585,1.506169,-1.680549,0.70211,0.1169,0.195
1698343814898437,-9.484585,1.501169,-1.692549,0.68711,0.5769,0.365
1698343814906250,-9.466585,1.495169,-1.707549,0.71711,0.2969,0.195
1698343814914062,-9.489585,1.506169,-1.730549,0.70211,0.3631,0.355
1698343814921875,-9.530585,1.520169,-1.730549,0.78311,0.2631,0.715
1698343814929687,-9.548585,1.522169,-1.725549,0.84911,0.7631,0.1695
1698343814937500,-9.550585,1.549169,-1.719549,0.81411,0.10869,0.1495
1698343814945312,-9.557585,1.545169,-1.703549,0.68811,0.10669,0.1005
1698343814953125,-9.543585,1.538169,-1.701549,0.76511,0.12669,0.845
1698343814960937,-9.523585,1.529169,-1.716549,0.68711,0.10769,0.685
1698343814968750,-9.502585,1.513169,-1.730549,0.65511,0.9469,0.665
1698343814976562,-9.493585,1.497169,-1.748549,0.74911,0.331,0.685
1698343814984375,-9.482585,1.486169,-1.766549,0.75211,0.4231,0.555
1698343814992187,-9.477585,1.468169,-1.795549,0.65811,0.869,0.1335
1698343815000000,-9.482585,1.479169,-1.807549,0.70511,0.4069,0.1015
1698343815007812,-9.484585,1.488169,-1.795549,0.73611,0.631,0.1175
1698343815015625,-9.493585,1.490169,-1.771549,0.73611,0.7369,0.1335
1698343815023437,-9.524585,1.493169,-1.741549,0.71811,0.6069,0.845
1698343815031250,-9.543585,1.491169,-1.723549,0.73711,0.7069,0.865
1698343815039062,-9.547585,1.494169,-1.707549,0.79711,0.3731,0.695
1698343815046875,-9.547585,1.487169,-1.743549,0.82911,0.18631,0.235
1698343815054687,-9.536585,1.489169,-1.795549,0.78311,0.15531,0.395
1698343815062500,-9.549585,1.482169,-1.809549,0.82911,0.21731,0.235
1698343815070312,-9.549585,1.487169,-1.816549,0.78411,0.12631,0.405
1698343815078125,-9.527585,1.498169,-1.791549,0.78011,0.1169,0.45
1698343815085937,-9.500585,1.502169,-1.786549,0.75011,0.4131,0.265
1698343815093750,-9.476585,1.512169,-1.789549,0.73511,0.7069,0.65
1698343815101562,-9.473585,1.521169,-1.746549,0.68611,0.2369,0.595
1698343815109375,-9.462585,1.508169,-1.730549,0.91911,0.3931,0.1215
1698343815117187,-9.451585,1.512169,-1.714549,0.85811,0.1369,0.375
1698343815125000,-9.451585,1.519169,-1.712549,0.87511,0.8631,0.225
1698343815132812,-9.471585,1.512169,-1.716549,0.81311,0.11931,0.385
1698343815140625,-9.482585,1.508169,-1.716549,0.92311,0.18431,0.235
1698343815148437,-9.473585,1.510169,-1.712549,0.87211,0.19131,0.195
1698343815156250,-9.455585,1.499169,-1.728549,0.92411,0.23531,0.415
1698343815164062,-9.453585,1.505169,-1.743549,0.87511,0.16631,0.545
1698343815171875,-9.452585,1.515169,-1.757549,0.73011,0.22131,0.165
1698343815179687,-9.459585,1.481169,-1.807549,0.92311,0.23231,0.395
1698343815187500,-9.443585,1.485169,-1.809549,0.92111,0.24531,0.225
1698343815195312,-9.435585,1.494169,-1.829549,0.93911,0.26631,0.405
1698343815203125,-9.432585,1.494169,-1.813549,0.92211,0.26331,0.235
1698343815210937,-9.451585,1.501169,-1.784549,0.94311,0.38831,0.445
1698343815218750,-9.455585,1.517169,-1.764549,0.92311,0.41231,0.85
1698343815226562,-9.478585,1.528169,-1.739549,0.92011,0.47731,0.1365
1698343815234375,-9.471585,1.528169,-1.752549,0.92311,0.56231,0.865
1698343815242187,-9.485585,1.535169,-1.773549,0.93711,0.62631,0.1345
1698343815250000,-9.465585,1.536169,-1.802549,0.92411,0.56931,0.1795
1698343815257812,-9.458585,1.554169,-1.834549,0.93611,0.44431,0.1365
1698343815265625,-9.443585,1.560169,-1.852549,0.95611,0.37231,0.845
1698343815273437,-9.453585,1.545169,-1.854549,0.93811,0.28131,0.245
1698343815281250,-9.453585,1.550169,-1.847549,0.96911,0.21431,0.235
1698343815289062,-9.458585,1.556169,-1.813549,0.92511,0.20631,0.265
1698343815296875,-9.485585,1.555169,-1.804549,0.93911,0.26831,0.65
1698343815304687,-9.485585,1.561169,-1.804549,0.92111,0.23031,0.65
1698343815312500,-9.487585,1.566169,-1.838549,0.90711,0.23431,0.85
1698343815320312,-9.508585,1.555169,-1.901549,0.93911,0.28631,0.545
1698343815328125,-9.527585,1.551169,-1.935549,0.90511,0.26331,0.255
1698343815335937,-9.548585,1.562169,-1.953549,0.88711,0.9631,0.115
1698343815343750,-9.540585,1.498169,-1.962549,0.90711,0.18631,0.235
1698343815351562,-9.509585,1.497169,-1.991549,0.81211,0.15031,0.55
1698343815359375,-9.527585,1.500169,-2.23549,0.76411,0.5231,0.45
1698343815367187,-9.543585,1.507169,-2.20549,0.71911,0.2269,0.55
1698343815375000,-9.547585,1.496169,-2.5549,0.76111,0.2769,0.1245
1698343815382812,-9.541585,1.507169,-2.9549,0.74811,0.3869,0.1225
1698343815390625,-9.527585,1.502169,-2.23549,0.68211,0.12669,0.1265
1698343815398437,-9.527585,1.495169,-2.25549,0.74811,0.15669,0.35
1698343815406250,-9.543585,1.502169,-2.2549,0.73211,0.22069,0.285
1698343815414062,-9.538585,1.498169,-1.998549,0.73211,0.16969,0.595
1698343815421875,-9.543585,1.493169,-1.998549,0.74911,0.25169,0.45
1698343815429687,-9.570585,1.496169,-2.14549,0.68511,0.35169,0.345
1698343815437500,-9.554585,1.478169,-2.2549,0.68611,0.44669,0.355
1698343815445312,-9.533585,1.464169,-1.998549,0.66911,0.51369,0.15
1698343815453125,-9.515585,1.466169,-1.989549,0.67111,0.45969,0.205
1698343815460937,-9.497585,1.462169,-1.960549,0.68411,0.51769,0.325
1698343815468750,-9.477585,1.457169,-1.953549,0.66511,0.53469,0.805
1698343815476562,-9.475585,1.459169,-1.957549,0.65411,0.52669,0.25
1698343815484375,-9.488585,1.466169,-1.926549,0.62111,0.67569,0.0
1698343815492187,-9.502585,1.473169,-1.901549,0.69811,0.61569,0.165
1698343815500000,-9.517585,1.462169,-1.876549,0.74511,0.61769,0.325
1698343815507812,-9.526585,1.478169,-1.852549,0.66511,0.66769,0.145
1698343815515625,-9.525585,1.497169,-1.858549,0.68511,0.67669,0.335
1698343815523437,-9.525585,1.498169,-1.906549,0.65011,0.61769,0.15
1698343815531250,-9.531585,1.498169,-1.942549,0.66611,0.71569,0.145
1698343815539062,-9.561585,1.525169,-1.957549,0.68211,0.81069,0.315
1698343815546875,-9.568585,1.527169,-1.948549,0.68111,0.84469,0.145
1698343815554687,-9.566585,1.534169,-1.917549,0.65111,0.95469,0.155
1698343815562500,-9.557585,1.538169,-1.901549,0.55611,0.107069,0.285
1698343815570312,-9.527585,1.524169,-1.870549,0.49211,0.115469,0.425
1698343815578125,-9.518585,1.531169,-1.843549,0.53811,0.110669,0.105
1698343815585937,-9.500585,1.517169,-1.840549,0.54111,0.111969,0.925
1698343815593750,-9.493585,1.506169,-1.858549,0.54211,0.111869,0.935
1698343815601562,-9.504585,1.504169,-1.865549,0.47611,0.119069,0.1055
1698343815609375,-9.520585,1.513169,-1.863549,0.49411,0.115269,0.1075
1698343815617187,-9.525585,1.529169,-1.849549,0.52311,0.123969,0.1215
1698343815625000,-9.518585,1.526169,-1.852549,0.42811,0.138569,0.715
1698343815632812,-9.525585,1.529169,-1.840549,0.49011,0.137069,0.555
1698343815640625,-9.530585,1.535169,-1.836549,0.50811,0.136569,0.1065
1698343815648437,-9.555585,1.540169,-1.816549,0.46011,0.138369,0.725
1698343815656250,-9.546585,1.551169,-1.800549,0.44511,0.133469,0.895
1698343815664062,-9.532585,1.551169,-1.768549,0.42811,0.138569,0.1035
1698343815671875,-9.534585,1.538169,-1.764549,0.41511,0.133469,0.1535
1698343815679687,-9.534585,1.538169,-1.752549,0.45911,0.134169,0.1505
1698343815687500,-9.527585,1.547169,-1.739549,0.49111,0.129269,0.1515
1698343815695312,-9.510585,1.533169,-1.710549,0.39911,0.134969,0.1215
1698343815703125,-9.478585,1.537169,-1.689549,0.42911,0.141969,0.1835
1698343815710937,-9.471585,1.539169,-1.667549,0.41511,0.146469,0.1855
1698343815718750,-9.465585,1.548169,-1.631549,0.50711,0.140369,0.1365
1698343815726562,-9.451585,1.543169,-1.608549,0.56711,0.139269,0.1025
1698343815734375,-9.456585,1.555169,-1.577549,0.47211,0.134269,0.535
1698343815742187,-9.454585,1.563169,-1.568549,0.47411,0.124169,0.395
1698343815750000,-9.460585,1.566169,-1.559549,0.52111,0.119169,0.85
1698343815757812,-9.472585,1.566169,-1.550549,0.50611,0.115769,0.255
1698343815765625,-9.492585,1.568169,-1.559549,0.54211,0.106769,0.455
1698343815773437,-9.499585,1.562169,-1.566549,0.52611,0.107069,0.925
1698343815781250,-9.526585,1.564169,-1.570549,0.46511,0.101669,0.945
1698343815789062,-9.525585,1.564169,-1.581549,0.44411,0.109569,0.1045
1698343815796875,-9.510585,1.562169,-1.584549,0.41211,0.107869,0.715
1698343815804687,-9.508585,1.568169,-1.586549,0.43211,0.107269,0.1395
1698343815812500,-9.504585,1.588169,-1.561549,0.43311,0.112069,0.1555
1698343815820312,-9.504585,1.595169,-1.563549,0.43211,0.110169,0.1085
1698343815828125,-9.508585,1.586169,-1.523549,0.55611,0.112369,0.1235
1698343815835937,-9.521585,1.578169,-1.507549,0.55511,0.109069,0.755
1698343815843750,-9.528585,1.591169,-1.487549,0.61711,0.102469,0.125
1698343815851562,-9.531585,1.595169,-1.489549,0.57111,0.107269,0.605
1698343815859375,-9.511585,1.599169,-1.473549,0.49211,0.107069,0.45
1698343815867187,-9.501585,1.579169,-1.491549,0.49311,0.104169,0.755
1698343815875000,-9.508585,1.582169,-1.539549,0.57011,0.107569,0.755
1698343815882812,-9.521585,1.584169,-1.557549,0.66611,0.91269,0.935
1698343815890625,-9.517585,1.586169,-1.575549,0.59111,0.97169,0.1435
1698343815898437,-9.542585,1.596169,-1.566549,0.66611,0.102569,0.1255
1698343815906250,-9.537585,1.591169,-1.561549,0.65011,0.102569,0.935
1698343815914062,-9.549585,1.593169,-1.548549,0.57111,0.107269,0.605
1698343815921875,-9.569585,1.600169,-1.523549,0.49411,0.108869,0.1075
1698343815929687,-9.573585,1.592169,-1.489549,0.52611,0.110369,0.1245
1698343815937500,-9.555585,1.578169,-1.471549,0.54011,0.105769,0.1075
1698343815945312,-9.542585,1.575169,-1.446549,0.54411,0.100269,0.1265
1698343815953125,-9.535585,1.567169,-1.482549,0.47811,0.92469,0.445
1698343815960937,-9.521585,1.573169,-1.523549,0.52311,0.86769,0.575
1698343815968750,-9.494585,1.575169,-1.541549,0.60511,0.87469,0.625
1698343815976562,-9.490585,1.573169,-1.534549,0.63311,0.94369,0.125
1698343815984375,-9.497585,1.577169,-1.496549,0.68211,0.85769,0.165
1698343815992187,-9.515585,1.580169,-1.446549,0.66311,0.89569,0.675
1698343816000000,-9.531585,1.591169,-1.412549,0.68211,0.89269,0.305
1698343816007812,-9.569585,1.603169,-1.383549,0.66411,0.84269,0.815
1698343816015625,-9.576585,1.605169,-1.381549,0.67911,0.86269,0.505
1698343816023437,-9.580585,1.614169,-1.388549,0.66711,0.82569,0.155
1698343816031250,-9.583585,1.629169,-1.403549,0.68411,0.75769,0.165
1698343816039062,-9.581585,1.627169,-1.408549,0.71511,0.69269,0.15
1698343816046875,-9.558585,1.618169,-1.415549,0.65011,0.69769,0.175
1698343816054687,-9.522585,1.604169,-1.406549,0.65311,0.67569,0.175
1698343816062500,-9.506585,1.595169,-1.401549,0.63811,0.62669,0.335
1698343816070312,-9.508585,1.586169,-1.381549,0.69811,0.74469,0.155
1698343816078125,-9.510585,1.582169,-1.361549,0.68011,0.79969,0.295
1698343816085937,-9.508585,1.584169,-1.338549,0.69811,0.79469,0.155
1698343816093750,-9.515585,1.582169,-1.300549,0.71711,0.75469,0.345
1698343816101562,-9.526585,1.589169,-1.282549,0.65111,0.59769,0.155
1698343816109375,-9.531585,1.593169,-1.273549,0.73211,0.54569,0.185
1698343816117187,-9.540585,1.598169,-1.293549,0.74711,0.36969,0.25
1698343816125000,-9.556585,1.605169,-1.327549,0.73311,0.36669,0.195
1698343816132812,-9.551585,1.607169,-1.347549,0.77911,0.30069,0.595
1698343816140625,-9.535585,1.602169,-1.361549,0.70211,0.37969,0.115
1698343816148437,-9.540585,1.604169,-1.361549,0.66911,0.41169,0.925
1698343816156250,-9.544585,1.598169,-1.365549,0.68411,0.44869,0.135
1698343816164062,-9.540585,1.605169,-1.363549,0.66611,0.46769,0.955
1698343816171875,-9.544585,1.596169,-1.361549,0.68011,0.41069,0.185
1698343816179687,-9.540585,1.591169,-1.367549,0.71611,0.38269,0.125
1698343816187500,-9.560585,1.592169,-1.365549,0.69711,0.41869,0.1115
1698343816195312,-9.564585,1.589169,-1.381549,0.68411,0.28669,0.455
1698343816203125,-9.553585,1.580169,-1.399549,0.69811,0.29169,0.635
1698343816210937,-9.544585,1.591169,-1.412549,0.66911,0.31769,0.615
1698343816218750,-9.562585,1.578169,-1.421549,0.66811,0.31669,0.1095
1698343816226562,-9.566585,1.578169,-1.421549,0.71511,0.28469,0.1245
1698343816234375,-9.580585,1.576169,-1.415549,0.80811,0.25369,0.1245
1698343816242187,-9.589585,1.594169,-1.390549,0.80811,0.33169,0.1555
1698343816250000,-9.596585,1.592169,-1.379549,0.80911,0.36669,0.765
1698343816257812,-9.591585,1.585169,-1.365549,0.79511,0.36169,0.905
1698343816265625,-9.591585,1.587169,-1.356549,0.80711,0.41569,0.1405
1698343816273437,-9.591585,1.590169,-1.356549,0.82411,0.36869,0.925
1698343816281250,-9.573585,1.603169,-1.363549,0.79011,0.35869,0.1115
1698343816289062,-9.540585,1.609169,-1.367549,0.76111,0.39869,0.1255
1698343816296875,-9.540585,1.611169,-1.358549,0.77711,0.28469,0.1405
1698343816304687,-9.531585,1.606169,-1.372549,0.77911,0.24969,0.905
1698343816312500,-9.526585,1.609169,-1.388549,0.76011,0.33469,0.1415
1698343816320312,-9.529585,1.602169,-1.379549,0.76211,0.38269,0.925
1698343816328125,-9.533585,1.598169,-1.349549,0.68211,0.37169,0.795
1698343816335937,-9.540585,1.598169,-1.334549,0.71511,0.31869,0.775
1698343816343750,-9.539585,1.582169,-1.318549,0.77611,0.30769,0.465
1698343816351562,-9.560585,1.581169,-1.320549,0.69911,0.25669,0.305
1698343816359375,-9.562585,1.583169,-1.334549,0.66511,0.27669,0.965
1698343816367187,-9.542585,1.582169,-1.331549,0.68211,0.32369,0.315
1698343816375000,-9.544585,1.569169,-1.331549,0.76411,0.28669,0.195
1698343816382812,-9.535585,1.576169,-1.318549,0.76311,0.30469,0.355
1698343816390625,-9.525585,1.571169,-1.322549,0.75711,0.27969,0.1125
1698343816398437,-9.528585,1.562169,-1.329549,0.76311,0.19169,0.125
1698343816406250,-9.526585,1.569169,-1.336549,0.71411,0.22769,0.15
1698343816414062,-9.532585,1.571169,-1.363549,0.74311,0.24569,0.1125
1698343816421875,-9.546585,1.571169,-1.365549,0.74811,0.15669,0.285
1698343816429687,-9.564585,1.565169,-1.361549,0.79311,0.17869,0.185
1698343816437500,-9.593585,1.561169,-1.347549,0.77811,0.22569,0.345
1698343816445312,-9.611585,1.564169,-1.331549,0.79411,0.12569,0.125
1698343816453125,-9.616585,1.570169,-1.327549,0.76311,0.16069,0.185
1698343816460937,-9.607585,1.584169,-1.349549,0.74511,0.14869,0.155
1698343816468750,-9.584585,1.585169,-1.367549,0.73011,0.9669,0.625
1698343816476562,-9.564585,1.585169,-1.410549,0.76411,0.12469,0.205
1698343816484375,-9.564585,1.585169,-1.415549,0.72711,0.18469,0.175
1698343816492187,-9.553585,1.578169,-1.410549,0.66611,0.24669,0.175
1698343816500000,-9.546585,1.578169,-1.379549,0.82011,0.31669,0.495
1698343816507812,-9.530585,1.585169,-1.372549,0.77411,0.29469,0.1125
1698343816515625,-9.526585,1.578169,-1.338549,0.70011,0.28769,0.295
1698343816523437,-9.546585,1.576169,-1.329549,0.71311,0.33869,0.1115
1698343816531250,-9.566585,1.578169,-1.338549,0.69811,0.32569,0.155
1698343816539062,-9.576585,1.572169,-1.343549,0.68711,0.26369,0.265
1698343816546875,-9.578585,1.572169,-1.345549,0.67111,0.32869,0.275
1698343816554687,-9.564585,1.578169,-1.356549,0.71811,0.28169,0.265
1698343816562500,-9.551585,1.578169,-1.376549,0.75011,0.21769,0.215
1698343816570312,-9.553585,1.576169,-1.385549,0.73211,0.22269,0.125
1698343816578125,-9.569585,1.576169,-1.403549,0.84311,0.15369,0.255
1698343816585937,-9.582585,1.581169,-1.421549,0.71911,0.21769,0.215
1698343816593750,-9.591585,1.578169,-1.408549,0.78111,0.32769,0.1215
1698343816601562,-9.596585,1.579169,-1.381549,0.74911,0.32869,0.425
1698343816609375,-9.589585,1.585169,-1.356549,0.71711,0.41569,0.195
1698343816617187,-9.576585,1.592169,-1.334549,0.78011,0.37969,0.425
1698343816625000,-9.587585,1.590169,-1.320549,0.76111,0.43569,0.465
1698343816632812,-9.569585,1.596169,-1.313549,0.82411,0.35669,0.145
1698343816640625,-9.544585,1.596169,-1.307549,0.80911,0.40269,0.135
1698343816648437,-9.549585,1.591169,-1.331549,0.80911,0.35369,0.455
1698343816656250,-9.535585,1.593169,-1.363549,0.71911,0.32869,0.55
1698343816664062,-9.540585,1.598169,-1.365549,0.71711,0.29969,0.435
1698343816671875,-9.546585,1.600169,-1.379549,0.70111,0.31969,0.185
1698343816679687,-9.548585,1.589169,-1.367549,0.69811,0.34369,0.155
1698343816687500,-9.560585,1.583169,-1.352549,0.71311,0.45369,0.475
1698343816695312,-9.582585,1.581169,-1.345549,0.68411,0.33769,0.15
1698343816703125,-9.584585,1.585169,-1.329549,0.74611,0.32269,0.305
1698343816710937,-9.564585,1.596169,-1.338549,0.73211,0.33769,0.505
1698343816718750,-9.562585,1.581169,-1.347549,0.71411,0.37169,0.145
1698343816726562,-9.562585,1.587169,-1.361549,0.66611,0.32369,0.795
1698343816734375,-9.562585,1.589169,-1.338549,0.79411,0.35069,0.605
1698343816742187,-9.567585,1.589169,-1.311549,0.85611,0.33569,0.435
1698343816750000,-9.571585,1.596169,-1.304549,0.76011,0.32069,0.1095
1698343816757812,-9.582585,1.596169,-1.300549,0.66711,0.35169,0.1105
1698343816765625,-9.571585,1.594169,-1.306549,0.68811,0.32769,0.745
1698343816773437,-9.560585,1.589169,-1.325549,0.68411,0.31669,0.935
1698343816781250,-9.544585,1.582169,-1.340549,0.71411,0.30069,0.1415
1698343816789062,-9.535585,1.578169,-1.336549,0.79211,0.34769,0.1885
1698343816796875,-9.530585,1.580169,-1.338549,0.72811,0.34069,0.1115
1698343816804687,-9.533585,1.582169,-1.345549,0.70011,0.36869,0.295
1698343816812500,-9.539585,1.578169,-1.327549,0.66811,0.38269,0.935
1698343816820312,-9.562585,1.578169,-1.313549,0.74411,0.38769,0.1115
1698343816828125,-9.566585,1.572169,-1.307549,0.66711,0.37169,0.155
1698343816835937,-9.573585,1.561169,-1.295549,0.69511,0.45969,0.345
1698343816843750,-9.548585,1.558169,-1.311549,0.75811,0.31069,0.1125
1698343816851562,-9.555585,1.552169,-1.329549,0.68211,0.22569,0.795
1698343816859375,-9.559585,1.563169,-1.316549,0.82411,0.22269,0.1085
1698343816867187,-9.539585,1.558169,-1.334549,0.68211,0.24169,0.795
1698343816875000,-9.539585,1.569169,-1.329549,0.71411,0.25269,0.1575
1698343816882812,-9.553585,1.587169,-1.327549,0.76111,0.26969,0.1085
1698343816890625,-9.551585,1.578169,-1.307549,0.83911,0.32069,0.1085
1698343816898437,-9.546585,1.576169,-1.291549,0.85511,0.29169,0.295
1698343816906250,-9.559585,1.576169,-1.293549,0.83511,0.26469,0.1125
1698343816914062,-9.566585,1.579169,-1.298549,0.69511,0.23069,0.975
1698343816921875,-9.570585,1.572169,-1.334549,0.68111,0.18169,0.485
1698343816929687,-9.571585,1.570169,-1.352549,0.74311,0.22669,0.1435
1698343816937500,-9.559585,1.565169,-1.365549,0.72911,0.23869,0.1255
1698343816945312,-9.564585,1.567169,-1.354549,0.69911,0.22269,0.775
1698343816953125,-9.573585,1.563169,-1.336549,0.66811,0.28469,0.935
1698343816960937,-9.573585,1.561169,-1.309549,0.69811,0.30269,0.1415
1698343816968750,-9.564585,1.556169,-1.286549,0.70011,0.28269,0.1085
1698343816976562,-9.562585,1.563169,-1.295549,0.71311,0.32069,0.1425
1698343816984375,-9.573585,1.565169,-1.302549,0.70011,0.28469,0.925
1698343816992187,-9.566585,1.574169,-1.304549,0.77511,0.29169,0.945
1698343817000000,-9.560585,1.587169,-1.311549,0.80911,0.32269,0.25
1698343817007812,-9.544585,1.585169,-1.304549,0.76211,0.33769,0.295
1698343817015625,-9.555585,1.589169,-1.311549,0.80611,0.32769,0.475
1698343817023437,-9.578585,1.594169,-1.318549,0.76211,0.36969,0.295
1698343817031250,-9.593585,1.597169,-1.322549,0.69811,0.35869,0.165
1698343817039062,-9.596585,1.601169,-1.316549,0.66611,0.32569,0.325
1698343817046875,-9.571585,1.594169,-1.293549,0.68411,0.32069,0.145
1698343817054687,-9.562585,1.587169,-1.304549,0.73011,0.25869,0.465
1698343817062500,-9.562585,1.576169,-1.311549,0.76211,0.22569,0.25
1698343817070312,-9.571585,1.579169,-1.313549,0.66611,0.27869,0.325
1698343817078125,-9.575585,1.574169,-1.311549,0.68211,0.33669,0.1105
1698343817085937,-9.577585,1.556169,-1.318549,0.66611,0.32169,0.1115
1698343817093750,-9.589585,1.565169,-1.313549,0.68511,0.33769,0.185
1698343817101562,-9.582585,1.567169,-1.316549,0.68811,0.31069,0.745
1698343817109375,-9.580585,1.565169,-1.322549,0.73111,0.35169,0.135
1698343817117187,-9.575585,1.581169,-1.327549,0.68311,0.36669,0.935
1698343817125000,-9.569585,1.587169,-1.343549,0.66511,0.40369,0.1285
1698343817132812,-9.595585,1.579169,-1.367549,0.66511,0.33969,0.1125
1698343817140625,-9.598585,1.585169,-1.356549,0.66811,0.33369,0.1095
1698343817148437,-9.603585,1.574169,-1.327549,0.68411,0.45969,0.1245
1698343817156250,-9.604585,1.570169,-1.311549,0.66611,0.53569,0.165
1698343817164062,-9.588585,1.570169,-1.289549,0.68011,0.60369,0.345
1698343817171875,-9.579585,1.561169,-1.282549,0.64911,0.60069,0.655
1698343817179687,-9.573585,1.561169,-1.262549,0.66611,0.63569,0.305
1698343817187500,-9.564585,1.559169,-1.248549,0.67811,0.63869,0.675
1698343817195312,-9.555585,1.580169,-1.255549,0.66511,0.55169,0.485
1698343817203125,-9.542585,1.585169,-1.293549,0.68511,0.35069,0.125
1698343817210937,-9.553585,1.600169,-1.313549,0.69911,0.36969,0.305
1698343817218750,-9.555585,1.609169,-1.316549,0.66511,0.35669,0.805
1698343817226562,-9.560585,1.616169,-1.322549,0.68411,0.32969,0.1565
1698343817234375,-9.592585,1.614169,-1.316549,0.65111,0.43469,0.795
1698343817242187,-9.614585,1.610169,-1.309549,0.72911,0.44069,0.315
1698343817250000,-9.612585,1.606169,-1.280549,0.76411,0.44669,0.205
1698343817257812,-9.612585,1.608169,-1.259549,0.65311,0.49769,0.145
1698343817265625,-9.618585,1.579169,-1.243549,0.68011,0.52369,0.185
1698343817273437,-9.616585,1.584169,-1.248549,0.66511,0.50569,0.15
1698343817281250,-9.593585,1.586169,-1.248549,0.67811,0.60769,0.355
1698343817289062,-9.573585,1.579169,-1.239549,0.66311,0.58969,0.515
1698343817296875,-9.569585,1.598169,-1.243549,0.68011,0.60269,0.495
1698343817304687,-9.562585,1.601169,-1.230549,0.66611,0.52269,0.145
1698343817312500,-9.560585,1.601169,-1.225549,0.68211,0.50269,0.325
1698343817320312,-9.553585,1.598169,-1.230549,0.69811,0.54669,0.945
1698343817328125,-9.560585,1.605169,-1.225549,0.66911,0.51369,0.175
1698343817335937,-9.560585,1.605169,-1.241549,0.68411,0.43169,0.295
1698343817343750,-9.567585,1.609169,-1.237549,0.66511,0.50269,0.645
1698343817351562,-9.562585,1.610169,-1.230549,0.67811,0.55469,0.1305
1698343817359375,-9.562585,1.612169,-1.221549,0.66611,0.55169,0.165
1698343817367187,-9.576585,1.608169,-1.223549,0.74411,0.55569,0.155
1698343817375000,-9.598585,1.590169,-1.223549,0.72811,0.57169,0.305
1698343817382812,-9.603585,1.594169,-1.210549,0.66711,0.64869,0.155
1698343817390625,-9.602585,1.597169,-1.219549,0.67911,0.67469,0.275
1698343817398437,-9.589585,1.594169,-1.207549,0.66411,0.63869,0.125
1698343817406250,-9.557585,1.596169,-1.192549,0.67811,0.56169,0.205
1698343817414062,-9.553585,1.594169,-1.201549,0.66711,0.45169,0.155
1698343817421875,-9.548585,1.583169,-1.205549,0.68311,0.33669,0.465
1698343817429687,-9.542585,1.574169,-1.221549,0.69911,0.30269,0.615
1698343817437500,-9.555585,1.563169,-1.230549,0.68511,0.31569,0.445
1698343817445312,-9.564585,1.565169,-1.225549,0.77711,0.33669,0.775
1698343817453125,-9.571585,1.563169,-1.225549,0.71411,0.32269,0.305
1698343817460937,-9.575585,1.565169,-1.219549,0.70011,0.33569,0.295
1698343817468750,-9.584585,1.563169,-1.228549,0.72711,0.33969,0.1275
1698343817476562,-9.600585,1.570169,-1.239549,0.66611,0.30569,0.955
1698343817484375,-9.584585,1.576169,-1.237549,0.68211,0.28969,0.785
1698343817492187,-9.589585,1.568169,-1.237549,0.72811,0.29069,0.1115
1698343817500000,-9.598585,1.579169,-1.230549,0.71011,0.34569,0.975
1698343817507812,-9.598585,1.577169,-1.210549,0.66311,0.31069,0.1295
1698343817515625,-9.591585,1.597169,-1.201549,0.66411,0.32569,0.1285
1698343817523437,-9.573585,1.590169,-1.185549,0.67911,0.35769,0.1455
1698343817531250,-9.576585,1.599169,-1.185549,0.69611,0.35669,0.1125
1698343817539062,-9.582585,1.599169,-1.189549,0.66411,0.42369,0.815
1698343817546875,-9.578585,1.594169,-1.196549,0.66511,0.33869,0.1435
1698343817554687,-9.564585,1.592169,-1.183549,0.68211,0.36969,0.945
1698343817562500,-9.582585,1.597169,-1.187549,0.71211,0.35669,0.1115
1698343817570312,-9.578585,1.594169,-1.183549,0.75911,0.40969,0.485
1698343817578125,-9.571585,1.596169,-1.189549,0.77611,0.35869,0.155
1698343817585937,-9.578585,1.594169,-1.203549,0.65011,0.33969,0.805
1698343817593750,-9.580585,1.597169,-1.178549,0.66411,0.35769,0.1295
1698343817601562,-9.575585,1.594169,-1.180549,0.74311,0.34069,0.1115
1698343817609375,-9.589585,1.579169,-1.183549,0.75711,0.39269,0.1295
1698343817617187,-9.600585,1.572169,-1.192549,0.69711,0.33869,0.1275
1698343817625000,-9.589585,1.568169,-1.210549,0.70011,0.33669,0.145
1698343817632812,-9.598585,1.568169,-1.198549,0.73011,0.32069,0.455
1698343817640625,-9.602585,1.564169,-1.212549,0.78811,0.34669,0.975
1698343817648437,-9.598585,1.568169,-1.201549,0.76011,0.33869,0.785
1698343817656250,-9.597585,1.575169,-1.194549,0.74211,0.38169,0.135
1698343817664062,-9.600585,1.586169,-1.189549,0.69611,0.39069,0.965
1698343817671875,-9.587585,1.597169,-1.174549,0.71311,0.34269,0.155
1698343817679687,-9.568585,1.581169,-1.171549,0.66411,0.34569,0.825
1698343817687500,-9.575585,1.579169,-1.187549,0.68211,0.30769,0.635
1698343817695312,-9.571585,1.572169,-1.192549,0.66611,0.32569,0.165
1698343817703125,-9.560585,1.574169,-1.221549,0.68311,0.35169,0.615
1698343817710937,-9.571585,1.583169,-1.203549,0.66611,0.38969,0.485
1698343817718750,-9.584585,1.577169,-1.210549,0.71211,0.44369,0.145
1698343817726562,-9.604585,1.579169,-1.196549,0.74711,0.33869,0.345
1698343817734375,-9.625585,1.593169,-1.185549,0.68411,0.33869,0.335
1698343817742187,-9.611585,1.579169,-1.180549,0.67011,0.36669,0.25
1698343817750000,-9.613585,1.566169,-1.167549,0.68311,0.37369,0.165
1698343817757812,-9.607585,1.583169,-1.174549,0.76411,0.33569,0.355
1698343817765625,-9.600585,1.588169,-1.194549,0.66811,0.27469,0.0
1698343817773437,-9.580585,1.583169,-1.196549,0.74611,0.33869,0.305
1698343817781250,-9.562585,1.587169,-1.194549,0.67011,0.29769,0.755
1698343817789062,-9.582585,1.590169,-1.198549,0.71111,0.32869,0.655
1698343817796875,-9.571585,1.594169,-1.171549,0.76111,0.32369,0.305
1698343817804687,-9.576585,1.598169,-1.162549,0.73111,0.45069,0.185
1698343817812500,-9.567585,1.600169,-1.144549,0.70211,0.43069,0.355
1698343817820312,-9.591585,1.599169,-1.120549,0.76211,0.33869,0.25
1698343817828125,-9.609585,1.610169,-1.122549,0.74511,0.29269,0.315
1698343817835937,-9.603585,1.603169,-1.135549,0.68211,0.28969,0.1115
1698343817843750,-9.605585,1.599169,-1.140549,0.74211,0.35869,0.1285
1698343817851562,-9.575585,1.587169,-1.131549,0.65011,0.35269,0.1115
1698343817859375,-9.553585,1.581169,-1.129549,0.69611,0.42369,0.815
1698343817867187,-9.555585,1.589169,-1.122549,0.72811,0.35669,0.955
1698343817875000,-9.560585,1.583169,-1.153549,0.70011,0.25569,0.135
1698343817882812,-9.571585,1.578169,-1.187549,0.68511,0.27169,0.25
1698343817890625,-9.573585,1.583169,-1.214549,0.66811,0.35369,0.145
1698343817898437,-9.586585,1.572169,-1.198549,0.77611,0.36069,0.0
1698343817906250,-9.598585,1.572169,-1.171549,0.71511,0.33769,0.135
1698343817914062,-9.613585,1.577169,-1.151549,0.66611,0.39269,0.145
1698343817921875,-9.618585,1.572169,-1.153549,0.68711,0.33069,0.115
1698343817929687,-9.627585,1.571169,-1.144549,0.71511,0.35569,0.15
1698343817937500,-9.640585,1.571169,-1.131549,0.74511,0.26069,0.305
1698343817945312,-9.670585,1.578169,-1.129549,0.83911,0.29169,0.295
1698343817953125,-9.665585,1.582169,-1.129549,0.72911,0.34369,0.0
1698343817960937,-9.638585,1.582169,-1.151549,0.65211,0.38569,0.305
1698343817968750,-9.602585,1.584169,-1.196549,0.66411,0.36169,0.505
1698343817976562,-9.573585,1.574169,-1.187549,0.68411,0.37969,0.1085
1698343817984375,-9.566585,1.581169,-1.165549,0.68211,0.40069,0.1265
1698343817992187,-9.553585,1.578169,-1.131549,0.66611,0.36769,0.1425
1698343818000000,-9.562585,1.569169,-1.131549,0.68311,0.31669,0.1255
