time,Acceleration X (m/s^2),Acceleration Y (m/s^2),Acceleration Z (m/s^2),Angular Velocity X (rad/s),Angular Velocity Y (rad/s),Angular Velocity Z (rad/s)
1698343987875000,-9.717768,-0.003529,,,,
1698343987882812,-9.730768,0.994798,0.714874,0.66183,0.629,0.17768
1698343987890625,-9.730768,0.996798,0.721874,0.67683,0.7129,0.19468
1698343987898437,-9.705768,0.989798,0.719874,0.64483,0.7329,0.21168
1698343987906250,-9.707768,0.991798,0.728874,0.64583,0.8929,0.16368
1698343987914062,-9.700768,0.985798,0.723874,0.59683,0.1029,0.19668
1698343987929687,-9.716768,0.976798,0.739874,0.67783,0.5329,0.19368
1698343987937500,-9.727768,0.989798,0.761874,0.65983,0.7329,0.21168
1698343987945312,-9.734768,0.994798,0.761874,0.67283,0.9429,0.24568
1698343987953125,-9.741768,0.996798,0.761874,0.65883,0.7629,0.22868
1698343987976562,-9.732768,0.974798,0.737874,0.66183,0.5329,0.22568
1698343987984375,-9.727768,0.978798,0.757874,0.65983,0.929,0.24368
1698343987992187,-9.716768,0.980798,0.766874,0.67783,0.10629,0.9868
1698343988000000,-9.716768,0.976798,0.786874,0.72583,0.3929,0.11368
1698343988007812,-9.716768,0.976798,0.813874,0.75383,0.12729,0.13268
1698343988015625,-9.723768,0.974798,0.806874,0.78483,0.11129,0.13168
1698343988023437,-9.741768,0.974798,0.804874,0.67883,0.12229,0.5068
1698343988031250,-9.734768,0.967798,0.809874,0.80183,0.12629,0.11468
1698343988039062,-9.725768,0.947798,0.847874,0.70683,0.10629,0.21168
1698343988046875,-9.720768,0.938798,0.824874,0.87983,0.18829,0.16168
1698343988054687,-9.727768,0.941798,0.818874,0.92883,0.12129,0.12768
1698343988062500,-9.729768,0.956798,0.836874,0.92783,0.20429,0.12868
1698343988070312,-9.709768,0.969798,0.849874,0.90983,0.23929,0.17868
1698343988078125,-9.696768,0.975798,0.851874,0.92683,0.25029,0.24068
1698343988085937,-9.694768,0.989798,0.847874,0.80383,0.22729,0.22368
1698343988093750,-9.694768,0.996798,0.845874,0.87683,0.17629,0.22768
1698343988101562,-9.672768,1.798,0.851874,0.89583,0.29929,0.19268
1698343988109375,-9.660768,0.988798,0.838874,0.91183,0.30129,0.14568
1698343988117187,-9.684768,0.971798,0.833874,0.92383,0.26029,0.14768
1698343988125000,-9.711768,0.963798,0.856874,0.93983,0.32629,0.13268
1698343988132812,-9.734768,0.952798,0.833874,0.91183,0.22129,0.11368
1698343988140625,-9.749768,0.937798,0.815874,0.92583,0.22829,0.9968
1698343988148437,-9.740768,0.928798,0.809874,0.91083,0.22629,0.6668
1698343988156250,-9.735768,0.925798,0.804874,0.91083,0.19529,0.8368
1698343988164062,-9.742768,0.923798,0.804874,0.92783,0.20329,0.12868
1698343988171875,-9.762768,0.915798,0.791874,0.95783,0.25529,0.11368
1698343988179687,-9.755768,0.910798,0.815874,0.97483,0.28729,0.9668
1698343988187500,-9.746768,0.908798,0.838874,0.100583,0.40529,0.1868
1698343988195312,-9.731768,0.916798,0.833874,0.104083,0.38229,0.1732
1698343988203125,-9.724768,0.923798,0.831874,0.100583,0.37029,0.3368
1698343988210937,-9.706768,0.922798,0.813874,0.116383,0.38529,0.3068
1698343988218750,-9.679768,0.924798,0.845874,0.100783,0.36429,0.9468
1698343988226562,-9.668768,0.944798,0.849874,0.98983,0.33729,0.8168
1698343988234375,-9.668768,0.957798,0.854874,0.108283,0.33729,0.12868
1698343988242187,-9.655768,0.964798,0.867874,0.110183,0.28229,0.12568
1698343988250000,-9.646768,0.966798,0.872874,0.109883,0.28729,0.14368
1698343988257812,-9.635768,0.964798,0.847874,0.114783,0.31829,0.11068
1698343988265625,-9.655768,0.966798,0.838874,0.116283,0.25229,0.12568
1698343988273437,-9.665768,1.4798,0.827874,0.103783,0.33229,0.12768
1698343988281250,-9.683768,1.13798,0.822874,0.92883,0.33129,0.11168
1698343988289062,-9.698768,1.9798,0.824874,0.92383,0.35729,0.14868
1698343988296875,-9.703768,0.998798,0.813874,0.94083,0.30829,0.13168
1698343988304687,-9.698768,0.973798,0.786874,0.91283,0.13929,0.9668
1698343988312500,-9.700768,0.949798,0.755874,0.92983,0.16829,0.11168
1698343988320312,-9.704768,0.938798,0.759874,0.92683,0.9729,0.9868
1698343988328125,-9.698768,0.936798,0.768874,0.97683,0.11929,0.11068
1698343988335937,-9.691768,0.929798,0.777874,0.92883,0.10629,0.7968
1698343988343750,-9.691768,0.940798,0.777874,0.92783,0.9329,0.11368
1698343988351562,-9.684768,0.942798,0.782874,0.89683,0.15529,0.12868
1698343988359375,-9.691768,0.962798,0.786874,0.88583,0.2029,0.4568
1698343988367187,-9.695768,0.958798,0.782874,0.86583,0.1129,0.8168
1698343988375000,-9.705768,0.969798,0.788874,0.86583,0.5729,0.11268
1698343988382812,-9.722768,0.972798,0.797874,0.89583,0.9529,0.8268
1698343988390625,-9.704768,0.965798,0.806874,0.89783,0.12629,0.1768
1698343988398437,-9.691768,0.962798,0.811874,0.83583,0.9429,0.1432
1698343988406250,-9.691768,0.969798,0.811874,0.81683,0.6229,0.11468
1698343988414062,-9.678768,0.993798,0.809874,0.72383,0.5829,0.14668
1698343988421875,-9.692768,1.4798,0.795874,0.74183,0.7029,0.14468
1698343988429687,-9.690768,1.9798,0.795874,0.69283,0.7329,0.13068
1698343988437500,-9.672768,1.11798,0.800874,0.66283,0.10629,0.8268
1698343988445312,-9.658768,0.997798,0.818874,0.67883,0.9329,0.1968
1698343988453125,-9.680768,0.982798,0.795874,0.66083,0.7829,0.10068
1698343988460937,-9.696768,0.978798,0.786874,0.67683,0.9529,0.8468
1698343988468750,-9.700768,0.985798,0.793874,0.66183,0.4229,0.13168
1698343988476562,-9.716768,0.998798,0.766874,0.67683,0.3771,0.16368
1698343988484375,-9.714768,0.994798,0.768874,0.66383,0.9271,0.14568
1698343988492187,-9.718768,0.990798,0.791874,0.65883,0.3171,0.13468
1698343988500000,-9.709768,0.996798,0.782874,0.57983,0.4829,0.15068
1698343988507812,-9.707768,0.996798,0.784874,0.50283,0.9429,0.15068
1698343988515625,-9.705768,1.7798,0.791874,0.55183,0.2729,0.8468
1698343988523437,-9.701768,1.9798,0.793874,0.49283,0.1171,0.8268
1698343988531250,-9.732768,0.998798,0.782874,0.42883,0.4029,0.2068
1698343988539062,-9.748768,1.1798,0.777874,0.49183,0.4029,0.368
1698343988546875,-9.752768,0.998798,0.757874,0.51083,0.1371,0.1432
1698343988554687,-9.759768,0.992798,0.759874,0.52483,0.829,0.2932
1698343988562500,-9.761768,0.974798,0.782874,0.52283,0.5829,0.2068
1698343988570312,-9.749768,0.959798,0.795874,0.49183,0.15529,0.1132
1698343988578125,-9.750768,0.958798,0.782874,0.49483,0.11629,0.1432
1698343988585937,-9.736768,0.965798,0.786874,0.47583,0.12629,0.2632
1698343988593750,-9.725768,0.963798,0.800874,0.41583,0.6829,0.268
1698343988601562,-9.709768,0.962798,0.784874,0.41583,0.7029,0.1232
1698343988609375,-9.678768,0.964798,0.784874,0.46183,0.8629,0.368
1698343988617187,-9.659768,0.942798,0.775874,0.53983,0.8629,0.3468
1698343988625000,-9.637768,0.928798,0.773874,0.50783,0.7329,0.1968
1698343988632812,-9.662768,0.933798,0.775874,0.61883,0.16829,0.3032
1698343988640625,-9.693768,0.933798,0.766874,0.53983,0.26529,0.1332
1698343988648437,-9.722768,0.929798,0.750874,0.63283,0.20329,0.268
1698343988656250,-9.745768,0.947798,0.730874,0.63083,0.12229,0.8368
1698343988664062,-9.758768,0.950798,0.714874,0.61583,0.5929,0.3568
1698343988671875,-9.749768,0.932798,0.705874,0.58383,0.17529,0.3768
1698343988679687,-9.744768,0.930798,0.698874,0.62983,0.12229,0.14768
1698343988687500,-9.754768,0.936798,0.701874,0.66483,0.17029,0.1332
1698343988695312,-9.745768,0.954798,0.716874,0.65083,0.13629,0.3032
1698343988703125,-9.745768,0.970798,0.714874,0.64783,0.17029,0.3468
1698343988710937,-9.736768,0.972798,0.725874,0.61783,0.23429,0.1868
1698343988718750,-9.730768,0.963798,0.716874,0.65083,0.14929,0.1532
1698343988726562,-9.727768,0.956798,0.710874,0.67683,0.14229,0.6868
1698343988734375,-9.715768,0.943798,0.728874,0.66383,0.20829,0.5932
1698343988742187,-9.731768,0.927798,0.746874,0.75883,0.25429,0.6232
1698343988750000,-9.726768,0.923798,0.752874,0.75883,0.25229,0.4632
1698343988757812,-9.706768,0.925798,0.739874,0.75983,0.24929,0.1532
1698343988765625,-9.704768,0.936798,0.710874,0.87083,0.13329,0.3432
1698343988773437,-9.688768,0.936798,0.698874,0.78883,0.20729,0.2932
1698343988781250,-9.688768,0.931798,0.714874,0.70883,0.25929,0.1132
1698343988789062,-9.695768,0.933798,0.723874,0.85283,0.23429,0.1568
1698343988796875,-9.724768,0.918798,0.739874,0.83483,0.27229,0.1868
1698343988804687,-9.745768,0.930798,0.734874,0.86783,0.21929,0.3268
1698343988812500,-9.747768,0.945798,0.739874,0.88283,0.10829,0.0
1698343988820312,-9.740768,0.943798,0.732874,0.82083,0.13929,0.1668
1698343988828125,-9.731768,0.943798,0.719874,0.86883,0.16729,0.3068
1698343988835937,-9.716768,0.969798,0.725874,0.74083,0.9029,0.8168
1698343988843750,-9.705768,0.973798,0.741874,0.78883,0.20329,0.6568
1698343988851562,-9.687768,0.969798,0.743874,0.78983,0.16829,0.4868
1698343988859375,-9.700768,0.964798,0.716874,0.72883,0.13229,0.3168
1698343988867187,-9.711768,0.956798,0.705874,0.89783,0.14129,0.6468
1698343988875000,-9.709768,0.942798,0.710874,0.83583,0.20529,0.1768
1698343988882812,-9.705768,0.953798,0.734874,0.93183,0.24929,0.1732
1698343988890625,-9.693768,0.967798,0.725874,0.86683,0.24129,0.2932
1698343988898437,-9.700768,0.973798,0.719874,0.86783,0.23829,0.1532
1698343988906250,-9.707768,0.978798,0.723874,0.88183,0.25729,0.2932
1698343988914062,-9.728768,0.996798,0.703874,0.93183,0.26729,0.4932
1698343988921875,-9.748768,0.974798,0.685874,0.83783,0.23429,0.1632
1698343988929687,-9.765768,0.968798,0.676874,0.77183,0.25729,0.1232
1698343988937500,-9.767768,0.957798,0.674874,0.85183,0.25429,0.168
1698343988945312,-9.761768,0.959798,0.676874,0.91383,0.29029,0.2932
1698343988953125,-9.761768,0.945798,0.674874,0.91583,0.26729,0.1632
1698343988960937,-9.758768,0.941798,0.669874,0.93383,0.21529,0.3432
1698343988968750,-9.740768,0.934798,0.674874,0.91883,0.21129,0.1932
1698343988976562,-9.727768,0.960798,0.694874,0.91683,0.18229,0.2968
1698343988984375,-9.705768,0.969798,0.712874,0.91483,0.21829,0.3168
1698343988992187,-9.676768,0.975798,0.714874,0.91583,0.10529,0.1732
1698343989000000,-9.671768,0.973798,0.741874,0.91283,0.24329,0.1332
1698343989007812,-9.673768,0.957798,0.752874,0.91583,0.12029,0.1468
1698343989015625,-9.680768,0.962798,0.766874,0.91583,0.21829,0.0
1698343989023437,-9.680768,0.946798,0.761874,0.93183,0.20029,0.132
1698343989031250,-9.700768,0.962798,0.755874,0.91583,0.15629,0.3232
1698343989039062,-9.712768,0.980798,0.759874,0.93183,0.20029,0.132
1698343989046875,-9.725768,0.972798,0.741874,0.91483,0.20529,0.0
1698343989054687,-9.731768,0.958798,0.719874,0.92983,0.15729,0.1668
1698343989062500,-9.716768,0.942798,0.719874,0.94583,0.26729,0.4768
1698343989070312,-9.702768,0.938798,0.737874,0.99183,0.27429,0.3132
1698343989078125,-9.716768,0.960798,0.743874,0.100883,0.25329,0.1732
1698343989085937,-9.747768,0.970798,0.746874,0.105483,0.28929,0.3232
1698343989093750,-9.763768,0.981798,0.759874,0.105683,0.20229,0.1368
1698343989101562,-9.748768,1.3798,0.764874,0.101083,0.10429,0.1932
1698343989109375,-9.721768,1.798,0.748874,0.99283,0.10529,0.9468
1698343989117187,-9.701768,1.2798,0.766874,0.100683,0.15729,0.6368
1698343989125000,-9.687768,1.2798,0.761874,0.107183,0.17329,0.3332
1698343989132812,-9.678768,1.9798,0.775874,0.108683,0.18729,0.6168
1698343989140625,-9.694768,1.16798,0.779874,0.102183,0.27629,0.1768
1698343989148437,-9.711768,0.994798,0.775874,0.103683,0.21429,0.1332
1698343989156250,-9.723768,0.992798,0.775874,0.102283,0.25829,0.1532
1698343989164062,-9.732768,1.7798,0.766874,0.92883,0.19429,0.168
1698343989171875,-9.730768,1.3798,0.777874,0.107283,0.7329,0.1932
1698343989179687,-9.708768,1.9798,0.764874,0.102483,0.9029,0.132
1698343989187500,-9.706768,1.15798,0.741874,0.104383,0.6829,0.3732
1698343989195312,-9.687768,1.11798,0.757874,0.99383,0.20529,0.3232
1698343989203125,-9.678768,1.15798,0.770874,0.96083,0.23829,0.3268
1698343989210937,-9.692768,1.11798,0.784874,0.103883,0.22529,0.0
1698343989218750,-9.703768,1.9798,0.793874,0.100783,0.29029,0.3132
1698343989226562,-9.736768,0.994798,0.779874,0.96183,0.23829,0.1632
1698343989234375,-9.748768,1.3798,0.775874,0.97483,0.25729,0.3368
1698343989242187,-9.737768,1.12798,0.752874,0.91383,0.23929,0.1432
1698343989250000,-9.721768,1.29798,0.755874,0.93183,0.21829,0.1732
1698343989257812,-9.710768,1.18798,0.777874,0.91683,0.10529,0.3332
1698343989265625,-9.710768,1.27798,0.777874,0.92883,0.17729,0.1432
1698343989273437,-9.715768,1.34798,0.784874,0.91483,0.25429,0.3132
1698343989281250,-9.732768,1.29798,0.804874,0.92883,0.22329,0.1668
1698343989289062,-9.732768,1.5798,0.784874,0.91383,0.23929,0.168
1698343989296875,-9.734768,1.5798,0.784874,0.93183,0.18929,0.4832
1698343989304687,-9.716768,1.798,0.797874,0.89783,0.24329,0.4532
1698343989312500,-9.714768,0.994798,0.777874,0.90083,0.25329,0.6432
1698343989320312,-9.709768,0.991798,0.784874,0.86483,0.26129,0.2832
1698343989328125,-9.705768,0.987798,0.811874,0.78783,0.32529,0.4332
1698343989335937,-9.732768,0.989798,0.824874,0.83483,0.42029,0.4432
1698343989343750,-9.732768,0.998798,0.806874,0.89783,0.30529,0.168
1698343989351562,-9.735768,1.7798,0.811874,0.89983,0.28429,0.1632
1698343989359375,-9.712768,1.5798,0.829874,0.91383,0.35229,0.1432
1698343989367187,-9.707768,1.11798,0.836874,0.86483,0.24429,0.368
1698343989375000,-9.689768,1.7798,0.820874,0.80483,0.22329,0.2932
1698343989382812,-9.669768,0.997798,0.800874,0.77383,0.12529,0.1432
1698343989390625,-9.656768,0.999798,0.784874,0.74483,0.18329,0.1632
1698343989398437,-9.660768,0.997798,0.797874,0.81983,0.28829,0.2932
1698343989406250,-9.660768,0.999798,0.820874,0.80783,0.24929,0.6432
1698343989414062,-9.662768,1.4798,0.815874,0.78883,0.23929,0.1332
1698343989421875,-9.694768,1.798,0.809874,0.88583,0.24929,0.6532
1698343989429687,-9.721768,1.9798,0.793874,0.86983,0.20329,0.6432
1698343989437500,-9.712768,1.7798,0.788874,0.81983,0.25629,0.1332
1698343989445312,-9.676768,1.13798,0.773874,0.83983,0.18229,0.6632
1698343989453125,-9.661768,1.15798,0.750874,0.82483,0.7129,0.9732
1698343989460937,-9.667768,1.26798,0.721874,0.85683,0.8629,0.9832
1698343989468750,-9.676768,1.28798,0.737874,0.83983,0.13629,0.8132
1698343989476562,-9.694768,1.36798,0.748874,0.80483,0.11029,0.4632
1698343989484375,-9.699768,1.33798,0.759874,0.79083,0.12129,0.4732
1698343989492187,-9.696768,1.29798,0.748874,0.80483,0.12629,0.1332
1698343989500000,-9.710768,1.29798,0.743874,0.91483,0.7729,0.3132
1698343989507812,-9.706768,1.29798,0.750874,0.93183,0.9029,0.3232
1698343989515625,-9.712768,1.29798,0.746874,0.91783,0.12029,0.8232
1698343989523437,-9.703768,1.31798,0.755874,0.90283,0.729,0.9832
1698343989531250,-9.674768,1.44798,0.748874,0.83983,0.2571,0.8132
1698343989539062,-9.661768,1.55798,0.750874,0.71283,0.629,0.1532
1698343989546875,-9.659768,1.53798,0.748874,0.76083,0.729,0.3232
1698343989554687,-9.670768,1.59798,0.766874,0.66483,0.9029,0.1332
1698343989562500,-9.697768,1.58798,0.764874,0.68083,0.13729,0.3032
1698343989570312,-9.726768,1.54798,0.759874,0.71183,0.7529,0.4632
1698343989578125,-9.740768,1.40798,0.741874,0.64983,0.12129,0.1432
1698343989585937,-9.748768,1.36798,0.737874,0.72683,0.12429,0.2932
1698343989593750,-9.741768,1.16798,0.712874,0.74183,0.11029,0.2932
1698343989601562,-9.741768,1.18798,0.689874,0.66483,0.9029,0.268
1698343989609375,-9.752768,1.12798,0.714874,0.67783,0.7829,0.2068
1698343989617187,-9.728768,1.5798,0.737874,0.71083,0.10829,0.1332
1698343989625000,-9.705768,0.998798,0.748874,0.67983,0.9229,0.2932
1698343989632812,-9.687768,0.982798,0.746874,0.71383,0.6929,0.1632
1698343989640625,-9.687768,0.975798,0.741874,0.77583,0.8729,0.3232
1698343989648437,-9.687768,0.989798,0.752874,0.86883,0.4529,0.6332
1698343989656250,-9.680768,0.997798,0.770874,0.83783,0.10529,0.1632
1698343989664062,-9.680768,1.4798,0.759874,0.78983,0.15729,0.4632
1698343989671875,-9.685768,1.24798,0.764874,0.80483,0.12529,0.1432
1698343989679687,-9.699768,1.13798,0.748874,0.83683,0.12529,0.1432
1698343989687500,-9.701768,1.2798,0.737874,0.89983,0.10729,0.3232
1698343989695312,-9.710768,1.16798,0.728874,0.86683,0.12829,0.1332
1698343989703125,-9.732768,1.32798,0.712874,0.88083,0.11529,0.2832
1698343989710937,-9.732768,1.27798,0.705874,0.93083,0.14129,0.1532
1698343989718750,-9.730768,1.27798,0.725874,0.86983,0.12129,0.3232
1698343989726562,-9.714768,1.34798,0.719874,0.91483,0.7929,0.4632
1698343989734375,-9.710768,1.38798,0.721874,0.91683,0.7129,0.1832
1698343989742187,-9.710768,1.45798,0.728874,0.88283,0.9429,0.3132
1698343989750000,-9.711768,1.65798,0.725874,0.85183,0.10829,0.1532
1698343989757812,-9.711768,1.67798,0.719874,0.86883,0.10729,0.1632
1698343989765625,-9.724768,1.65798,0.723874,0.88283,0.11029,0.3032
1698343989773437,-9.720768,1.71798,0.734874,0.93083,0.10729,0.0
1698343989781250,-9.702768,1.69798,0.737874,0.82183,0.8929,0.1632
1698343989789062,-9.693768,1.62798,0.734874,0.77583,0.12029,0.1632
1698343989796875,-9.695768,1.69798,0.741874,0.80683,0.13629,0.0
1698343989804687,-9.704768,1.51798,0.734874,0.80383,0.10829,0.4968
1698343989812500,-9.719768,1.40798,0.714874,0.75883,0.18729,0.168
1698343989820312,-9.721768,1.38798,0.705874,0.67983,0.12429,0.4532
1698343989828125,-9.715768,1.36798,0.707874,0.69383,0.13929,0.6668
1698343989835937,-9.704768,1.40798,0.712874,0.75783,0.8629,0.9668
1698343989843750,-9.697768,1.49798,0.698874,0.83483,0.7929,0.1868
1698343989851562,-9.697768,1.49798,0.687874,0.80683,0.7229,0.3232
1698343989859375,-9.697768,1.51798,0.694874,0.83883,0.8729,0.1732
1698343989867187,-9.681768,1.24798,0.687874,0.85183,0.12529,0.1532
1698343989875000,-9.678768,1.22798,0.676874,0.88283,0.11229,0.3032
1698343989882812,-9.679768,1.29798,0.676874,0.91483,0.12529,0.1532
1698343989890625,-9.679768,1.33798,0.683874,0.88383,0.10729,0.0
1698343989898437,-9.695768,1.49798,0.687874,0.89983,0.12529,0.3132
1698343989906250,-9.733768,1.52798,0.674874,0.93183,0.10729,0.3232
1698343989914062,-9.754768,1.69798,0.662874,0.91783,0.8529,0.232
1698343989921875,-9.767768,1.70798,0.651874,0.93083,0.14129,0.1532
1698343989929687,-9.769768,1.81798,0.656874,0.77283,0.7929,0.268
1698343989937500,-9.756768,1.76798,0.653874,0.78583,0.9329,0.13068
1698343989945312,-9.747768,1.65798,0.653874,0.77383,0.10329,0.8068
1698343989953125,-9.753768,1.43798,0.676874,0.71183,0.10629,0.168
1698343989960937,-9.744768,1.45798,0.685874,0.69483,0.18629,0.6668
1698343989968750,-9.764768,1.41798,0.683874,0.66083,0.28829,0.6868
1698343989976562,-9.771768,1.32798,0.676874,0.67983,0.34729,0.3468
1698343989984375,-9.764768,1.43798,0.696874,0.66083,0.27329,0.3768
1698343989992187,-9.744768,1.52798,0.707874,0.67483,0.34229,0.3868
1698343990000000,-9.719768,1.47798,0.705874,0.66083,0.35729,0.668
1698343990007812,-9.708768,1.22798,0.725874,0.67883,0.33429,0.368
1698343990015625,-9.699768,1.4798,0.719874,0.66483,0.34729,0.268
1698343990023437,-9.701768,1.11798,0.714874,0.67883,0.30329,0.368
1698343990031250,-9.696768,1.11798,0.719874,0.66283,0.30329,0.368
1698343990039062,-9.678768,1.13798,0.721874,0.67583,0.35729,0.2268
1698343990046875,-9.678768,1.15798,0.728874,0.66283,0.33729,0.1132
1698343990054687,-9.663768,1.28798,0.730874,0.73983,0.32429,0.2732
1698343990062500,-9.665768,0.995798,0.719874,0.80283,0.27029,0.6668
1698343990070312,-9.660768,0.990798,0.703874,0.86783,0.31329,0.7968
1698343990078125,-9.667768,0.986798,0.701874,0.80383,0.31929,0.3468
1698343990085937,-9.681768,1.4798,0.683874,0.82283,0.29629,0.0
1698343990093750,-9.681768,1.28798,0.669874,0.87083,0.19829,0.1832
1698343990101562,-9.699768,1.40798,0.667874,0.75583,0.24329,0.2732
1698343990109375,-9.715768,1.51798,0.656874,0.73983,0.21029,0.468
1698343990117187,-9.744768,1.52798,0.660874,0.72383,0.24429,0.1032
1698343990125000,-9.759768,1.30798,0.676874,0.80183,0.19529,0.468
1698343990132812,-9.750768,1.14798,0.680874,0.80483,0.18829,0.1768
1698343990140625,-9.752768,1.14798,0.669874,0.91383,0.9529,0.1432
1698343990148437,-9.739768,1.12798,0.671874,0.86483,0.7929,0.6668
1698343990156250,-9.728768,1.798,0.705874,0.93083,0.9229,0.0
1698343990164062,-9.728768,1.16798,0.701874,0.91283,0.9729,0.1432
1698343990171875,-9.719768,1.33798,0.707874,0.94683,0.10129,0.6168
1698343990179687,-9.720768,1.69798,0.707874,0.81983,0.22129,0.4968
1698343990187500,-9.718768,1.82798,0.716874,0.88183,0.28729,0.6568
1698343990195312,-9.706768,1.75798,0.734874,0.88383,0.23229,0.7968
1698343990203125,-9.695768,1.55798,0.737874,0.73983,0.23929,0.8368
1698343990210937,-9.699768,1.33798,0.723874,0.78483,0.18929,0.16368
1698343990218750,-9.701768,1.11798,0.705874,0.89783,0.17229,0.4868
1698343990226562,-9.718768,0.978798,0.703874,0.92883,0.24929,0.12768
1698343990234375,-9.736768,0.969798,0.698874,0.91283,0.25429,0.6468
1698343990242187,-9.756768,0.981798,0.701874,0.92783,0.33929,0.3468
1698343990250000,-9.748768,0.990798,0.710874,0.89783,0.32029,0.1768
1698343990257812,-9.732768,1.3798,0.728874,0.91083,0.30529,0.9868
1698343990265625,-9.730768,1.12798,0.734874,0.92683,0.22429,0.8268
1698343990273437,-9.714768,1.13798,0.725874,0.89883,0.21629,0.7868
1698343990281250,-9.696768,1.6798,0.730874,0.91483,0.21429,0.12668
1698343990289062,-9.676768,0.997798,0.748874,0.92883,0.15529,0.9668
1698343990296875,-9.682768,0.978798,0.757874,0.91483,0.17029,0.1568
1698343990304687,-9.696768,0.962798,0.752874,0.94683,0.19829,0.6168
1698343990312500,-9.709768,0.956798,0.750874,0.103783,0.25929,0.168
1698343990320312,-9.713768,0.967798,0.750874,0.100683,0.20829,0.1668
1698343990328125,-9.707768,0.994798,0.757874,0.107183,0.15829,0.1732
1698343990335937,-9.687768,1.4798,0.741874,0.110183,0.22029,0.7868
1698343990343750,-9.674768,1.33798,0.743874,0.111983,0.21729,0.1268
1698343990351562,-9.663768,1.33798,0.734874,0.119483,0.22129,0.9368
1698343990359375,-9.665768,1.28798,0.739874,0.112983,0.17729,0.11268
1698343990367187,-9.679768,1.24798,0.752874,0.108483,0.21929,0.12668
1698343990375000,-9.683768,1.20798,0.757874,0.106783,0.14229,0.14468
1698343990382812,-9.695768,1.40798,0.755874,0.108483,0.22129,0.11168
1698343990390625,-9.699768,1.53798,0.739874,0.114983,0.10729,0.2968
1698343990398437,-9.697768,1.69798,0.737874,0.108883,0.10029,0.5968
1698343990406250,-9.697768,1.71798,0.743874,0.104083,0.8929,0.2968
1698343990414062,-9.702768,1.69798,0.737874,0.102683,0.13529,0.1932
1698343990421875,-9.704768,1.71798,0.737874,0.94483,0.21829,0.9568
1698343990429687,-9.711768,1.51798,0.741874,0.93083,0.21429,0.7768
1698343990437500,-9.717768,1.54798,0.723874,0.89783,0.20729,0.168
1698343990445312,-9.710768,1.51798,0.741874,0.88283,0.12129,0.7968
1698343990453125,-9.717768,1.36798,0.746874,0.91583,0.21829,0.1568
1698343990460937,-9.715768,1.27798,0.728874,0.92783,0.20529,0.9668
1698343990468750,-9.710768,1.9798,0.721874,0.91583,0.8829,0.3068
1698343990476562,-9.707768,0.993798,0.741874,0.93183,0.11829,0.2968
1698343990484375,-9.703768,0.993798,0.755874,0.86583,0.20829,0.3468
1698343990492187,-9.710768,0.998798,0.734874,0.91683,0.8529,0.1368
1698343990500000,-9.710768,0.996798,0.723874,0.89983,0.7029,0.6268
1698343990507812,-9.714768,1.9798,0.737874,0.91483,0.15029,0.9468
1698343990515625,-9.712768,1.18798,0.743874,0.92983,0.10529,0.6368
1698343990523437,-9.717768,1.18798,0.748874,0.91383,0.12129,0.11168
1698343990531250,-9.715768,1.36798,0.734874,0.92883,0.12429,0.6468
1698343990539062,-9.719768,1.34798,0.725874,0.91083,0.11129,0.11468
1698343990546875,-9.717768,1.36798,0.728874,0.91083,0.16429,0.3568
1698343990554687,-9.721768,1.14798,0.725874,0.92783,0.20529,0.11268
1698343990562500,-9.734768,1.10798,0.737874,0.90983,0.19529,0.9968
1698343990570312,-9.723768,1.16798,0.743874,0.91183,0.15929,0.6568
1698343990578125,-9.737768,1.25798,0.721874,0.92983,0.7729,0.1532
1698343990585937,-9.744768,1.43798,0.732874,0.91783,0.23129,0.3432
1698343990593750,-9.728768,1.56798,0.723874,0.84983,0.20829,0.3468
1698343990601562,-9.709768,1.69798,0.714874,0.82283,0.20229,0.3232
1698343990609375,-9.708768,1.69798,0.719874,0.77483,0.20329,0.4732
1698343990617187,-9.704768,1.86798,0.730874,0.79083,0.26729,0.3132
1698343990625000,-9.704768,1.86798,0.741874,0.69683,0.21629,0.1668
1698343990632812,-9.697768,1.62798,0.755874,0.77383,0.25029,0.4968
1698343990640625,-9.684768,1.53798,0.752874,0.64983,0.26329,0.168
1698343990648437,-9.690768,1.49798,0.739874,0.71183,0.21829,0.168
1698343990656250,-9.699768,1.51798,0.723874,0.67983,0.23629,0.268
1698343990664062,-9.688768,1.48798,0.723874,0.66583,0.21429,0.1668
1698343990671875,-9.672768,1.42798,0.732874,0.68183,0.9929,0.3168
1698343990679687,-9.685768,1.15798,0.712874,0.66483,0.21929,0.1332
1698343990687500,-9.705768,0.998798,0.712874,0.66483,0.20329,0.1332
1698343990695312,-9.705768,1.798,0.714874,0.67883,0.17529,0.2832
1698343990703125,-9.721768,0.998798,0.707874,0.66383,0.17329,0.1232
1698343990710937,-9.723768,1.5798,0.705874,0.67983,0.12129,0.1768
1698343990718750,-9.710768,1.13798,0.689874,0.69983,0.10029,0.4932
1698343990726562,-9.701768,1.29798,0.678874,0.66583,0.10729,0.9432
1698343990734375,-9.692768,1.15798,0.676874,0.66683,0.11929,0.4732
1698343990742187,-9.694768,1.15798,0.678874,0.63483,0.18529,0.3032
1698343990750000,-9.694768,1.11798,0.698874,0.71183,0.18729,0.1432
1698343990757812,-9.706768,1.31798,0.703874,0.71183,0.17229,0.6232
1698343990765625,-9.730768,1.38798,0.683874,0.69783,0.8829,0.6332
1698343990773437,-9.749768,1.43798,0.671874,0.69783,0.8829,0.4732
1698343990781250,-9.746768,1.54798,0.689874,0.66583,0.10529,0.1432
1698343990789062,-9.738768,1.65798,0.698874,0.68283,0.6729,0.0
1698343990796875,-9.708768,1.56798,0.714874,0.66283,0.11129,0.2732
1698343990804687,-9.699768,1.44798,0.730874,0.68083,0.21929,0.4532
1698343990812500,-9.708768,1.44798,0.714874,0.66483,0.25229,0.1332
1698343990820312,-9.717768,1.54798,0.703874,0.67883,0.25729,0.2732
1698343990828125,-9.717768,1.49798,0.712874,0.63183,0.18629,0.5068
1698343990835937,-9.704768,1.38798,0.703874,0.63383,0.20129,0.268
1698343990843750,-9.706768,1.33798,0.701874,0.68083,0.13629,0.1768
1698343990851562,-9.708768,1.31798,0.683874,0.64983,0.18329,0.3368
1698343990859375,-9.719768,1.14798,0.680874,0.63183,0.14229,0.2732
1698343990867187,-9.714768,1.14798,0.683874,0.66083,0.12929,0.2168
1698343990875000,-9.705768,1.7798,0.710874,0.67983,0.12129,0.1768
1698343990882812,-9.691768,0.989798,0.712874,0.66483,0.10829,0.2932
1698343990890625,-9.674768,0.993798,0.721874,0.68083,0.8829,0.1432
1698343990898437,-9.676768,1.4798,0.714874,0.64683,0.7829,0.1132
1698343990906250,-9.669768,1.13798,0.719874,0.66283,0.21029,0.4332
1698343990914062,-9.683768,1.11798,0.723874,0.68383,0.10229,0.8032
1698343990921875,-9.696768,1.11798,0.725874,0.66083,0.22829,0.1032
1698343990929687,-9.701768,1.16798,0.750874,0.67783,0.24229,0.2732
1698343990937500,-9.726768,1.34798,0.746874,0.65983,0.27829,0.668
1698343990945312,-9.728768,1.34798,0.739874,0.67583,0.25829,0.5368
1698343990953125,-9.728768,1.29798,0.719874,0.69283,0.23729,0.8368
1698343990960937,-9.708768,1.38798,0.707874,0.66383,0.25429,0.2832
1698343990968750,-9.710768,1.38798,0.710874,0.67783,0.24129,0.1132
1698343990976562,-9.710768,1.38798,0.719874,0.66283,0.10929,0.3568
1698343990984375,-9.712768,1.31798,0.716874,0.68083,0.21829,0.1432
1698343990992187,-9.717768,1.25798,0.712874,0.66483,0.20629,0.7632
1698343991000000,-9.715768,1.27798,0.728874,0.71383,0.18329,0.3132
1698343991007812,-9.710768,1.20798,0.741874,0.69583,0.10829,0.2932
1698343991015625,-9.726768,1.34798,0.732874,0.71083,0.20629,0.1232
1698343991023437,-9.724768,1.47798,0.716874,0.79083,0.16929,0.1668
1698343991031250,-9.728768,1.60798,0.728874,0.67883,0.20829,0.2732
1698343991039062,-9.708768,1.64798,0.719874,0.69583,0.27029,0.4532
1698343991046875,-9.701768,1.51798,0.728874,0.66183,0.21029,0.1132
1698343991054687,-9.701768,1.38798,0.730874,0.68083,0.20129,0.168
1698343991062500,-9.676768,1.20798,0.719874,0.67783,0.25529,0.2068
1698343991070312,-9.674768,1.31798,0.705874,0.69583,0.18829,0.1332
1698343991078125,-9.683768,1.13798,0.707874,0.66283,0.15929,0.468
1698343991085937,-9.699768,1.16798,0.694874,0.70983,0.30529,0.2832
1698343991093750,-9.696768,1.29798,0.705874,0.69183,0.32629,0.668
1698343991101562,-9.697768,1.40798,0.698874,0.74283,0.19029,0.4532
1698343991109375,-9.697768,1.47798,0.701874,0.83483,0.27229,0.268
1698343991117187,-9.697768,1.58798,0.694874,0.80183,0.24229,0.1968
1698343991125000,-9.704768,1.62798,0.685874,0.75783,0.15729,0.1332
1698343991132812,-9.713768,1.69798,0.678874,0.66383,0.22129,0.2932
1698343991140625,-9.726768,1.63798,0.685874,0.67883,0.17329,0.1232
1698343991148437,-9.731768,1.49798,0.698874,0.66383,0.10829,0.1332
1698343991156250,-9.732768,1.34798,0.712874,0.67883,0.19229,0.2832
1698343991164062,-9.732768,1.20798,0.716874,0.66583,0.13729,0.4632
1698343991171875,-9.728768,1.12798,0.694874,0.70983,0.15929,0.1232
1698343991179687,-9.721768,1.14798,0.705874,0.74383,0.16929,0.3132
1698343991187500,-9.725768,1.12798,0.723874,0.88283,0.17629,0.4632
1698343991195312,-9.714768,1.16798,0.741874,0.86683,0.15929,0.1432
1698343991203125,-9.697768,1.24798,0.730874,0.78983,0.23829,0.3032
1698343991210937,-9.685768,1.20798,0.714874,0.75683,0.19229,0.1232
1698343991218750,-9.685768,1.29798,0.719874,0.77483,0.13829,0.3132
1698343991226562,-9.692768,1.40798,0.714874,0.78983,0.12529,0.1432
1698343991234375,-9.699768,1.49798,0.734874,0.81983,0.14329,0.1332
1698343991242187,-9.712768,1.47798,0.725874,0.78883,0.12829,0.2932
1698343991250000,-9.706768,1.49798,0.716874,0.74183,0.15929,0.1232
1698343991257812,-9.701768,1.38798,0.728874,0.75683,0.14429,0.2832
1698343991265625,-9.694768,1.36798,0.719874,0.80283,0.17929,0.368
1698343991273437,-9.694768,1.33798,0.723874,0.86883,0.17029,0.1632
1698343991281250,-9.699768,1.40798,0.714874,0.86783,0.12529,0.3132
1698343991289062,-9.726768,1.58798,0.723874,0.74283,0.15229,0.3268
1698343991296875,-9.746768,1.52798,0.734874,0.75883,0.15429,0.1768
1698343991304687,-9.742768,1.52798,0.737874,0.80483,0.12529,0.1432
1698343991312500,-9.733768,1.49798,0.737874,0.79083,0.13629,0.1632
1698343991320312,-9.737768,1.36798,0.737874,0.82183,0.9029,0.3132
1698343991328125,-9.710768,1.27798,0.746874,0.82483,0.8229,0.232
1698343991335937,-9.701768,1.11798,0.719874,0.77383,0.23829,0.1432
1698343991343750,-9.680768,1.13798,0.737874,0.75683,0.20829,0.2832
1698343991351562,-9.679768,1.29798,0.725874,0.80483,0.12529,0.1432
1698343991359375,-9.699768,1.24798,0.719874,0.77483,0.18729,0.1532
1698343991367187,-9.697768,1.29798,0.730874,0.78883,0.25629,0.2932
1698343991375000,-9.696768,1.18798,0.737874,0.79083,0.17029,0.1532
1698343991382812,-9.717768,1.25798,0.725874,0.90083,0.17129,0.3232
1698343991390625,-9.714768,1.31798,0.725874,0.92783,0.19529,0.1332
1698343991398437,-9.724768,1.49798,0.723874,0.80583,0.20329,0.1532
1698343991406250,-9.713768,1.42798,0.716874,0.83883,0.16929,0.3232
1698343991414062,-9.690768,1.40798,0.732874,0.86883,0.12329,0.3232
1698343991421875,-9.683768,1.60798,0.741874,0.71083,0.24129,0.7632
1698343991429687,-9.686768,1.73798,0.734874,0.74183,0.22129,0.1332
1698343991437500,-9.679768,1.73798,0.730874,0.72683,0.31829,0.2932
1698343991445312,-9.697768,1.69798,0.719874,0.72683,0.31829,0.1332
1698343991453125,-9.724768,1.71798,0.721874,0.71283,0.25029,0.3032
1698343991460937,-9.733768,1.54798,0.714874,0.80583,0.15429,0.1532
1698343991468750,-9.764768,1.39798,0.698874,0.80483,0.23929,0.2932
1698343991476562,-9.762768,1.36798,0.696874,0.79083,0.15629,0.4732
1698343991484375,-9.751768,1.32798,0.701874,0.77383,0.17229,0.1432
1698343991492187,-9.742768,1.34798,0.705874,0.77383,0.25229,0.1432
1698343991500000,-9.717768,1.25798,0.705874,0.82083,0.12629,0.3032
1698343991507812,-9.703768,1.40798,0.712874,0.86883,0.22129,0.4732
1698343991515625,-9.688768,1.55798,0.743874,0.74283,0.18829,0.1432
1698343991523437,-9.692768,1.60798,0.755874,0.80483,0.11029,0.1432
1698343991531250,-9.665768,1.53798,0.755874,0.77383,0.11029,0.4532
1698343991539062,-9.641768,1.41798,0.737874,0.75983,0.15229,0.3132
1698343991546875,-9.636768,1.19798,0.730874,0.89983,0.9029,0.1632
1698343991554687,-9.649768,1.13798,0.741874,0.78983,0.17229,0.1432
1698343991562500,-9.667768,1.28798,0.743874,0.88183,0.17729,0.2932
1698343991570312,-9.685768,1.31798,0.730874,0.89983,0.9229,0.6432
1698343991578125,-9.701768,1.49798,0.712874,0.91483,0.17429,0.4732
1698343991585937,-9.701768,1.58798,0.698874,0.92983,0.15929,0.1532
1698343991593750,-9.702768,1.67798,0.710874,0.91683,0.10529,0.3332
1698343991601562,-9.713768,1.67798,0.696874,0.93283,0.7229,0.3332
1698343991609375,-9.719768,1.47798,0.698874,0.91683,0.8929,0.1732
1698343991617187,-9.717768,1.51798,0.712874,0.93083,0.7629,0.3232
1698343991625000,-9.704768,1.60798,0.716874,0.91483,0.9529,0.4632
1698343991632812,-9.699768,1.73798,0.703874,0.89983,0.7629,0.1532
1698343991640625,-9.711768,1.105798,0.710874,0.92883,0.8329,0.6132
1698343991648437,-9.716768,1.107798,0.710874,0.93183,0.9229,0.4832
1698343991656250,-9.714768,1.104798,0.710874,0.94783,0.7229,0.3332
1698343991664062,-9.711768,1.104798,0.728874,0.91483,0.9229,0.1632
1698343991671875,-9.702768,1.102798,0.723874,0.92683,0.8429,0.368
1698343991679687,-9.700768,1.104798,0.710874,0.91483,0.12629,0.3132
1698343991687500,-9.713768,1.100798,0.701874,0.92883,0.11329,0.3032
1698343991695312,-9.725768,1.107798,0.694874,0.85383,0.17229,0.6332
1698343991703125,-9.732768,1.105798,0.694874,0.79183,0.13629,0.6432
1698343991710937,-9.736768,1.107798,0.687874,0.74283,0.19229,0.10932
1698343991718750,-9.736768,1.103798,0.685874,0.69683,0.22129,0.9332
1698343991726562,-9.718768,1.105798,0.705874,0.66383,0.20829,0.5932
1698343991734375,-9.724768,1.85798,0.710874,0.67883,0.21129,0.7432
1698343991742187,-9.712768,1.63798,0.728874,0.69183,0.33029,0.7232
1698343991750000,-9.719768,1.65798,0.730874,0.77283,0.25929,0.9232
1698343991757812,-9.719768,1.58798,0.725874,0.77283,0.32329,0.9232
1698343991765625,-9.731768,1.69798,0.728874,0.69583,0.28729,0.4432
1698343991773437,-9.736768,1.87798,0.716874,0.69383,0.27329,0.1132
1698343991781250,-9.717768,1.92798,0.716874,0.80083,0.24829,0.2632
1698343991789062,-9.703768,1.78798,0.710874,0.79783,0.25429,0.732
1698343991796875,-9.686768,1.91798,0.707874,0.64683,0.30629,0.2632
1698343991804687,-9.672768,1.89798,0.698874,0.67583,0.34429,0.832
1698343991812500,-9.686768,1.109798,0.703874,0.66083,0.36029,0.5632
1698343991820312,-9.702768,1.116798,0.716874,0.67683,0.31129,0.5732
1698343991828125,-9.714768,1.118798,0.723874,0.66283,0.22229,0.1968
1698343991835937,-9.718768,1.111798,0.721874,0.67483,0.28029,0.832
1698343991843750,-9.731768,1.100798,0.716874,0.66283,0.21029,0.2732
1698343991851562,-9.742768,1.105798,0.701874,0.65983,0.21529,0.832
1698343991859375,-9.742768,1.90798,0.678874,0.66083,0.26229,0.2532
1698343991867187,-9.740768,1.74798,0.694874,0.66183,0.29029,0.1132
1698343991875000,-9.733768,1.72798,0.705874,0.65983,0.36029,0.2432
1698343991882812,-9.713768,1.60798,0.710874,0.66283,0.40329,0.4332
1698343991890625,-9.706768,1.67798,0.719874,0.65983,0.32829,0.832
1698343991898437,-9.679768,1.71798,0.730874,0.65983,0.40929,0.2432
1698343991906250,-9.668768,1.71798,0.732874,0.67783,0.35529,0.1032
1698343991914062,-9.659768,1.55798,0.725874,0.66383,0.34129,0.12232
1698343991921875,-9.663768,1.66798,0.719874,0.66183,0.35729,0.5832
1698343991929687,-9.675768,1.84798,0.725874,0.67683,0.38829,0.1032
1698343991937500,-9.686768,1.89798,0.710874,0.72483,0.30829,0.2732
1698343991945312,-9.688768,1.100798,0.714874,0.69083,0.40929,0.832
1698343991953125,-9.684768,1.86798,0.712874,0.69283,0.38829,0.2632
1698343991960937,-9.684768,1.78798,0.689874,0.75483,0.29329,0.1032
1698343991968750,-9.677768,1.75798,0.680874,0.75483,0.27729,0.2732
1698343991976562,-9.684768,1.77798,0.685874,0.67783,0.35529,0.1032
1698343991984375,-9.695768,1.82798,0.692874,0.67783,0.27229,0.468
1698343991992187,-9.700768,1.78798,0.662874,0.66283,0.19029,0.368
1698343992000000,-9.713768,1.76798,0.669874,0.78883,0.15929,0.1332
1698343992007812,-9.731768,1.67798,0.658874,0.89983,0.20529,0.6332
1698343992015625,-9.740768,1.76798,0.674874,0.77483,0.15629,0.4632
1698343992023437,-9.738768,1.78798,0.685874,0.81983,0.20829,0.4532
1698343992031250,-9.738768,1.96798,0.705874,0.75683,0.25629,0.1332
1698343992039062,-9.743768,1.109798,0.705874,0.77383,0.19029,0.2932
1698343992046875,-9.718768,1.118798,0.712874,0.74083,0.25229,0.6668
1698343992054687,-9.691768,1.117798,0.719874,0.64883,0.10629,0.1332
1698343992062500,-9.662768,1.119798,0.716874,0.83783,0.20329,0.3132
1698343992070312,-9.649768,1.121798,0.716874,0.80583,0.17229,0.1432
1698343992078125,-9.662768,1.117798,0.705874,0.72783,0.25129,0.3032
1698343992085937,-9.675768,1.117798,0.739874,0.69483,0.27029,0.1232
1698343992093750,-9.698768,1.120798,0.757874,0.66383,0.23929,0.2832
1698343992101562,-9.714768,1.113798,0.746874,0.67983,0.25429,0.1232
1698343992109375,-9.725768,1.105798,0.716874,0.66483,0.18829,0.6132
1698343992117187,-9.729768,1.94798,0.705874,0.66383,0.17529,0.6032
1698343992125000,-9.727768,1.82798,0.707874,0.68183,0.16929,0.4732
1698343992132812,-9.713768,1.67798,0.730874,0.66183,0.21129,0.1032
1698343992140625,-9.695768,1.55798,0.725874,0.69583,0.14129,0.2932
1698343992148437,-9.681768,1.55798,0.732874,0.82183,0.12129,0.1632
1698343992156250,-9.661768,1.57798,0.719874,0.82283,0.18529,0.3232
1698343992164062,-9.675768,1.73798,0.732874,0.82183,0.20329,0.1532
1698343992171875,-9.687768,1.104798,0.739874,0.80783,0.11829,0.3332
1698343992179687,-9.709768,1.118798,0.741874,0.80583,0.11029,0.6232
1698343992187500,-9.702768,1.118798,0.757874,0.67983,0.15929,0.4432
1698343992195312,-9.711768,1.120798,0.766874,0.67883,0.9329,0.1232
1698343992203125,-9.698768,1.106798,0.746874,0.69683,0.13629,0.1532
1698343992210937,-9.690768,1.78798,0.741874,0.75783,0.12629,0.2932
1698343992218750,-9.697768,1.64798,0.743874,0.83483,0.13929,0.8168
1698343992226562,-9.697768,1.73798,0.757874,0.75783,0.10829,0.1868
1698343992234375,-9.715768,1.76798,0.752874,0.80483,0.15729,0.3032
1698343992242187,-9.731768,1.81798,0.768874,0.88083,0.17929,0.1332
1698343992250000,-9.736768,1.105798,0.782874,0.78983,0.12529,0.3032
1698343992257812,-9.729768,1.100798,0.782874,0.78983,0.7529,0.1432
1698343992265625,-9.707768,1.111798,0.773874,0.88383,0.13929,0.3232
1698343992273437,-9.687768,1.113798,0.757874,0.75783,0.17229,0.1432
1698343992281250,-9.669768,1.106798,0.752874,0.83983,0.13329,0.3432
1698343992289062,-9.662768,1.106798,0.768874,0.72383,0.24129,0.3668
1698343992296875,-9.664768,1.104798,0.766874,0.69283,0.19029,0.6768
1698343992304687,-9.691768,1.115798,0.748874,0.71183,0.23629,0.4632
1698343992312500,-9.716768,1.122798,0.761874,0.70983,0.14229,0.1968
1698343992320312,-9.737768,1.134798,0.761874,0.76183,0.10229,0.6532
1698343992328125,-9.738768,1.129798,0.764874,0.64883,0.11029,0.6032
1698343992335937,-9.733768,1.114798,0.761874,0.65983,0.14929,0.2268
1698343992343750,-9.715768,1.82798,0.770874,0.67783,0.19329,0.1132
1698343992351562,-9.683768,1.69798,0.775874,0.67383,0.18529,0.868
1698343992359375,-9.674768,1.53798,0.764874,0.66083,0.24429,0.1032
1698343992367187,-9.677768,1.51798,0.764874,0.67883,0.25729,0.2732
1698343992375000,-9.677768,1.66798,0.766874,0.66383,0.19029,0.1232
1698343992382812,-9.697768,1.89798,0.752874,0.80483,0.17429,0.3032
1698343992390625,-9.716768,1.109798,0.746874,0.72783,0.15229,0.1668
1698343992398437,-9.714768,1.111798,0.743874,0.70983,0.15729,0.3568
1698343992406250,-9.711768,1.129798,0.746874,0.73983,0.17729,0.3668
1698343992414062,-9.696768,1.120798,0.746874,0.64683,0.15929,0.468
1698343992421875,-9.696768,1.120798,0.759874,0.74083,0.20429,0.6668
1698343992429687,-9.691768,1.113798,0.750874,0.75783,0.22129,0.268
1698343992437500,-9.693768,1.109798,0.741874,0.70983,0.21029,0.2732
1698343992445312,-9.705768,1.118798,0.752874,0.75583,0.21029,0.1232
1698343992453125,-9.734768,1.118798,0.755874,0.75883,0.18829,0.3032
1698343992460937,-9.738768,1.116798,0.757874,0.70783,0.22829,0.1032
1698343992468750,-9.714768,1.127798,0.755874,0.66383,0.27029,0.2832
1698343992476562,-9.707768,1.122798,0.739874,0.75883,0.25429,0.4532
1698343992484375,-9.689768,1.128798,0.746874,0.72783,0.21829,0.1432
1698343992492187,-9.685768,1.122798,0.746874,0.74383,0.18529,0.3132
1698343992500000,-9.678768,1.113798,0.757874,0.69683,0.30029,0.3032
1698343992507812,-9.680768,1.115798,0.750874,0.66183,0.29029,0.1132
1698343992515625,-9.675768,1.115798,0.743874,0.67683,0.29129,0.568
1698343992523437,-9.680768,1.104798,0.755874,0.69483,0.20629,0.1232
1698343992531250,-9.675768,1.106798,0.748874,0.69683,0.23429,0.3032
1698343992539062,-9.680768,1.115798,0.741874,0.79083,0.8729,0.3168
1698343992546875,-9.707768,1.104798,0.728874,0.71183,0.13729,0.168
1698343992554687,-9.711768,1.98798,0.725874,0.69783,0.15229,0.3132
1698343992562500,-9.725768,1.105798,0.719874,0.80483,0.10829,0.1432
1698343992570312,-9.734768,1.105798,0.743874,0.77383,0.11029,0.2932
1698343992578125,-9.734768,1.107798,0.734874,0.82083,0.4329,0.1532
1698343992585937,-9.732768,1.105798,0.721874,0.91783,0.529,0.3432
1698343992593750,-9.718768,1.111798,0.719874,0.91683,0.8929,0.1732
1698343992601562,-9.705768,1.124798,0.725874,0.91683,0.10329,0.3432
1698343992609375,-9.698768,1.122798,0.725874,0.84083,0.6529,0.1932
1698343992617187,-9.714768,1.133798,0.734874,0.83783,0.7629,0.6332
1698343992625000,-9.712768,1.133798,0.741874,0.86783,0.12829,0.6232
1698343992632812,-9.734768,1.122798,0.741874,0.90083,0.12129,0.1632
1698343992640625,-9.734768,1.120798,0.741874,0.93183,0.5629,0.132
1698343992648437,-9.731768,1.118798,0.721874,0.91183,0.16129,0.5068
1698343992656250,-9.707768,1.127798,0.710874,0.93083,0.31829,0.3132
1698343992664062,-9.703768,1.142798,0.734874,0.85083,0.30729,0.6132
1698343992671875,-9.694768,1.140798,0.743874,0.86683,0.27029,0.1768
1698343992679687,-9.678768,1.137798,0.759874,0.85183,0.28929,0.4632
1698343992687500,-9.689768,1.149798,0.775874,0.77183,0.27429,0.2832
1698343992695312,-9.674768,1.157798,0.786874,0.74183,0.22129,0.1332
1698343992703125,-9.663768,1.164798,0.766874,0.71183,0.18729,0.3032
1698343992710937,-9.665768,1.157798,0.748874,0.75683,0.20829,0.2832
1698343992718750,-9.678768,1.162798,0.732874,0.69583,0.20529,0.1332
1698343992726562,-9.676768,1.153798,0.739874,0.73983,0.21329,0.2632
1698343992734375,-9.694768,1.133798,0.728874,0.77283,0.23929,0.1332
1698343992742187,-9.698768,1.109798,0.707874,0.72483,0.14429,0.368
1698343992750000,-9.711768,1.104798,0.694874,0.80483,0.17229,0.168
1698343992757812,-9.724768,1.89798,0.671874,0.78983,0.9229,0.1432
1698343992765625,-9.738768,1.100798,0.689874,0.81983,0.15929,0.2932
1698343992773437,-9.758768,1.112798,0.698874,0.84783,0.19929,0.1132
1698343992781250,-9.747768,1.121798,0.705874,0.77083,0.11329,0.3568
1698343992789062,-9.738768,1.143798,0.723874,0.72183,0.14929,0.3868
1698343992796875,-9.714768,1.149798,0.712874,0.64883,0.15529,0.268
1698343992804687,-9.694768,1.153798,0.712874,0.72483,0.19229,0.368
1698343992812500,-9.678768,1.148798,0.721874,0.72583,0.12629,0.368
1698343992820312,-9.680768,1.137798,0.728874,0.72483,0.12929,0.2732
1698343992828125,-9.687768,1.117798,0.732874,0.77283,0.12629,0.1332
1698343992835937,-9.689768,1.104798,0.748874,0.67783,0.17529,0.368
1698343992843750,-9.677768,1.95798,0.755874,0.81683,0.16729,0.2632
1698343992851562,-9.675768,1.86798,0.761874,0.86783,0.20729,0.3032
1698343992859375,-9.668768,1.97798,0.752874,0.81783,0.24429,0.468
1698343992867187,-9.677768,1.99798,0.750874,0.89783,0.28729,0.1768
1698343992875000,-9.679768,1.98798,0.766874,0.92683,0.39229,0.1132
1698343992882812,-9.657768,1.113798,0.777874,0.92683,0.37529,0.368
1698343992890625,-9.660768,1.119798,0.782874,0.86583,0.32329,0.2932
1698343992898437,-9.667768,1.142798,0.766874,0.89483,0.11529,0.8368
1698343992906250,-9.694768,1.171798,0.739874,0.92483,0.17829,0.13168
1698343992914062,-9.714768,1.182798,0.739874,0.84783,0.22929,0.2068
1698343992921875,-9.713768,1.191798,0.743874,0.93283,0.12029,0.1832
1698343992929687,-9.715768,1.185798,0.743874,0.88083,0.17729,0.5068
1698343992937500,-9.719768,1.149798,0.741874,0.85183,0.18729,0.1668
1698343992945312,-9.727768,1.134798,0.730874,0.91483,0.14129,0.0
1698343992953125,-9.730768,1.149798,0.721874,0.92683,0.11729,0.368
1698343992960937,-9.719768,1.151798,0.734874,0.91383,0.14529,0.3032
1698343992968750,-9.712768,1.162798,0.750874,0.86783,0.22129,0.1532
1698343992976562,-9.712768,1.176798,0.728874,0.80383,0.22529,0.2932
1698343992984375,-9.708768,1.182798,0.741874,0.78283,0.31329,0.10268
1698343992992187,-9.690768,1.178798,0.748874,0.78483,0.24429,0.8568
1698343993000000,-9.680768,1.153798,0.752874,0.73883,0.25929,0.6868
1698343993007812,-9.667768,1.148798,0.750874,0.78383,0.24729,0.7068
1698343993015625,-9.662768,1.162798,0.734874,0.84583,0.32829,0.8568
1698343993023437,-9.663768,1.177798,0.750874,0.75683,0.28829,0.368
1698343993031250,-9.665768,1.179798,0.752874,0.70783,0.24229,0.5368
1698343993039062,-9.661768,1.181798,0.750874,0.66083,0.29129,0.568
1698343993046875,-9.674768,1.191798,0.746874,0.67483,0.28929,0.11768
1698343993054687,-9.683768,1.171798,0.750874,0.65983,0.27329,0.10168
1698343993062500,-9.665768,1.168798,0.755874,0.67683,0.24029,0.6868
1698343993070312,-9.669768,1.155798,0.752874,0.65983,0.32029,0.10168
1698343993078125,-9.678768,1.155798,0.741874,0.67783,0.28629,0.3568
1698343993085937,-9.676768,1.133798,0.741874,0.61483,0.30629,0.568
1698343993093750,-9.685768,1.129798,0.748874,0.64583,0.35529,0.1032
1698343993101562,-9.696768,1.120798,0.739874,0.67683,0.34229,0.2532
1698343993109375,-9.720768,1.118798,0.737874,0.66083,0.27529,0.2168
1698343993117187,-9.734768,1.132798,0.748874,0.67683,0.30829,0.1032
1698343993125000,-9.736768,1.136798,0.741874,0.65783,0.29429,0.10368
1698343993132812,-9.734768,1.149798,0.743874,0.67583,0.28929,0.8568
1698343993140625,-9.712768,1.144798,0.741874,0.66283,0.31629,0.5068
1698343993148437,-9.712768,1.127798,0.748874,0.70983,0.29929,0.9868
1698343993156250,-9.700768,1.122798,0.770874,0.77183,0.31729,0.8268
1698343993164062,-9.691768,1.113798,0.777874,0.68983,0.27629,0.10268
1698343993171875,-9.680768,1.124798,0.779874,0.73583,0.32729,0.13568
1698343993179687,-9.666768,1.119798,0.777874,0.73983,0.27229,0.8368
1698343993187500,-9.666768,1.117798,0.777874,0.69083,0.24029,0.14968
1698343993195312,-9.682768,1.120798,0.779874,0.77183,0.25429,0.5068
1698343993203125,-9.705768,1.115798,0.773874,0.75483,0.27029,0.11568
1698343993210937,-9.729768,1.118798,0.764874,0.72283,0.29129,0.5368
1698343993218750,-9.734768,1.129798,0.755874,0.75283,0.32429,0.11768
1698343993226562,-9.736768,1.129798,0.752874,0.64383,0.33929,0.8668
1698343993234375,-9.716768,1.136798,0.732874,0.67683,0.30229,0.11668
1698343993242187,-9.696768,1.122798,0.750874,0.72283,0.32229,0.8568
1698343993250000,-9.691768,1.122798,0.761874,0.67883,0.39829,0.5168
1698343993257812,-9.691768,1.111798,0.759874,0.67683,0.37029,0.2068
1698343993265625,-9.680768,1.111798,0.759874,0.66283,0.36829,0.2732
1698343993273437,-9.673768,1.119798,0.761874,0.69483,0.36729,0.1232
1698343993281250,-9.662768,1.122798,0.766874,0.67583,0.30629,0.6968
1698343993289062,-9.662768,1.119798,0.773874,0.69283,0.27529,0.1032
1698343993296875,-9.671768,1.117798,0.782874,0.78983,0.23829,0.3032
1698343993304687,-9.678768,1.113798,0.782874,0.74283,0.21929,0.1432
1698343993312500,-9.680768,1.106798,0.777874,0.71283,0.20129,0.3132
1698343993320312,-9.671768,1.104798,0.779874,0.78783,0.21029,0.1232
1698343993328125,-9.673768,1.97798,0.782874,0.81983,0.14429,0.2932
1698343993335937,-9.662768,1.104798,0.782874,0.81983,0.14129,0.168
1698343993343750,-9.671768,1.108798,0.791874,0.86783,0.10629,0.3268
1698343993351562,-9.678768,1.119798,0.759874,0.89883,0.16929,0.7968
1698343993359375,-9.696768,1.122798,0.739874,0.91383,0.10829,0.3268
1698343993367187,-9.727768,1.136798,0.750874,0.88083,0.20629,0.8168
1698343993375000,-9.727768,1.122798,0.764874,0.80583,0.9929,0.11068
1698343993382812,-9.718768,1.118798,0.757874,0.81883,0.9129,0.8168
1698343993390625,-9.736768,1.116798,0.750874,0.87983,0.10829,0.14568
1698343993398437,-9.729768,1.96798,0.743874,0.89883,0.7429,0.3168
1698343993406250,-9.718768,1.76798,0.755874,0.91483,0.7229,0.7968
1698343993414062,-9.704768,1.62798,0.743874,0.93083,0.12029,0.4668
1698343993421875,-9.702768,1.46798,0.757874,0.91583,0.11829,0.4568
1698343993429687,-9.715768,1.56798,0.775874,0.92983,0.17229,0.4868
1698343993437500,-9.686768,1.71798,0.779874,0.91583,0.15429,0.0
1698343993445312,-9.693768,1.100798,0.777874,0.91383,0.15929,0.1432
1698343993453125,-9.682768,1.99798,0.779874,0.93083,0.18529,0.6268
1698343993460937,-9.662768,1.99798,0.782874,0.91483,0.17029,0.4768
1698343993468750,-9.646768,1.101798,0.777874,0.92983,0.12329,0.6368
1698343993476562,-9.651768,1.92798,0.779874,0.91583,0.8529,0.9368
1698343993484375,-9.668768,1.90798,0.777874,0.96183,0.11829,0.9368
1698343993492187,-9.671768,1.88798,0.777874,0.92883,0.12329,0.9668
1698343993500000,-9.691768,1.109798,0.777874,0.96083,0.7429,0.9568
1698343993507812,-9.704768,1.111798,0.757874,0.102083,0.9529,0.11268
1698343993515625,-9.712768,1.124798,0.757874,0.89783,0.7329,0.11268
1698343993523437,-9.707768,1.140798,0.755874,0.97783,0.6929,0.12568
1698343993531250,-9.690768,1.142798,0.777874,0.99383,0.8329,0.14068
1698343993539062,-9.683768,1.153798,0.770874,0.91083,0.6229,0.12968
1698343993546875,-9.697768,1.169798,0.737874,0.92983,0.7229,0.7868
1698343993554687,-9.723768,1.182798,0.743874,0.91083,0.9529,0.13068
1698343993562500,-9.724768,1.180798,0.755874,0.91583,0.7229,0.1468
1698343993570312,-9.735768,1.174798,0.757874,0.92883,0.8829,0.12768
1698343993578125,-9.719768,1.167798,0.752874,0.91283,0.9329,0.8168
1698343993585937,-9.710768,1.151798,0.759874,0.92783,0.9529,0.8168
1698343993593750,-9.714768,1.145798,0.766874,0.84983,0.9529,0.3468
1698343993601562,-9.719768,1.151798,0.771874,0.86483,0.7529,0.12968
1698343993609375,-9.737768,1.165798,0.784874,0.81783,0.9329,0.11468
1698343993617187,-9.730768,1.154798,0.793874,0.83383,0.12629,0.8268
1698343993625000,-9.700768,1.140798,0.784874,0.94383,0.11329,0.1768
1698343993632812,-9.682768,1.120798,0.782874,0.81783,0.21129,0.368
1698343993640625,-9.664768,1.113798,0.775874,0.80683,0.11929,0.1568
1698343993648437,-9.677768,1.106798,0.784874,0.77183,0.22329,0.5068
1698343993656250,-9.682768,1.108798,0.788874,0.80483,0.25029,0.6468
1698343993664062,-9.704768,1.118798,0.782874,0.76883,0.23129,0.3868
1698343993671875,-9.716768,1.122798,0.789874,0.70783,0.21129,0.568
1698343993679687,-9.725768,1.142798,0.784874,0.80283,0.12429,0.8268
1698343993687500,-9.727768,1.136798,0.761874,0.67783,0.10829,0.8368
1698343993695312,-9.709768,1.140798,0.761874,0.73883,0.14629,0.3668
1698343993703125,-9.685768,1.137798,0.777874,0.70883,0.12429,0.8368
1698343993710937,-9.676768,1.144798,0.777874,0.75483,0.11129,0.9968
1698343993718750,-9.671768,1.153798,0.782874,0.70383,0.26729,0.8868
1698343993726562,-9.678768,1.144798,0.780874,0.72483,0.15929,0.5168
1698343993734375,-9.701768,1.144798,0.782874,0.75683,0.10629,0.8168
1698343993742187,-9.703768,1.135798,0.789874,0.72583,0.10829,0.5068
1698343993750000,-9.707768,1.138798,0.789874,0.66183,0.7729,0.5168
1698343993757812,-9.690768,1.148798,0.764874,0.67983,0.8629,0.9768
1698343993765625,-9.667768,1.161798,0.755874,0.67883,0.7129,0.9768
1698343993773437,-9.663768,1.175798,0.777874,0.61683,0.15429,0.1868
1698343993781250,-9.662768,1.150798,0.782874,0.62983,0.12729,0.6968
1698343993789062,-9.674768,1.139798,0.795874,0.63083,0.15529,0.8368
1698343993796875,-9.689768,1.120798,0.770874,0.66083,0.15829,0.11668
1698343993804687,-9.714768,1.120798,0.770874,0.67683,0.14429,0.5268
1698343993812500,-9.734768,1.116798,0.764874,0.66483,0.10529,0.168
1698343993820312,-9.750768,1.118798,0.755874,0.67883,0.13929,0.5068
1698343993828125,-9.752768,1.121798,0.764874,0.64783,0.23929,0.1132
1698343993835937,-9.736768,1.118798,0.761874,0.56583,0.26029,0.3968
1698343993843750,-9.711768,1.120798,0.777874,0.56683,0.24029,0.8668
1698343993851562,-9.687768,1.117798,0.784874,0.64383,0.19129,0.13368
1698343993859375,-9.700768,1.111798,0.786874,0.67983,0.12329,0.1868
1698343993867187,-9.702768,1.107798,0.791874,0.62983,0.18929,0.11668
1698343993875000,-9.698768,1.102798,0.793874,0.62983,0.22229,0.8468
1698343993882812,-9.715768,1.103798,0.779874,0.67583,0.21129,0.6968
1698343993890625,-9.704768,1.102798,0.784874,0.66083,0.24229,0.3768
1698343993898437,-9.689768,1.111798,0.788874,0.67683,0.25729,0.6868
1698343993906250,-9.675768,1.122798,0.777874,0.65783,0.24329,0.15068
1698343993914062,-9.669768,1.124798,0.764874,0.55183,0.25529,0.5368
1698343993921875,-9.660768,1.139798,0.748874,0.61383,0.22229,0.11768
1698343993929687,-9.669768,1.148798,0.743874,0.61383,0.20729,0.10168
1698343993937500,-9.676768,1.137798,0.746874,0.59683,0.19329,0.10268
1698343993945312,-9.702768,1.124798,0.743874,0.62783,0.19129,0.14968
1698343993953125,-9.714768,1.122798,0.746874,0.66183,0.17029,0.14668
1698343993960937,-9.732768,1.118798,0.743874,0.66583,0.9729,0.11168
1698343993968750,-9.734768,1.125798,0.757874,0.58383,0.7629,0.6868
1698343993976562,-9.712768,1.140798,0.770874,0.61583,0.9029,0.6768
1698343993984375,-9.683768,1.146798,0.775874,0.45783,0.7629,0.8668
1698343993992187,-9.660768,1.146798,0.775874,0.47383,0.15829,0.5468
1698343994000000,-9.660768,1.126798,0.761874,0.49083,0.12429,0.2168
1698343994007812,-9.675768,1.119798,0.759874,0.47383,0.28829,0.3868
1698343994015625,-9.700768,1.107798,0.764874,0.45883,0.18929,0.3868
1698343994023437,-9.713768,1.87798,0.761874,0.42583,0.20929,0.3968
1698343994031250,-9.715768,1.58798,0.746874,0.50483,0.17329,0.8568
1698343994039062,-9.710768,1.38798,0.714874,0.59983,0.15529,0.6768
1698343994046875,-9.724768,1.45798,0.705874,0.53683,0.12629,0.3768
1698343994054687,-9.713768,1.44798,0.705874,0.58383,0.11929,0.14668
1698343994062500,-9.710768,1.40798,0.712874,0.64583,0.17129,0.13168
1698343994070312,-9.708768,1.65798,0.734874,0.67383,0.25629,0.18168
1698343994078125,-9.706768,1.71798,0.739874,0.65983,0.22429,0.13368
1698343994085937,-9.697768,1.78798,0.748874,0.67483,0.24029,0.16568
1698343994093750,-9.678768,1.95798,0.752874,0.66383,0.10129,0.14568
1698343994101562,-9.661768,1.84798,0.755874,0.66083,0.5829,0.16368
1698343994109375,-9.659768,1.72798,0.761874,0.67983,0.6629,0.14468
1698343994117187,-9.650768,1.55798,0.746874,0.66283,0.8829,0.13068
1698343994125000,-9.663768,1.53798,0.752874,0.67883,0.7029,0.14568
1698343994132812,-9.652768,1.66798,0.746874,0.69383,0.12229,0.9868
1698343994140625,-9.643768,1.54798,0.743874,0.69483,0.11729,0.11268
1698343994148437,-9.661768,1.64798,0.734874,0.75783,0.13429,0.11268
1698343994156250,-9.686768,1.73798,0.737874,0.73783,0.12929,0.13368
1698343994164062,-9.706768,1.85798,0.732874,0.67483,0.6529,0.13368
1698343994171875,-9.731768,1.103798,0.746874,0.70883,0.2471,0.17768
1698343994179687,-9.740768,1.98798,0.741874,0.75683,0.429,0.17668
1698343994187500,-9.754768,1.101798,0.746874,0.80183,0.14429,0.8368
1698343994195312,-9.749768,1.101798,0.757874,0.78783,0.12129,0.12968
1698343994203125,-9.727768,1.94798,0.748874,0.72683,0.10329,0.9668
1698343994210937,-9.706768,1.87798,0.750874,0.70783,0.14229,0.9968
1698343994218750,-9.679768,1.82798,0.748874,0.67583,0.15629,0.14868
1698343994226562,-9.675768,1.89798,0.739874,0.67483,0.16029,0.16568
1698343994234375,-9.675768,1.104798,0.748874,0.69183,0.20629,0.14868
1698343994242187,-9.700768,1.111798,0.757874,0.70583,0.9629,0.13368
1698343994250000,-9.718768,1.122798,0.757874,0.73783,0.9429,0.14868
1698343994257812,-9.711768,1.122798,0.752874,0.67683,0.7529,0.14768
1698343994265625,-9.733768,1.112798,0.746874,0.67283,0.10129,0.13568
1698343994273437,-9.709768,1.105798,0.752874,0.65783,0.9829,0.15068
1698343994281250,-9.699768,1.78798,0.757874,0.67383,0.8129,0.13468
1698343994289062,-9.699768,1.75798,0.755874,0.66083,0.9129,0.16368
1698343994296875,-9.710768,1.56798,0.768874,0.67583,0.12529,0.14868
1698343994304687,-9.710768,1.62798,0.777874,0.65983,0.16029,0.13368
1698343994312500,-9.708768,1.69798,0.775874,0.70683,0.16029,0.13268
1698343994320312,-9.700768,1.75798,0.784874,0.73983,0.7329,0.14668
1698343994328125,-9.704768,1.76798,0.777874,0.66083,0.8929,0.16368
1698343994335937,-9.713768,1.78798,0.775874,0.70683,0.7429,0.19568
1698343994343750,-9.711768,1.84798,0.757874,0.66183,0.8429,0.24168
1698343994351562,-9.704768,1.95798,0.734874,0.61383,0.6929,0.22668
1698343994359375,-9.702768,1.93798,0.746874,0.58083,0.9129,0.22968
1698343994367187,-9.711768,1.84798,0.788874,0.59783,0.12029,0.21168
1698343994375000,-9.710768,1.65798,0.770874,0.57883,0.11229,0.24768
1698343994382812,-9.694768,1.56798,0.732874,0.64183,0.13029,0.16668
1698343994390625,-9.681768,1.49798,0.705874,0.59683,0.10729,0.19668
1698343994398437,-9.690768,1.44798,0.730874,0.58383,0.13529,0.14668
1698343994406250,-9.711768,1.56798,0.748874,0.52083,0.6929,0.19568
1698343994414062,-9.738768,1.65798,0.739874,0.53683,0.11729,0.21168
1698343994421875,-9.756768,1.72798,0.716874,0.45583,0.5929,0.16668
1698343994429687,-9.751768,1.69798,0.703874,0.50583,0.6929,0.14768
1698343994437500,-9.737768,1.49798,0.712874,0.48783,0.9129,0.18168
1698343994445312,-9.699768,1.51798,0.716874,0.42483,0.9229,0.18368
1698343994453125,-9.686768,1.46798,0.710874,0.43983,0.7429,0.23068
1698343994460937,-9.667768,1.19798,0.746874,0.41083,0.8329,0.24468
1698343994468750,-9.665768,1.8798,0.759874,0.40983,0.5229,0.24468
1698343994476562,-9.676768,1.2798,0.750874,0.37983,0.6729,0.22868
1698343994484375,-9.685768,1.4798,0.741874,0.42583,0.7129,0.21368
1698343994492187,-9.703768,1.4798,0.741874,0.47183,0.13829,0.23068
1698343994500000,-9.710768,1.2798,0.743874,0.54983,0.20529,0.19868
1698343994507812,-9.714768,0.998798,0.719874,0.50083,0.30329,0.21568
1698343994515625,-9.707768,1.5798,0.710874,0.48383,0.30529,0.24868
1698343994523437,-9.706768,1.13798,0.701874,0.41083,0.22929,0.21268
1698343994531250,-9.701768,1.4798,0.710874,0.48983,0.32829,0.16468
1698343994539062,-9.715768,1.22798,0.721874,0.52083,0.20029,0.14868
1698343994546875,-9.712768,1.7798,0.714874,0.52183,0.11929,0.13168
1698343994554687,-9.718768,0.994798,0.712874,0.53383,0.22729,0.10368
1698343994562500,-9.710768,0.991798,0.705874,0.58583,0.15329,0.3568
1698343994570312,-9.721768,0.994798,0.707874,0.61183,0.20929,0.13468
1698343994578125,-9.723768,0.996798,0.705874,0.67683,0.12629,0.8468
1698343994585937,-9.730768,0.992798,0.705874,0.63083,0.25329,0.5268
1698343994593750,-9.741768,0.985798,0.719874,0.65883,0.33729,0.14968
1698343994601562,-9.729768,0.983798,0.743874,0.62683,0.32529,0.11968
1698343994609375,-9.705768,0.987798,0.748874,0.62883,0.25729,0.10168
1698343994617187,-9.669768,0.975798,0.752874,0.61383,0.22029,0.14868
1698343994625000,-9.648768,0.979798,0.746874,0.64483,0.15829,0.13268
1698343994632812,-9.671768,1.798,0.757874,0.67583,0.9429,0.11668
1698343994640625,-9.698768,1.11798,0.750874,0.59583,0.24229,0.15068
1698343994648437,-9.726768,1.5798,0.730874,0.67783,0.18429,0.13068
1698343994656250,-9.743768,1.3798,0.725874,0.65983,0.17529,0.14968
1698343994664062,-9.750768,0.979798,0.716874,0.64583,0.18829,0.9968
1698343994671875,-9.718768,0.971798,0.714874,0.67983,0.15229,0.8168
1698343994679687,-9.716768,0.965798,0.705874,0.66083,0.18929,0.10068
1698343994687500,-9.700768,0.969798,0.719874,0.64383,0.15829,0.14968
1698343994695312,-9.695768,0.949798,0.714874,0.67583,0.7529,0.16368
1698343994703125,-9.695768,0.925798,0.705874,0.67683,0.9329,0.9968
1698343994710937,-9.695768,0.918798,0.712874,0.65983,0.6229,0.13268
1698343994718750,-9.695768,0.920798,0.743874,0.75783,0.7029,0.12868
1698343994726562,-9.704768,0.929798,0.734874,0.72583,0.8829,0.9768
1698343994734375,-9.707768,0.938798,0.716874,0.71283,0.8129,0.11068
1698343994742187,-9.716768,0.956798,0.732874,0.84983,0.12629,0.8268
1698343994750000,-9.706768,0.960798,0.750874,0.78483,0.11529,0.6868
1698343994757812,-9.695768,0.958798,0.766874,0.84883,0.12629,0.9868
1698343994765625,-9.695768,0.956798,0.770874,0.78483,0.11329,0.11668
1698343994773437,-9.700768,0.940798,0.757874,0.77183,0.12229,0.11368
1698343994781250,-9.704768,0.947798,0.743874,0.84783,0.11329,0.11568
1698343994789062,-9.698768,0.947798,0.716874,0.83383,0.7129,0.17668
1698343994796875,-9.702768,0.943798,0.710874,0.89383,0.9629,0.14768
1698343994804687,-9.711768,0.965798,0.739874,0.89683,0.7529,0.12868
1698343994812500,-9.729768,0.983798,0.743874,0.84783,0.9629,0.13168
1698343994820312,-9.736768,0.996798,0.730874,0.86383,0.6229,0.14668
1698343994828125,-9.734768,1.5798,0.723874,0.80383,0.7229,0.12868
1698343994835937,-9.725768,1.5798,0.721874,0.73883,0.9529,0.11668
1698343994843750,-9.714768,0.996798,0.732874,0.77083,0.5829,0.13068
1698343994851562,-9.712768,0.989798,0.748874,0.70983,0.2829,0.1868
1698343994859375,-9.716768,0.974798,0.730874,0.73883,0.3429,0.3768
1698343994867187,-9.727768,0.972798,0.734874,0.64783,0.8829,0.9868
1698343994875000,-9.731768,0.974798,0.728874,0.69083,0.11629,0.7068
1698343994882812,-9.731768,0.961798,0.748874,0.69583,0.13929,0.1332
1698343994890625,-9.734768,0.965798,0.752874,0.66283,0.10929,0.3568
1698343994898437,-9.727768,0.974798,0.746874,0.67983,0.19929,0.9768
1698343994906250,-9.694768,0.975798,0.737874,0.66183,0.10629,0.11468
1698343994914062,-9.700768,0.976798,0.732874,0.66183,0.17329,0.5168
1698343994921875,-9.687768,0.967798,0.743874,0.67783,0.9329,0.6768
1698343994929687,-9.698768,0.962798,0.739874,0.64883,0.12329,0.268
1698343994937500,-9.713768,0.963798,0.734874,0.66183,0.10929,0.5168
1698343994945312,-9.713768,0.958798,0.737874,0.67683,0.11129,0.5268
1698343994953125,-9.722768,0.961798,0.741874,0.66283,0.14229,0.368
1698343994960937,-9.722768,0.960798,0.730874,0.67883,0.14129,0.3568
1698343994968750,-9.727768,0.958798,0.730874,0.66483,0.8829,0.168
1698343994976562,-9.727768,0.967798,0.734874,0.66583,0.11729,0.3268
1698343994984375,-9.734768,0.950798,0.743874,0.66183,0.12429,0.9968
1698343994992187,-9.731768,0.940798,0.746874,0.67983,0.10329,0.6568
1698343995000000,-9.731768,0.936798,0.759874,0.66083,0.15829,0.11668
1698343995007812,-9.722768,0.932798,0.750874,0.67983,0.13729,0.5068
1698343995015625,-9.711768,0.945798,0.741874,0.66183,0.15529,0.9968
1698343995023437,-9.709768,0.942798,0.752874,0.68183,0.6729,0.3168
1698343995031250,-9.693768,0.969798,0.716874,0.74183,0.9029,0.6568
1698343995039062,-9.702768,0.978798,0.705874,0.67583,0.7829,0.10068
1698343995046875,-9.710768,0.978798,0.710874,0.68183,0.14929,0.1568
1698343995054687,-9.723768,0.980798,0.728874,0.66283,0.24129,0.2732
1698343995062500,-9.734768,0.976798,0.712874,0.71483,0.19529,0.1732
1698343995070312,-9.749768,0.952798,0.719874,0.72683,0.15729,0.1332
1698343995078125,-9.747768,0.939798,0.723874,0.80483,0.17229,0.3368
1698343995085937,-9.743768,0.943798,0.721874,0.75983,0.10529,0.1532
1698343995093750,-9.722768,0.936798,0.703874,0.75883,0.9029,0.3132
1698343995101562,-9.698768,0.936798,0.705874,0.86983,0.8729,0.1732
1698343995109375,-9.675768,0.938798,0.712874,0.86683,0.10829,0.3268
1698343995117187,-9.682768,0.951798,0.712874,0.90083,0.10329,0.1468
1698343995125000,-9.695768,0.951798,0.721874,0.81783,0.14429,0.3568
1698343995132812,-9.698768,0.973798,0.723874,0.86983,0.18229,0.232
1698343995140625,-9.723768,0.969798,0.712874,0.88383,0.18529,0.4768
1698343995148437,-9.734768,0.965798,0.719874,0.91383,0.15629,0.3268
1698343995156250,-9.725768,0.958798,0.719874,0.89983,0.8929,0.1468
1698343995164062,-9.720768,0.943798,0.701874,0.91383,0.5529,0.11168
1698343995171875,-9.707768,0.938798,0.689874,0.93383,0.8229,0.4468
1698343995179687,-9.682768,0.960798,0.687874,0.88283,0.11029,0.168
1698343995187500,-9.684768,0.962798,0.701874,0.85383,0.18529,0.3232
1698343995195312,-9.696768,0.969798,0.698874,0.77383,0.9429,0.4532
1698343995203125,-9.714768,0.978798,0.705874,0.83783,0.13829,0.1632
1698343995210937,-9.725768,0.980798,0.712874,0.85383,0.7629,0.6332
1698343995218750,-9.711768,0.978798,0.683874,0.89983,0.10929,0.6432
1698343995226562,-9.705768,0.967798,0.667874,0.80783,0.8529,0.1732
1698343995234375,-9.705768,0.967798,0.671874,0.89883,0.7629,0.0
1698343995242187,-9.732768,0.989798,0.676874,0.88683,0.6729,0.1368
1698343995250000,-9.739768,0.990798,0.676874,0.82083,0.9429,0.3032
1698343995257812,-9.718768,0.980798,0.692874,0.80783,0.6929,0.1468
1698343995265625,-9.698768,0.989798,0.701874,0.71283,0.10329,0.1532
1698343995273437,-9.696768,1.4798,0.701874,0.75883,0.15229,0.1668
1698343995281250,-9.710768,1.13798,0.683874,0.83683,0.9029,0.1668
1698343995289062,-9.739768,1.20798,0.685874,0.79083,0.17029,0.4732
1698343995296875,-9.759768,1.12798,0.680874,0.69683,0.15429,0.4632
1698343995304687,-9.752768,0.999798,0.698874,0.71283,0.10529,0.3132
1698343995312500,-9.743768,0.979798,0.692874,0.74183,0.12829,0.7632
1698343995320312,-9.729768,0.974798,0.687874,0.72783,0.10829,0.7832
1698343995328125,-9.731768,0.956798,0.662874,0.74483,0.12129,0.9532
1698343995335937,-9.734768,0.958798,0.669874,0.72883,0.10729,0.7832
1698343995343750,-9.720768,0.965798,0.671874,0.80583,0.12529,0.6232
1698343995351562,-9.698768,0.964798,0.680874,0.88583,0.3829,0.3432
1698343995359375,-9.689768,0.966798,0.685874,0.87183,0.8429,0.6732
1698343995367187,-9.696768,0.982798,0.701874,0.87283,0.3529,0.6732
1698343995375000,-9.696768,0.998798,0.705874,0.91583,0.9029,0.1632
1698343995382812,-9.676768,1.798,0.698874,0.85383,0.4529,0.9532
1698343995390625,-9.683768,1.798,0.705874,0.94883,0.4329,0.9732
1698343995398437,-9.676768,0.995798,0.705874,0.90083,0.5629,0.3332
1698343995406250,-9.689768,0.987798,0.698874,0.97883,0.5371,0.3332
1698343995414062,-9.701768,0.998798,0.680874,0.99483,0.929,0.5032
1698343995421875,-9.721768,1.3798,0.647874,0.96183,0.4529,0.1632
1698343995429687,-9.730768,1.3798,0.665874,0.97783,0.9029,0.3068
1698343995437500,-9.739768,0.990798,0.680874,0.91483,0.7629,0.1632
1698343995445312,-9.745768,0.963798,0.685874,0.93183,0.9029,0.3232
1698343995453125,-9.740768,0.947798,0.687874,0.91683,0.8929,0.1732
1698343995460937,-9.739768,0.967798,0.683874,0.93383,0.6929,0.1932
1698343995468750,-9.746768,1.3798,0.680874,0.91583,0.9029,0.3232
1698343995476562,-9.746768,1.32798,0.671874,0.91383,0.11029,0.1532
1698343995484375,-9.746768,1.50798,0.687874,0.91483,0.14129,0.1532
1698343995492187,-9.739768,1.34798,0.692874,0.93083,0.18929,0.3232
1698343995500000,-9.726768,1.29798,0.669874,0.91583,0.18729,0.3232
1698343995507812,-9.714768,1.7798,0.674874,0.93083,0.28929,0.7932
1698343995515625,-9.709768,0.994798,0.649874,0.91383,0.29029,0.6232
1698343995523437,-9.730768,0.994798,0.671874,0.92983,0.33829,0.6232
1698343995531250,-9.734768,1.1798,0.683874,0.88283,0.35629,0.10932
1698343995539062,-9.741768,1.9798,0.669874,0.91483,0.27129,0.3132
1698343995546875,-9.743768,1.5798,0.687874,0.88183,0.24129,0.3032
1698343995554687,-9.741768,1.9798,0.694874,0.88283,0.28729,0.1432
1698343995562500,-9.730768,1.5798,0.674874,0.92883,0.29029,0.3032
1698343995570312,-9.732768,1.18798,0.662874,0.91283,0.14129,0.6468
1698343995578125,-9.710768,1.27798,0.649874,0.94683,0.17229,0.1632
1698343995585937,-9.694768,1.27798,0.647874,0.83383,0.24429,0.1232
1698343995593750,-9.696768,1.9798,0.676874,0.83383,0.26129,0.2832
1698343995601562,-9.699768,1.22798,0.687874,0.75583,0.24129,0.368
1698343995609375,-9.703768,1.22798,0.689874,0.75683,0.25629,0.1332
1698343995617187,-9.712768,1.34798,0.685874,0.70983,0.12829,0.2832
1698343995625000,-9.701768,1.36798,0.678874,0.65983,0.8729,0.832
1698343995632812,-9.669768,1.33798,0.649874,0.66283,0.9729,0.2732
1698343995640625,-9.663768,1.22798,0.653874,0.70983,0.8029,0.4432
1698343995648437,-9.667768,1.11798,0.647874,0.77183,0.22629,0.4432
1698343995656250,-9.685768,1.4798,0.660874,0.80483,0.29429,0.14032
1698343995664062,-9.698768,0.993798,0.665874,0.75783,0.27429,0.7632
1698343995671875,-9.739768,0.994798,0.671874,0.71083,0.20829,0.6032
1698343995679687,-9.768768,1.5798,0.653874,0.79083,0.20729,0.11032
1698343995687500,-9.788768,0.999798,0.633874,0.83283,0.13329,0.1132
1698343995695312,-9.777768,1.4798,0.624874,0.84983,0.11529,0.2832
1698343995703125,-9.763768,1.1798,0.640874,0.81683,0.19529,0.3668
1698343995710937,-9.748768,1.19798,0.658874,0.86483,0.25729,0.3468
1698343995718750,-9.708768,1.33798,0.649874,0.78783,0.38729,0.2832
1698343995726562,-9.674768,1.22798,0.644874,0.75783,0.30129,0.1868
1698343995734375,-9.674768,1.13798,0.665874,0.77183,0.33929,0.2832
1698343995742187,-9.680768,1.6798,0.667874,0.77283,0.24129,0.4432
1698343995750000,-9.712768,1.5798,0.667874,0.73983,0.26229,0.4232
1698343995757812,-9.739768,1.9798,0.671874,0.75883,0.23929,0.7732
1698343995765625,-9.752768,0.996798,0.669874,0.77583,0.23329,0.4832
1698343995773437,-9.750768,1.10798,0.665874,0.75783,0.17229,0.168
1698343995781250,-9.746768,1.12798,0.671874,0.70983,0.23729,0.1868
1698343995789062,-9.739768,1.14798,0.665874,0.80383,0.24129,0.2932
1698343995796875,-9.710768,1.2798,0.671874,0.83483,0.27229,0.268
1698343995804687,-9.685768,1.798,0.665874,0.80083,0.32829,0.1032
1698343995812500,-9.687768,0.991798,0.674874,0.83283,0.35929,0.1132
1698343995820312,-9.698768,1.2798,0.705874,0.83283,0.29329,0.468
1698343995828125,-9.712768,1.27798,0.687874,0.83583,0.30329,0.168
1698343995835937,-9.719768,1.16798,0.678874,0.73983,0.27329,0.2068
1698343995843750,-9.712768,1.38798,0.665874,0.77083,0.29229,0.1132
1698343995851562,-9.726768,1.45798,0.674874,0.69483,0.27029,0.2932
1698343995859375,-9.733768,1.38798,0.667874,0.82083,0.26929,0.1432
1698343995867187,-9.724768,1.34798,0.667874,0.81883,0.29029,0.2832
1698343995875000,-9.723768,1.14798,0.667874,0.91183,0.32529,0.1232
1698343995882812,-9.730768,1.16798,0.671874,0.86883,0.31629,0.3132
1698343995890625,-9.726768,1.16798,0.698874,0.88283,0.40029,0.1432
1698343995898437,-9.714768,1.31798,0.689874,0.85083,0.19229,0.3032
1698343995906250,-9.708768,1.49798,0.669874,0.81883,0.25929,0.2832
1698343995914062,-9.697768,1.58798,0.712874,0.72383,0.27729,0.4232
1698343995921875,-9.697768,1.75798,0.716874,0.77283,0.27229,0.1332
1698343995929687,-9.704768,1.93798,0.689874,0.77083,0.31029,0.2632
1698343995937500,-9.713768,1.93798,0.678874,0.74283,0.25429,0.4532
1698343995945312,-9.726768,1.74798,0.665874,0.69483,0.25629,0.4432
1698343995953125,-9.737768,1.43798,0.649874,0.69283,0.27529,0.2632
1698343995960937,-9.746768,1.32798,0.644874,0.67883,0.28629,0.1232
1698343995968750,-9.746768,1.23798,0.653874,0.69283,0.32429,0.2632
1698343995976562,-9.746768,1.12798,0.653874,0.78683,0.30829,0.468
1698343995984375,-9.745768,1.3798,0.660874,0.75483,0.27729,0.1032
1698343995992187,-9.741768,1.12798,0.685874,0.67983,0.28529,0.2932
1698343996000000,-9.714768,1.11798,0.705874,0.67883,0.31929,0.2832
1698343996007812,-9.690768,1.17798,0.703874,0.66483,0.29929,0.268
1698343996015625,-9.670768,1.33798,0.712874,0.67883,0.31729,0.1968
1698343996023437,-9.665768,1.17798,0.698874,0.66183,0.25929,0.1032
1698343996031250,-9.660768,1.8798,0.714874,0.67683,0.34229,0.2532
1698343996039062,-9.669768,0.997798,0.725874,0.75483,0.29229,0.468
1698343996046875,-9.683768,1.9798,0.732874,0.75683,0.27229,0.1232
1698343996054687,-9.712768,1.16798,0.714874,0.77283,0.25629,0.2932
1698343996062500,-9.730768,1.29798,0.707874,0.81883,0.30829,0.2832
1698343996070312,-9.723768,1.32798,0.705874,0.88083,0.24429,0.1232
1698343996078125,-9.712768,1.27798,0.705874,0.92783,0.30829,0.2932
1698343996085937,-9.710768,1.24798,0.710874,0.83683,0.31829,0.4632
1698343996093750,-9.690768,1.31798,0.707874,0.80183,0.18229,0.2632
1698343996101562,-9.701768,1.36798,0.689874,0.92883,0.17629,0.168
1698343996109375,-9.715768,1.54798,0.698874,0.94283,0.24629,0.1232
1698343996117187,-9.722768,1.69798,0.683874,0.91383,0.22729,0.6132
1698343996125000,-9.738768,1.76798,0.683874,0.83783,0.17029,0.1532
1698343996132812,-9.747768,1.88798,0.696874,0.76983,0.23329,0.2532
1698343996140625,-9.751768,1.78798,0.698874,0.74083,0.27229,0.1232
1698343996148437,-9.744768,1.59798,0.703874,0.72183,0.24629,0.3868
1698343996156250,-9.728768,1.47798,0.703874,0.66083,0.20929,0.3768
1698343996164062,-9.708768,1.42798,0.716874,0.67683,0.22829,0.1032
1698343996171875,-9.710768,1.45798,0.712874,0.69383,0.14629,0.2732
1698343996179687,-9.710768,1.47798,0.721874,0.66283,0.25529,0.1132
1698343996187500,-9.712768,1.40798,0.728874,0.67783,0.29029,0.2732
1698343996195312,-9.705768,1.27798,0.741874,0.66183,0.30829,0.1032
1698343996203125,-9.683768,1.7798,0.723874,0.66083,0.24229,0.2168
1698343996210937,-9.676768,0.997798,0.716874,0.67883,0.23929,0.2832
1698343996218750,-9.680768,1.798,0.723874,0.69483,0.25729,0.4332
1698343996226562,-9.698768,0.998798,0.721874,0.66183,0.29129,0.1032
1698343996234375,-9.705768,1.9798,0.739874,0.66183,0.27529,0.2632
1698343996242187,-9.696768,1.36798,0.730874,0.76983,0.21529,0.1032
1698343996250000,-9.703768,1.42798,0.716874,0.80183,0.31029,0.2732
1698343996257812,-9.715768,1.49798,0.707874,0.87883,0.24829,0.468
1698343996265625,-9.713768,1.49798,0.714874,0.83583,0.17429,0.168
1698343996273437,-9.697768,1.47798,0.719874,0.83683,0.20729,0.4632
1698343996281250,-9.690768,1.44798,0.705874,0.75783,0.17229,0.1432
1698343996289062,-9.699768,1.47798,0.707874,0.69083,0.23129,0.932
1698343996296875,-9.710768,1.58798,0.714874,0.69083,0.27729,0.3868
1698343996304687,-9.731768,1.67798,0.723874,0.70783,0.24429,0.568
1698343996312500,-9.735768,1.65798,0.734874,0.70683,0.21329,0.5468
1698343996320312,-9.737768,1.72798,0.743874,0.66083,0.22829,0.568
1698343996328125,-9.719768,1.49798,0.730874,0.66083,0.29129,0.3768
1698343996335937,-9.712768,1.38798,0.719874,0.70783,0.26029,0.1032
1698343996343750,-9.706768,1.33798,0.734874,0.74183,0.28729,0.1332
1698343996351562,-9.697768,1.36798,0.743874,0.66283,0.27329,0.2732
1698343996359375,-9.696768,1.18798,0.743874,0.67783,0.24429,0.5832
1698343996367187,-9.696768,1.11798,0.737874,0.66383,0.28829,0.6032
1698343996375000,-9.694768,1.11798,0.723874,0.66383,0.30329,0.4432
1698343996382812,-9.691768,0.998798,0.743874,0.67883,0.21029,0.4332
1698343996390625,-9.683768,1.798,0.750874,0.69483,0.25729,0.7632
1698343996398437,-9.682768,1.11798,0.761874,0.65983,0.23129,0.832
1698343996406250,-9.687768,1.20798,0.757874,0.67783,0.25929,0.1032
1698343996414062,-9.707768,1.25798,0.752874,0.66083,0.24629,0.2532
1698343996421875,-9.714768,1.9798,0.728874,0.74183,0.22129,0.1332
1698343996429687,-9.739768,1.12798,0.741874,0.80583,0.23629,0.1532
1698343996437500,-9.755768,1.3798,0.743874,0.74483,0.31329,0.3132
1698343996445312,-9.732768,1.5798,0.737874,0.71383,0.29529,0.0
1698343996453125,-9.719768,0.994798,0.730874,0.89983,0.30029,0.1632
1698343996460937,-9.716768,0.998798,0.741874,0.78883,0.27229,0.2932
1698343996468750,-9.712768,1.11798,0.743874,0.66183,0.34129,0.2632
1698343996476562,-9.712768,1.29798,0.737874,0.67783,0.27229,0.468
1698343996484375,-9.706768,1.33798,0.723874,0.67783,0.33729,0.1132
1698343996492187,-9.695768,1.53798,0.741874,0.66383,0.20629,0.2832
1698343996500000,-9.699768,1.49798,0.721874,0.70983,0.23929,0.368
1698343996507812,-9.697768,1.40798,0.741874,0.86583,0.27429,0.1332
1698343996515625,-9.699768,1.44798,0.743874,0.77283,0.24129,0.2832
1698343996523437,-9.694768,1.31798,0.757874,0.75483,0.26229,0.1032
1698343996531250,-9.703768,1.36798,0.755874,0.69383,0.25729,0.2732
1698343996539062,-9.672768,1.24798,0.777874,0.66383,0.20529,0.1332
1698343996546875,-9.652768,1.35798,0.775874,0.80383,0.10629,0.6568
1698343996554687,-9.641768,1.41798,0.757874,0.77383,0.18829,0.168
1698343996562500,-9.659768,1.55798,0.755874,0.88683,0.19829,0.3432
1698343996570312,-9.675768,1.66798,0.746874,0.88283,0.23929,0.3032
1698343996578125,-9.702768,1.84798,0.741874,0.85183,0.22129,0.1532
1698343996585937,-9.729768,1.78798,0.732874,0.80383,0.25729,0.4532
1698343996593750,-9.736768,1.69798,0.710874,0.80683,0.20129,0.1532
1698343996601562,-9.739768,1.45798,0.705874,0.89683,0.20829,0.1768
1698343996609375,-9.746768,1.27798,0.698874,0.82083,0.20529,0.1432
1698343996617187,-9.748768,1.17798,0.714874,0.78683,0.13129,0.468
1698343996625000,-9.750768,1.16798,0.730874,0.83483,0.11329,0.1332
1698343996632812,-9.750768,1.14798,0.732874,0.78783,0.19229,0.1868
1698343996640625,-9.744768,1.18798,0.743874,0.77283,0.25429,0.268
1698343996648437,-9.721768,1.7798,0.761874,0.81883,0.29029,0.2832
1698343996656250,-9.694768,0.998798,0.766874,0.80283,0.27529,0.1232
1698343996664062,-9.680768,1.2798,0.775874,0.91283,0.25929,0.2932
1698343996671875,-9.685768,1.798,0.768874,0.91083,0.27929,0.1132
1698343996679687,-9.694768,1.20798,0.759874,0.89883,0.30529,0.6232
1698343996687500,-9.685768,1.27798,0.779874,0.92883,0.24529,0.6132
1698343996695312,-9.669768,1.26798,0.775874,0.91283,0.11529,0.2932
1698343996703125,-9.665768,1.35798,0.752874,0.93083,0.13829,0.4768
1698343996710937,-9.674768,1.33798,0.755874,0.91283,0.24329,0.1332
1698343996718750,-9.676768,1.40798,0.757874,0.92783,0.22629,0.268
1698343996726562,-9.688768,1.60798,0.755874,0.91283,0.16129,0.1432
1698343996734375,-9.699768,1.73798,0.759874,0.94583,0.12529,0.1668
1698343996742187,-9.713768,1.71798,0.752874,0.97483,0.8129,0.1768
1698343996750000,-9.715768,1.69798,0.748874,0.91483,0.15429,0.3168
1698343996757812,-9.711768,1.71798,0.737874,0.93183,0.9029,0.1632
1698343996765625,-9.715768,1.69798,0.746874,0.91783,0.14929,0.1832
1698343996773437,-9.726768,1.76798,0.759874,0.85183,0.7729,0.3032
1698343996781250,-9.729768,1.76798,0.761874,0.86783,0.20529,0.0
1698343996789062,-9.733768,1.69798,0.764874,0.88383,0.22129,0.1532
1698343996796875,-9.717768,1.54798,0.766874,0.91383,0.22529,0.3032
1698343996804687,-9.699768,1.47798,0.759874,0.81983,0.22529,0.2932
1698343996812500,-9.699768,1.40798,0.759874,0.93083,0.25429,0.6332
1698343996820312,-9.695768,1.44798,0.761874,0.86983,0.24929,0.4932
1698343996828125,-9.678768,1.26798,0.743874,0.89783,0.27429,0.1332
1698343996835937,-9.683768,1.31798,0.725874,0.83483,0.24329,0.2832
1698343996843750,-9.697768,1.35798,0.741874,0.86683,0.23929,0.3032
1698343996851562,-9.702768,1.62798,0.741874,0.91483,0.14129,0.1532
1698343996859375,-9.724768,1.65798,0.741874,0.92883,0.16129,0.3032
1698343996867187,-9.731768,1.71798,0.743874,0.94683,0.7429,0.0
1698343996875000,-9.742768,1.72798,0.732874,0.91683,0.8729,0.1832
1698343996882812,-9.733768,1.67798,0.728874,0.91783,0.10229,0.3432
1698343996890625,-9.740768,1.60798,0.746874,0.90283,0.11629,0.1932
1698343996898437,-9.720768,1.67798,0.746874,0.93283,0.7129,0.3432
1698343996906250,-9.699768,1.47798,0.757874,0.91383,0.20729,0.1532
1698343996914062,-9.704768,1.42798,0.750874,0.93083,0.26929,0.3232
1698343996921875,-9.702768,1.55798,0.752874,0.91483,0.26929,0.1632
1698343996929687,-9.697768,1.62798,0.766874,0.93283,0.24729,0.1832
1698343996937500,-9.697768,1.71798,0.779874,0.88383,0.27129,0.3132
1698343996945312,-9.704768,1.102798,0.770874,0.91483,0.22129,0.1532
1698343996953125,-9.702768,1.107798,0.748874,0.88283,0.17629,0.3032
1698343996960937,-9.700768,1.115798,0.748874,0.80383,0.24129,0.1332
1698343996968750,-9.682768,1.111798,0.766874,0.80483,0.19029,0.3032
1698343996976562,-9.680768,1.93798,0.757874,0.69583,0.23629,0.1332
1698343996984375,-9.677768,1.75798,0.750874,0.80583,0.22129,0.3032
1698343996992187,-9.697768,1.64798,0.746874,0.86983,0.23629,0.11232
1698343997000000,-9.717768,1.58798,0.755874,0.75783,0.22329,0.4532
1698343997007812,-9.715768,1.67798,0.761874,0.77483,0.20729,0.9432
1698343997015625,-9.704768,1.62798,0.759874,0.77383,0.23929,0.4532
1698343997023437,-9.697768,1.65798,0.764874,0.77083,0.22929,0.1032
1698343997031250,-9.690768,1.51798,0.757874,0.80583,0.20529,0.3032
1698343997039062,-9.695768,1.47798,0.750874,0.75883,0.12329,0.1432
1698343997046875,-9.699768,1.47798,0.750874,0.72583,0.14429,0.2832
1698343997054687,-9.697768,1.40798,0.761874,0.66283,0.17529,0.1132
1698343997062500,-9.697768,1.47798,0.759874,0.67983,0.15729,0.1232
1698343997070312,-9.697768,1.51798,0.757874,0.66183,0.20829,0.3668
1698343997078125,-9.697768,1.49798,0.755874,0.67583,0.19829,0.2532
1698343997085937,-9.690768,1.47798,0.761874,0.78683,0.24129,0.1968
1698343997093750,-9.694768,1.49798,0.759874,0.80383,0.21029,0.2832
1698343997101562,-9.674768,1.46798,0.752874,0.74083,0.19329,0.4432
1698343997109375,-9.681768,1.62798,0.739874,0.80583,0.17229,0.4732
1698343997117187,-9.679768,1.77798,0.719874,0.77483,0.12329,0.6332
1698343997125000,-9.695768,1.104798,0.741874,0.86683,0.9529,0.1432
1698343997132812,-9.698768,1.111798,0.743874,0.75683,0.14429,0.2832
1698343997140625,-9.707768,1.120798,0.746874,0.66283,0.23929,0.2068
1698343997148437,-9.725768,1.109798,0.746874,0.67983,0.15729,0.1232
1698343997156250,-9.726768,1.89798,0.757874,0.66183,0.21129,0.1032
1698343997164062,-9.724768,1.67798,0.755874,0.67883,0.15929,0.2832
1698343997171875,-9.731768,1.60798,0.755874,0.66483,0.8829,0.168
1698343997179687,-9.706768,1.67798,0.757874,0.74183,0.14129,0.1332
1698343997187500,-9.697768,1.60798,0.759874,0.72583,0.23929,0.2832
1698343997195312,-9.709768,1.78798,0.766874,0.66383,0.25529,0.4432
1698343997203125,-9.734768,1.112798,0.748874,0.74083,0.27429,0.1232
1698343997210937,-9.734768,1.129798,0.750874,0.66183,0.25929,0.2632
1698343997218750,-9.723768,1.129798,0.757874,0.67883,0.22329,0.1232
1698343997226562,-9.711768,1.107798,0.761874,0.66283,0.6429,0.2732
1698343997234375,-9.710768,1.58798,0.755874,0.67683,0.12929,0.468
1698343997242187,-9.692768,1.31798,0.743874,0.65983,0.14929,0.2268
1698343997250000,-9.694768,1.22798,0.741874,0.67883,0.12629,0.2832
1698343997257812,-9.701768,1.9798,0.743874,0.66483,0.15729,0.4432
1698343997265625,-9.712768,1.25798,0.746874,0.67683,0.16429,0.1032
1698343997273437,-9.703768,1.34798,0.743874,0.66083,0.22929,0.932
1698343997281250,-9.697768,1.40798,0.743874,0.70883,0.22829,0.2632
1698343997289062,-9.686768,1.58798,0.741874,0.70983,0.9729,0.4332
1698343997296875,-9.683768,1.62798,0.741874,0.70883,0.14629,0.1132
1698343997304687,-9.681768,1.75798,0.759874,0.80283,0.11329,0.368
1698343997312500,-9.695768,1.69798,0.782874,0.78783,0.8029,0.1232
1698343997320312,-9.717768,1.71798,0.770874,0.74083,0.16229,0.2732
1698343997328125,-9.724768,1.58798,0.750874,0.70983,0.19029,0.368
1698343997335937,-9.701768,1.49798,0.737874,0.81883,0.21229,0.4432
1698343997343750,-9.690768,1.42798,0.741874,0.88083,0.25929,0.1332
1698343997351562,-9.672768,1.35798,0.743874,0.92883,0.25729,0.1432
1698343997359375,-9.683768,1.40798,0.741874,0.84983,0.30329,0.4968
1698343997367187,-9.697768,1.56798,0.743874,0.89683,0.21029,0.1332
1698343997375000,-9.690768,1.71798,0.755874,0.92783,0.13129,0.268
1698343997382812,-9.691768,1.93798,0.739874,0.91183,0.18129,0.1232
1698343997390625,-9.686768,1.111798,0.714874,0.91383,0.12829,0.3032
1698343997398437,-9.702768,1.120798,0.716874,0.89583,0.16429,0.1232
1698343997406250,-9.720768,1.118798,0.721874,0.91283,0.25929,0.1332
1698343997414062,-9.702768,1.120798,0.739874,0.83383,0.19529,0.2832
1698343997421875,-9.695768,1.93798,0.719874,0.83683,0.15629,0.1532
1698343997429687,-9.690768,1.80798,0.707874,0.91383,0.9729,0.6232
1698343997437500,-9.695768,1.64798,0.707874,0.86883,0.5929,0.6432
1698343997445312,-9.701768,1.54798,0.707874,0.84983,0.13329,0.7632
1698343997453125,-9.720768,1.76798,0.716874,0.91583,0.12329,0.3232
1698343997460937,-9.724768,1.85798,0.730874,0.92983,0.12529,0.0
1698343997468750,-9.736768,1.87798,0.714874,0.91483,0.12529,0.3132
1698343997476562,-9.720768,1.89798,0.705874,0.86783,0.9229,0.0
1698343997484375,-9.704768,1.104798,0.707874,0.83683,0.9029,0.0
1698343997492187,-9.682768,1.88798,0.712874,0.89883,0.12529,0.1668
1698343997500000,-9.691768,1.71798,0.719874,0.88483,0.5629,0.1732
1698343997507812,-9.695768,1.62798,0.730874,0.88383,0.12529,0.3132
1698343997515625,-9.704768,1.69798,0.734874,0.93083,0.10729,0.1632
1698343997523437,-9.718768,1.73798,0.737874,0.88683,0.10029,0.3532
1698343997531250,-9.736768,1.76798,0.732874,0.93183,0.12129,0.132
1698343997539062,-9.711768,1.85798,0.728874,0.88283,0.25629,0.1432
1698343997546875,-9.697768,1.71798,0.714874,0.91583,0.18729,0.3232
1698343997554687,-9.686768,1.66798,0.716874,0.91583,0.15429,0.0
1698343997562500,-9.693768,1.84798,0.725874,0.88283,0.17429,0.1532
1698343997570312,-9.697768,1.73798,0.728874,0.89783,0.17729,0.1332
1698343997578125,-9.707768,1.98798,0.725874,0.93283,0.21829,0.4932
1698343997585937,-9.720768,1.102798,0.721874,0.91483,0.13929,0.0
1698343997593750,-9.709768,1.120798,0.705874,0.93183,0.14029,0.3232
1698343997601562,-9.700768,1.113798,0.719874,0.91383,0.11029,0.1532
1698343997609375,-9.678768,1.108798,0.714874,0.94683,0.17229,0.3232
1698343997617187,-9.682768,1.106798,0.703874,0.86583,0.12629,0.3368
1698343997625000,-9.682768,1.82798,0.687874,0.82083,0.17429,0.1432
1698343997632812,-9.702768,1.78798,0.696874,0.83683,0.17629,0.6232
1698343997640625,-9.706768,1.69798,0.714874,0.90083,0.12329,0.4832
1698343997648437,-9.713768,1.87798,0.696874,0.88383,0.12529,0.3132
1698343997656250,-9.711768,1.107798,0.698874,0.87183,0.10229,0.6632
1698343997664062,-9.707768,1.109798,0.687874,0.89883,0.22529,0.7832
1698343997671875,-9.696768,1.126798,0.703874,0.86683,0.19229,0.1432
1698343997679687,-9.700768,1.115798,0.698874,0.90183,0.8729,0.3332
1698343997687500,-9.703768,1.131798,0.705874,0.91783,0.13329,0.1368
1698343997695312,-9.698768,1.131798,0.707874,0.86983,0.20029,0.1732
1698343997703125,-9.700768,1.135798,0.707874,0.88383,0.17229,0.1532
1698343997710937,-9.707768,1.124798,0.680874,0.86783,0.14129,0.3132
1698343997718750,-9.694768,1.126798,0.696874,0.91483,0.14129,0.1532
1698343997726562,-9.687768,1.137798,0.703874,0.86683,0.24329,0.6132
1698343997734375,-9.696768,1.138798,0.707874,0.80483,0.12529,0.168
1698343997742187,-9.714768,1.138798,0.703874,0.75783,0.20629,0.1332
1698343997750000,-9.718768,1.129798,0.689874,0.78883,0.12629,0.1332
1698343997757812,-9.709768,1.118798,0.685874,0.78983,0.20729,0.4532
1698343997765625,-9.698768,1.111798,0.701874,0.72783,0.18729,0.3032
1698343997773437,-9.698768,1.104798,0.703874,0.77483,0.13829,0.1532
1698343997781250,-9.704768,1.93798,0.674874,0.83483,0.16129,0.268
1698343997789062,-9.709768,1.89798,0.674874,0.82083,0.27029,0.3032
1698343997796875,-9.738768,1.83798,0.696874,0.83583,0.27029,0.1432
1698343997804687,-9.745768,1.96798,0.701874,0.89983,0.22029,0.3232
1698343997812500,-9.734768,1.105798,0.696874,0.81983,0.23929,0.1332
1698343997820312,-9.711768,1.104798,0.707874,0.83583,0.27229,0.2932
1698343997828125,-9.698768,1.109798,0.692874,0.78983,0.26929,0.1432
1698343997835937,-9.684768,1.113798,0.685874,0.80183,0.29329,0.1132
1698343997843750,-9.700768,1.126798,0.707874,0.83583,0.32129,0.2932
1698343997851562,-9.685768,1.131798,0.689874,0.77283,0.27029,0.1332
1698343997859375,-9.687768,1.120798,0.705874,0.69283,0.29329,0.2632
1698343997867187,-9.702768,1.102798,0.692874,0.88383,0.23629,0.1532
1698343997875000,-9.702768,1.82798,0.676874,0.78783,0.25729,0.2832
1698343997882812,-9.708768,1.67798,0.669874,0.85283,0.22129,0.3132
1698343997890625,-9.708768,1.62798,0.680874,0.78883,0.20729,0.2932
1698343997898437,-9.722768,1.65798,0.689874,0.88183,0.22629,0.2932
1698343997906250,-9.713768,1.76798,0.705874,0.86683,0.25629,0.1432
1698343997914062,-9.709768,1.80798,0.714874,0.77583,0.23329,0.1632
1698343997921875,-9.707768,1.100798,0.723874,0.86883,0.17129,0.3232
1698343997929687,-9.698768,1.102798,0.723874,0.88383,0.22129,0.1532
1698343997937500,-9.709768,1.85798,0.743874,0.85083,0.20829,0.2932
1698343997945312,-9.695768,1.65798,0.761874,0.80183,0.21329,0.1132
1698343997953125,-9.704768,1.69798,0.757874,0.86583,0.19429,0.2932
1698343997960937,-9.684768,1.48798,0.779874,0.91583,0.21829,0.0
1698343997968750,-9.679768,1.48798,0.768874,0.91583,0.25129,0.1632
1698343997976562,-9.674768,1.46798,0.757874,0.89883,0.27029,0.1532
1698343997984375,-9.675768,1.77798,0.750874,0.86783,0.23829,0.3132
1698343997992187,-9.666768,1.104798,0.750874,0.88383,0.22029,0.1668
1698343998000000,-9.698768,1.122798,0.761874,0.89883,0.17029,0.3168
1698343998007812,-9.682768,1.126798,0.750874,0.92883,0.22529,0.168
1698343998015625,-9.687768,1.146798,0.759874,0.91583,0.26729,0.1632
1698343998023437,-9.699768,1.160798,0.766874,0.86983,0.15329,0.3332
1698343998031250,-9.701768,1.175798,0.757874,0.83783,0.15429,0.3232
1698343998039062,-9.715768,1.191798,0.743874,0.75783,0.22129,0.268
1698343998046875,-9.708768,1.211798,0.755874,0.71083,0.22129,0.1332
1698343998054687,-9.699768,1.215798,0.750874,0.66183,0.17929,0.2632
1698343998062500,-9.731768,1.238798,0.755874,0.69283,0.24229,0.2168
1698343998070312,-9.738768,1.231798,0.748874,0.59883,0.22229,0.5268
1698343998078125,-9.736768,1.216798,0.755874,0.66583,0.10329,0.1532
1698343998085937,-9.715768,1.195798,0.753874,0.53983,0.23529,0.2832
1698343998093750,-9.710768,1.180798,0.750874,0.49283,0.16829,0.368
1698343998101562,-9.723768,1.151798,0.755874,0.64583,0.16229,0.2168
1698343998109375,-9.739768,1.138798,0.757874,0.50483,0.24229,0.2368
1698343998117187,-9.725768,1.136798,0.759874,0.47583,0.27029,0.1032
1698343998125000,-9.720768,1.125798,0.748874,0.44283,0.33729,0.2532
1698343998132812,-9.703768,1.118798,0.755874,0.41383,0.36529,0.1032
1698343998140625,-9.693768,1.120798,0.759874,0.42883,0.31929,0.2532
1698343998148437,-9.689768,1.102798,0.775874,0.47483,0.36829,0.932
1698343998156250,-9.671768,1.90798,0.761874,0.46183,0.36329,0.2732
1698343998164062,-9.673768,1.84798,0.750874,0.44283,0.28929,0.832
1698343998171875,-9.661768,1.70798,0.746874,0.61583,0.35029,0.468
1698343998179687,-9.672768,1.80798,0.734874,0.65983,0.30929,0.3868
1698343998187500,-9.675768,1.66798,0.743874,0.55283,0.23729,0.3668
1698343998195312,-9.675768,1.77798,0.725874,0.64283,0.34429,0.7168
1698343998203125,-9.677768,1.93798,0.719874,0.67683,0.30429,0.8468
1698343998210937,-9.695768,1.104798,0.741874,0.65983,0.35329,0.10168
1698343998218750,-9.704768,1.104798,0.719874,0.67783,0.30329,0.6768
1698343998226562,-9.709768,1.109798,0.719874,0.64583,0.31929,0.5268
1698343998234375,-9.698768,1.113798,0.703874,0.66083,0.31929,0.8468
1698343998242187,-9.679768,1.93798,0.694874,0.64383,0.24029,0.11768
1698343998250000,-9.675768,1.79798,0.701874,0.63183,0.25329,0.3568
1698343998257812,-9.695768,1.76798,0.707874,0.66083,0.26029,0.932
1698343998265625,-9.715768,1.85798,0.701874,0.67783,0.19329,0.2732
1698343998273437,-9.740768,1.103798,0.696874,0.66283,0.19029,0.368
1698343998281250,-9.754768,1.117798,0.694874,0.67483,0.18329,0.2368
1698343998289062,-9.740768,1.114798,0.703874,0.64583,0.17829,0.1032
1698343998296875,-9.733768,1.100798,0.721874,0.77183,0.17729,0.1232
1698343998304687,-9.722768,1.96798,0.737874,0.83583,0.22329,0.168
1698343998312500,-9.707768,1.91798,0.741874,0.77383,0.20529,0.3032
1698343998320312,-9.679768,1.100798,0.730874,0.72283,0.21529,0.932
1698343998328125,-9.677768,1.100798,0.746874,0.72183,0.18029,0.8568
1698343998335937,-9.689768,1.100798,0.748874,0.78683,0.23929,0.5068
1698343998343750,-9.695768,1.89798,0.761874,0.84883,0.14629,0.1968
1698343998351562,-9.697768,1.84798,0.766874,0.87983,0.9729,0.9868
1698343998359375,-9.702768,1.95798,0.755874,0.77283,0.18629,0.8168
1698343998367187,-9.709768,1.105798,0.752874,0.84883,0.16029,0.6668
1698343998375000,-9.706768,1.102798,0.766874,0.84783,0.22829,0.5268
1698343998382812,-9.700768,1.107798,0.777874,0.86583,0.22529,0.268
1698343998390625,-9.682768,1.109798,0.755874,0.84683,0.25929,0.11568
1698343998398437,-9.678768,1.115798,0.755874,0.73883,0.25929,0.5268
1698343998406250,-9.678768,1.122798,0.750874,0.85383,0.21629,0.1568
1698343998414062,-9.696768,1.144798,0.741874,0.92683,0.19729,0.1968
1698343998421875,-9.698768,1.151798,0.743874,0.89583,0.30329,0.9768
1698343998429687,-9.685768,1.151798,0.743874,0.91183,0.30529,0.4968
1698343998437500,-9.676768,1.155798,0.746874,0.91583,0.20329,0.1632
1698343998445312,-9.674768,1.148798,0.737874,0.92783,0.25929,0.1332
1698343998453125,-9.664768,1.137798,0.743874,0.88183,0.24329,0.2932
1698343998460937,-9.667768,1.148798,0.741874,0.86383,0.26129,0.3668
1698343998468750,-9.692768,1.162798,0.752874,0.84783,0.24629,0.2068
1698343998476562,-9.730768,1.180798,0.752874,0.88283,0.25629,0.1432
1698343998484375,-9.757768,1.185798,0.753874,0.91283,0.22829,0.2932
1698343998492187,-9.777768,1.163798,0.750874,0.88083,0.27729,0.1232
1698343998500000,-9.765768,1.141798,0.748874,0.92683,0.34629,0.4332
1698343998507812,-9.752768,1.119798,0.730874,0.91283,0.29229,0.2932
1698343998515625,-9.711768,1.102798,0.696874,0.92783,0.42129,0.1332
1698343998523437,-9.693768,1.91798,0.705874,0.86483,0.37529,0.2732
1698343998531250,-9.681768,1.87798,0.716874,0.86283,0.36229,0.1032
1698343998539062,-9.693768,1.98798,0.721874,0.81883,0.30829,0.2832
1698343998546875,-9.704768,1.105798,0.739874,0.89383,0.29929,0.1032
1698343998554687,-9.716768,1.111798,0.748874,0.92683,0.34329,0.368
1698343998562500,-9.736768,1.116798,0.741874,0.91283,0.25929,0.2932
1698343998570312,-9.723768,1.122798,0.728874,0.92883,0.24129,0.1432
1698343998578125,-9.702768,1.122798,0.739874,0.86383,0.26429,0.1032
1698343998585937,-9.702768,1.111798,0.757874,0.84883,0.30829,0.3568
1698343998593750,-9.668768,1.106798,0.775874,0.78683,0.24229,0.2068
1698343998601562,-9.662768,1.95798,0.777874,0.89983,0.25229,0.1532
1698343998609375,-9.661768,1.91798,0.759874,0.92583,0.24429,0.9968
1698343998617187,-9.673768,1.108798,0.750874,0.89383,0.26029,0.11668
1698343998625000,-9.680768,1.128798,0.757874,0.89583,0.29029,0.6668
1698343998632812,-9.678768,1.135798,0.750874,0.89583,0.27729,0.1968
1698343998640625,-9.669768,1.133798,0.750874,0.92783,0.22329,0.6568
1698343998648437,-9.669768,1.135798,0.752874,0.91483,0.10729,0.1568
1698343998656250,-9.682768,1.124798,0.732874,0.92683,0.21029,0.5068
1698343998664062,-9.696768,1.115798,0.752874,0.91383,0.25629,0.168
1698343998671875,-9.705768,1.120798,0.755874,0.92883,0.24129,0.168
1698343998679687,-9.691768,1.120798,0.743874,0.91383,0.25429,0.0
1698343998687500,-9.687768,1.133798,0.757874,0.92883,0.29029,0.268
1698343998695312,-9.691768,1.138798,0.764874,0.88083,0.26129,0.2832
1698343998703125,-9.703768,1.135798,0.766874,0.86883,0.17029,0.1632
1698343998710937,-9.716768,1.122798,0.759874,0.78783,0.21029,0.2832
1698343998718750,-9.732768,1.111798,0.741874,0.75783,0.20529,0.1432
1698343998726562,-9.736768,1.109798,0.752874,0.82183,0.13929,0.3132
1698343998734375,-9.725768,1.111798,0.759874,0.77283,0.15929,0.2932
1698343998742187,-9.702768,1.107798,0.770874,0.70783,0.24229,0.2068
1698343998750000,-9.682768,1.117798,0.757874,0.69283,0.21929,0.13068
1698343998757812,-9.680768,1.115798,0.755874,0.74083,0.30129,0.8268
1698343998765625,-9.691768,1.129798,0.748874,0.80183,0.28829,0.9968
1698343998773437,-9.705768,1.124798,0.755874,0.71083,0.25029,0.6568
1698343998781250,-9.709768,1.118798,0.746874,0.78683,0.27329,0.5168
1698343998789062,-9.705768,1.122798,0.750874,0.80283,0.20829,0.1868
1698343998796875,-9.696768,1.135798,0.757874,0.75483,0.25329,0.11568
1698343998804687,-9.680768,1.142798,0.748874,0.72283,0.20829,0.10068
1698343998812500,-9.671768,1.139798,0.757874,0.66083,0.22029,0.13168
1698343998820312,-9.664768,1.139798,0.746874,0.66083,0.14229,0.11668
1698343998828125,-9.662768,1.141798,0.739874,0.64583,0.23529,0.14768
1698343998835937,-9.671768,1.139798,0.743874,0.67683,0.12229,0.13168
1698343998843750,-9.691768,1.129798,0.759874,0.67583,0.20629,0.14868
1698343998851562,-9.705768,1.124798,0.755874,0.69383,0.15229,0.12968
1698343998859375,-9.712768,1.140798,0.761874,0.66183,0.20429,0.9968
1698343998867187,-9.710768,1.135798,0.752874,0.67783,0.21729,0.11468
1698343998875000,-9.709768,1.138798,0.741874,0.65983,0.25829,0.10268
1698343998882812,-9.703768,1.135798,0.743874,0.67583,0.23929,0.11668
1698343998890625,-9.718768,1.138798,0.743874,0.70783,0.25729,0.8468
1698343998898437,-9.714768,1.122798,0.739874,0.63083,0.19129,0.468
1698343998906250,-9.729768,1.114798,0.732874,0.66183,0.23929,0.3668
1698343998914062,-9.731768,1.105798,0.739874,0.59883,0.23929,0.6968
1698343998921875,-9.720768,1.107798,0.743874,0.56783,0.23729,0.10068
1698343998929687,-9.709768,1.93798,0.741874,0.56783,0.22429,0.2168
1698343998937500,-9.691768,1.95798,0.748874,0.64283,0.24329,0.13468
1698343998945312,-9.682768,1.109798,0.761874,0.48883,0.22529,0.3968
1698343998953125,-9.691768,1.111798,0.775874,0.55283,0.12029,0.11568
1698343998960937,-9.676768,1.106798,0.770874,0.68283,0.24529,0.0
1698343998968750,-9.680768,1.104798,0.775874,0.62783,0.28929,0.11868
1698343998976562,-9.678768,1.97798,0.775874,0.67983,0.19729,0.9668
1698343998984375,-9.670768,1.84798,0.770874,0.66083,0.23829,0.11668
1698343998992187,-9.675768,1.77798,0.768874,0.67783,0.23729,0.6768
1698343999000000,-9.682768,1.91798,0.748874,0.66383,0.25429,0.368
1698343999007812,-9.696768,1.109798,0.741874,0.67783,0.20429,0.8368
1698343999015625,-9.696768,1.109798,0.741874,0.66183,0.15529,0.11568
1698343999023437,-9.686768,1.111798,0.743874,0.65783,0.18029,0.13468
1698343999031250,-9.696768,1.122798,0.746874,0.65983,0.14429,0.11768
1698343999039062,-9.705768,1.133798,0.741874,0.65983,0.11229,0.11768
1698343999046875,-9.718768,1.127798,0.739874,0.67583,0.17529,0.10068
1698343999054687,-9.732768,1.116798,0.721874,0.65983,0.22429,0.11768
1698343999062500,-9.727768,1.114798,0.732874,0.67483,0.30929,0.8668
1698343999070312,-9.716768,1.96798,0.737874,0.66183,0.35229,0.6868
1698343999078125,-9.720768,1.94798,0.764874,0.67683,0.27329,0.2068
1698343999085937,-9.704768,1.89798,0.770874,0.61483,0.30229,0.8468
1698343999093750,-9.682768,1.102798,0.775874,0.57983,0.23029,0.8868
1698343999101562,-9.675768,1.108798,0.768874,0.61383,0.19129,0.6968
1698343999109375,-9.691768,1.113798,0.750874,0.67783,0.17529,0.3668
1698343999117187,-9.702768,1.115798,0.750874,0.66283,0.23729,0.5168
1698343999125000,-9.698768,1.111798,0.748874,0.67583,0.25729,0.11768
1698343999132812,-9.700768,1.118798,0.761874,0.65783,0.24529,0.11968
1698343999140625,-9.697768,1.104798,0.761874,0.67283,0.26129,0.15168
1698343999148437,-9.704768,1.85798,0.750874,0.65683,0.22929,0.16768
1698343999156250,-9.713768,1.87798,0.725874,0.65883,0.24029,0.14968
1698343999164062,-9.715768,1.69798,0.719874,0.65883,0.17629,0.13368
1698343999171875,-9.715768,1.73798,0.716874,0.66183,0.12029,0.16268
1698343999179687,-9.717768,1.71798,0.721874,0.67483,0.22429,0.14968
1698343999187500,-9.724768,1.76798,0.719874,0.65883,0.25829,0.13468
1698343999195312,-9.713768,1.87798,0.741874,0.67483,0.23729,0.19668
1698343999203125,-9.702768,1.107798,0.752874,0.69083,0.24029,0.14968
1698343999210937,-9.678768,1.117798,0.757874,0.65883,0.29129,0.13468
1698343999218750,-9.673768,1.106798,0.755874,0.67283,0.29329,0.15168
1698343999226562,-9.664768,1.102798,0.777874,0.70483,0.18029,0.13468
1698343999234375,-9.668768,1.99798,0.766874,0.65983,0.23829,0.14868
1698343999242187,-9.666768,1.95798,0.775874,0.76883,0.18229,0.7068
1698343999250000,-9.662768,1.99798,0.779874,0.69183,0.25529,0.10068
1698343999257812,-9.662768,1.99798,0.761874,0.70883,0.17329,0.8368
1698343999265625,-9.668768,1.100798,0.755874,0.79783,0.20129,0.10368
1698343999273437,-9.682768,1.89798,0.757874,0.75283,0.27629,0.11768
1698343999281250,-9.679768,1.77798,0.750874,0.77483,0.20129,0.1532
1698343999289062,-9.684768,1.80798,0.755874,0.72083,0.29129,0.13368
1698343999296875,-9.698768,1.111798,0.755874,0.69383,0.18429,0.12968
1698343999304687,-9.716768,1.116798,0.757874,0.66283,0.10629,0.8268
1698343999312500,-9.713768,1.120798,0.750874,0.67483,0.11429,0.10268
1698343999320312,-9.711768,1.118798,0.752874,0.69183,0.9629,0.8568
1698343999328125,-9.725768,1.105798,0.764874,0.65983,0.12729,0.11768
1698343999335937,-9.736768,1.98798,0.773874,0.72383,0.12629,0.6768
1698343999343750,-9.726768,1.74798,0.777874,0.67383,0.12929,0.14968
1698343999351562,-9.706768,1.62798,0.779874,0.67583,0.16029,0.8568
1698343999359375,-9.710768,1.47798,0.777874,0.66083,0.11429,0.3768
1698343999367187,-9.706768,1.38798,0.784874,0.67683,0.15829,0.6868
1698343999375000,-9.706768,1.51798,0.793874,0.65883,0.14529,0.15068
1698343999382812,-9.715768,1.45798,0.793874,0.67683,0.12429,0.11568
1698343999390625,-9.729768,1.69798,0.797874,0.62883,0.7629,0.13268
1698343999398437,-9.740768,1.78798,0.786874,0.66083,0.12429,0.14768
1698343999406250,-9.729768,1.94798,0.788874,0.58483,0.8829,0.9868
1698343999414062,-9.709768,1.78798,0.788874,0.60083,0.10229,0.9868
1698343999421875,-9.686768,1.69798,0.804874,0.65983,0.11129,0.14968
1698343999429687,-9.672768,1.51798,0.815874,0.67783,0.12429,0.6768
1698343999437500,-9.681768,1.42798,0.809874,0.62783,0.21129,0.10268
1698343999445312,-9.678768,1.24798,0.797874,0.59683,0.22529,0.11868
1698343999453125,-9.690768,1.31798,0.793874,0.67583,0.20929,0.10168
1698343999460937,-9.710768,1.29798,0.791874,0.65783,0.27629,0.11868
1698343999468750,-9.723768,1.36798,0.815874,0.67483,0.16229,0.13368
1698343999476562,-9.721768,1.43798,0.818874,0.65783,0.17829,0.16668
1698343999484375,-9.712768,1.40798,0.815874,0.67483,0.9429,0.14868
1698343999492187,-9.704768,1.62798,0.797874,0.65983,0.14029,0.16468
1698343999500000,-9.681768,1.71798,0.784874,0.65983,0.15529,0.21168
1698343999507812,-9.695768,1.69798,0.800874,0.67883,0.24829,0.12968
1698343999515625,-9.695768,1.64798,0.802874,0.65883,0.28929,0.16568
1698343999523437,-9.681768,1.64798,0.802874,0.67483,0.32229,0.10168
1698343999531250,-9.695768,1.64798,0.784874,0.65983,0.24229,0.10168
1698343999539062,-9.703768,1.47798,0.784874,0.67483,0.24429,0.7068
1698343999546875,-9.699768,1.29798,0.768874,0.62983,0.18929,0.11668
1698343999554687,-9.703768,1.29798,0.752874,0.67683,0.15829,0.10068
1698343999562500,-9.712768,1.29798,0.777874,0.62883,0.22429,0.10168
1698343999570312,-9.724768,1.40798,0.788874,0.67683,0.18929,0.11668
1698343999578125,-9.721768,1.45798,0.797874,0.61183,0.29129,0.10268
1698343999585937,-9.719768,1.49798,0.788874,0.64183,0.24329,0.15168
1698343999593750,-9.706768,1.47798,0.786874,0.67383,0.30729,0.13468
1698343999601562,-9.681768,1.40798,0.782874,0.66083,0.32129,0.6868
1698343999609375,-9.670768,1.28798,0.791874,0.67683,0.29729,0.17868
1698343999617187,-9.667768,1.28798,0.797874,0.65983,0.24029,0.11768
1698343999625000,-9.672768,1.20798,0.795874,0.67583,0.32129,0.8468
1698343999632812,-9.681768,1.11798,0.779874,0.66183,0.27029,0.8468
1698343999640625,-9.678768,1.20798,0.773874,0.70683,0.19329,0.11768
1698343999648437,-9.683768,1.13798,0.766874,0.73983,0.23929,0.8368
1698343999656250,-9.692768,1.27798,0.761874,0.66083,0.23729,0.14868
1698343999664062,-9.697768,1.47798,0.757874,0.65983,0.25729,0.10168
1698343999671875,-9.713768,1.49798,0.748874,0.70783,0.22429,0.8468
1698343999679687,-9.708768,1.63798,0.755874,0.73583,0.14929,0.13468
1698343999687500,-9.708768,1.65798,0.741874,0.65983,0.12529,0.16468
1698343999695312,-9.708768,1.47798,0.746874,0.65983,0.12529,0.14868
1698343999703125,-9.694768,1.40798,0.759874,0.70483,0.8529,0.13568
1698343999710937,-9.705768,1.20798,0.766874,0.75383,0.12729,0.14868
1698343999718750,-9.691768,1.9798,0.777874,0.67483,0.9829,0.11868
1698343999726562,-9.676768,1.9798,0.773874,0.70683,0.9629,0.8468
1698343999734375,-9.678768,1.11798,0.773874,0.72383,0.6029,0.11568
1698343999742187,-9.670768,1.28798,0.779874,0.73983,0.7529,0.11468
1698343999750000,-9.667768,1.40798,0.784874,0.72083,0.10029,0.11868
1698343999757812,-9.688768,1.64798,0.761874,0.66083,0.7829,0.6868
1698343999765625,-9.715768,1.69798,0.755874,0.67483,0.9629,0.11768
1698343999773437,-9.731768,1.56798,0.746874,0.65983,0.7629,0.14868
1698343999781250,-9.732768,1.36798,0.743874,0.66083,0.11129,0.10068
1698343999789062,-9.734768,1.12798,0.741874,0.67483,0.14729,0.10268
1698343999796875,-9.727768,0.994798,0.750874,0.65783,0.10329,0.8868
1698343999804687,-9.720768,0.976798,0.759874,0.70683,0.11429,0.6968
1698343999812500,-9.704768,0.956798,0.750874,0.71983,0.11929,0.10368
1698343999820312,-9.695768,0.954798,0.775874,0.80183,0.14829,0.468
1698343999828125,-9.697768,0.965798,0.788874,0.70483,0.11829,0.8668
1698343999835937,-9.689768,0.978798,0.818874,0.69283,0.12629,0.8368
1698343999843750,-9.705768,0.998798,0.800874,0.67583,0.11329,0.8568
1698343999851562,-9.710768,1.16798,0.806874,0.74083,0.7729,0.6668
1698343999859375,-9.694768,1.5798,0.815874,0.69183,0.7829,0.13268
1698343999867187,-9.678768,0.998798,0.813874,0.73683,0.11629,0.10268
1698343999875000,-9.691768,0.993798,0.811874,0.73883,0.9529,0.11668
1698343999882812,-9.685768,1.5798,0.804874,0.65783,0.8329,0.13468
1698343999890625,-9.692768,1.13798,0.791874,0.73783,0.9429,0.16468
1698343999898437,-9.708768,1.25798,0.795874,0.69083,0.14229,0.14868
1698343999906250,-9.710768,1.27798,0.784874,0.81583,0.8029,0.13168
1698343999914062,-9.728768,1.36798,0.793874,0.73883,0.11129,0.8368
1698343999921875,-9.712768,1.18798,0.791874,0.78583,0.14429,0.8368
1698343999929687,-9.696768,1.16798,0.806874,0.91283,0.6629,0.1332
1698343999937500,-9.712768,1.16798,0.788874,0.76983,0.13329,0.2168
1698343999945312,-9.708768,1.16798,0.791874,0.67983,0.21929,0.1332
1698343999953125,-9.728768,1.25798,0.791874,0.66183,0.20829,0.2068
1698343999960937,-9.739768,1.34798,0.818874,0.70883,0.24129,0.2068
1698343999968750,-9.732768,1.36798,0.827874,0.73983,0.29229,0.2732
1698343999976562,-9.735768,1.23798,0.802874,0.67783,0.35529,0.2632
1698343999984375,-9.728768,1.31798,0.800874,0.67983,0.34929,0.1332
1698343999992187,-9.710768,1.16798,0.820874,0.72383,0.37729,0.7332
1698344000000000,-9.694768,1.22798,0.811874,0.75983,0.30329,0.14232
1698344000007812,-9.687768,1.18798,0.800874,0.72783,0.27029,0.7732
1698344000015625,-9.687768,1.18798,0.768874,0.77283,0.16129,0.6032
1698344000023437,-9.694768,1.18798,0.757874,0.69383,0.21029,0.1132
1698344000031250,-9.682768,1.13798,0.755874,0.67583,0.23129,0.2532
1698344000039062,-9.699768,1.31798,0.777874,0.66283,0.9529,0.2732
1698344000046875,-9.710768,1.36798,0.782874,0.64583,0.14629,0.1032
1698344000054687,-9.726768,1.31798,0.795874,0.68183,0.8729,0.3132
1698344000062500,-9.723768,1.20798,0.797874,0.66383,0.9029,0.3468
1698344000070312,-9.701768,1.24798,0.791874,0.65083,0.8529,0.1532
1698344000078125,-9.678768,1.13798,0.793874,0.66283,0.7829,0.468
1698344000085937,-9.676768,0.993798,0.782874,0.64583,0.9629,0.2168
1698344000093750,-9.676768,0.989798,0.761874,0.63183,0.6229,0.1132
1698344000101562,-9.693768,0.982798,0.759874,0.60083,0.7829,0.2732
1698344000109375,-9.703768,0.980798,0.766874,0.60183,0.13729,0.268
1698344000117187,-9.714768,0.980798,0.766874,0.56683,0.9629,0.7068
1698344000125000,-9.727768,0.983798,0.773874,0.60083,0.9129,0.1968
1698344000132812,-9.730768,0.996798,0.764874,0.66483,0.8829,0.3368
1698344000140625,-9.718768,0.987798,0.759874,0.67783,0.7829,0.2068
1698344000148437,-9.712768,0.989798,0.725874,0.64683,0.10929,0.1968
1698344000156250,-9.707768,0.998798,0.714874,0.66283,0.12629,0.368
1698344000164062,-9.699768,0.998798,0.721874,0.66683,0.10029,0.0
1698344000171875,-9.714768,0.998798,0.739874,0.64683,0.14429,0.468
1698344000179687,-9.705768,0.993798,0.759874,0.65183,0.10029,0.3232
1698344000187500,-9.723768,0.996798,0.773874,0.61683,0.12129,0.3468
1698344000195312,-9.732768,0.992798,0.773874,0.61683,0.12429,0.1232
1698344000203125,-9.727768,0.983798,0.773874,0.64983,0.10529,0.3032
1698344000210937,-9.720768,0.974798,0.770874,0.61683,0.19029,0.2832
1698344000218750,-9.691768,0.960798,0.755874,0.64883,0.19029,0.4432
1698344000226562,-9.673768,0.971798,0.741874,0.67883,0.17529,0.1232
1698344000234375,-9.671768,0.982798,0.743874,0.66383,0.17329,0.1232
1698344000242187,-9.667768,1.798,0.741874,0.69383,0.14629,0.2732
1698344000250000,-9.660768,1.8798,0.743874,0.72483,0.17929,0.4332
1698344000257812,-9.669768,1.11798,0.739874,0.66183,0.4929,0.1032
1698344000265625,-9.692768,1.18798,0.721874,0.67983,0.9229,0.2932
1698344000273437,-9.703768,1.18798,0.721874,0.66483,0.4129,0.1432
1698344000281250,-9.728768,1.5798,0.714874,0.67983,0.6129,0.1232
1698344000289062,-9.732768,0.998798,0.701874,0.66583,0.7229,0.3032
1698344000296875,-9.734768,0.979798,0.680874,0.67883,0.171,0.4432
1698344000304687,-9.738768,0.983798,0.680874,0.66183,0.14629,0.1032
1698344000312500,-9.745768,0.987798,0.705874,0.67983,0.7529,0.2932
1698344000320312,-9.743768,1.5798,0.710874,0.66583,0.8829,0.4632
1698344000328125,-9.739768,1.21798,0.714874,0.70983,0.7929,0.368
1698344000335937,-9.733768,1.36798,0.710874,0.83683,0.9029,0.0
1698344000343750,-9.730768,1.29798,0.707874,0.69383,0.6229,0.368
1698344000351562,-9.715768,1.34798,0.703874,0.66283,0.12629,0.1232
1698344000359375,-9.706768,1.33798,0.712874,0.66483,0.9229,0.6132
1698344000367187,-9.707768,1.29798,0.730874,0.66183,0.14929,0.5732
1698344000375000,-9.685768,1.29798,0.723874,0.66383,0.19229,0.6032
1698344000382812,-9.688768,1.31798,0.730874,0.66483,0.15629,0.4532
1698344000390625,-9.696768,1.29798,0.723874,0.66283,0.17729,0.4332
1698344000398437,-9.713768,1.38798,0.728874,0.66683,0.15229,0.7932
1698344000406250,-9.733768,1.47798,0.714874,0.66383,0.21229,0.12232
1698344000414062,-9.739768,1.45798,0.714874,0.66083,0.16629,0.4132
1698344000421875,-9.748768,1.23798,0.716874,0.66083,0.14729,0.1032
1698344000429687,-9.736768,0.985798,0.701874,0.67883,0.12829,0.2732
1698344000437500,-9.707768,0.969798,0.689874,0.66383,0.9229,0.1332
1698344000445312,-9.693768,0.967798,0.676874,0.68183,0.7229,0.3032
1698344000453125,-9.698768,0.987798,0.674874,0.66183,0.10029,0.4232
1698344000460937,-9.703768,0.998798,0.698874,0.72583,0.7929,0.1232
1698344000468750,-9.700768,1.2798,0.716874,0.72483,0.9829,0.2732
1698344000476562,-9.685768,1.13798,0.716874,0.67883,0.13029,0.5932
1698344000484375,-9.672768,1.28798,0.707874,0.67983,0.4429,0.4532
1698344000492187,-9.676768,1.35798,0.707874,0.68083,0.7729,0.7732
1698344000500000,-9.674768,1.33798,0.710874,0.75783,0.9729,0.10832
1698344000507812,-9.674768,1.35798,0.705874,0.66283,0.8229,0.5832
1698344000515625,-9.694768,1.27798,0.707874,0.74083,0.10229,0.10632
1698344000523437,-9.710768,1.25798,0.705874,0.75583,0.8429,0.7532
1698344000531250,-9.739768,1.36798,0.710874,0.73883,0.13329,0.568
1698344000539062,-9.737768,1.38798,0.687874,0.91283,0.12829,0.168
1698344000546875,-9.721768,1.52798,0.685874,0.86483,0.8429,0.1232
1698344000554687,-9.706768,1.38798,0.692874,0.86783,0.12629,0.3032
1698344000562500,-9.690768,1.56798,0.707874,0.89383,0.12029,0.2168
1698344000570312,-9.679768,1.53798,0.714874,0.81883,0.13029,0.2832
1698344000578125,-9.701768,1.62798,0.696874,0.83483,0.11529,0.4432
1698344000585937,-9.704768,1.60798,0.703874,0.83483,0.11329,0.4532
1698344000593750,-9.695768,1.71798,0.698874,0.71283,0.12529,0.9332
1698344000601562,-9.699768,1.71798,0.701874,0.66583,0.4429,0.9332
1698344000609375,-9.695768,1.64798,0.710874,0.66383,0.11229,0.7632
1698344000617187,-9.706768,1.60798,0.710874,0.67983,0.12629,0.7632
1698344000625000,-9.715768,1.47798,0.698874,0.69383,0.9829,0.5932
1698344000632812,-9.726768,1.52798,0.680874,0.69383,0.8429,0.10632
1698344000640625,-9.735768,1.50798,0.674874,0.74183,0.9929,0.10732
1698344000648437,-9.732768,1.38798,0.667874,0.77383,0.8129,0.9332
1698344000656250,-9.733768,1.34798,0.669874,0.80583,0.15729,0.4632
1698344000664062,-9.737768,1.34798,0.676874,0.78883,0.17529,0.4532
1698344000671875,-9.744768,1.39798,0.694874,0.72483,0.23029,0.9032
1698344000679687,-9.746768,1.61798,0.707874,0.66483,0.11029,0.9232
1698344000687500,-9.742768,1.76798,0.719874,0.67883,0.17529,0.4432
1698344000695312,-9.724768,1.80798,0.712874,0.66383,0.7929,0.4432
1698344000703125,-9.706768,1.78798,0.701874,0.74083,0.16129,0.2832
1698344000710937,-9.688768,1.73798,0.710874,0.80483,0.7729,0.3032
1698344000718750,-9.692768,1.58798,0.721874,0.78783,0.21029,0.4432
1698344000726562,-9.688768,1.66798,0.719874,0.79083,0.21829,0.1532
1698344000734375,-9.674768,1.57798,0.721874,0.74083,0.22629,0.2732
1698344000742187,-9.686768,1.75798,0.716874,0.78783,0.13329,0.7532
1698344000750000,-9.686768,1.100798,0.710874,0.83483,0.16129,0.2932
1698344000757812,-9.680768,1.93798,0.694874,0.67983,0.15529,0.1332
1698344000765625,-9.682768,1.97798,0.685874,0.67883,0.19229,0.2832
1698344000773437,-9.688768,1.86798,0.671874,0.69383,0.19229,0.1232
1698344000781250,-9.713768,1.91798,0.667874,0.66283,0.19329,0.2732
1698344000789062,-9.745768,1.105798,0.683874,0.67783,0.16429,0.4232
1698344000796875,-9.776768,1.101798,0.669874,0.64483,0.14929,0.932
1698344000804687,-9.785768,1.77798,0.689874,0.66283,0.9729,0.2732
1698344000812500,-9.767768,1.74798,0.705874,0.66283,0.12829,0.2732
1698344000820312,-9.738768,1.69798,0.701874,0.68083,0.20329,0.1332
1698344000828125,-9.706768,1.58798,0.687874,0.69583,0.16129,0.9232
1698344000835937,-9.679768,1.46798,0.692874,0.66583,0.14129,0.9332
1698344000843750,-9.665768,1.51798,0.707874,0.67983,0.27429,0.10732
1698344000851562,-9.659768,1.53798,0.710874,0.66383,0.27429,0.7532
1698344000859375,-9.659768,1.53798,0.739874,0.67983,0.22329,0.7632
1698344000867187,-9.668768,1.71798,0.716874,0.66383,0.20629,0.6032
1698344000875000,-9.675768,1.64798,0.705874,0.67883,0.17529,0.4432
1698344000882812,-9.693768,1.73798,0.703874,0.66383,0.17429,0.4432
1698344000890625,-9.698768,1.93798,0.685874,0.74183,0.19029,0.1332
1698344000898437,-9.702768,1.100798,0.680874,0.75683,0.21029,0.2832
1698344000906250,-9.704768,1.100798,0.667874,0.72483,0.25729,0.1232
1698344000914062,-9.711768,1.105798,0.651874,0.73983,0.22829,0.2732
1698344000921875,-9.704768,1.89798,0.665874,0.72683,0.20529,0.1332
1698344000929687,-9.702768,1.78798,0.696874,0.74083,0.22429,0.1232
1698344000937500,-9.722768,1.82798,0.692874,0.74283,0.14129,0.2932
1698344000945312,-9.731768,1.94798,0.687874,0.74083,0.19229,0.1232
1698344000953125,-9.745768,1.96798,0.687874,0.67883,0.17529,0.2832
1698344000960937,-9.763768,1.103798,0.694874,0.67683,0.18029,0.1032
1698344000968750,-9.752768,1.112798,0.687874,0.66183,0.22929,0.5732
1698344000976562,-9.736768,1.112798,0.678874,0.67983,0.25729,0.7532
1698344000984375,-9.708768,1.78798,0.671874,0.64783,0.24129,0.7532
1698344000992187,-9.679768,1.55798,0.674874,0.66483,0.25229,0.4532
1698344001000000,-9.663768,1.40798,0.687874,0.67883,0.24429,0.9032
1698344001007812,-9.651768,1.33798,0.689874,0.67783,0.21129,0.5832
1698344001015625,-9.659768,1.62798,0.703874,0.70983,0.27529,0.7532
1698344001023437,-9.675768,1.108798,0.707874,0.66483,0.27429,0.12332
1698344001031250,-9.707768,1.133798,0.698874,0.70983,0.22429,0.4432
1698344001039062,-9.733768,1.169798,0.683874,0.71183,0.25229,0.1332
1698344001046875,-9.737768,1.176798,0.687874,0.66383,0.25529,0.2832
1698344001054687,-9.730768,1.145798,0.680874,0.67883,0.23929,0.368
1698344001062500,-9.722768,1.96798,0.647874,0.66583,0.15229,0.168
1698344001070312,-9.720768,1.67798,0.649874,0.69483,0.20829,0.4432
1698344001078125,-9.737768,1.38798,0.644874,0.75883,0.20529,0.6232
1698344001085937,-9.748768,1.39798,0.667874,0.84983,0.21229,0.4432
1698344001093750,-9.744768,1.67798,0.680874,0.72683,0.20829,0.6032
1698344001101562,-9.747768,1.69798,0.685874,0.69583,0.17029,0.1432
1698344001109375,-9.706768,1.76798,0.683874,0.66183,0.26029,0.4232
1698344001117187,-9.693768,1.84798,0.698874,0.68183,0.26529,0.4632
1698344001125000,-9.684768,1.77798,0.710874,0.80383,0.32329,0.7632
1698344001132812,-9.666768,1.77798,0.719874,0.78983,0.38529,0.7732
1698344001140625,-9.665768,1.73798,0.719874,0.67483,0.40929,0.832
1698344001148437,-9.668768,1.62798,0.705874,0.86983,0.31729,0.9632
1698344001156250,-9.657768,1.73798,0.714874,0.86583,0.29229,0.4432
1698344001164062,-9.653768,1.88798,0.716874,0.78983,0.30129,0.1432
1698344001171875,-9.664768,1.104798,0.701874,0.72683,0.33429,0.2932
1698344001179687,-9.666768,1.106798,0.687874,0.70783,0.22829,0.1032
1698344001187500,-9.689768,1.104798,0.674874,0.80583,0.28529,0.3032
1698344001195312,-9.698768,1.109798,0.678874,0.80183,0.34129,0.468
1698344001203125,-9.705768,1.115798,0.719874,0.80483,0.31829,0.1432
1698344001210937,-9.709768,1.109798,0.698874,0.75683,0.22429,0.1232
1698344001218750,-9.711768,1.105798,0.687874,0.83283,0.13329,0.2068
1698344001226562,-9.727768,1.87798,0.683874,0.80183,0.24229,0.1968
1698344001234375,-9.715768,1.78798,0.701874,0.78383,0.25129,0.768
1698344001242187,-9.702768,1.69798,0.696874,0.77283,0.22529,0.2832
1698344001250000,-9.690768,1.69798,0.696874,0.75583,0.24429,0.2732
1698344001257812,-9.688768,1.73798,0.701874,0.77183,0.28829,0.368
1698344001265625,-9.693768,1.73798,0.698874,0.80383,0.28829,0.1332
1698344001273437,-9.702768,1.87798,0.692874,0.72383,0.33729,0.3668
1698344001281250,-9.718768,1.111798,0.710874,0.66083,0.35329,0.6968
1698344001289062,-9.738768,1.121798,0.698874,0.67483,0.35829,0.3868
1698344001296875,-9.750768,1.114798,0.694874,0.69383,0.31929,0.1968
1698344001304687,-9.745768,1.94798,0.694874,0.67783,0.32329,0.2732
1698344001312500,-9.740768,1.69798,0.698874,0.70983,0.28829,0.2832
1698344001320312,-9.715768,1.62798,0.712874,0.70883,0.29229,0.4332
1698344001328125,-9.697768,1.47798,0.730874,0.75683,0.28829,0.2832
1698344001335937,-9.683768,1.22798,0.741874,0.74083,0.32329,0.6032
1698344001343750,-9.667768,1.31798,0.748874,0.70883,0.32329,0.1132
1698344001351562,-9.661768,1.39798,0.741874,0.70883,0.32329,0.2732
1698344001359375,-9.661768,1.64798,0.743874,0.69183,0.32429,0.2168
1698344001367187,-9.666768,1.75798,0.732874,0.84983,0.30329,0.6668
1698344001375000,-9.673768,1.100798,0.743874,0.80083,0.32229,0.11668
1698344001382812,-9.675768,1.106798,0.730874,0.83283,0.25329,0.13068
1698344001390625,-9.675768,1.115798,0.714874,0.84883,0.25529,0.8268
1698344001398437,-9.675768,1.120798,0.712874,0.75383,0.24229,0.6868
1698344001406250,-9.680768,1.117798,0.710874,0.72283,0.25729,0.8468
1698344001414062,-9.698768,1.104798,0.707874,0.65983,0.25829,0.10268
1698344001421875,-9.720768,1.87798,0.710874,0.67883,0.28629,0.1232
1698344001429687,-9.742768,1.69798,0.705874,0.67783,0.30329,0.6768
1698344001437500,-9.753768,1.61798,0.707874,0.66083,0.29529,0.2532
1698344001445312,-9.760768,1.61798,0.710874,0.70783,0.27729,0.1032
1698344001453125,-9.747768,1.67798,0.732874,0.74183,0.30329,0.268
1698344001460937,-9.737768,1.54798,0.746874,0.67783,0.25929,0.2632
1698344001468750,-9.726768,1.41798,0.728874,0.70683,0.27829,0.932
1698344001476562,-9.726768,1.47798,0.743874,0.77383,0.28529,0.1432
1698344001484375,-9.706768,1.44798,0.766874,0.75583,0.33629,0.5168
1698344001492187,-9.693768,1.58798,0.764874,0.75683,0.36729,0.3468
1698344001500000,-9.681768,1.53798,0.764874,0.76983,0.36029,0.932
1698344001507812,-9.677768,1.51798,0.773874,0.72383,0.35529,0.468
1698344001515625,-9.663768,1.48798,0.773874,0.75383,0.39229,0.1032
1698344001523437,-9.654768,1.48798,0.775874,0.78683,0.29029,0.1968
1698344001531250,-9.650768,1.50798,0.761874,0.77183,0.35429,0.1968
1698344001539062,-9.670768,1.60798,0.775874,0.70683,0.27529,0.6968
1698344001546875,-9.704768,1.67798,0.755874,0.75483,0.35929,0.2632
1698344001554687,-9.713768,1.60798,0.737874,0.78583,0.27729,0.3768
1698344001562500,-9.710768,1.38798,0.734874,0.86383,0.24629,0.468
1698344001570312,-9.721768,1.41798,0.732874,0.76783,0.24929,0.3868
1698344001578125,-9.715768,1.49798,0.714874,0.78683,0.21129,0.1132
1698344001585937,-9.733768,1.63798,0.712874,0.78883,0.22329,0.2932
1698344001593750,-9.740768,1.78798,0.741874,0.78883,0.24129,0.6132
1698344001601562,-9.738768,1.74798,0.750874,0.77683,0.24729,0.4832
1698344001609375,-9.726768,1.69798,0.752874,0.77283,0.20629,0.1332
1698344001617187,-9.726768,1.58798,0.750874,0.72483,0.21129,0.2732
1698344001625000,-9.710768,1.49798,0.748874,0.70983,0.19229,0.1232
1698344001632812,-9.703768,1.42798,0.777874,0.77183,0.24129,0.368
1698344001640625,-9.706768,1.42798,0.788874,0.75883,0.21929,0.3032
1698344001648437,-9.699768,1.36798,0.797874,0.81783,0.21129,0.1232
1698344001656250,-9.676768,1.40798,0.804874,0.78783,0.25729,0.2832
1698344001664062,-9.672768,1.71798,0.813874,0.81983,0.27429,0.4532
1698344001671875,-9.641768,1.90798,0.813874,0.77083,0.26129,0.1132
1698344001679687,-9.653768,1.110798,0.804874,0.84883,0.34329,0.2732
1698344001687500,-9.664768,1.119798,0.795874,0.72483,0.24229,0.1132
1698344001695312,-9.680768,1.104798,0.784874,0.67683,0.30829,0.1032
1698344001703125,-9.711768,1.85798,0.764874,0.66183,0.26029,0.2632
1698344001710937,-9.731768,1.69798,0.741874,0.67783,0.28829,0.468
1698344001718750,-9.728768,1.32798,0.728874,0.66283,0.17529,0.1132
1698344001726562,-9.727768,1.7798,0.716874,0.70983,0.11329,0.2732
1698344001734375,-9.745768,1.1798,0.739874,0.80383,0.24129,0.2932
1698344001742187,-9.739768,1.16798,0.746874,0.83483,0.14429,0.268
1698344001750000,-9.721768,1.32798,0.748874,0.80183,0.21029,0.5168
1698344001757812,-9.719768,1.45798,0.761874,0.85083,0.12829,0.2932
1698344001765625,-9.717768,1.71798,0.757874,0.88083,0.17929,0.1332
1698344001773437,-9.706768,1.62798,0.770874,0.80383,0.25729,0.2932
1698344001781250,-9.675768,1.89798,0.782874,0.84683,0.21829,0.2532
1698344001789062,-9.648768,1.90798,0.811874,0.81783,0.13129,0.1232
1698344001796875,-9.638768,1.75798,0.802874,0.81683,0.16729,0.2632
1698344001804687,-9.637768,1.106798,0.793874,0.81783,0.16229,0.368
