time,Acceleration X (m/s^2),Acceleration Y (m/s^2),Acceleration Z (m/s^2),Angular Velocity X (rad/s),Angular Velocity Y (rad/s),Angular Velocity Z (rad/s)
1694110563789062,-5.267076,-0.033245,8.358143,,,
1694110563796875,-5.278076,0.58245,8.376143,0.61791,0.359598,0.18724
1694110563804687,-5.201076,0.90245,8.421143,0.72991,0.326898,0.19124
1694110563812500,-5.260076,0.67245,8.500143,0.87891,0.293598,0.26124
1694110563820312,-5.177076,0.57245,8.336143,0.81991,0.231298,0.26524
1694110563828125,-5.39076,0.88245,8.361143,0.81291,0.285698,0.21124
1694110563843750,-4.943076,0.54245,8.399143,0.60991,0.287098,0.19324
1694110563851562,-4.909076,0.133245,8.374143,0.61091,0.288598,0.19424
1694110563859375,-4.917076,0.134245,8.343143,0.65191,0.297598,0.15924
1694110563867187,-4.900076,0.106245,8.358143,0.74491,0.305598,0.9624
1694110563890625,-4.928076,0.19245,8.557143,0.60291,0.316798,0.1424
1694110563898437,-4.935076,0.33245,8.440143,0.83191,0.279498,0.4076
1694110563906250,-4.901076,0.26245,8.458143,0.85691,0.296698,0.1276
1694110563914062,-4.789076,0.25245,8.595143,0.82491,0.300198,0.1376
1694110563921875,-4.830076,0.34755,8.593143,0.81091,0.280798,0.8324
1694110563929687,-4.834076,0.46755,8.559143,0.72591,0.276398,0.4776
1694110563937500,-4.779076,0.58755,8.539143,0.63891,0.282198,0.3324
1694110563945312,-4.660076,0.79755,8.570143,0.75491,0.320598,0.5076
1694110563953125,-4.698076,0.88755,8.753143,0.56291,0.369298,0.18376
1694110563960937,-4.772076,0.76755,8.541143,0.59391,0.328698,0.19776
1694110563968750,-4.756076,0.63755,8.525143,0.57791,0.356598,0.15176
1694110563976562,-4.754076,0.58755,8.674143,0.58291,0.362598,0.6976
1694110563984375,-4.765076,0.55755,8.746143,0.60391,0.352398,0.4524
1694110563992187,-4.691076,0.39755,8.728143,0.61791,0.347898,0.9224
1694110564000000,-4.665076,0.76755,8.633143,0.63891,0.330898,0.7924
1694110564007812,-4.631076,0.69755,8.640143,0.85591,0.329698,0.11324
1694110564015625,-4.582076,0.103755,8.766143,0.84391,0.322798,0.13124
1694110564023437,-4.544076,0.118755,8.795143,0.82691,0.309898,0.9824
1694110564031250,-4.508076,0.112755,8.773143,0.85291,0.307398,0.8024
1694110564039062,-4.495076,0.133755,8.757143,0.90591,0.306598,0.11624
1694110564046875,-4.419076,0.147755,8.789143,0.89391,0.307698,0.10124
1694110564054687,-4.365076,0.180755,8.852143,0.92391,0.303398,0.18024
1694110564062500,-4.437076,0.188755,8.791143,0.94191,0.294998,0.23024
1694110564070312,-4.443076,0.166755,8.746143,0.110991,0.277798,0.18224
1694110564078125,-4.359076,0.102755,8.775143,0.98591,0.275498,0.8724
1694110564085937,-4.310076,0.111755,8.928143,0.83891,0.294098,0.5024
1694110564093750,-4.222076,0.94755,8.973143,0.65091,0.293998,0.4724
1694110564101562,-4.178076,0.144755,8.996143,0.59291,0.291598,0.124
1694110564109375,-4.273076,0.141755,8.980143,0.64291,0.245498,0.4176
1694110564117187,-4.261076,0.112755,8.854143,0.81291,0.239098,0.13676
1694110564125000,-4.161076,0.50755,8.899143,0.85991,0.256998,0.13676
1694110564132812,-4.170076,0.46755,8.958143,0.77791,0.255898,0.12376
1694110564140625,-4.199076,0.49755,8.917143,0.70991,0.278998,0.27076
1694110564148437,-4.163076,0.41755,8.949143,0.85591,0.273298,0.29876
1694110564156250,-4.155076,0.75755,9.54143,0.83891,0.270198,0.28276
1694110564164062,-4.132076,0.74755,9.61143,0.85591,0.252198,0.28176
1694110564171875,-4.69076,0.82755,9.18143,0.84091,0.243998,0.29776
1694110564179687,-4.88076,0.91755,8.987143,0.85891,0.225798,0.27876
1694110564187500,-3.995076,0.63755,8.942143,0.84091,0.231098,0.26476
1694110564195312,-3.993076,0.77755,9.143,0.94691,0.234798,0.29776
1694110564203125,-4.23076,0.132755,8.944143,0.101591,0.222598,0.27676
1694110564210937,-3.928076,0.118755,8.919143,0.107391,0.224798,0.34276
1694110564218750,-3.949076,0.154755,8.980143,0.110491,0.250998,0.27976
1694110564226562,-3.971076,0.125755,9.43143,0.96691,0.251998,0.31176
1694110564234375,-3.894076,0.84755,8.971143,0.83691,0.238098,0.29876
1694110564242187,-3.933076,0.145755,8.942143,0.83791,0.244398,0.28276
1694110564250000,-3.874076,0.93755,8.967143,0.91791,0.229698,0.29676
1694110564257812,-3.841076,0.118755,9.30143,0.111391,0.223598,0.27376
1694110564265625,-3.858076,0.183755,9.136143,0.106691,0.197798,0.25776
1694110564273437,-3.774076,0.158755,9.120143,0.85891,0.195098,0.24576
1694110564281250,-3.795076,0.202755,9.117143,0.81291,0.196698,0.21476
1694110564289062,-3.757076,0.197755,9.84143,0.81391,0.175198,0.27676
1694110564296875,-3.761076,0.195755,9.133143,0.73391,0.182198,0.24676
1694110564304687,-3.748076,0.190755,9.140143,0.70691,0.186498,0.16576
1694110564312500,-3.756076,0.184755,9.185143,0.62991,0.184898,0.13376
1694110564320312,-3.714076,0.199755,9.120143,0.64691,0.188198,0.6976
1694110564328125,-3.707076,0.201755,9.144143,0.65691,0.203698,0.2576
1694110564335937,-3.698076,0.213755,9.176143,0.70391,0.189198,0.776
1694110564343750,-3.646076,0.167755,9.160143,0.66091,0.177298,0.2524
1694110564351562,-3.573076,0.135755,9.18143,0.48791,0.195298,0.7024
1694110564359375,-3.553076,0.154755,8.998143,0.47091,0.221598,0.10024
1694110564367187,-3.581076,0.168755,9.57143,0.56891,0.234098,0.11924
1694110564375000,-3.642076,0.216755,9.86143,0.61091,0.221798,0.8524
1694110564382812,-3.515076,0.125755,9.75143,0.69291,0.217898,0.7224
1694110564390625,-3.466076,0.148755,9.79143,0.70991,0.223098,0.20024
1694110564398437,-3.525076,0.205755,9.205143,0.78791,0.227998,0.20024
1694110564406250,-3.561076,0.181755,9.228143,0.85291,0.198498,0.23624
1694110564414062,-3.565076,0.163755,9.140143,0.86191,0.151898,0.24224
1694110564421875,-3.542076,0.163755,9.165143,0.87291,0.141198,0.25624
1694110564429687,-3.516076,0.169755,9.246143,0.77891,0.150798,0.22324
1694110564437500,-3.500076,0.184755,9.259143,0.57591,0.149198,0.23724
1694110564445312,-3.455076,0.177755,9.257143,0.43191,0.156098,0.23324
1694110564453125,-3.437076,0.190755,9.176143,0.40191,0.152598,0.26624
1694110564460937,-3.406076,0.176755,9.185143,0.49591,0.165698,0.28224
1694110564468750,-3.423076,0.147755,9.226143,0.60891,0.171898,0.34924
1694110564476562,-3.406076,0.92755,9.203143,0.58891,0.182398,0.34624
1694110564484375,-3.404076,0.75755,9.264143,0.77691,0.190798,0.42724
1694110564492187,-3.404076,0.117755,9.302143,0.86991,0.174598,0.41224
1694110564500000,-3.370076,0.103755,9.255143,0.85091,0.186298,0.33024
1694110564507812,-3.353076,0.127755,9.311143,0.93091,0.204098,0.39524
1694110564515625,-3.367076,0.169755,9.394143,0.109291,0.180798,0.44824
1694110564523437,-3.396076,0.195755,9.392143,0.111991,0.150298,0.32024
1694110564531250,-3.359076,0.209755,9.309143,0.106391,0.130998,0.22824
1694110564539062,-3.314076,0.244755,9.198143,0.108891,0.133698,0.24124
1694110564546875,-3.321076,0.256755,9.207143,0.111791,0.153298,0.19224
1694110564554687,-3.274076,0.257755,9.304143,0.112991,0.174798,0.14124
1694110564562500,-3.337076,0.289755,9.311143,0.110091,0.182798,0.20524
1694110564570312,-3.279076,0.284755,9.282143,0.111691,0.171298,0.19024
1694110564578125,-3.268076,0.304755,9.327143,0.110091,0.171498,0.22224
1694110564585937,-3.257076,0.330755,9.354143,0.95991,0.177598,0.15724
1694110564593750,-3.196076,0.318755,9.385143,0.81991,0.171098,0.18824
1694110564601562,-3.210076,0.347755,9.376143,0.69591,0.159598,0.20324
1694110564609375,-3.197076,0.356755,9.329143,0.61091,0.163198,0.824
1694110564617187,-3.204076,0.366755,9.286143,0.59891,0.167298,0.3776
1694110564625000,-3.215076,0.380755,9.255143,0.66191,0.167298,0.2076
1694110564632812,-3.168076,0.361755,9.219143,0.89991,0.163898,0.3024
1694110564640625,-3.123076,0.381755,9.397143,0.89691,0.211598,0.10624
1694110564648437,-3.96076,0.341755,9.426143,0.66091,0.215298,0.21524
1694110564656250,-3.37076,0.340755,9.286143,0.60091,0.200598,0.29524
1694110564664062,-3.184076,0.386755,9.345143,0.63691,0.208198,0.36224
1694110564671875,-3.157076,0.370755,9.388143,0.83991,0.187098,0.30024
1694110564679687,-3.60076,0.396755,9.343143,0.86791,0.156598,0.25324
1694110564687500,-3.45076,0.420755,9.318143,0.82191,0.172998,0.36424
1694110564695312,-3.43076,0.433755,9.352143,0.86891,0.186098,0.37924
1694110564703125,-3.41076,0.467755,9.374143,0.91391,0.168698,0.39524
1694110564710937,-3.44076,0.500755,9.390143,0.85791,0.146398,0.35124
1694110564718750,-2.969076,0.463755,9.347143,0.80991,0.144698,0.31924
1694110564726562,-2.896076,0.416755,9.266143,0.72791,0.143698,0.33224
1694110564734375,-2.896076,0.387755,9.307143,0.71291,0.153298,0.31624
1694110564742187,-2.944076,0.436755,9.417143,0.62191,0.133398,0.33324
1694110564750000,-2.825076,0.423755,9.370143,0.55791,0.110898,0.31624
1694110564757812,-2.752076,0.411755,9.327143,0.38391,0.122498,0.32924
1694110564765625,-2.744076,0.407755,9.268143,0.35291,0.125598,0.29724
1694110564773437,-2.759076,0.370755,9.304143,0.40491,0.131098,0.25224
1694110564781250,-2.763076,0.333755,9.412143,0.47791,0.138298,0.21824
1694110564789062,-2.783076,0.311755,9.557143,0.38591,0.136398,0.23424
1694110564796875,-2.763076,0.345755,9.592143,0.42891,0.119198,0.24924
1694110564804687,-2.741076,0.378755,9.550143,0.33791,0.117198,0.26624
1694110564812500,-2.748076,0.384755,9.516143,0.43891,0.109798,0.30224
1694110564820312,-2.775076,0.362755,9.525143,0.62691,0.91798,0.25824
1694110564828125,-2.734076,0.314755,9.446143,0.61291,0.81798,0.25924
1694110564835937,-2.658076,0.326755,9.444143,0.53391,0.120698,0.22424
1694110564843750,-2.680076,0.347755,9.455143,0.49891,0.145698,0.22124
1694110564851562,-2.752076,0.389755,9.424143,0.75991,0.119098,0.28624
1694110564859375,-2.805076,0.406755,9.356143,0.113591,0.55798,0.42724
1694110564867187,-2.708076,0.410755,9.478143,0.120891,0.57998,0.34624
1694110564875000,-2.668076,0.434755,9.566143,0.98691,0.79398,0.37324
1694110564882812,-2.584076,0.424755,9.460143,0.73191,0.84498,0.24124
1694110564890625,-2.546076,0.423755,9.435143,0.49591,0.90698,0.15824
1694110564898437,-2.567076,0.473755,9.356143,0.63591,0.66798,0.20724
1694110564906250,-2.555076,0.518755,9.509143,0.62191,0.88698,0.4824
1694110564914062,-2.559076,0.508755,9.622143,0.49191,0.93998,0.276
1694110564921875,-2.557076,0.501755,9.554143,0.35491,0.75498,0.1776
1694110564929687,-2.525076,0.489755,9.505143,0.29191,0.73898,0.276
1694110564937500,-2.532076,0.467755,9.501143,0.31191,0.66698,0.1576
1694110564945312,-2.583076,0.450755,9.471143,0.30791,0.60998,0.3024
1694110564953125,-2.582076,0.437755,9.502143,0.28791,0.69498,0.3676
1694110564960937,-2.571076,0.415755,9.550143,0.30191,0.85698,0.13276
1694110564968750,-2.555076,0.399755,9.588143,0.27291,0.91798,0.11676
1694110564976562,-2.575076,0.403755,9.617143,0.16391,0.80298,0.14876
1694110564984375,-2.611076,0.389755,9.613143,0.28791,0.69298,0.11576
1694110564992187,-2.608076,0.378755,9.568143,0.22391,0.46798,0.9976
1694110565000000,-2.623076,0.324755,9.462143,0.32391,0.44598,0.1676
1694110565007812,-2.657076,0.316755,9.467143,0.35791,0.58698,0.1576
1694110565015625,-2.607076,0.293755,9.485143,0.35591,0.34298,0.17476
1694110565023437,-2.556076,0.296755,9.462143,0.39091,0.20598,0.20376
1694110565031250,-2.498076,0.335755,9.613143,0.43591,0.42098,0.17376
1694110565039062,-2.501076,0.362755,9.620143,0.43691,0.25498,0.21976
1694110565046875,-2.465076,0.396755,9.620143,0.59991,0.32098,0.15876
1694110565054687,-2.421076,0.439755,9.714143,0.60091,0.44998,0.17576
1694110565062500,-2.472076,0.449755,9.739143,0.55291,0.30198,0.25576
1694110565070312,-2.497076,0.451755,9.721143,0.60391,0.1898,0.28376
1694110565078125,-2.522076,0.445755,9.663143,0.60791,0.32902,0.29576
1694110565085937,-2.506076,0.411755,9.627143,0.62391,0.31502,0.35876
1694110565093750,-2.534076,0.341755,9.613143,0.63591,0.37602,0.40776
1694110565101562,-2.527076,0.352755,9.599143,0.60491,0.38802,0.29676
1694110565109375,-2.462076,0.351755,9.611143,0.61791,0.33702,0.36276
1694110565117187,-2.309076,0.360755,9.494143,0.60091,0.21102,0.47476
1694110565125000,-2.335076,0.355755,9.629143,0.65291,0.2498,0.50476
1694110565132812,-2.370076,0.327755,9.572143,0.86991,0.42802,0.58176
1694110565140625,-2.330076,0.335755,9.633143,0.91791,0.24902,0.53276
1694110565148437,-2.399076,0.361755,9.757143,0.86491,0.6102,0.52176
1694110565156250,-2.381076,0.370755,9.676143,0.84991,0.61402,0.55076
1694110565164062,-2.366076,0.376755,9.651143,0.87191,0.88202,0.49876
1694110565171875,-2.393076,0.405755,9.698143,0.72791,0.62002,0.53476
1694110565179687,-2.436076,0.435755,9.782143,0.64991,0.40902,0.51976
1694110565187500,-2.417076,0.468755,9.755143,0.60491,0.62202,0.48676
1694110565195312,-2.512076,0.504755,9.640143,0.62091,0.98502,0.66076
1694110565203125,-2.394076,0.453755,9.593143,0.61191,0.133502,0.63976
1694110565210937,-2.390076,0.505755,9.485143,0.62191,0.125902,0.57876
1694110565218750,-2.357076,0.506755,9.419143,0.60591,0.93802,0.69276
1694110565226562,-2.347076,0.467755,9.275143,0.61391,0.92602,0.67976
1694110565234375,-2.435076,0.463755,9.356143,0.83591,0.67002,0.66176
1694110565242187,-2.484076,0.448755,9.521143,0.82191,0.67402,0.69276
1694110565250000,-2.395076,0.359755,9.581143,0.62991,0.86302,0.67976
1694110565257812,-2.440076,0.389755,9.525143,0.37991,0.92402,0.53876
1694110565265625,-2.420076,0.379755,9.575143,0.18091,0.81802,0.53876
1694110565273437,-2.502076,0.449755,9.496143,0.12491,0.126402,0.45476
1694110565281250,-2.430076,0.448755,9.509143,0.26491,0.132702,0.46976
1694110565289062,-2.401076,0.461755,9.595143,0.13591,0.129102,0.53676
1694110565296875,-2.409076,0.444755,9.631143,0.7009,0.114202,0.54076
1694110565304687,-2.378076,0.450755,9.615143,0.17709,0.117702,0.47676
1694110565312500,-2.360076,0.418755,9.520143,0.35009,0.132202,0.47876
1694110565320312,-2.388076,0.339755,9.397143,0.38109,0.130802,0.51076
1694110565328125,-2.365076,0.275755,9.345143,0.34509,0.97202,0.44576
1694110565335937,-2.385076,0.174755,9.313143,0.34809,0.69302,0.46376
1694110565343750,-2.389076,0.134755,9.370143,0.33509,0.39402,0.40276
1694110565351562,-2.346076,0.80755,9.435143,0.23909,0.25302,0.41676
1694110565359375,-2.318076,0.29755,9.383143,0.21209,0.22802,0.37076
1694110565367187,-2.324076,0.14245,9.286143,0.15109,0.17702,0.37176
1694110565375000,-2.316076,0.54245,9.297143,0.11591,0.16202,0.43276
1694110565382812,-2.368076,0.63245,9.325143,0.32391,0.13302,0.34876
1694110565390625,-2.369076,0.3755,9.318143,0.44491,0.4702,0.38076
1694110565398437,-2.383076,0.46755,9.185143,0.61391,0.3898,0.39776
1694110565406250,-2.413076,0.99755,9.194143,0.87991,0.15198,0.47476
1694110565414062,-2.444076,0.116755,9.336143,0.110991,0.4598,0.50576
1694110565421875,-2.490076,0.122755,9.449143,0.110591,0.5402,0.51576
1694110565429687,-2.485076,0.100755,9.559143,0.113191,0.0,0.58176
1694110565437500,-2.477076,0.108755,9.581143,0.101291,0.22002,0.59576
1694110565445312,-2.515076,0.154755,9.548143,0.83691,0.26402,0.58276
1694110565453125,-2.546076,0.196755,9.559143,0.88591,0.23702,0.66076
1694110565460937,-2.549076,0.278755,9.491143,0.80691,0.35002,0.69376
1694110565468750,-2.563076,0.354755,9.428143,0.83491,0.26202,0.61576
1694110565476562,-2.524076,0.396755,9.449143,0.88291,0.8402,0.56776
1694110565484375,-2.501076,0.375755,9.456143,0.91891,0.12398,0.50276
1694110565492187,-2.489076,0.353755,9.395143,0.85191,0.22798,0.45776
1694110565500000,-2.493076,0.307755,9.394143,0.86291,0.31798,0.42876
1694110565507812,-2.497076,0.293755,9.383143,0.85191,0.37598,0.44276
1694110565515625,-2.520076,0.298755,9.363143,0.86491,0.34698,0.41176
1694110565523437,-2.520076,0.324755,9.333143,0.85991,0.34098,0.36676
1694110565531250,-2.512076,0.371755,9.343143,0.85291,0.39498,0.28276
1694110565539062,-2.532076,0.405755,9.338143,0.86691,0.28598,0.25176
1694110565546875,-2.524076,0.427755,9.361143,0.88591,0.23298,0.21776
1694110565554687,-2.519076,0.409755,9.347143,0.85491,0.23098,0.23376
1694110565562500,-2.530076,0.374755,9.302143,0.75791,0.30198,0.20476
1694110565570312,-2.543076,0.352755,9.338143,0.64891,0.42898,0.23776
1694110565578125,-2.540076,0.341755,9.442143,0.59891,0.41898,0.20776
1694110565585937,-2.554076,0.314755,9.505143,0.58591,0.46198,0.23876
1694110565593750,-2.580076,0.273755,9.507143,0.43091,0.39398,0.23976
1694110565601562,-2.597076,0.247755,9.520143,0.33691,0.33298,0.12876
1694110565609375,-2.600076,0.235755,9.516143,0.33891,0.24898,0.11176
1694110565617187,-2.597076,0.231755,9.525143,0.30791,0.17098,0.1576
1694110565625000,-2.581076,0.217755,9.539143,0.29691,0.8298,0.1824
1694110565632812,-2.532076,0.221755,9.570143,0.29691,0.10198,0.9824
1694110565640625,-2.483076,0.222755,9.586143,0.28591,0.6298,0.10024
1694110565648437,-2.461076,0.265755,9.556143,0.18391,0.5698,0.4724
1694110565656250,-2.439076,0.299755,9.581143,0.31391,0.1798,0.6724
1694110565664062,-2.399076,0.328755,9.694143,0.38891,0.13898,0.9724
1694110565671875,-2.351076,0.332755,9.791143,0.34091,0.17398,0.16024
1694110565679687,-2.322076,0.358755,9.721143,0.24891,0.2898,0.24024
1694110565687500,-2.323076,0.362755,9.647143,0.37891,0.4502,0.22824
1694110565695312,-2.339076,0.364755,9.635143,0.50491,0.10098,0.24524
1694110565703125,-2.354076,0.354755,9.642143,0.57991,0.20098,0.16524
1694110565710937,-2.373076,0.285755,9.597143,0.36191,0.24798,0.19524
1694110565718750,-2.386076,0.233755,9.556143,0.29391,0.40298,0.22224
1694110565726562,-2.370076,0.207755,9.638143,0.28091,0.46298,0.17524
1694110565734375,-2.351076,0.183755,9.714143,0.30991,0.48298,0.17424
1694110565742187,-2.347076,0.164755,9.726143,0.26891,0.45698,0.17724
1694110565750000,-2.320076,0.164755,9.674143,0.26691,0.45898,0.12824
1694110565757812,-2.291076,0.162755,9.685143,0.35891,0.41098,0.9724
1694110565765625,-2.290076,0.158755,9.698143,0.35791,0.39898,0.14424
1694110565773437,-2.281076,0.138755,9.671143,0.36991,0.36798,0.1524
1694110565781250,-2.286076,0.154755,9.602143,0.39091,0.39098,0.2976
1694110565789062,-2.288076,0.171755,9.532143,0.40191,0.49498,0.1576
1694110565796875,-2.309076,0.207755,9.498143,0.58791,0.59598,0.3176
1694110565804687,-2.312076,0.257755,9.577143,0.58991,0.93398,0.3176
1694110565812500,-2.322076,0.311755,9.633143,0.63391,0.101998,0.1776
1694110565820312,-2.311076,0.369755,9.574143,0.67691,0.101198,0.2824
1694110565828125,-2.287076,0.375755,9.464143,0.61891,0.97098,0.76
1694110565835937,-2.280076,0.346755,9.455143,0.74291,0.93998,0.1576
1694110565843750,-2.266076,0.326755,9.525143,0.66491,0.100798,0.11024
1694110565851562,-2.234076,0.305755,9.586143,0.61891,0.90898,0.12624
1694110565859375,-2.208076,0.288755,9.645143,0.47291,0.66798,0.21124
1694110565867187,-2.207076,0.275755,9.647143,0.45891,0.42498,0.24424
1694110565875000,-2.209076,0.265755,9.687143,0.43891,0.25198,0.24224
1694110565882812,-2.200076,0.285755,9.737143,0.61391,0.16898,0.27824
1694110565890625,-2.232076,0.292755,9.687143,0.55291,0.2602,0.34224
1694110565898437,-2.243076,0.290755,9.577143,0.49091,0.3598,0.29424
1694110565906250,-2.240076,0.268755,9.509143,0.53191,0.25698,0.29024
1694110565914062,-2.206076,0.236755,9.581143,0.63091,0.41298,0.34124
1694110565921875,-2.168076,0.245755,9.678143,0.60491,0.66998,0.31924
1694110565929687,-2.137076,0.252755,9.669143,0.59691,0.72398,0.33824
1694110565937500,-2.103076,0.255755,9.568143,0.60791,0.71298,0.25624
1694110565945312,-2.69076,0.238755,9.518143,0.63991,0.83998,0.24124
1694110565953125,-2.31076,0.242755,9.457143,0.62291,0.91998,0.11224
1694110565960937,-1.995076,0.237755,9.419143,0.66791,0.113298,0.11124
1694110565968750,-1.973076,0.248755,9.437143,0.77491,0.118598,0.7824
1694110565976562,-1.969076,0.286755,9.505143,0.84991,0.141798,0.9324
1694110565984375,-1.984076,0.266755,9.514143,0.86791,0.133198,0.4724
1694110565992187,-2.9076,0.246755,9.520143,0.85191,0.116698,0.1576
1694110566000000,-1.975076,0.245755,9.545143,0.88691,0.87098,0.2876
1694110566007812,-1.953076,0.250755,9.581143,0.76191,0.72298,0.6176
1694110566015625,-1.929076,0.301755,9.593143,0.59991,0.92298,0.9776
1694110566023437,-1.937076,0.365755,9.568143,0.62091,0.93398,0.4776
1694110566031250,-1.959076,0.392755,9.475143,0.59591,0.92698,0.17976
1694110566039062,-1.991076,0.370755,9.498143,0.60091,0.101698,0.16176
1694110566046875,-2.24076,0.361755,9.566143,0.61991,0.96398,0.11176
1694110566054687,-2.64076,0.345755,9.665143,0.53891,0.100098,0.12976
1694110566062500,-2.69076,0.335755,9.611143,0.48191,0.86098,0.14276
1694110566070312,-2.73076,0.336755,9.597143,0.39591,0.116398,0.18076
1694110566078125,-2.77076,0.323755,9.633143,0.33491,0.119698,0.6976
1694110566085937,-2.32076,0.327755,9.617143,0.37591,0.109198,0.8776
1694110566093750,-1.956076,0.294755,9.563143,0.24291,0.101698,0.3676
1694110566101562,-1.935076,0.282755,9.563143,0.15091,0.96598,0.2076
1694110566109375,-1.924076,0.293755,9.570143,0.18291,0.80198,0.376
1694110566117187,-1.915076,0.294755,9.550143,0.10291,0.70698,0.2076
1694110566125000,-1.902076,0.302755,9.581143,0.15291,0.73898,0.9224
1694110566132812,-1.899076,0.280755,9.624143,0.13591,0.74098,0.5924
1694110566140625,-1.928076,0.287755,9.683143,0.10391,0.85498,0.10624
1694110566148437,-1.913076,0.300755,9.725143,0.12191,0.83698,0.10724
1694110566156250,-1.877076,0.295755,9.764143,0.11891,0.79198,0.9024
1694110566164062,-1.807076,0.269755,9.775143,0.9191,0.78598,0.10824
1694110566171875,-1.786076,0.228755,9.712143,0.5309,0.80998,0.16824
1694110566179687,-1.754076,0.205755,9.685143,0.6991,0.81198,0.12024
1694110566187500,-1.741076,0.209755,9.770143,0.11691,0.92498,0.12124
1694110566195312,-1.759076,0.207755,9.874143,0.10691,0.88598,0.17124
1694110566203125,-1.741076,0.205755,9.876143,0.10491,0.79198,0.18624
1694110566210937,-1.748076,0.211755,9.863143,0.12291,0.67298,0.10824
1694110566218750,-1.770076,0.196755,9.815143,0.10191,0.62998,0.2624
1694110566226562,-1.759076,0.191755,9.836143,0.21391,0.75498,0.376
1694110566234375,-1.733076,0.165755,9.845143,0.21091,0.67898,0.2724
1694110566242187,-1.711076,0.153755,9.809143,0.17991,0.70698,0.6876
1694110566250000,-1.679076,0.155755,9.838143,0.30291,0.72398,0.17976
1694110566257812,-1.623076,0.149755,9.890143,0.44591,0.46198,0.19176
1694110566265625,-1.585076,0.140755,9.933143,0.59091,0.27798,0.15576
1694110566273437,-1.615076,0.114755,9.919143,0.55391,0.13998,0.17476
1694110566281250,-1.647076,0.116755,9.908143,0.60491,0.18398,0.18876
1694110566289062,-1.642076,0.95755,9.905143,0.61791,0.18798,0.17376
1694110566296875,-1.676076,0.102755,9.806143,0.53891,0.15498,0.18976
1694110566304687,-1.704076,0.159755,9.730143,0.65091,0.36398,0.14076
1694110566312500,-1.644076,0.180755,9.723143,0.79291,0.27998,0.18576
1694110566320312,-1.666076,0.190755,9.806143,0.88191,0.23898,0.20376
1694110566328125,-1.577076,0.218755,9.764143,0.74391,0.23498,0.20376
1694110566335937,-1.506076,0.197755,9.509143,0.58091,0.8098,0.22376
1694110566343750,-1.604076,0.235755,9.584143,0.62091,0.39498,0.15676
1694110566351562,-1.608076,0.185755,9.779143,0.60291,0.33098,0.22176
1694110566359375,-1.679076,0.131755,9.786143,0.56991,0.23698,0.20676
1694110566367187,-1.764076,0.152755,9.728143,0.39691,0.38198,0.22476
1694110566375000,-1.748076,0.112755,9.581143,0.50591,0.23598,0.25576
1694110566382812,-1.729076,0.158755,9.414143,0.88691,0.4102,0.12076
1694110566390625,-1.629076,0.166755,9.466143,0.111791,0.10002,0.18376
1694110566398437,-1.637076,0.212755,9.642143,0.124791,0.2298,0.14876
1694110566406250,-1.590076,0.215755,9.640143,0.106191,0.17802,0.22776
1694110566414062,-1.578076,0.131755,9.536143,0.99891,0.28902,0.18076
1694110566421875,-1.693076,0.155755,9.565143,0.97091,0.1898,0.2176
1694110566429687,-1.751076,0.156755,9.615143,0.88691,0.21898,0.10576
1694110566437500,-1.744076,0.120755,9.565143,0.80991,0.1998,0.18476
1694110566445312,-1.735076,0.131755,9.518143,0.74791,0.11102,0.16876
1694110566453125,-1.688076,0.153755,9.604143,0.69891,0.18902,0.16976
1694110566460937,-1.581076,0.173755,9.660143,0.59291,0.19102,0.4176
1694110566468750,-1.503076,0.225755,9.646143,0.62491,0.4302,0.3824
1694110566476562,-1.445076,0.246755,9.530143,0.72591,0.8302,0.12224
1694110566484375,-1.461076,0.275755,9.509143,0.84691,0.8698,0.13624
1694110566492187,-1.452076,0.267755,9.676143,0.90791,0.17298,0.19924
1694110566500000,-1.474076,0.271755,9.795143,0.87691,0.13798,0.16824
1694110566507812,-1.499076,0.268755,9.734143,0.65591,0.17198,0.13224
1694110566515625,-1.499076,0.271755,9.647143,0.57991,0.26398,0.8424
1694110566523437,-1.467076,0.265755,9.673143,0.71591,0.20498,0.424
1694110566531250,-1.414076,0.279755,9.800143,0.68691,0.18398,0.1076
1694110566539062,-1.391076,0.307755,9.862143,0.56891,0.8098,0.3076
1694110566546875,-1.437076,0.315755,9.786143,0.62491,0.4502,0.2576
1694110566554687,-1.497076,0.305755,9.716143,0.58091,0.9798,0.2224
1694110566562500,-1.547076,0.297755,9.698143,0.51591,0.18198,0.2024
1694110566570312,-1.547076,0.285755,9.653143,0.43891,0.26198,0.6724
1694110566578125,-1.555076,0.272755,9.615143,0.43691,0.27798,0.2876
1694110566585937,-1.544076,0.268755,9.678143,0.52791,0.34798,0.4576
1694110566593750,-1.498076,0.217755,9.766143,0.55091,0.27498,0.17676
1694110566601562,-1.507076,0.196755,9.759143,0.49491,0.23498,0.9376
1694110566609375,-1.549076,0.209755,9.820143,0.54191,0.14098,0.1376
1694110566617187,-1.568076,0.215755,9.991143,0.57791,0.1998,0.2676
1694110566625000,-1.546076,0.251755,10.50143,0.57691,0.9202,0.1076
1694110566632812,-1.519076,0.283755,9.955143,0.62591,0.24002,0.2324
1694110566640625,-1.479076,0.316755,9.784143,0.65591,0.18802,0.624
1694110566648437,-1.462076,0.355755,9.721143,0.87791,0.12602,0.5824
1694110566656250,-1.449076,0.385755,9.795143,0.85891,0.15302,0.8824
1694110566664062,-1.404076,0.392755,9.867143,0.91291,0.37602,0.1324
1694110566671875,-1.350076,0.385755,9.899143,0.71791,0.40102,0.5576
1694110566679687,-1.314076,0.357755,9.935143,0.56491,0.45702,0.10276
1694110566687500,-1.327076,0.354755,10.45143,0.43591,0.60102,0.20076
1694110566695312,-1.386076,0.372755,10.108143,0.18791,0.80002,0.18576
1694110566703125,-1.444076,0.364755,10.66143,0.1891,0.85302,0.16976
1694110566710937,-1.485076,0.345755,9.953143,0.4509,0.88402,0.18676
1694110566718750,-1.525076,0.325755,9.919143,0.4509,0.96602,0.17076
1694110566726562,-1.535076,0.284755,9.978143,0.12591,0.107702,0.15276
1694110566734375,-1.526076,0.252755,10.5143,0.11391,0.109702,0.10376
1694110566742187,-1.496076,0.219755,9.941143,0.12491,0.134902,0.10476
1694110566750000,-1.482076,0.192755,9.818143,0.11091,0.136902,0.15176
1694110566757812,-1.491076,0.161755,9.719143,0.19291,0.137302,0.13376
1694110566765625,-1.497076,0.132755,9.732143,0.41291,0.148802,0.14576
1694110566773437,-1.490076,0.122755,9.836143,0.50991,0.160602,0.15876
1694110566781250,-1.508076,0.108755,9.987143,0.52291,0.178202,0.20676
1694110566789062,-1.528076,0.113755,10.20143,0.41291,0.205902,0.27076
1694110566796875,-1.558076,0.130755,9.930143,0.41691,0.224302,0.25276
1694110566804687,-1.569076,0.148755,9.838143,0.43091,0.229102,0.26876
1694110566812500,-1.568076,0.174755,9.786143,0.56191,0.223302,0.24876
1694110566820312,-1.564076,0.221755,9.847143,0.68391,0.216302,0.24876
1694110566828125,-1.552076,0.244755,9.960143,0.78891,0.204202,0.26676
1694110566835937,-1.552076,0.249755,9.921143,0.68891,0.193602,0.25576
1694110566843750,-1.566076,0.244755,9.707143,0.65091,0.215902,0.21876
1694110566851562,-1.593076,0.255755,9.482143,0.63191,0.201002,0.26876
1694110566859375,-1.621076,0.271755,9.439143,0.88591,0.175302,0.21776
1694110566867187,-1.640076,0.349755,9.588143,0.97991,0.170202,0.15376
1694110566875000,-1.641076,0.421755,9.797143,0.94591,0.163202,0.10776
1694110566882812,-1.616076,0.446755,9.825143,0.72991,0.168502,0.10776
1694110566890625,-1.607076,0.433755,9.707143,0.55491,0.191102,0.15776
1694110566898437,-1.620076,0.415755,9.588143,0.41491,0.199502,0.19076
1694110566906250,-1.640076,0.427755,9.577143,0.60091,0.197202,0.10976
1694110566914062,-1.672076,0.454755,9.631143,0.60191,0.199102,0.10976
1694110566921875,-1.724076,0.462755,9.613143,0.50991,0.189402,0.4576
1694110566929687,-1.746076,0.429755,9.493143,0.51091,0.197602,0.4576
1694110566937500,-1.774076,0.377755,9.473143,0.45891,0.195202,0.1676
1694110566945312,-1.812076,0.339755,9.696143,0.54091,0.182202,0.11224
1694110566953125,-1.825076,0.335755,9.980143,0.38491,0.187202,0.14324
1694110566960937,-1.843076,0.320755,10.25143,0.19991,0.218702,0.9624
1694110566968750,-1.884076,0.289755,9.802143,0.2909,0.247202,0.8224
1694110566976562,-1.902076,0.237755,9.597143,0.3991,0.249102,0.9424
1694110566984375,-1.918076,0.192755,9.570143,0.22891,0.231402,0.6424
1694110566992187,-1.901076,0.159755,9.633143,0.38691,0.202102,0.16124
1694110567000000,-1.884076,0.155755,9.608143,0.40691,0.189602,0.22624
1694110567007812,-1.839076,0.159755,9.484143,0.57691,0.182802,0.16324
1694110567015625,-1.799076,0.179755,9.466143,0.71791,0.185802,0.21224
1694110567023437,-1.779076,0.189755,9.575143,0.86491,0.193202,0.21724
1694110567031250,-1.774076,0.204755,9.768143,0.84191,0.221202,0.23024
1694110567039062,-1.774076,0.218755,9.901143,0.66391,0.250002,0.9924
1694110567046875,-1.799076,0.208755,9.854143,0.40591,0.290802,0.4076
1694110567054687,-1.820076,0.230755,9.820143,0.33191,0.325702,0.8576
1694110567062500,-1.840076,0.251755,9.910143,0.47291,0.363102,0.14676
1694110567070312,-1.858076,0.253755,10.143,0.50991,0.391602,0.15776
1694110567078125,-1.879076,0.280755,9.998143,0.53991,0.405902,0.14176
1694110567085937,-1.892076,0.269755,9.962143,0.54091,0.411002,0.17276
1694110567093750,-1.922076,0.265755,9.921143,0.58891,0.403002,0.17276
1694110567101562,-1.953076,0.252755,9.865143,0.60191,0.385002,0.23776
1694110567109375,-1.977076,0.245755,9.807143,0.41091,0.355602,0.27376
1694110567117187,-1.984076,0.235755,9.748143,0.43691,0.329002,0.29276
1694110567125000,-2.76,0.260755,9.696143,0.41891,0.312402,0.31176
1694110567132812,-2.14076,0.292755,9.748143,0.53391,0.310102,0.33876
1694110567140625,-2.23076,0.314755,9.822143,0.49591,0.313602,0.26376
1694110567148437,-2.46076,0.318755,9.800143,0.45491,0.345402,0.27576
1694110567156250,-2.87076,0.325755,9.683143,0.34791,0.358902,0.29076
1694110567164062,-2.122076,0.297755,9.694143,0.49891,0.375902,0.33876
1694110567171875,-2.185076,0.284755,9.861143,0.61391,0.391702,0.41376
1694110567179687,-2.252076,0.281755,9.917143,0.53291,0.405802,0.39976
1694110567187500,-2.274076,0.264755,9.802143,0.37791,0.418902,0.38476
1694110567195312,-2.310076,0.260755,9.626143,0.40491,0.428202,0.41776
1694110567203125,-2.341076,0.234755,9.601143,0.47091,0.426902,0.39976
1694110567210937,-2.384076,0.243755,9.694143,0.50291,0.427102,0.41476
1694110567218750,-2.407076,0.243755,9.753143,0.42791,0.429102,0.36576
1694110567234375,-2.453076,0.245755,9.669143,0.32991,0.454602,0.41576
1694110567242187,-2.473076,0.227755,9.583143,0.29891,0.459502,0.39976
1694110567250000,-2.527076,0.221755,9.523143,0.38291,0.468302,0.34776
1694110567257812,-2.568076,0.214755,9.575143,0.40491,0.475402,0.24876
1694110567265625,-2.622076,0.202755,9.626143,0.41791,0.483002,0.23376
1694110567273437,-2.673076,0.190755,9.536143,0.38591,0.483002,0.25076
1694110567281250,-2.714076,0.172755,9.419143,0.40591,0.483602,0.23176
1694110567289062,-2.767076,0.175755,9.410143,0.38891,0.475402,0.24876
1694110567296875,-2.788076,0.193755,9.455143,0.59191,0.476802,0.24676
1694110567304687,-2.794076,0.208755,9.484143,0.61591,0.483802,0.25076
1694110567312500,-2.822076,0.201755,9.494143,0.64091,0.499702,0.24476
1694110567320312,-2.851076,0.194755,9.512143,0.66091,0.524702,0.24176
1694110567328125,-2.846076,0.172755,9.586143,0.62791,0.529402,0.24176
1694110567335937,-2.864076,0.177755,9.599143,0.51791,0.542302,0.22676
1694110567343750,-2.903076,0.213755,9.523143,0.54891,0.556802,0.22676
1694110567351562,-2.941076,0.216755,9.388143,0.65591,0.549902,0.24276
1694110567359375,-3.13076,0.225755,9.471143,0.74291,0.508302,0.23076
