time,Acceleration X (m/s^2),Acceleration Y (m/s^2),Acceleration Z (m/s^2),Angular Velocity X (rad/s),Angular Velocity Y (rad/s),Angular Velocity Z (rad/s)
1694110613789062,-8.639512,-0.243175,4.609207,,,
1694110613796875,-8.601512,0.260175,4.623207,0.168054,0.591035,0.34724
1694110613804687,-8.533512,0.256175,4.661207,0.170854,0.606235,0.34524
1694110613812500,-8.434512,0.255175,4.697207,0.184754,0.606435,0.31424
1694110613820312,-8.378512,0.261175,4.733207,0.187654,0.598435,0.21824
1694110613828125,-8.358512,0.261175,4.830207,0.192354,0.594935,0.15524
1694110613843750,-8.325512,0.235175,5.73207,0.201854,0.607835,0.15624
1694110613851562,-8.361512,0.201175,5.93207,0.206554,0.581635,0.9424
1694110613859375,-8.359512,0.186175,5.46207,0.203554,0.574635,0.1524
1694110613867187,-8.334512,0.197175,5.1207,0.184254,0.573735,0.2624
1694110613890625,-8.227512,0.149175,5.154207,0.185154,0.631535,0.524
1694110613898437,-8.249512,0.112175,5.221207,0.193854,0.625935,0.6076
1694110613906250,-8.233512,0.83175,5.271207,0.193454,0.637235,0.776
1694110613914062,-8.170512,0.89175,5.352207,0.187154,0.641735,0.11976
1694110613921875,-8.127512,0.56175,5.395207,0.183954,0.629035,0.10476
1694110613929687,-8.69512,0.52175,5.357207,0.204354,0.615935,0.13376
1694110613937500,-7.958512,0.90175,5.400207,0.224554,0.638635,0.19676
1694110613945312,-7.983512,0.121175,5.533207,0.215654,0.644835,0.5276
1694110613953125,-7.995512,0.162175,5.550207,0.207154,0.639535,0.4076
1694110613960937,-7.993512,0.128175,5.571207,0.193054,0.629635,0.5776
1694110613968750,-7.969512,0.111175,5.591207,0.207654,0.620835,0.3776
1694110613976562,-8.8512,0.84175,5.767207,0.190354,0.619235,0.7176
1694110613984375,-7.918512,0.77175,5.706207,0.182354,0.596435,0.13576
1694110613992187,-7.817512,0.63175,5.740207,0.177654,0.602735,0.16776
1694110614000000,-7.720512,0.53175,5.764207,0.184954,0.629635,0.15476
1694110614007812,-7.660512,0.34175,5.990207,0.196254,0.657135,0.5776
1694110614015625,-7.674512,0.2175,6.147207,0.174354,0.654035,0.1924
1694110614023437,-7.627512,0.4825,6.71207,0.187654,0.615535,0.1024
1694110614031250,-7.558512,0.6825,6.23207,0.192154,0.598135,0.2624
1694110614039062,-7.566512,0.18175,5.976207,0.197154,0.583035,0.2924
1694110614046875,-7.561512,0.33175,5.971207,0.204754,0.552735,0.6224
1694110614054687,-7.521512,0.9175,6.5207,0.210754,0.559635,0.7724
1694110614062500,-7.536512,0.40175,6.143207,0.215254,0.593635,0.2076
1694110614070312,-7.572512,0.34175,6.210207,0.188454,0.600635,0.5524
1694110614078125,-7.593512,0.8175,6.210207,0.180954,0.596935,0.4024
1694110614085937,-7.503512,0.16175,6.208207,0.165354,0.599935,0.5424
1694110614093750,-7.416512,0.13175,6.201207,0.156054,0.619135,0.5324
1694110614101562,-7.418512,0.9825,6.300207,0.149154,0.603735,0.224
1694110614109375,-7.364512,0.8825,6.291207,0.140454,0.567135,0.624
1694110614117187,-7.289512,0.48825,6.350207,0.131254,0.573435,0.6924
1694110614125000,-7.249512,0.110825,6.465207,0.148154,0.595035,0.6924
1694110614132812,-7.206512,0.114825,6.636207,0.148254,0.601335,0.5324
1694110614140625,-7.144512,0.151825,6.609207,0.134354,0.581635,0.8524
1694110614148437,-7.119512,0.145825,6.580207,0.161254,0.584635,0.10524
1694110614156250,-7.59512,0.156825,6.548207,0.165754,0.585235,0.20024
1694110614164062,-7.7512,0.135825,6.555207,0.172354,0.605935,0.24924
1694110614171875,-6.950512,0.126825,6.717207,0.156554,0.634435,0.43624
1694110614179687,-6.951512,0.181825,6.737207,0.151754,0.622935,0.35624
1694110614187500,-7.13512,0.93825,6.699207,0.151954,0.611335,0.37424
1694110614195312,-7.29512,0.89825,6.670207,0.138054,0.592835,0.31124
1694110614203125,-6.968512,0.70825,6.645207,0.133354,0.587635,0.21524
1694110614210937,-6.947512,0.79825,6.690207,0.115754,0.596435,0.24224
1694110614218750,-6.921512,0.118825,6.717207,0.112954,0.607535,0.30724
1694110614226562,-6.855512,0.82825,6.742207,0.127654,0.636435,0.27124
1694110614234375,-6.831512,0.123825,6.841207,0.128554,0.660035,0.44924
1694110614242187,-6.769512,0.153825,6.933207,0.131754,0.646935,0.46724
1694110614250000,-6.706512,0.166825,6.983207,0.133554,0.627035,0.43724
1694110614257812,-6.598512,0.171825,6.940207,0.131454,0.614535,0.32324
1694110614265625,-6.558512,0.195825,6.976207,0.135954,0.624835,0.40224
1694110614273437,-6.566512,0.215825,7.102207,0.152454,0.607435,0.42524
1694110614281250,-6.543512,0.217825,7.143207,0.163054,0.614635,0.42324
1694110614289062,-6.523512,0.228825,7.323207,0.175554,0.622835,0.45624
1694110614296875,-6.481512,0.247825,7.415207,0.162054,0.594135,0.39524
1694110614304687,-6.471512,0.212825,7.352207,0.157954,0.562735,0.26424
1694110614312500,-6.403512,0.190825,7.217207,0.153654,0.535435,0.6024
1694110614320312,-6.337512,0.134825,7.59207,0.153354,0.529535,0.5824
1694110614328125,-6.218512,0.152825,7.255207,0.165754,0.575235,0.10524
1694110614335937,-6.228512,0.235825,7.620207,0.162554,0.582135,0.21524
1694110614343750,-6.309512,0.250825,7.715207,0.137754,0.547935,0.29524
1694110614351562,-6.285512,0.249825,7.595207,0.128954,0.550435,0.34424
1694110614359375,-6.291512,0.254825,7.561207,0.126454,0.585835,0.33824
1694110614367187,-6.169512,0.289825,7.627207,0.105954,0.604835,0.16024
1694110614375000,-6.48512,0.356825,7.834207,0.112454,0.602935,0.17724
1694110614382812,-5.962512,0.428825,8.23207,0.118654,0.573635,0.13124
1694110614390625,-5.922512,0.452825,8.79207,0.107854,0.554235,0.21124
1694110614398437,-5.888512,0.465825,8.19207,0.109854,0.508435,0.24724
1694110614406250,-5.880512,0.493825,7.875207,0.109054,0.491235,0.33124
1694110614414062,-5.852512,0.448825,7.832207,0.113654,0.499635,0.39524
1694110614421875,-5.852512,0.415825,7.776207,0.107554,0.508135,0.55324
1694110614429687,-5.838512,0.440825,7.728207,0.110554,0.538035,0.72724
1694110614437500,-5.820512,0.447825,7.809207,0.133654,0.543335,0.64724
1694110614445312,-5.773512,0.412825,8.28207,0.135754,0.544235,0.68224
1694110614453125,-5.771512,0.414825,8.109207,0.112354,0.519835,0.69724
1694110614460937,-5.779512,0.394825,8.32207,0.89154,0.485435,0.72924
1694110614468750,-5.782512,0.442825,7.863207,0.105954,0.490935,0.72924
1694110614476562,-5.752512,0.372825,7.818207,0.110754,0.503635,0.71324
1694110614484375,-5.670512,0.352825,7.879207,0.113254,0.512835,0.74224
1694110614492187,-5.618512,0.439825,7.951207,0.105954,0.505735,0.77624
1694110614500000,-5.544512,0.476825,8.75207,0.102854,0.492335,0.71324
1694110614507812,-5.529512,0.479825,8.75207,0.90754,0.473935,0.71424
1694110614515625,-5.484512,0.485825,8.75207,0.107954,0.464135,0.68524
1694110614523437,-5.507512,0.485825,8.273207,0.113254,0.443635,0.64124
1694110614531250,-5.470512,0.490825,8.219207,0.110954,0.402235,0.52724
1694110614539062,-5.315512,0.466825,8.46207,0.121454,0.451535,0.50824
1694110614546875,-5.352512,0.418825,8.282207,0.133554,0.515935,0.61624
1694110614554687,-5.341512,0.429825,8.379207,0.116454,0.497635,0.60024
1694110614562500,-5.378512,0.446825,8.323207,0.98154,0.477335,0.58524
1694110614570312,-5.368512,0.447825,8.217207,0.80754,0.451735,0.61524
1694110614578125,-5.369512,0.480825,8.201207,0.104454,0.446635,0.63524
1694110614585937,-5.375512,0.474825,8.277207,0.107254,0.447335,0.63324
1694110614593750,-5.317512,0.464825,8.320207,0.99454,0.430435,0.50724
1694110614601562,-5.259512,0.449825,8.368207,0.98654,0.413035,0.47924
1694110614609375,-5.248512,0.486825,8.483207,0.92354,0.405035,0.49424
1694110614617187,-5.167512,0.488825,8.482207,0.68454,0.366435,0.46024
1694110614625000,-5.150512,0.523825,8.419207,0.65854,0.336635,0.47924
1694110614632812,-5.173512,0.568825,8.379207,0.45354,0.314035,0.46124
1694110614640625,-5.95512,0.622825,8.298207,0.56254,0.315635,0.43024
1694110614648437,-4.978512,0.647825,8.579207,0.85854,0.359935,0.51024
1694110614656250,-4.934512,0.668825,8.735207,0.84954,0.362535,0.60924
1694110614664062,-4.922512,0.653825,8.647207,0.78554,0.356535,0.71924
1694110614671875,-4.982512,0.636825,8.518207,0.83154,0.337535,0.76724
1694110614679687,-4.942512,0.626825,8.437207,0.99154,0.335335,0.75524
1694110614687500,-4.894512,0.577825,8.471207,0.106854,0.346835,0.72324
1694110614695312,-4.847512,0.554825,8.467207,0.103954,0.335135,0.74024
1694110614703125,-4.845512,0.573825,8.451207,0.93154,0.334935,0.75624
1694110614710937,-4.784512,0.543825,8.523207,0.88654,0.331235,0.72524
1694110614718750,-4.728512,0.556825,8.568207,0.74154,0.344935,0.73624
1694110614726562,-4.678512,0.547825,8.532207,0.58154,0.372735,0.70024
1694110614734375,-4.703512,0.574825,8.617207,0.60854,0.386435,0.71424
1694110614742187,-4.687512,0.579825,8.633207,0.57554,0.367135,0.69724
1694110614750000,-4.638512,0.555825,8.687207,0.56454,0.369835,0.73124
1694110614757812,-4.673512,0.554825,8.750207,0.57954,0.379635,0.71524
1694110614765625,-4.663512,0.564825,8.854207,0.60254,0.378735,0.78324
1694110614773437,-4.627512,0.622825,8.849207,0.70754,0.350435,0.79824
1694110614781250,-4.614512,0.632825,8.888207,0.75854,0.355935,0.72124
1694110614789062,-4.578512,0.643825,8.971207,0.80354,0.336935,0.73724
1694110614796875,-4.531512,0.635825,8.865207,0.79054,0.326735,0.72324
1694110614804687,-4.484512,0.615825,8.868207,0.87054,0.331435,0.74024
1694110614812500,-4.486512,0.649825,8.809207,0.83454,0.322435,0.75424
1694110614820312,-4.464512,0.657825,8.823207,0.100754,0.327135,0.72424
1694110614828125,-4.432512,0.638825,8.908207,0.110354,0.343135,0.72524
1694110614835937,-4.403512,0.623825,8.980207,0.91254,0.343535,0.73824
1694110614843750,-4.362512,0.636825,8.856207,0.83154,0.338735,0.67224
1694110614851562,-4.289512,0.654825,8.897207,0.84754,0.385835,0.68624
1694110614859375,-4.224512,0.693825,9.16207,0.86054,0.395835,0.63724
1694110614867187,-4.135512,0.664825,8.950207,0.63054,0.389235,0.62924
1694110614875000,-4.99512,0.639825,8.894207,0.39654,0.385935,0.67524
1694110614882812,-3.992512,0.655825,8.849207,0.32354,0.367035,0.59824
1694110614890625,-3.982512,0.735825,9.30207,0.32154,0.352235,0.70224
1694110614898437,-4.31512,0.811825,9.7207,0.34354,0.263735,0.69224
1694110614906250,-3.849512,0.797825,8.613207,0.33954,0.288235,0.56224
1694110614914062,-3.861512,0.742825,8.953207,0.44254,0.417535,0.60224
1694110614921875,-3.960512,0.760825,9.154207,0.63054,0.375535,0.67024
1694110614929687,-4.93512,0.784825,9.147207,0.57754,0.249235,0.67924
1694110614937500,-3.936512,0.779825,8.821207,0.62754,0.224435,0.68224
1694110614945312,-3.836512,0.726825,8.929207,0.42954,0.358735,0.63824
1694110614953125,-3.889512,0.693825,9.82207,0.32654,0.390835,0.58324
1694110614960937,-3.931512,0.658825,9.140207,0.20154,0.367835,0.55124
1694110614968750,-3.992512,0.621825,9.138207,0.10054,0.290435,0.57324
1694110614976562,-3.852512,0.596825,8.868207,0.22954,0.242735,0.54724
1694110614984375,-3.796512,0.600825,9.82207,0.41054,0.310335,0.54224
1694110614992187,-3.801512,0.644825,9.395207,0.25854,0.293635,0.60724
1694110615000000,-3.727512,0.654825,9.287207,0.13854,0.240735,0.57924
1694110615007812,-3.718512,0.658825,9.235207,0.12154,0.234635,0.59424
1694110615015625,-3.703512,0.664825,9.115207,0.10754,0.221235,0.58024
1694110615023437,-3.688512,0.688825,9.109207,0.19154,0.236435,0.55124
1694110615031250,-3.675512,0.728825,9.118207,0.16954,0.259735,0.41924
1694110615039062,-3.720512,0.744825,9.172207,0.10454,0.265035,0.44924
1694110615046875,-3.737512,0.746825,9.70207,0.11454,0.213835,0.38524
1694110615054687,-3.728512,0.725825,9.39207,0.13354,0.187235,0.34024
1694110615062500,-3.652512,0.726825,9.46207,0.29054,0.175735,0.32724
1694110615070312,-3.582512,0.693825,9.79207,0.21754,0.186635,0.42324
1694110615078125,-3.534512,0.678825,9.97207,0.5654,0.196835,0.37124
1694110615085937,-3.500512,0.646825,9.93207,0.2646,0.215235,0.31924
1694110615093750,-3.533512,0.607825,9.100207,0.754,0.206835,0.36924
1694110615101562,-3.571512,0.621825,9.131207,0.3854,0.199035,0.43324
1694110615109375,-3.603512,0.652825,9.199207,0.10554,0.188835,0.48424
1694110615117187,-3.608512,0.663825,9.266207,0.14154,0.180535,0.66324
1694110615125000,-3.608512,0.654825,9.361207,0.23654,0.175635,0.68024
1694110615132812,-3.592512,0.610825,9.347207,0.19054,0.157635,0.66524
1694110615140625,-3.573512,0.592825,9.228207,0.15854,0.146535,0.71224
1694110615148437,-3.548512,0.563825,9.113207,0.12454,0.146535,0.59924
1694110615156250,-3.523512,0.536825,9.63207,0.16854,0.158235,0.56624
1694110615164062,-3.473512,0.531825,9.129207,0.29454,0.177635,0.58324
1694110615171875,-3.467512,0.514825,9.219207,0.34654,0.178535,0.57024
1694110615179687,-3.473512,0.484825,9.212207,0.29654,0.175635,0.55224
1694110615187500,-3.463512,0.459825,9.248207,0.34354,0.167435,0.52124
1694110615195312,-3.459512,0.474825,9.345207,0.38154,0.145535,0.57424
1694110615203125,-3.424512,0.496825,9.399207,0.38154,0.124435,0.55824
1694110615210937,-3.385512,0.476825,9.397207,0.32854,0.112135,0.50824
1694110615218750,-3.353512,0.469825,9.388207,0.22054,0.97635,0.57124
1694110615226562,-3.338512,0.472825,9.309207,0.33854,0.89635,0.51424
1694110615234375,-3.320512,0.461825,9.257207,0.41254,0.95135,0.54424
1694110615242187,-3.309512,0.467825,9.224207,0.34254,0.92535,0.62724
1694110615250000,-3.286512,0.481825,9.174207,0.36654,0.87235,0.59224
1694110615257812,-3.266512,0.498825,9.192207,0.37954,0.102135,0.57424
1694110615265625,-3.267512,0.535825,9.334207,0.40054,0.101335,0.57724
1694110615273437,-3.259512,0.584825,9.377207,0.36954,0.78635,0.59424
1694110615281250,-3.259512,0.589825,9.307207,0.38754,0.58735,0.58024
1694110615289062,-3.306512,0.577825,9.167207,0.38354,0.56335,0.65824
1694110615296875,-3.351512,0.588825,9.214207,0.55354,0.89035,0.62524
1694110615304687,-3.342512,0.609825,9.329207,0.58154,0.106135,0.70324
1694110615312500,-3.340512,0.653825,9.404207,0.44354,0.104035,0.73524
1694110615320312,-3.350512,0.659825,9.293207,0.36854,0.84135,0.75224
1694110615328125,-3.359512,0.668825,9.206207,0.52754,0.75635,0.74024
1694110615335937,-3.379512,0.702825,9.264207,0.71154,0.84235,0.65924
1694110615343750,-3.350512,0.700825,9.419207,0.77154,0.69635,0.54824
1694110615351562,-3.331512,0.626825,9.390207,0.61354,0.50135,0.48324
1694110615359375,-3.280512,0.552825,9.300207,0.39354,0.41635,0.35324
1694110615367187,-3.249512,0.529825,9.359207,0.37954,0.34635,0.29024
1694110615375000,-3.217512,0.500825,9.453207,0.33054,0.36235,0.22524
1694110615382812,-3.178512,0.473825,9.489207,0.30054,0.31335,0.24224
1694110615390625,-3.159512,0.456825,9.446207,0.18154,0.21235,0.22024
1694110615398437,-3.130512,0.457825,9.444207,0.27754,0.19435,0.23824
1694110615406250,-3.109512,0.485825,9.541207,0.36254,0.18435,0.22624
1694110615414062,-3.66512,0.514825,9.595207,0.37454,0.9235,0.24124
1694110615421875,-3.44512,0.493825,9.496207,0.28354,0.2665,0.21024
1694110615429687,-3.25512,0.468825,9.372207,0.18754,0.835,0.19224
1694110615437500,-3.47512,0.453825,9.376207,0.23654,0.13535,0.19324
1694110615445312,-3.23512,0.451825,9.518207,0.28354,0.7365,0.24224
1694110615453125,-2.997512,0.500825,9.564207,0.38654,0.18165,0.36024
1694110615460937,-2.999512,0.555825,9.597207,0.28654,0.8965,0.41924
1694110615468750,-3.32512,0.581825,9.451207,0.10654,0.19765,0.46924
1694110615476562,-3.84512,0.609825,9.343207,0.15154,0.7865,0.50024
1694110615484375,-3.116512,0.613825,9.447207,0.31054,0.1335,0.48724
1694110615492187,-3.105512,0.626825,9.584207,0.34354,0.8665,0.47324
1694110615500000,-3.111512,0.647825,9.647207,0.37154,0.22765,0.44024
1694110615507812,-3.120512,0.642825,9.631207,0.38954,0.36365,0.37824
1694110615515625,-3.140512,0.625825,9.534207,0.34054,0.60265,0.37724
1694110615523437,-3.147512,0.616825,9.426207,0.34354,0.70565,0.37924
1694110615531250,-3.167512,0.607825,9.366207,0.39254,0.67865,0.31724
1694110615539062,-3.162512,0.576825,9.334207,0.23154,0.56065,0.26524
1694110615546875,-3.108512,0.533825,9.282207,0.11954,0.54465,0.15124
1694110615554687,-3.35512,0.476825,9.210207,0.15154,0.49765,0.12024
1694110615562500,-2.998512,0.398825,9.223207,0.13254,0.47965,0.3924
1694110615570312,-2.979512,0.344825,9.316207,0.18054,0.59665,0.2376
1694110615578125,-3.1512,0.345825,9.250207,0.11454,0.60665,0.976
1694110615585937,-3.44512,0.330825,9.262207,0.11954,0.59865,0.2376
1694110615593750,-3.53512,0.339825,9.345207,0.16254,0.62565,0.876
1694110615601562,-3.70512,0.331825,9.390207,0.19154,0.70365,0.2476
1694110615609375,-3.102512,0.316825,9.325207,0.10054,0.75665,0.876
1694110615617187,-3.119512,0.290825,9.255207,0.14454,0.83265,0.2576
1694110615625000,-3.115512,0.313825,9.298207,0.15054,0.71165,0.676
1694110615632812,-3.114512,0.356825,9.388207,0.25554,0.70465,0.2376
1694110615640625,-3.96512,0.420825,9.476207,0.34754,0.61865,0.2324
1694110615648437,-3.117512,0.456825,9.374207,0.28554,0.74965,0.2424
1694110615656250,-3.115512,0.444825,9.280207,0.39954,0.67565,0.2076
1694110615664062,-3.95512,0.465825,9.280207,0.57854,0.51665,0.776
1694110615671875,-3.102512,0.491825,9.309207,0.62854,0.35865,0.3876
1694110615679687,-3.132512,0.498825,9.338207,0.47154,0.8465,0.4176
1694110615687500,-3.143512,0.496825,9.262207,0.16954,0.9765,0.15876
1694110615695312,-3.163512,0.496825,9.257207,0.18454,0.21465,0.26876
1694110615703125,-3.176512,0.468825,9.239207,0.16754,0.25965,0.23776
1694110615710937,-3.182512,0.422825,9.205207,0.10154,0.32165,0.28776
1694110615718750,-3.226512,0.367825,9.210207,0.19454,0.17365,0.28776
1694110615726562,-3.227512,0.291825,9.235207,0.19854,0.9765,0.23876
1694110615734375,-3.215512,0.271825,9.302207,0.8954,0.1935,0.11276
1694110615742187,-3.187512,0.279825,9.230207,0.15654,0.29865,0.18776
1694110615750000,-3.176512,0.272825,9.201207,0.30554,0.35265,0.2276
1694110615757812,-3.202512,0.251825,9.221207,0.39554,0.32965,0.776
1694110615765625,-3.206512,0.227825,9.244207,0.59754,0.35865,0.676
1694110615773437,-3.165512,0.237825,9.243207,0.59454,0.33765,0.2476
1694110615781250,-3.130512,0.232825,9.183207,0.61454,0.32765,0.676
1694110615789062,-3.114512,0.235825,9.149207,0.66454,0.34965,0.1976
1694110615796875,-3.69512,0.237825,9.201207,0.75754,0.21665,0.476
1694110615804687,-3.40512,0.271825,9.354207,0.70354,0.4465,0.2476
1694110615812500,-3.59512,0.326825,9.325207,0.61654,0.20065,0.1024
1694110615820312,-3.58512,0.417825,9.196207,0.63154,0.13265,0.5724
1694110615828125,-3.48512,0.492825,9.176207,0.72254,0.8165,0.2524
1694110615835937,-3.49512,0.546825,9.239207,0.76854,0.4935,0.824
1694110615843750,-3.56512,0.552825,9.242207,0.86754,0.6865,0.6024
1694110615851562,-3.67512,0.524825,9.158207,0.78454,0.11535,0.5624
1694110615859375,-3.92512,0.522825,9.106207,0.83054,0.22735,0.2376
1694110615867187,-3.161512,0.552825,9.131207,0.87554,0.33035,0.724
1694110615875000,-3.182512,0.575825,9.241207,0.85854,0.36535,0.2224
1694110615882812,-3.140512,0.594825,9.419207,0.85954,0.33035,0.724
1694110615890625,-3.106512,0.602825,9.532207,0.87754,0.9835,0.676
1694110615898437,-3.88512,0.591825,9.480207,0.68854,0.14365,0.776
1694110615906250,-3.81512,0.589825,9.390207,0.59354,0.27265,0.2476
1694110615914062,-3.61512,0.582825,9.435207,0.62754,0.12865,0.876
1694110615921875,-3.49512,0.541825,9.473207,0.44154,0.6765,0.976
1694110615929687,-3.64512,0.489825,9.444207,0.35854,0.6165,0.2876
1694110615937500,-3.70512,0.455825,9.431207,0.37754,0.3265,0.2124
1694110615945312,-3.72512,0.426825,9.410207,0.30454,0.5935,0.13424
1694110615953125,-3.43512,0.425825,9.383207,0.35054,0.9235,0.10224
1694110615960937,-3.37512,0.452825,9.314207,0.36554,0.4535,0.8624
1694110615968750,-3.21512,0.474825,9.257207,0.44054,0.9835,0.6924
1694110615976562,-2.983512,0.490825,9.284207,0.62554,0.10235,0.6924
1694110615984375,-2.937512,0.519825,9.377207,0.61754,0.4065,0.2624
1694110615992187,-2.919512,0.542825,9.471207,0.65854,0.16165,0.3976
1694110616000000,-2.903512,0.523825,9.431207,0.56654,0.31565,0.15076
1694110616007812,-2.864512,0.503825,9.307207,0.41954,0.21165,0.21876
1694110616015625,-2.862512,0.523825,9.163207,0.35454,0.17765,0.28476
1694110616023437,-2.831512,0.511825,9.187207,0.40454,0.10935,0.26776
1694110616031250,-2.788512,0.543825,9.354207,0.44154,0.20535,0.28876
1694110616039062,-2.766512,0.582825,9.478207,0.58554,0.965,0.26876
1694110616046875,-2.804512,0.598825,9.509207,0.60154,0.20365,0.28376
1694110616054687,-2.888512,0.608825,9.367207,0.65154,0.30565,0.26476
1694110616062500,-2.980512,0.556825,9.217207,0.79654,0.22965,0.24576
1694110616070312,-3.46512,0.524825,9.293207,0.87454,0.15965,0.15076
1694110616078125,-3.80512,0.498825,9.498207,0.77754,0.2665,0.16976
1694110616085937,-3.32512,0.466825,9.640207,0.57554,0.6665,0.26576
1694110616093750,-2.989512,0.417825,9.662207,0.46454,0.27565,0.26676
1694110616101562,-2.979512,0.405825,9.656207,0.35754,0.47465,0.28176
1694110616109375,-2.989512,0.414825,9.654207,0.37654,0.63965,0.23176
1694110616117187,-3.512,0.430825,9.660207,0.37754,0.73665,0.16776
1694110616125000,-2.987512,0.434825,9.620207,0.25554,0.70765,0.8776
1694110616132812,-2.951512,0.445825,9.604207,0.33154,0.86465,0.7076
1694110616140625,-2.926512,0.471825,9.550207,0.45454,0.115565,0.16576
1694110616148437,-2.904512,0.465825,9.453207,0.57454,0.118565,0.9476
1694110616156250,-2.893512,0.455825,9.374207,0.57054,0.111165,0.3376
1694110616164062,-2.895512,0.459825,9.365207,0.61854,0.111865,0.15976
1694110616171875,-2.913512,0.477825,9.444207,0.58854,0.108565,0.11276
1694110616179687,-2.916512,0.526825,9.536207,0.61654,0.114465,0.9776
1694110616187500,-2.942512,0.600825,9.606207,0.63454,0.117965,0.4776
1694110616195312,-2.965512,0.622825,9.532207,0.57854,0.136365,0.6624
1694110616203125,-2.972512,0.643825,9.428207,0.49154,0.137065,0.176
1694110616210937,-3.8512,0.663825,9.397207,0.62354,0.139465,0.3424
1694110616218750,-3.33512,0.686825,9.426207,0.63254,0.122265,0.176
1694110616226562,-3.58512,0.686825,9.417207,0.61954,0.124265,0.3224
1694110616234375,-3.89512,0.668825,9.376207,0.51654,0.121465,0.2176
1694110616242187,-3.131512,0.649825,9.381207,0.45954,0.117565,0.3576
1694110616250000,-3.161512,0.652825,9.440207,0.48854,0.120665,0.11576
1694110616257812,-3.178512,0.630825,9.591207,0.63254,0.130865,0.14376
1694110616265625,-3.178512,0.599825,9.651207,0.58154,0.146965,0.24176
1694110616273437,-3.195512,0.545825,9.579207,0.40754,0.174365,0.27476
1694110616281250,-3.221512,0.469825,9.478207,0.36354,0.192665,0.27276
1694110616289062,-3.233512,0.415825,9.520207,0.37454,0.188765,0.30776
1694110616296875,-3.229512,0.387825,9.622207,0.36954,0.209565,0.23776
1694110616304687,-3.223512,0.368825,9.638207,0.37954,0.226865,0.31976
1694110616312500,-3.199512,0.371825,9.586207,0.35354,0.261665,0.26776
1694110616320312,-3.169512,0.369825,9.482207,0.35354,0.295665,0.25076
1694110616328125,-3.149512,0.359825,9.496207,0.51254,0.300765,0.24776
1694110616335937,-3.136512,0.370825,9.635207,0.62754,0.322565,0.25876
1694110616343750,-3.136512,0.386825,9.707207,0.67254,0.324065,0.29076
1694110616351562,-3.153512,0.423825,9.631207,0.52054,0.331165,0.24176
1694110616359375,-3.171512,0.437825,9.575207,0.37454,0.323865,0.23076
1694110616367187,-3.183512,0.459825,9.572207,0.39354,0.324265,0.19676
1694110616375000,-3.188512,0.496825,9.498207,0.38754,0.343265,0.9576
1694110616382812,-3.195512,0.522825,9.376207,0.41254,0.348365,0.4424
1694110616390625,-3.204512,0.563825,9.390207,0.58254,0.346065,0.10924
1694110616398437,-3.236512,0.605825,9.530207,0.61754,0.351365,0.15924
1694110616406250,-3.269512,0.631825,9.494207,0.49854,0.358965,0.11324
1694110616414062,-3.299512,0.628825,9.295207,0.36654,0.371065,0.6124
1694110616421875,-3.358512,0.622825,9.208207,0.41554,0.371665,0.1676
1694110616429687,-3.436512,0.622825,9.408207,0.59754,0.383765,0.3276
1694110616437500,-3.499512,0.602825,9.604207,0.55554,0.413865,0.10976
1694110616445312,-3.566512,0.585825,9.478207,0.24354,0.423965,0.12776
1694110616453125,-3.622512,0.566825,9.217207,0.8554,0.423765,0.11376
1694110616460937,-3.648512,0.499825,9.102207,0.13654,0.434265,0.14276
1694110616468750,-3.671512,0.477825,9.260207,0.28054,0.442765,0.13976
1694110616476562,-3.657512,0.467825,9.412207,0.26154,0.464665,0.9276
1694110616484375,-3.620512,0.460825,9.451207,0.13254,0.490365,0.14276
1694110616492187,-3.605512,0.448825,9.390207,0.3446,0.509265,0.17276
1694110616500000,-3.647512,0.440825,9.219207,0.12646,0.530765,0.21976
1694110616507812,-3.691512,0.383825,9.156207,0.8046,0.533565,0.13976
1694110616515625,-3.743512,0.392825,9.241207,0.14354,0.540665,0.15076
1694110616523437,-3.772512,0.393825,9.291207,0.15554,0.535165,0.12076
1694110616531250,-3.763512,0.357825,9.219207,0.14354,0.542165,0.10376
1694110616539062,-3.780512,0.349825,9.11207,0.15254,0.560765,0.13776
1694110616546875,-3.798512,0.338825,8.903207,0.14054,0.556465,0.16776
1694110616554687,-3.843512,0.357825,8.910207,0.30754,0.552565,0.21676
1694110616562500,-3.882512,0.370825,8.996207,0.38954,0.538665,0.22976
1694110616570312,-3.903512,0.388825,9.23207,0.43654,0.551765,0.27676
1694110616578125,-3.977512,0.385825,8.895207,0.43854,0.568565,0.35476
1694110616585937,-4.37512,0.381825,8.843207,0.38854,0.537265,0.37376
1694110616593750,-4.96512,0.398825,8.858207,0.43254,0.533565,0.39176
1694110616601562,-4.166512,0.416825,8.953207,0.59354,0.539065,0.35476
1694110616609375,-4.209512,0.449825,9.27207,0.46754,0.551765,0.32476
1694110616617187,-4.216512,0.439825,9.43207,0.20154,0.540765,0.35976
1694110616625000,-4.306512,0.490825,8.906207,0.13954,0.566365,0.24776
1694110616632812,-4.185512,0.506825,8.854207,0.14254,0.568365,0.19776
1694110616640625,-4.187512,0.437825,8.834207,0.22154,0.571365,0.13276
1694110616648437,-4.294512,0.455825,8.991207,0.15354,0.556065,0.15276
1694110616656250,-4.333512,0.462825,8.901207,0.7954,0.610165,0.13376
1694110616664062,-4.425512,0.445825,8.809207,0.17754,0.602765,0.16276
1694110616671875,-4.434512,0.445825,8.768207,0.37954,0.610765,0.20876
1694110616679687,-4.480512,0.372825,8.834207,0.41154,0.549065,0.16276
1694110616687500,-4.624512,0.368825,8.944207,0.17554,0.584565,0.13276
1694110616695312,-4.615512,0.356825,8.494207,0.23354,0.678665,0.13876
1694110616703125,-4.619512,0.362825,8.653207,0.48854,0.629965,0.19176
1694110616710937,-4.619512,0.365825,8.872207,0.48054,0.655565,0.20276
1694110616718750,-4.620512,0.375825,8.861207,0.29254,0.689765,0.23476
1694110616726562,-4.650512,0.428825,8.764207,0.20054,0.688365,0.21976
1694110616734375,-4.654512,0.417825,8.697207,0.29354,0.686965,0.31376
1694110616742187,-4.724512,0.436825,8.917207,0.60154,0.704165,0.37576
1694110616750000,-4.792512,0.466825,9.5207,0.50054,0.788265,0.41776
1694110616757812,-4.810512,0.495825,8.787207,0.18454,0.798065,0.51776
1694110616765625,-4.873512,0.472825,8.636207,0.8754,0.788265,0.64776
1694110616773437,-4.899512,0.440825,8.494207,0.4054,0.783765,0.72776
1694110616781250,-4.960512,0.406825,8.562207,0.2154,0.749365,0.76276
1694110616789062,-5.11512,0.397825,8.545207,0.3154,0.758265,0.79676
1694110616796875,-5.58512,0.386825,8.410207,0.10646,0.756965,0.76576
1694110616804687,-5.65512,0.430825,8.332207,0.9046,0.739365,0.79776
1694110616812500,-5.79512,0.443825,8.179207,0.1446,0.724465,0.83076
1694110616820312,-5.86512,0.421825,8.44207,0.15954,0.718265,0.85976
1694110616828125,-5.132512,0.388825,7.974207,0.14054,0.700065,0.87776
1694110616835937,-5.188512,0.361825,7.983207,0.29454,0.677165,0.94176
1694110616843750,-5.279512,0.311825,8.19207,0.32254,0.662165,0.97576
