time,Acceleration X (m/s^2),Acceleration Y (m/s^2),Acceleration Z (m/s^2),Angular Velocity X (rad/s),Angular Velocity Y (rad/s),Angular Velocity Z (rad/s)
1694109833789062,-10.035603,-0.117964,,,,
1694109833796875,-10.20603,0.122964,0.151123,0.73594,0.216277,0.34101
1694109833804687,-9.981603,0.142964,0.106123,0.88694,0.228577,0.35601
1694109833812500,-9.981603,0.161964,0.78123,0.87594,0.245777,0.35701
1694109833820312,-9.947603,0.163964,0.49123,0.96694,0.254177,0.32501
1694109833828125,-9.945603,0.164964,0.24123,0.100094,0.269977,0.32601
1694109833843750,-9.881603,0.89964,0.29877,0.88794,0.265777,0.37001
1694109833851562,-9.860603,0.0,0.58877,0.109294,0.297777,0.27701
1694109833859375,-9.861603,0.74964,0.150877,0.98694,0.277677,0.27801
1694109833867187,-9.877603,0.78964,0.38877,0.81594,0.227277,0.34301
1694109833890625,-9.899603,0.120964,0.0,0.62194,0.273577,0.32001
1694109833898437,-9.977603,0.150964,0.114877,0.63994,0.294877,0.47901
1694109833906250,-10.102603,0.181964,0.170877,0.67194,0.291677,0.49601
1694109833914062,-10.151603,0.195964,0.233877,0.59394,0.286977,0.60701
1694109833921875,-10.188603,0.232964,0.229877,0.49494,0.277877,0.58801
1694109833929687,-10.222603,0.239964,0.188877,0.59194,0.278977,0.52701
1694109833937500,-10.229603,0.252964,0.87877,0.55894,0.295477,0.55701
1694109833945312,-10.238603,0.254964,0.87877,0.59194,0.329377,0.57301
1694109833953125,-10.217603,0.268964,0.123877,0.61894,0.370677,0.63301
1694109833960937,-10.243603,0.247964,0.173877,0.62194,0.412977,0.77601
1694109833968750,-10.265603,0.247964,0.229877,0.79194,0.452277,0.79101
1694109833976562,-10.308603,0.227964,0.294877,0.93694,0.489677,0.96801
1694109833984375,-10.318603,0.176964,0.385877,0.110694,0.542177,0.103001
1694109833992187,-10.231603,0.170964,0.486877,0.123294,0.577977,0.111001
1694109834000000,-10.292603,0.233964,0.508877,0.122894,0.614977,0.128201
1694109834007812,-10.224603,0.182964,0.565877,0.111094,0.640377,0.149001
1694109834015625,-10.140603,0.236964,0.585877,0.115994,0.650077,0.152301
1694109834023437,-10.129603,0.202964,0.576877,0.101394,0.655977,0.164601
1694109834031250,-10.42603,0.146964,0.643877,0.83694,0.711677,0.160801
1694109834039062,-10.9603,0.66964,0.797877,0.88194,0.742977,0.166901
1694109834046875,-9.931603,0.19964,0.790877,0.86394,0.742977,0.155701
1694109834054687,-9.950603,0.23964,0.909877,0.98994,0.770377,0.154101
1694109834062500,-9.960603,0.42036,1.11877,0.113394,0.779877,0.159201
1694109834070312,-9.965603,0.78036,1.153877,0.89694,0.810477,0.146001
1694109834078125,-9.951603,0.74036,1.121877,0.47694,0.827977,0.130501
1694109834085937,-9.909603,0.390036,1.51877,0.22194,0.863677,0.113901
1694109834093750,-9.418603,0.351036,0.858877,0.20206,0.926577,0.36001
1694109834101562,-9.588603,0.128964,1.94877,0.48594,0.936977,0.41401
1694109834109375,-9.938603,0.113036,1.285877,0.127294,0.782877,0.74101
1694109834117187,-10.254603,0.296036,1.310877,0.76394,0.854977,0.68101
1694109834125000,-10.347603,0.1964,1.495877,0.6194,0.984877,0.69401
1694109834132812,-10.230603,0.517036,1.346877,0.50406,-1.74077,0.63601
1694109834140625,-9.873603,0.30964,1.254877,0.118506,-1.189277,0.15001
1694109834148437,-10.195603,0.289964,1.821877,0.74894,-1.36077,0.76201
1694109834156250,-10.231603,0.27036,1.571877,0.25994,0.935477,0.89401
1694109834164062,-10.164603,0.108964,1.747877,0.6794,-1.66577,0.109101
1694109834171875,-10.159603,0.4036,1.797877,0.26006,-1.107577,0.132601
1694109834179687,-10.170603,0.15964,1.734877,0.29006,-1.144577,0.130901
1694109834187500,-10.7603,0.33036,1.826877,0.18406,-1.176377,0.141801
1694109834195312,-9.925603,0.25036,1.900877,0.7706,-1.175377,0.146501
1694109834203125,-9.974603,0.84036,2.15877,0.9894,-1.186777,0.161201
1694109834210937,-9.977603,0.175036,2.62877,0.12794,-1.214377,0.153101
1694109834218750,-9.927603,0.125036,2.200877,0.33094,-1.268477,0.164101
1694109834226562,-9.838603,0.190036,2.279877,0.40794,-1.301277,0.168801
1694109834234375,-9.760603,0.241036,2.420877,0.46694,-1.331177,0.173301
1694109834242187,-9.804603,0.188036,2.533877,0.49794,-1.359077,0.179601
1694109834250000,-9.886603,0.247036,2.623877,0.87794,-1.354077,0.193001
1694109834257812,-9.935603,0.367036,2.688877,0.91194,-1.350577,0.196301
1694109834265625,-9.593603,0.313036,2.817877,0.43194,-1.427477,0.175901
1694109834273437,-9.593603,0.148036,2.905877,0.27094,-1.416677,0.195501
1694109834281250,-9.596603,0.178036,3.11877,0.37994,-1.423877,0.214601
1694109834289062,-9.487603,0.298036,3.258877,0.5606,-1.415877,0.233401
1694109834296875,-9.510603,0.199036,3.78877,0.22806,-1.376777,0.230201
1694109834304687,-9.545603,0.251036,3.227877,0.11994,-1.376877,0.243501
1694109834312500,-9.469603,0.274036,3.301877,0.8794,-1.375177,0.238601
1694109834320312,-9.393603,0.191036,3.402877,0.30806,-1.443977,0.244101
1694109834328125,-9.454603,0.187036,3.517877,0.43206,-1.451977,0.247201
1694109834335937,-9.285603,0.205036,3.492877,0.38906,-1.450877,0.243801
1694109834343750,-9.156603,0.249036,3.621877,0.51706,-1.478277,0.225901
1694109834351562,-9.65603,0.271036,3.657877,0.67306,-1.485577,0.209901
1694109834359375,-8.946603,0.344036,3.639877,0.49306,-1.499677,0.203201
1694109834367187,-8.933603,0.366036,3.758877,0.26206,-1.502877,0.185801
1694109834375000,-8.956603,0.410036,3.916877,0.14606,-1.467977,0.188001
1694109834382812,-8.968603,0.448036,4.69877,0.17606,-1.469577,0.191201
1694109834390625,-9.10603,0.513036,4.195877,0.3906,-1.500877,0.187801
1694109834398437,-9.75603,0.499036,4.355877,0.26694,-1.572977,0.174801
1694109834406250,-9.83603,0.588036,4.598877,0.60394,-1.619277,0.165001
1694109834414062,-9.26603,0.576036,4.805877,0.39994,-1.625377,0.155201
1694109834421875,-9.33603,0.571036,4.909877,0.41794,-1.606877,0.144301
1694109834429687,-9.88603,0.639036,5.58877,0.57394,-1.605277,0.142901
1694109834437500,-9.161603,0.725036,5.373877,0.66094,-1.628777,0.136101
1694109834445312,-9.171603,0.738036,5.706877,0.64494,-1.667677,0.131201
1694109834453125,-9.187603,0.763036,6.114877,0.65294,-1.723777,0.127401
1694109834460937,-9.215603,0.752036,6.325877,0.51594,-1.775477,0.118501
1694109834468750,-9.169603,0.634036,6.616877,0.28494,-1.831377,0.110201
1694109834476562,-9.96603,0.560036,6.936877,0.9106,-1.854077,0.114601
1694109834484375,-8.968603,0.538036,7.251877,0.21506,-1.840677,0.113001
1694109834492187,-8.658603,0.431036,7.796877,0.7306,-1.858777,0.119401
1694109834500000,-8.385603,0.497036,8.760877,0.10706,-1.742777,0.153901
1694109834507812,-8.232603,0.612036,9.64877,0.76306,-1.498877,0.167801
1694109834515625,-8.140603,0.618036,9.64877,0.30306,-1.392677,0.167401
1694109834523437,-7.889603,0.707036,9.120877,0.14894,-1.253377,0.177001
1694109834531250,-7.667603,0.733036,8.749877,0.8306,-1.129677,0.177401
1694109834539062,-7.548603,0.692036,8.434877,0.10506,-1.84177,0.171701
1694109834546875,-7.326603,0.791036,8.220877,0.9494,-1.68677,0.171801
1694109834554687,-7.103603,0.863036,8.253877,0.17594,-1.38677,0.162601
1694109834562500,-6.932603,1.9036,8.253877,0.6194,0.992977,0.135401
1694109834570312,-6.722603,1.97036,8.249877,0.18294,0.932677,0.106901
1694109834578125,-6.432603,1.66036,8.303877,0.37394,0.848877,0.83701
1694109834585937,-6.234603,1.56036,8.294877,0.28394,0.764877,0.68301
1694109834593750,-6.103603,0.992036,8.240877,0.14194,0.687977,0.44501
1694109834601562,-5.960603,0.954036,8.332877,0.12294,0.635877,0.23801
1694109834609375,-5.793603,0.892036,8.411877,0.9194,0.573477,0.4901
1694109834617187,-5.580603,0.771036,8.476877,0.10794,0.539277,0.1299
1694109834625000,-5.565603,0.820036,8.668877,0.1694,0.503077,0.4299
1694109834632812,-5.464603,0.687036,8.791877,0.10606,0.466277,0.24799
1694109834640625,-5.547603,0.808036,9.19877,0.15306,0.407677,0.29399
1694109834648437,-5.481603,0.718036,9.8877,0.22806,0.318477,0.62399
1694109834656250,-5.365603,0.557036,9.122877,0.46506,0.250477,0.65599
1694109834664062,-5.670603,0.604036,8.902877,0.52006,0.143577,0.74399
1694109834671875,-5.764603,0.590036,8.780877,0.38006,0.128777,0.85399
1694109834679687,-5.792603,0.497036,8.938877,0.39906,0.146777,0.98399
1694109834687500,-5.702603,0.360036,8.985877,0.40706,0.97477,0.83599
1694109834695312,-5.809603,0.451036,8.938877,0.55906,0.79677,0.57899
1694109834703125,-5.677603,0.369036,9.57877,0.67106,0.106077,0.51899
1694109834710937,-5.563603,0.283036,9.145877,0.63106,0.91477,0.17999
1694109834718750,-5.459603,0.346036,9.183877,0.54606,0.80677,0.25501
1694109834726562,-5.350603,0.468036,9.388877,0.63406,0.57577,0.43301
1694109834734375,-5.162603,0.474036,9.321877,0.62206,0.10123,0.56901
1694109834742187,-5.79603,0.510036,9.233877,0.60406,0.60723,0.62001
1694109834750000,-5.31603,0.556036,9.190877,0.67606,0.95323,0.71901
1694109834757812,-5.108603,0.660036,9.127877,0.58306,0.137223,0.75301
1694109834765625,-5.199603,0.670036,9.64877,0.81906,0.176723,0.56001
1694109834773437,-5.261603,0.777036,9.181877,0.84006,0.152423,0.30201
1694109834781250,-5.386603,0.848036,9.201877,0.78906,0.231523,0.13301
1694109834789062,-5.500603,0.848036,9.125877,0.88206,0.308323,0.801
1694109834796875,-5.520603,0.797036,8.967877,0.102306,0.356123,0.21399
1694109834804687,-5.597603,0.696036,8.733877,0.110006,0.402023,0.29199
1694109834812500,-5.699603,0.597036,8.476877,0.115006,0.415423,0.53199
1694109834820312,-5.573603,0.433036,8.381877,0.115606,0.400323,0.66299
1694109834828125,-5.606603,0.394036,8.386877,0.111106,0.388723,0.66399
1694109834835937,-5.686603,0.333036,8.444877,0.107806,0.398723,0.66299
1694109834843750,-5.719603,0.276036,8.508877,0.112206,0.405723,0.69299
1694109834851562,-5.794603,0.206036,8.534877,0.123506,0.436023,0.67899
1694109834859375,-5.879603,0.169036,8.352877,0.133506,0.500723,0.67299
1694109834867187,-5.866603,0.125036,8.147877,0.130806,0.539023,0.68899
1694109834875000,-5.903603,0.114036,8.57877,0.117506,0.566023,0.65099
1694109834882812,-5.959603,0.117036,7.929877,0.121306,0.631723,0.51699
1694109834890625,-5.997603,0.106036,7.816877,0.108306,0.682623,0.51099
1694109834898437,-5.919603,0.165036,7.751877,0.106606,0.737923,0.47599
1694109834906250,-5.881603,0.153036,7.593877,0.103006,0.787023,0.42399
1694109834914062,-5.959603,0.124036,7.361877,0.91506,0.837723,0.33799
1694109834921875,-6.38603,0.149036,7.177877,0.84606,0.844823,0.22299
1694109834929687,-6.145603,0.100036,7.244877,0.70706,0.845823,0.14299
1694109834937500,-6.198603,0.72036,7.352877,0.58106,0.842323,0.6199
1694109834945312,-6.262603,0.83036,7.447877,0.58706,0.859423,0.8701
1694109834953125,-6.334603,0.104036,7.280877,0.53406,0.923223,0.20501
1694109834960937,-6.419603,0.91036,7.89877,0.29706,0.966823,0.35301
1694109834968750,-6.439603,0.98036,6.924877,0.3206,1.8323,0.45201
1694109834976562,-6.435603,0.129036,6.825877,0.43094,1.17123,0.58901
1694109834984375,-6.417603,0.122036,6.868877,0.63494,1.29623,0.71901
1694109834992187,-6.352603,0.89036,6.677877,0.67694,1.84423,0.80701
1694109835000000,-6.343603,0.87036,6.397877,0.78794,1.112223,0.76201
1694109835007812,-6.411603,0.176036,6.215877,0.99194,1.117323,0.70101
1694109835015625,-6.607603,0.201036,6.204877,0.107094,1.125723,0.65501
1694109835023437,-6.663603,0.289036,6.202877,0.103794,1.168223,0.48001
1694109835031250,-6.740603,0.384036,6.156877,0.117694,1.215323,0.37101
1694109835039062,-6.759603,0.424036,6.37877,0.125194,1.254523,0.14901
1694109835046875,-6.778603,0.468036,5.882877,0.117994,1.283123,0.12101
1694109835054687,-6.796603,0.475036,5.704877,0.114394,1.287723,0.899
1694109835062500,-6.877603,0.483036,5.614877,0.101994,1.310923,0.7199
1694109835070312,-7.89603,0.553036,5.400877,0.90094,1.370923,0.47399
1694109835078125,-6.653603,0.408036,5.272877,0.91594,1.363623,0.74499
1694109835085937,-6.514603,0.464036,5.208877,0.84094,1.371123,0.39299
1694109835093750,-6.683603,0.498036,5.51877,0.87094,1.385623,0.45699
1694109835101562,-6.675603,0.483036,5.51877,0.80194,1.398523,0.48399
1694109835109375,-6.769603,0.510036,5.60877,0.73394,1.423323,0.40699
1694109835117187,-6.839603,0.533036,4.914877,0.72494,1.473323,0.46599
1694109835125000,-6.805603,0.510036,4.769877,0.75594,1.486223,0.46499
1694109835132812,-6.884603,0.518036,4.760877,0.94294,1.500923,0.57399
1694109835140625,-6.867603,0.487036,4.704877,0.90594,1.510223,0.68799
1694109835148437,-6.896603,0.465036,4.609877,0.84594,1.525123,0.68699
1694109835156250,-6.949603,0.472036,4.470877,0.79094,1.557123,0.63499
1694109835164062,-7.54603,0.465036,4.335877,0.69894,1.584523,0.50699
1694109835171875,-7.59603,0.467036,4.213877,0.73394,1.615823,0.48699
1694109835179687,-7.34603,0.476036,4.258877,0.71494,1.602323,0.48999
1694109835187500,-7.97603,0.497036,4.301877,0.66994,1.638123,0.47199
1694109835195312,-7.215603,0.461036,4.49877,0.55994,1.693923,0.62999
1694109835203125,-7.376603,0.508036,4.148877,0.54594,1.700223,0.50199
1694109835210937,-8.299603,0.617036,3.815877,0.38494,1.786323,0.121899
1694109835218750,-7.75603,0.246036,3.551877,0.45394,1.749723,0.135099
1694109835226562,-7.51603,0.467036,3.492877,0.27894,1.747823,0.67799
1694109835234375,-7.231603,0.446036,3.258877,0.77594,1.696523,0.62899
1694109835242187,-7.391603,0.506036,3.596877,0.87594,1.710423,0.62499
1694109835250000,-7.329603,0.400036,3.287877,0.59894,1.777623,0.62299
1694109835257812,-7.557603,0.439036,3.53877,0.34594,1.759423,0.57899
1694109835265625,-7.595603,0.428036,2.977877,0.36394,1.735723,0.64299
1694109835273437,-8.373603,0.630036,3.188877,0.18194,1.771123,0.98199
1694109835281250,-8.4603,0.444036,2.758877,0.25194,1.779923,0.154199
1694109835289062,-7.379603,0.434036,2.706877,0.9794,1.679623,0.100499
1694109835296875,-7.685603,0.450036,2.355877,0.29494,1.601923,0.91399
1694109835304687,-7.713603,0.391036,2.522877,0.46094,1.500323,0.91999
1694109835312500,-7.912603,0.443036,2.589877,0.33494,1.523323,0.98399
1694109835320312,-7.954603,0.369036,2.351877,0.28994,1.522823,0.123799
1694109835328125,-7.856603,0.340036,2.461877,0.15894,1.493923,0.106799
1694109835335937,-8.7603,0.386036,2.351877,0.1206,1.492523,0.108599
1694109835343750,-8.201603,0.418036,2.272877,0.1306,1.453423,0.105599
1694109835351562,-8.136603,0.406036,2.252877,0.17506,1.419323,0.123699
1694109835359375,-8.346603,0.446036,2.315877,0.28306,1.383423,0.111099
1694109835367187,-8.962603,0.492036,2.463877,0.45506,1.404123,0.166099
1694109835375000,-8.104603,0.347036,2.353877,0.75106,1.409723,0.178999
1694109835382812,-8.89603,0.330036,1.909877,0.75106,1.359623,0.136199
1694109835390625,-8.683603,0.345036,1.979877,0.75206,1.284923,0.139799
1694109835398437,-8.761603,0.282036,1.898877,0.79506,1.260323,0.180299
1694109835406250,-8.337603,0.220036,1.758877,0.73306,1.184623,0.153499
1694109835414062,-8.799603,0.276036,1.706877,0.85506,1.107723,0.118799
1694109835421875,-8.970603,0.256036,1.808877,0.84206,1.29323,0.112899
1694109835429687,-8.706603,0.216036,1.659877,0.101906,0.952823,0.121499
1694109835437500,-8.869603,0.170036,1.625877,0.100606,0.864023,0.99699
1694109835445312,-9.202603,0.187036,1.625877,0.108806,0.831323,0.103299
1694109835453125,-9.241603,0.103036,1.528877,0.104506,0.808023,0.106699
1694109835460937,-9.271603,0.12036,1.495877,0.120206,0.798623,0.114899
1694109835468750,-9.358603,0.59964,1.366877,0.134206,0.756423,0.107199
1694109835476562,-9.424603,0.176964,1.279877,0.149906,0.738423,0.102699
1694109835484375,-9.589603,0.226964,1.233877,0.159606,0.724923,0.101399
1694109835492187,-9.802603,0.267964,1.69877,0.165006,0.703023,0.109899
1694109835500000,-9.709603,0.342964,0.887877,0.158406,0.674123,0.101799
1694109835507812,-9.803603,0.374964,0.938877,0.134706,0.660923,0.88799
1694109835515625,-10.20603,0.413964,0.810877,0.126306,0.687523,0.83499
1694109835523437,-10.100603,0.449964,0.749877,0.102906,0.718223,0.87999
1694109835531250,-10.250603,0.473964,0.598877,0.87006,0.773923,0.92199
1694109835539062,-10.329603,0.486964,0.351877,0.63106,0.826223,0.91599
1694109835546875,-10.176603,0.522964,0.179877,0.31506,0.851023,0.95799
1694109835554687,-10.362603,0.532964,0.85123,0.10006,0.826223,0.100599
1694109835562500,-10.389603,0.501964,0.106123,0.10294,0.803223,0.98899
1694109835570312,-10.485603,0.428964,0.175123,0.37094,0.821023,0.92099
1694109835578125,-10.394603,0.505964,0.250123,0.67094,0.801423,0.78999
1694109835585937,-10.424603,0.562964,0.196123,0.78194,0.748723,0.51999
1694109835593750,-10.725603,0.584964,0.191123,0.69194,0.733823,0.28099
1694109835601562,-10.616603,0.619964,0.288123,0.85994,0.659923,0.17299
1694109835609375,-10.123603,0.661964,0.9123,0.52594,0.587423,0.5499
1694109835617187,-9.542603,0.786964,0.72123,0.17794,0.516023,0.14199
1694109835625000,-10.115603,0.771964,0.224877,0.83894,0.486123,0.13601
1694109835632812,-10.291603,0.795964,0.463877,0.56394,0.465623,0.29501
1694109835640625,-10.163603,0.754964,0.672877,0.55694,0.454823,0.30601
1694109835648437,-10.105603,0.744964,0.690877,0.52594,0.411223,0.27301
1694109835656250,-10.39603,0.801964,0.794877,0.34994,0.324823,0.26601
1694109835664062,-10.28603,0.770964,0.848877,0.40794,0.284823,0.37401
1694109835671875,-9.973603,0.683964,0.866877,0.41894,0.251723,0.33801
1694109835679687,-9.934603,0.743964,0.817877,0.62194,0.205023,0.22701
1694109835687500,-9.868603,0.652964,0.778877,0.83294,0.163423,0.11201
1694109835695312,-9.709603,0.604964,0.749877,0.91994,0.103323,0.13099
1694109835703125,-9.786603,0.551964,0.900877,0.85394,0.65423,0.11899
1694109835710937,-9.895603,0.463964,0.540877,0.103494,0.44023,0.34499
1694109835718750,-9.547603,0.462964,0.740877,0.152894,0.41477,0.36199
1694109835726562,-9.729603,0.314964,0.830877,0.110994,0.34023,0.40899
1694109835734375,-9.900603,0.295964,0.260877,0.142294,0.29723,0.62899
1694109835742187,-9.687603,0.267964,0.598877,0.191994,0.8477,0.61199
1694109835750000,-9.921603,0.250964,0.517877,0.164694,0.64023,0.49599
1694109835757812,-10.63603,0.221964,0.463877,0.166094,0.97823,0.51099
1694109835765625,-10.347603,0.307964,0.177877,0.188094,0.171323,0.66499
1694109835773437,-10.169603,0.364964,0.7123,0.203694,0.150223,0.71199
1694109835781250,-9.933603,0.478964,0.196123,0.172394,0.166923,0.79399
1694109835789062,-10.94603,0.561964,0.468123,0.188194,0.135923,0.66499
1694109835796875,-10.176603,0.624964,0.457123,0.189994,0.109823,0.53799
1694109835804687,-10.81603,0.654964,0.423123,0.183494,0.124023,0.50699
1694109835812500,-9.973603,0.662964,0.462123,0.169794,0.140523,0.42699
1694109835820312,-9.894603,0.674964,0.482123,0.147994,0.122323,0.25399
1694109835828125,-9.846603,0.636964,0.439123,0.137294,0.80323,0.15999
1694109835835937,-9.808603,0.569964,0.270123,0.140594,0.60423,0.4701
1694109835843750,-9.803603,0.504964,0.29123,0.127094,0.41723,0.9601
1694109835851562,-9.849603,0.413964,0.220877,0.104394,0.22723,0.12101
1694109835859375,-9.891603,0.338964,0.418877,0.94094,0.26823,0.17101
1694109835867187,-9.950603,0.310964,0.479877,0.72194,0.49123,0.29701
1694109835875000,-9.975603,0.282964,0.468877,0.51694,0.63523,0.32601
1694109835882812,-9.970603,0.298964,0.407877,0.45794,0.67123,0.39101
1694109835890625,-9.937603,0.247964,0.375877,0.40794,0.66823,0.35701
1694109835898437,-9.899603,0.235964,0.337877,0.39894,0.64323,0.44001
1694109835906250,-9.901603,0.226964,0.317877,0.42294,0.55523,0.32501
1694109835914062,-9.865603,0.253964,0.292877,0.45394,0.45923,0.27701
1694109835921875,-9.829603,0.274964,0.261877,0.39194,0.49823,0.10201
1694109835929687,-9.799603,0.316964,0.215877,0.44694,0.45823,0.4499
1694109835937500,-9.805603,0.356964,0.206877,0.44794,0.43023,0.10799
1694109835945312,-9.840603,0.396964,0.254877,0.41294,0.41223,0.20599
1694109835953125,-9.892603,0.410964,0.330877,0.37994,0.36323,0.27099
1694109835960937,-9.914603,0.439964,0.357877,0.36694,0.35023,0.25399
1694109835968750,-9.898603,0.459964,0.290877,0.37894,0.41023,0.27099
1694109835976562,-9.862603,0.473964,0.193877,0.42694,0.36123,0.22299
1694109835984375,-9.853603,0.482964,0.112877,0.61994,0.30023,0.13899
1694109835992187,-9.813603,0.454964,0.94877,0.75894,0.1277,0.9199
1694109836000000,-9.782603,0.433964,0.125877,0.94994,0.9377,0.701
1694109836007812,-9.788603,0.423964,0.125877,0.107294,0.5077,0.7101
1694109836015625,-9.797603,0.403964,0.134877,0.114994,0.6977,0.10301
1694109836023437,-9.800603,0.370964,0.152877,0.113694,0.3277,0.10401
1694109836031250,-9.780603,0.343964,0.155877,0.115294,0.6323,0.15301
1694109836039062,-9.779603,0.315964,0.148877,0.112594,0.8623,0.13901
1694109836046875,-9.772603,0.299964,0.137877,0.103194,0.6723,0.21701
1694109836054687,-9.761603,0.301964,0.152877,0.99794,0.1423,0.23101
1694109836062500,-9.734603,0.307964,0.159877,0.90594,0.3077,0.21501
1694109836070312,-9.711603,0.300964,0.146877,0.80794,0.1977,0.19601
1694109836078125,-9.709603,0.297964,0.112877,0.78794,0.3723,0.22601
1694109836085937,-9.731603,0.294964,0.73877,0.78794,0.10323,0.21001
1694109836093750,-9.787603,0.300964,0.53877,0.78994,0.10723,0.19501
1694109836101562,-9.823603,0.309964,0.35877,0.82394,0.12523,0.22901
1694109836109375,-9.826603,0.307964,0.17877,0.73094,0.14623,0.14901
1694109836117187,-9.817603,0.305964,0.4123,0.68294,0.24023,0.19601
1694109836125000,-9.814603,0.302964,0.29123,0.62994,0.10323,0.12801
1694109836132812,-9.817603,0.287964,0.13123,0.67794,0.10523,0.11301
1694109836140625,-9.824603,0.271964,0.17877,0.77194,0.9123,0.9901
1694109836148437,-9.849603,0.253964,0.60877,0.75994,0.7823,0.14801
1694109836156250,-9.854603,0.247964,0.44877,0.74794,0.11723,0.10201
1694109836164062,-9.836603,0.232964,0.0,0.90394,0.13323,0.8801
1694109836171875,-9.803603,0.228964,0.36123,0.88694,0.10123,0.3901
1694109836179687,-9.779603,0.245964,0.76123,0.91394,0.9323,0.5301
1694109836187500,-9.755603,0.244964,0.85123,0.107594,0.8623,0.699
1694109836195312,-9.746603,0.233964,0.83123,0.112194,0.11523,0.7301
1694109836203125,-9.749603,0.214964,0.49123,0.115594,0.10423,0.2701
1694109836210937,-9.774603,0.188964,0.47123,0.113494,0.9623,0.801
1694109836218750,-9.767603,0.170964,0.83123,0.117794,0.12823,0.15199
1694109836226562,-9.781603,0.170964,0.137123,0.124594,0.21323,0.3699
1694109836234375,-9.799603,0.170964,0.171123,0.135294,0.20923,0.2099
1694109836242187,-9.810603,0.170964,0.178123,0.130294,0.15823,0.8699
1694109836250000,-9.824603,0.163964,0.155123,0.136994,0.10023,0.11599
1694109836257812,-9.830603,0.177964,0.137123,0.126194,0.8623,0.10099
1694109836265625,-9.824603,0.174964,0.133123,0.113494,0.13423,0.15099
1694109836273437,-9.830603,0.190964,0.112123,0.113194,0.18123,0.21599
1694109836281250,-9.848603,0.196964,0.133123,0.98994,0.31123,0.26499
1694109836289062,-9.854603,0.200964,0.106123,0.89594,0.25923,0.18699
1694109836296875,-9.867603,0.215964,0.88123,0.89094,0.36623,0.20499
1694109836304687,-9.861603,0.222964,0.67123,0.87994,0.22923,0.26699
1694109836312500,-9.859603,0.225964,0.27123,0.85094,0.28023,0.18599
1694109836320312,-9.874603,0.229964,0.18123,0.78894,0.28023,0.18699
1694109836328125,-9.883603,0.237964,0.9123,0.76794,0.30523,0.20499
1694109836335937,-9.917603,0.244964,0.15123,0.69894,0.38423,0.20099
1694109836343750,-9.928603,0.246964,0.13123,0.66394,0.31323,0.13899
1694109836351562,-9.924603,0.266964,0.18123,0.63694,0.31923,0.12199
1694109836359375,-9.906603,0.269964,0.40123,0.65394,0.20623,0.12199
1694109836367187,-9.872603,0.289964,0.78123,0.46594,0.22023,0.5999
1694109836375000,-9.867603,0.296964,0.85123,0.45294,0.18923,0.5301
1694109836382812,-9.853603,0.305964,0.51123,0.43594,0.923,0.3501
1694109836390625,-9.855603,0.318964,0.11123,0.40194,0.10677,0.1499
1694109836398437,-9.853603,0.307964,0.31877,0.33694,0.7777,0.0
1694109836406250,-9.853603,0.314964,0.40877,0.35794,0.1223,0.1299
1694109836414062,-9.833603,0.317964,0.35877,0.30894,0.2423,0.101
1694109836421875,-9.826603,0.310964,0.26877,0.25794,0.6923,0.6499
1694109836429687,-9.805603,0.325964,0.6877,0.17694,0.8423,0.14699
1694109836437500,-9.810603,0.344964,0.2123,0.14894,0.5723,0.12899
1694109836445312,-9.803603,0.352964,0.17877,0.12894,0.1377,0.13199
1694109836453125,-9.787603,0.363964,0.24877,0.14394,0.3323,0.14799
1694109836460937,-9.786603,0.390964,0.46877,0.4694,0.11423,0.22999
1694109836468750,-9.800603,0.403964,0.83877,0.7506,0.523,0.22999
1694109836476562,-9.800603,0.412964,0.116877,0.13506,0.877,0.16599
1694109836484375,-9.784603,0.417964,0.125877,0.15206,0.877,0.19799
1694109836492187,-9.782603,0.417964,0.119877,0.13906,0.7877,0.18399
1694109836500000,-9.793603,0.410964,0.105877,0.18406,0.9277,0.16699
1694109836507812,-9.789603,0.399964,0.130877,0.16806,0.15677,0.18299
1694109836515625,-9.798603,0.399964,0.168877,0.24306,0.13577,0.16599
1694109836523437,-9.816603,0.397964,0.166877,0.16706,0.17077,0.18299
1694109836531250,-9.814603,0.379964,0.170877,0.12106,0.15677,0.16699
1694109836539062,-9.814603,0.370964,0.146877,0.13806,0.14477,0.13599
1694109836546875,-9.800603,0.354964,0.130877,0.17206,0.12977,0.20099
1694109836554687,-9.803603,0.334964,0.119877,0.23006,0.9277,0.11999
1694109836562500,-9.794603,0.323964,0.116877,0.32806,0.9677,0.16999
1694109836570312,-9.786603,0.305964,0.108877,0.36406,0.123,0.18099
1694109836578125,-9.781603,0.295964,0.123877,0.40206,0.2423,0.20099
1694109836585937,-9.788603,0.288964,0.134877,0.49706,0.7323,0.23299
1694109836593750,-9.784603,0.272964,0.148877,0.68806,0.11923,0.28499
1694109836601562,-9.815603,0.278964,0.137877,0.70506,0.5223,0.26999
1694109836609375,-9.797603,0.295964,0.123877,0.76506,0.12123,0.28499
1694109836617187,-9.779603,0.306964,0.119877,0.86106,0.18323,0.27099
1694109836625000,-9.792603,0.317964,0.132877,0.92006,0.4423,0.28599
1694109836632812,-9.812603,0.332964,0.128877,0.100206,0.7023,0.27299
1694109836640625,-9.794603,0.361964,0.130877,0.104706,0.2523,0.28799
1694109836648437,-9.778603,0.372964,0.166877,0.109706,0.10123,0.27399
1694109836656250,-9.787603,0.390964,0.182877,0.112606,0.8723,0.24199
1694109836664062,-9.795603,0.401964,0.177877,0.111306,0.11823,0.28999
1694109836671875,-9.784603,0.416964,0.179877,0.112806,0.10123,0.24199
1694109836679687,-9.784603,0.419964,0.186877,0.110606,0.10923,0.19099
1694109836687500,-9.784603,0.421964,0.202877,0.112306,0.14023,0.22399
1694109836695312,-9.779603,0.426964,0.195877,0.110906,0.11923,0.17699
1694109836703125,-9.781603,0.428964,0.191877,0.115906,0.5223,0.21099
1694109836710937,-9.784603,0.430964,0.206877,0.115606,0.977,0.19399
1694109836718750,-9.788603,0.441964,0.233877,0.110806,0.8977,0.17699
1694109836726562,-9.790603,0.425964,0.245877,0.112706,0.1377,0.17899
1694109836734375,-9.793603,0.419964,0.224877,0.110906,0.7023,0.14499
1694109836742187,-9.790603,0.423964,0.222877,0.108106,0.8323,0.20999
1694109836750000,-9.781603,0.437964,0.200877,0.109406,0.5423,0.19299
1694109836757812,-9.799603,0.429964,0.179877,0.98906,0.10923,0.9899
1694109836765625,-9.815603,0.436964,0.179877,0.98406,0.523,0.17599
1694109836773437,-9.860603,0.436964,0.188877,0.90506,0.623,0.17499
1694109836781250,-9.867603,0.437964,0.193877,0.87706,0.1923,0.20799
1694109836789062,-9.854603,0.436964,0.220877,0.94806,0.7823,0.20499
1694109836796875,-9.831603,0.445964,0.182877,0.94906,0.1323,0.20599
1694109836804687,-9.785603,0.456964,0.170877,0.89006,0.2877,0.14299
1694109836812500,-9.781603,0.454964,0.175877,0.89206,0.4877,0.9699
1694109836820312,-9.785603,0.474964,0.227877,0.84206,0.7577,0.14299
1694109836828125,-9.812603,0.485964,0.274877,0.93706,0.3077,0.9599
1694109836835937,-9.814603,0.509964,0.310877,0.99806,0.10523,0.15899
1694109836843750,-9.816603,0.536964,0.274877,0.90506,0.13523,0.17499
1694109836851562,-9.795603,0.546964,0.242877,0.89506,0.14223,0.14599
1694109836859375,-9.795603,0.562964,0.188877,0.86206,0.14423,0.12799
1694109836867187,-9.790603,0.563964,0.202877,0.70106,0.8123,0.2899
1694109836875000,-9.784603,0.556964,0.224877,0.62306,0.0,0.1299
1694109836882812,-9.788603,0.554964,0.247877,0.56206,0.6777,0.301
1694109836890625,-9.805603,0.534964,0.290877,0.46106,0.2577,0.899
1694109836898437,-9.813603,0.511964,0.307877,0.37406,0.477,0.3701
1694109836906250,-9.818603,0.493964,0.296877,0.35906,0.9323,0.4299
1694109836914062,-9.819603,0.485964,0.283877,0.13506,0.9923,0.599
1694109836921875,-9.814603,0.476964,0.254877,0.7306,0.21123,0.2099
1694109836929687,-9.810603,0.471964,0.240877,0.9794,0.22323,0.2801
1694109836937500,-9.812603,0.447964,0.211877,0.14594,0.27423,0.2901
1694109836945312,-9.810603,0.440964,0.190877,0.12894,0.20923,0.1999
1694109836953125,-9.815603,0.422964,0.238877,0.25494,0.16223,0.3399
1694109836960937,-9.800603,0.409964,0.240877,0.33494,0.21323,0.4799
1694109836968750,-9.791603,0.401964,0.256877,0.16294,0.19623,0.1799
1694109836976562,-9.793603,0.403964,0.270877,0.16694,0.18623,0.3199
1694109836984375,-9.813603,0.409964,0.258877,0.16494,0.24823,0.0
1694109836992187,-9.813603,0.407964,0.236877,0.16594,0.28223,0.1599
1694109837000000,-9.815603,0.411964,0.242877,0.13194,0.22723,0.6201
1694109837007812,-9.813603,0.419964,0.231877,0.14094,0.28823,0.6601
1694109837015625,-9.797603,0.414964,0.236877,0.16394,0.26223,0.1501
1694109837023437,-9.784603,0.421964,0.238877,0.21094,0.26023,0.6301
1694109837031250,-9.784603,0.421964,0.233877,0.19694,0.28023,0.3201
1694109837039062,-9.804603,0.418964,0.245877,0.28994,0.32523,0.8001
1694109837046875,-9.797603,0.419964,0.260877,0.33894,0.24723,0.4901
1694109837054687,-9.806603,0.410964,0.285877,0.40194,0.24723,0.8201
1694109837062500,-9.789603,0.406964,0.285877,0.21694,0.31423,0.12901
1694109837070312,-9.793603,0.394964,0.269877,0.37294,0.38023,0.10001
1694109837078125,-9.795603,0.401964,0.249877,0.30994,0.42923,0.8301
1694109837085937,-9.811603,0.383964,0.213877,0.37194,0.47623,0.8301
1694109837093750,-9.816603,0.383964,0.195877,0.40394,0.46023,0.10001
1694109837101562,-9.816603,0.381964,0.184877,0.37394,0.33123,0.13101
1694109837109375,-9.823603,0.377964,0.182877,0.39594,0.35723,0.11901
1694109837117187,-9.827603,0.378964,0.182877,0.40294,0.36123,0.9901
1694109837125000,-9.818603,0.364964,0.197877,0.39994,0.30623,0.12901
1694109837132812,-9.825603,0.356964,0.204877,0.38494,0.37423,0.8201
1694109837140625,-9.825603,0.347964,0.222877,0.40194,0.39423,0.5101
1694109837148437,-9.833603,0.341964,0.222877,0.42194,0.41723,0.5301
1694109837156250,-9.826603,0.325964,0.200877,0.38894,0.54623,0.1099
1694109837164062,-9.828603,0.325964,0.186877,0.35794,0.62823,0.1099
1694109837171875,-9.815603,0.323964,0.189877,0.27794,0.54623,0.5999
1694109837179687,-9.814603,0.325964,0.184877,0.20994,0.55323,0.3199
1694109837187500,-9.828603,0.334964,0.191877,0.27794,0.67523,0.4399
1694109837195312,-9.821603,0.336964,0.200877,0.14894,0.65523,0.7899
1694109837203125,-9.820603,0.356964,0.197877,0.14594,0.60223,0.8099
1694109837210937,-9.825603,0.370964,0.175877,0.13994,0.69623,0.4399
1694109837218750,-9.832603,0.383964,0.137877,0.15694,0.69823,0.1099
1694109837226562,-9.836603,0.398964,0.128877,0.8894,0.62223,0.3201
1694109837234375,-9.836603,0.416964,0.112877,0.9094,0.64123,0.6501
1694109837242187,-9.835603,0.429964,0.105877,0.14994,0.56923,0.12801
1694109837250000,-9.835603,0.436964,0.107877,0.9194,0.46223,0.9701
1694109837257812,-9.830603,0.438964,0.123877,0.11894,0.47323,0.11101
1694109837265625,-9.828603,0.433964,0.127877,0.15094,0.42123,0.22301
1694109837273437,-9.828603,0.420964,0.143877,0.13394,0.48723,0.9501
1694109837281250,-9.838603,0.409964,0.139877,0.15094,0.58723,0.9701
1694109837289062,-9.824603,0.406964,0.121877,0.13094,0.63023,0.6301
1694109837296875,-9.813603,0.389964,0.123877,0.14794,0.61823,0.1601
1694109837304687,-9.827603,0.385964,0.134877,0.13594,0.52423,0.6401
1694109837312500,-9.829603,0.378964,0.159877,0.15394,0.59123,0.9801
1694109837320312,-9.818603,0.381964,0.179877,0.16894,0.54223,0.9801
1694109837328125,-9.798603,0.384964,0.204877,0.14094,0.49923,0.8301
1694109837335937,-9.793603,0.380964,0.229877,0.14794,0.46923,0.9401
1694109837343750,-9.780603,0.376964,0.236877,0.13394,0.43823,0.11101
1694109837351562,-9.791603,0.388964,0.227877,0.14294,0.53123,0.16401
1694109837359375,-9.816603,0.389964,0.204877,0.15094,0.42323,0.14401
1694109837367187,-9.851603,0.400964,0.229877,0.18294,0.37423,0.19201
1694109837375000,-9.844603,0.402964,0.215877,0.13394,0.37223,0.17501
1694109837382812,-9.833603,0.411964,0.191877,0.21394,0.34123,0.17601
1694109837390625,-9.797603,0.423964,0.175877,0.16594,0.30923,0.12701
1694109837398437,-9.779603,0.421964,0.179877,0.32594,0.32823,0.17801
1694109837406250,-9.779603,0.412964,0.222877,0.32494,0.27523,0.24101
1694109837414062,-9.775603,0.414964,0.283877,0.37394,0.40823,0.25901
1694109837421875,-9.786603,0.416964,0.305877,0.40494,0.52123,0.26001
1694109837429687,-9.786603,0.416964,0.267877,0.42094,0.66823,0.24501
1694109837437500,-9.781603,0.423964,0.218877,0.38794,0.69923,0.21201
1694109837445312,-9.772603,0.429964,0.175877,0.42794,0.59323,0.12901
1694109837453125,-9.763603,0.441964,0.154877,0.46294,0.63223,0.9901
1694109837460937,-9.756603,0.441964,0.170877,0.39894,0.43723,0.8201
1694109837468750,-9.779603,0.445964,0.206877,0.57194,0.35523,0.9901
1694109837476562,-9.783603,0.440964,0.269877,0.64694,0.26923,0.11401
1694109837484375,-9.803603,0.447964,0.323877,0.63194,0.18923,0.9801
1694109837492187,-9.812603,0.431964,0.339877,0.64794,0.23623,0.17801
1694109837500000,-9.822603,0.417964,0.328877,0.71094,0.33623,0.10001
1694109837507812,-9.820603,0.420964,0.312877,0.68294,0.39023,0.8501
1694109837515625,-9.829603,0.420964,0.272877,0.65294,0.44123,0.8601
1694109837523437,-9.826603,0.415964,0.265877,0.75594,0.51323,0.6801
1694109837531250,-9.818603,0.416964,0.236877,0.84294,0.57423,0.7301
1694109837539062,-9.815603,0.417964,0.222877,0.86494,0.59323,0.3701
1694109837546875,-9.817603,0.404964,0.213877,0.90194,0.58223,0.15201
1694109837554687,-9.836603,0.397964,0.204877,0.88494,0.60123,0.2401
1694109837562500,-9.833603,0.408964,0.193877,0.90094,0.56623,0.8701
1694109837570312,-9.833603,0.407964,0.175877,0.88594,0.55323,0.801
1694109837578125,-9.833603,0.386964,0.181877,0.89594,0.56023,0.5301
1694109837585937,-9.824603,0.384964,0.179877,0.88494,0.46923,0.7101
1694109837593750,-9.833603,0.379964,0.186877,0.89494,0.50823,0.6801
1694109837601562,-9.832603,0.378964,0.200877,0.94894,0.42423,0.901
1694109837609375,-9.852603,0.368964,0.199877,0.108694,0.58223,0.901
1694109837617187,-9.836603,0.365964,0.195877,0.96594,0.45723,0.4101
1694109837625000,-9.827603,0.367964,0.181877,0.97794,0.48623,0.799
1694109837632812,-9.820603,0.365964,0.166877,0.107494,0.45723,0.1001
1694109837640625,-9.813603,0.375964,0.159877,0.111894,0.43423,0.5701
1694109837648437,-9.822603,0.375964,0.179877,0.114494,0.42823,0.899
1694109837656250,-9.831603,0.359964,0.206877,0.114694,0.38123,0.3901
1694109837664062,-9.847603,0.353964,0.238877,0.110194,0.36923,0.801
1694109837671875,-9.836603,0.338964,0.245877,0.104094,0.42023,0.801
1694109837679687,-9.828603,0.336964,0.247877,0.107494,0.40823,0.2601
1694109837687500,-9.823603,0.315964,0.247877,0.111794,0.39923,0.7201
1694109837695312,-9.826603,0.311964,0.222877,0.111994,0.56523,0.7401
1694109837703125,-9.805603,0.316964,0.211877,0.115294,0.58323,0.9101
1694109837710937,-9.801603,0.314964,0.211877,0.107294,0.59823,0.7401
1694109837718750,-9.792603,0.314964,0.215877,0.108894,0.60023,0.2601
1694109837726562,-9.792603,0.316964,0.211877,0.105994,0.58323,0.13801
1694109837734375,-9.810603,0.309964,0.202877,0.99994,0.60423,0.15501
1694109837742187,-9.801603,0.310964,0.195877,0.92194,0.57323,0.10601
1694109837750000,-9.798603,0.318964,0.195877,0.88494,0.51423,0.13401
1694109837757812,-9.799603,0.318964,0.200877,0.90294,0.60023,0.13701
1694109837765625,-9.815603,0.314964,0.197877,0.89094,0.57323,0.12201
1694109837773437,-9.801603,0.316964,0.209877,0.90494,0.60223,0.13701
1694109837781250,-9.826603,0.320964,0.220877,0.89194,0.60623,0.13901
1694109837789062,-9.826603,0.307964,0.218877,0.88994,0.68423,0.15401
1694109837796875,-9.832603,0.307964,0.195877,0.88994,0.81323,0.18601
1694109837804687,-9.826603,0.313964,0.179877,0.90494,0.92823,0.10701
1694109837812500,-9.823603,0.304964,0.172877,0.90394,0.89323,0.13801
1694109837820312,-9.823603,0.307964,0.163877,0.88894,0.89323,0.15401
1694109837828125,-9.808603,0.298964,0.166877,0.81094,0.87623,0.20101
1694109837835937,-9.817603,0.285964,0.159877,0.90594,0.91123,0.17101
1694109837843750,-9.809603,0.279964,0.143877,0.75594,0.95423,0.18901
1694109837851562,-9.806603,0.280964,0.136877,0.66994,0.109023,0.10501
1694109837859375,-9.797603,0.285964,0.127877,0.89194,0.115523,0.22001
1694109837867187,-9.794603,0.296964,0.125877,0.76894,0.114023,0.26801
1694109837875000,-9.799603,0.294964,0.107877,0.70694,0.117523,0.25201
1694109837882812,-9.806603,0.296964,0.101877,0.64394,0.122523,0.20301
1694109837890625,-9.817603,0.294964,0.89877,0.68894,0.124123,0.14001
1694109837898437,-9.826603,0.304964,0.87877,0.62694,0.125323,0.26601
1694109837906250,-9.812603,0.316964,0.89877,0.58294,0.122723,0.23501
1694109837914062,-9.827603,0.342964,0.85877,0.58094,0.109423,0.23401
1694109837921875,-9.816603,0.347964,0.98877,0.62594,0.104523,0.18601
1694109837929687,-9.805603,0.356964,0.98877,0.64294,0.106123,0.21801
1694109837937500,-9.814603,0.351964,0.103877,0.48594,0.109223,0.24801
1694109837945312,-9.837603,0.363964,0.96877,0.48894,0.95523,0.17001
1694109837953125,-9.834603,0.358964,0.80877,0.60994,0.81723,0.18401
1694109837960937,-9.829603,0.360964,0.100877,0.62594,0.88123,0.23301
1694109837968750,-9.827603,0.371964,0.132877,0.66994,0.84623,0.16801
1694109837976562,-9.822603,0.383964,0.143877,0.62694,0.83423,0.23301
1694109837984375,-9.815603,0.407964,0.139877,0.72194,0.91523,0.21901
1694109837992187,-9.802603,0.418964,0.114877,0.79994,0.98123,0.22001
1694109838000000,-9.815603,0.418964,0.67877,0.72394,0.98323,0.25201
1694109838007812,-9.818603,0.419964,0.29877,0.83494,0.90523,0.23801
1694109838015625,-9.806603,0.436964,0.24877,0.73594,0.80123,0.21801
1694109838023437,-9.820603,0.414964,0.35877,0.64194,0.68623,0.23201
1694109838031250,-9.863603,0.382964,0.51877,0.68694,0.65123,0.21601
1694109838039062,-9.870603,0.383964,0.35877,0.64794,0.66623,0.15601
1694109838046875,-9.894603,0.388964,0.17877,0.65494,0.50823,0.10301
1694109838054687,-9.901603,0.382964,0.22877,0.63994,0.52523,0.11901
1694109838062500,-9.863603,0.382964,0.15877,0.65294,0.42523,0.8601
1694109838070312,-9.824603,0.386964,0.0,0.63194,0.35123,0.9801
1694109838078125,-9.802603,0.374964,0.2123,0.63594,0.29423,0.8401
1694109838085937,-9.796603,0.370964,0.35877,0.65294,0.32623,0.10101
1694109838093750,-9.818603,0.358964,0.87877,0.63594,0.27523,0.11601
1694109838101562,-9.845603,0.351964,0.112877,0.65094,0.32223,0.13201
1694109838109375,-9.848603,0.346964,0.94877,0.61894,0.30623,0.11501
1694109838117187,-9.827603,0.353964,0.44877,0.53794,0.30423,0.4901
1694109838125000,-9.807603,0.354964,0.17877,0.65094,0.40623,0.6901
1694109838132812,-9.790603,0.332964,0.15877,0.71594,0.31223,0.10201
1694109838140625,-9.781603,0.319964,0.40877,0.77394,0.30623,0.3701
1694109838148437,-9.803603,0.296964,0.85877,0.75994,0.37323,0.3801
1694109838156250,-9.797603,0.294964,0.110877,0.75994,0.35723,0.3701
1694109838164062,-9.815603,0.287964,0.110877,0.83894,0.35723,0.7001
1694109838171875,-9.835603,0.280964,0.89877,0.86894,0.50223,0.2301
1694109838179687,-9.844603,0.266964,0.71877,0.78994,0.47023,0.2201
1694109838187500,-9.842603,0.267964,0.62877,0.76294,0.50823,0.2401
1694109838195312,-9.831603,0.273964,0.53877,0.76094,0.42023,0.13401
1694109838203125,-9.831603,0.264964,0.49877,0.69594,0.38623,0.10001
1694109838210937,-9.813603,0.272964,0.62877,0.67194,0.52523,0.15201
1694109838218750,-9.810603,0.269964,0.71877,0.63394,0.45123,0.13201
1694109838226562,-9.808603,0.269964,0.96877,0.64994,0.48623,0.3601
1694109838234375,-9.806603,0.263964,0.105877,0.63694,0.50723,0.7001
1694109838242187,-9.802603,0.274964,0.103877,0.65394,0.63823,0.5501
1694109838250000,-9.797603,0.265964,0.91877,0.63394,0.68123,0.3701
1694109838257812,-9.799603,0.272964,0.85877,0.65394,0.68723,0.7101
1694109838265625,-9.799603,0.265964,0.78877,0.60394,0.65023,0.3701
1694109838273437,-9.797603,0.274964,0.58877,0.60494,0.74823,0.8601
1694109838281250,-9.795603,0.269964,0.53877,0.65094,0.69723,0.8601
1694109838289062,-9.817603,0.276964,0.42877,0.63894,0.68423,0.16701
1694109838296875,-9.835603,0.280964,0.40877,0.65494,0.57223,0.11901
1694109838304687,-9.837603,0.277964,0.60877,0.63394,0.58023,0.13201
1694109838312500,-9.833603,0.278964,0.78877,0.65294,0.58623,0.11801
1694109838320312,-9.828603,0.284964,0.60877,0.63494,0.60123,0.5301
1694109838328125,-9.829603,0.283964,0.42877,0.65494,0.63723,0.13501
1694109838335937,-9.819603,0.278964,0.40877,0.63594,0.61923,0.601
1694109838343750,-9.826603,0.271964,0.58877,0.64894,0.61323,0.6801
1694109838351562,-9.836603,0.274964,0.89877,0.67294,0.64423,0.5701
1694109838359375,-9.833603,0.280964,0.92877,0.63894,0.62323,0.5501
1694109838367187,-9.827603,0.270964,0.94877,0.65994,0.72723,0.7401
1694109838375000,-9.815603,0.267964,0.62877,0.63594,0.68523,0.999
1694109838382812,-9.815603,0.271964,0.55877,0.64894,0.64823,0.501
1694109838390625,-9.817603,0.274964,0.44877,0.55794,0.66923,0.3701
1694109838398437,-9.817603,0.283964,0.38877,0.63794,0.62423,0.2499
1694109838406250,-9.817603,0.278964,0.49877,0.65194,0.57023,0.5401
1694109838414062,-9.817603,0.281964,0.65877,0.60694,0.63823,0.7101
1694109838421875,-9.829603,0.278964,0.65877,0.57294,0.50723,0.2699
1694109838429687,-9.835603,0.278964,0.46877,0.64894,0.48623,0.401
1694109838437500,-9.833603,0.272964,0.35877,0.63694,0.44323,0.2201
1694109838445312,-9.840603,0.280964,0.42877,0.65194,0.55623,0.999
1694109838453125,-9.845603,0.265964,0.58877,0.66894,0.55823,0.701
1694109838460937,-9.856603,0.263964,0.60877,0.67094,0.57623,0.5601
1694109838468750,-9.852603,0.258964,0.62877,0.65494,0.64223,0.801
1694109838476562,-9.847603,0.261964,0.40877,0.65594,0.59523,0.801
1694109838484375,-9.834603,0.256964,0.31877,0.68694,0.56223,0.901
1694109838492187,-9.809603,0.250964,0.24877,0.63794,0.54223,0.701
1694109838500000,-9.802603,0.243964,0.40877,0.68494,0.57223,0.5501
1694109838507812,-9.800603,0.246964,0.49877,0.62794,0.51723,0.7301
1694109838515625,-9.795603,0.247964,0.53877,0.63294,0.48423,0.3601
1694109838523437,-9.804603,0.240964,0.51877,0.64894,0.56623,0.2001
1694109838531250,-9.802603,0.241964,0.51877,0.61794,0.53623,0.1199
1694109838539062,-9.800603,0.231964,0.40877,0.62994,0.56223,0.301
1694109838546875,-9.798603,0.234964,0.33877,0.64894,0.55223,0.1099
1694109838554687,-9.809603,0.234964,0.29877,0.55694,0.44123,0.401
1694109838562500,-9.800603,0.236964,0.33877,0.49394,0.36023,0.301
1694109838570312,-9.798603,0.239964,0.60877,0.46094,0.30923,0.1499
1694109838578125,-9.816603,0.237964,0.76877,0.46694,0.38223,0.501
1694109838585937,-9.825603,0.243964,0.62877,0.52594,0.45823,0.1199
1694109838593750,-9.820603,0.243964,0.55877,0.44594,0.47223,0.301
1694109838601562,-9.818603,0.245964,0.53877,0.43194,0.55623,0.2799
1694109838609375,-9.815603,0.254964,0.33877,0.46194,0.48923,0.1299
1694109838617187,-9.816603,0.259964,0.20877,0.46694,0.54423,0.3701
1694109838625000,-9.826603,0.260964,0.19877,0.53994,0.47023,0.5101
1694109838632812,-9.860603,0.262964,0.26877,0.44794,0.37823,0.1299
1694109838640625,-9.864603,0.266964,0.31877,0.46194,0.53423,0.8201
1694109838648437,-9.845603,0.267964,0.24877,0.54494,0.55823,0.5401
1694109838656250,-9.824603,0.270964,0.15877,0.46494,0.44323,0.3601
1694109838664062,-9.810603,0.278964,0.8877,0.55794,0.40623,0.13201
1694109838671875,-9.822603,0.276964,0.22877,0.54394,0.38023,0.2101
1694109838679687,-9.833603,0.267964,0.33877,0.52594,0.39023,0.9901
1694109838687500,-9.847603,0.261964,0.47877,0.45194,0.38023,0.10001
1694109838695312,-9.853603,0.260964,0.33877,0.43194,0.40423,0.13001
1694109838703125,-9.851603,0.262964,0.17877,0.60594,0.49023,0.5301
1694109838710937,-9.852603,0.259964,0.0,0.59594,0.42123,0.799
1694109838718750,-9.838603,0.261964,0.13123,0.55794,0.36223,0.401
1694109838726562,-9.822603,0.258964,0.15877,0.44694,0.37623,0.1399
1694109838734375,-9.813603,0.260964,0.26877,0.50494,0.20623,0.0
1694109838742187,-9.797603,0.263964,0.56877,0.49394,0.19823,0.1399
1694109838750000,-9.793603,0.259964,0.71877,0.38194,0.21023,0.0
1694109838757812,-9.809603,0.261964,0.83877,0.47894,0.24723,0.1901
1694109838765625,-9.822603,0.267964,0.74877,0.44594,0.29423,0.201
1694109838773437,-9.840603,0.272964,0.71877,0.44994,0.44323,0.6801
1694109838781250,-9.851603,0.255964,0.60877,0.50894,0.35823,0.1901
1694109838789062,-9.840603,0.265964,0.31877,0.45094,0.43123,0.501
1694109838796875,-9.849603,0.267964,0.8877,0.50994,0.36223,0.2799
1694109838804687,-9.842603,0.265964,0.2123,0.54194,0.32923,0.401
1694109838812500,-9.842603,0.265964,0.0,0.44794,0.28223,0.2899
1694109838820312,-9.836603,0.272964,0.17877,0.51194,0.31523,0.1199
1694109838828125,-9.831603,0.267964,0.35877,0.57394,0.36123,0.501
1694109838835937,-9.822603,0.274964,0.55877,0.60194,0.32523,0.1299
1694109838843750,-9.807603,0.266964,0.67877,0.60794,0.38223,0.3901
1694109838851562,-9.804603,0.260964,0.58877,0.60294,0.42123,0.6801
1694109838859375,-9.818603,0.256964,0.44877,0.63394,0.42323,0.401
1694109838867187,-9.820603,0.261964,0.31877,0.62194,0.36323,0.999
1694109838875000,-9.824603,0.268964,0.31877,0.65394,0.39623,0.3901
1694109838882812,-9.820603,0.266964,0.31877,0.62394,0.30023,0.3801
1694109838890625,-9.809603,0.257964,0.29877,0.57594,0.36323,0.7001
1694109838898437,-9.795603,0.257964,0.35877,0.52694,0.26323,0.6801
1694109838906250,-9.802603,0.252964,0.58877,0.47794,0.19623,0.6601
1694109838914062,-9.811603,0.259964,0.87877,0.52594,0.16523,0.3501
1694109838921875,-9.802603,0.252964,0.94877,0.46194,0.14723,0.4901
1694109838929687,-9.818603,0.258964,0.83877,0.50994,0.34323,0.1901
1694109838937500,-9.820603,0.258964,0.62877,0.53894,0.30823,0.201
1694109838945312,-9.815603,0.269964,0.53877,0.53794,0.29023,0.1801
1694109838953125,-9.800603,0.263964,0.51877,0.55694,0.32923,0.1199
1694109838960937,-9.802603,0.265964,0.44877,0.61794,0.34123,0.1299
1694109838968750,-9.813603,0.272964,0.51877,0.65394,0.38023,0.2201
1694109838976562,-9.809603,0.266964,0.65877,0.65494,0.38223,0.701
1694109838984375,-9.820603,0.270964,0.65877,0.63894,0.36523,0.899
1694109838992187,-9.831603,0.269964,0.42877,0.64994,0.42323,0.501
1694109839000000,-9.831603,0.261964,0.33877,0.62194,0.49223,0.2201
1694109839007812,-9.831603,0.265964,0.35877,0.63394,0.39023,0.401
1694109839015625,-9.831603,0.269964,0.33877,0.65194,0.50923,0.2599
1694109839023437,-9.829603,0.260964,0.35877,0.63394,0.48823,0.1099
1694109839031250,-9.820603,0.257964,0.29877,0.65494,0.51323,0.799
1694109839039062,-9.826603,0.260964,0.22877,0.63394,0.47023,0.3601
1694109839046875,-9.813603,0.265964,0.37877,0.58694,0.38623,0.11501
1694109839054687,-9.811603,0.263964,0.62877,0.60694,0.42723,0.7001
1694109839062500,-9.808603,0.282964,0.67877,0.56994,0.40223,0.6601
1694109839070312,-9.812603,0.271964,0.53877,0.53494,0.44623,0.6401
1694109839078125,-9.817603,0.265964,0.71877,0.47794,0.40423,0.9801
1694109839085937,-9.804603,0.268964,0.71877,0.48194,0.46023,0.6901
1694109839093750,-9.807603,0.268964,0.74877,0.49894,0.46423,0.2201
1694109839101562,-9.811603,0.277964,0.81877,0.53294,0.48423,0.4001
1694109839109375,-9.815603,0.276964,0.69877,0.47394,0.38723,0.3099
1694109839117187,-9.817603,0.276964,0.71877,0.52794,0.41123,0.3701
1694109839125000,-9.820603,0.281964,0.78877,0.62694,0.48223,0.7201
1694109839132812,-9.822603,0.276964,0.69877,0.58694,0.35723,0.301
1694109839140625,-9.824603,0.287964,0.71877,0.63494,0.35923,0.2101
1694109839148437,-9.826603,0.282964,0.64877,0.64894,0.32223,0.5101
1694109839156250,-9.820603,0.272964,0.56877,0.63694,0.41023,0.3801
1694109839164062,-9.806603,0.282964,0.51877,0.58294,0.38423,0.1499
1694109839171875,-9.817603,0.275964,0.46877,0.62894,0.34923,0.101
1694109839179687,-9.818603,0.270964,0.53877,0.63694,0.47623,0.999
1694109839187500,-9.818603,0.268964,0.60877,0.65594,0.46623,0.799
1694109839195312,-9.833603,0.269964,0.55877,0.53994,0.43923,0.301
1694109839203125,-9.831603,0.283964,0.58877,0.53194,0.46623,0.2301
1694109839210937,-9.831603,0.267964,0.56877,0.43094,0.39323,0.1399
1694109839218750,-9.831603,0.274964,0.33877,0.53994,0.45623,0.1299
1694109839226562,-9.824603,0.268964,0.22877,0.57394,0.39623,0.4299
1694109839234375,-9.818603,0.270964,0.35877,0.63994,0.35123,0.701
1694109839242187,-9.820603,0.263964,0.42877,0.54094,0.37623,0.1199
1694109839250000,-9.831603,0.253964,0.55877,0.42894,0.32323,0.1701
1694109839257812,-9.822603,0.243964,0.101877,0.43094,0.34123,0.6601
1694109839265625,-9.820603,0.239964,0.110877,0.44794,0.31223,0.1901
1694109839273437,-9.823603,0.241964,0.96877,0.54294,0.39423,0.401
1694109839281250,-9.814603,0.239964,0.53877,0.41894,0.52523,0.3601
1694109839289062,-9.805603,0.250964,0.40877,0.38794,0.42923,0.2001
1694109839296875,-9.813603,0.263964,0.37877,0.39994,0.35823,0.6601
1694109839304687,-9.820603,0.259964,0.42877,0.43494,0.38023,0.3601
1694109839312500,-9.849603,0.258964,0.49877,0.43094,0.39323,0.1399
1694109839320312,-9.869603,0.266964,0.40877,0.41594,0.40723,0.6601
1694109839328125,-9.867603,0.267964,0.51877,0.52994,0.38023,0.10101
1694109839335937,-9.842603,0.262964,0.46877,0.52394,0.42123,0.5101
1694109839343750,-9.811603,0.276964,0.20877,0.52894,0.47623,0.10101
1694109839351562,-9.797603,0.281964,0.15877,0.63894,0.42623,0.11801
1694109839359375,-9.784603,0.272964,0.35877,0.65094,0.39023,0.8501
1694109839367187,-9.809603,0.261964,0.92877,0.62794,0.51223,0.20001
1694109839375000,-9.820603,0.243964,0.103877,0.51594,0.59223,0.13501
1694109839382812,-9.819603,0.228964,0.72877,0.42794,0.69923,0.13701
1694109839390625,-9.816603,0.224964,0.15877,0.39394,0.81023,0.8801
1694109839398437,-9.801603,0.227964,0.15123,0.39794,0.75023,0.10601
1694109839406250,-9.783603,0.225964,0.8123,0.40994,0.68323,0.2401
1694109839414062,-9.785603,0.227964,0.31877,0.39594,0.63423,0.10401
1694109839421875,-9.787603,0.228964,0.67877,0.40294,0.57523,0.2001
1694109839429687,-9.800603,0.226964,0.101877,0.35894,0.61123,0.2101
1694109839437500,-9.811603,0.241964,0.110877,0.32594,0.56023,0.5201
1694109839445312,-9.814603,0.252964,0.87877,0.18594,0.54623,0.3501
1694109839453125,-9.814603,0.246964,0.76877,0.18794,0.58123,0.6801
1694109839460937,-9.831603,0.245964,0.38877,0.32694,0.64023,0.10001
1694109839468750,-9.831603,0.249964,0.35877,0.30994,0.62223,0.9901
1694109839476562,-9.826603,0.258964,0.53877,0.27394,0.58523,0.4901
1694109839484375,-9.838603,0.263964,0.56877,0.32994,0.64423,0.11801
1694109839492187,-9.849603,0.274964,0.26877,0.38994,0.64023,0.13301
1694109839500000,-9.836603,0.278964,0.6877,0.35894,0.67523,0.6901
1694109839507812,-9.824603,0.276964,0.11877,0.38994,0.67323,0.13301
1694109839515625,-9.838603,0.301964,0.2123,0.40794,0.59523,0.13401
1694109839523437,-9.832603,0.309964,0.4877,0.38594,0.55423,0.9901
1694109839531250,-9.835603,0.307964,0.4877,0.40294,0.63623,0.13201
1694109839539062,-9.826603,0.307964,0.6123,0.39094,0.67523,0.8601
1694109839546875,-9.815603,0.310964,0.38123,0.40894,0.61123,0.16701
1694109839554687,-9.824603,0.304964,0.49123,0.34994,0.55123,0.18401
1694109839562500,-9.833603,0.294964,0.51123,0.40894,0.48223,0.16601
1694109839570312,-9.842603,0.296964,0.38123,0.40294,0.36123,0.11501
1694109839578125,-9.853603,0.283964,0.6123,0.38994,0.36323,0.16401
1694109839585937,-9.842603,0.280964,0.0,0.40294,0.27923,0.11501
1694109839593750,-9.840603,0.278964,0.0,0.41894,0.36123,0.8301
1694109839601562,-9.834603,0.277964,0.20877,0.39094,0.33523,0.10101
1694109839609375,-9.835603,0.285964,0.22877,0.40094,0.26123,0.11401
1694109839617187,-9.840603,0.281964,0.31877,0.41894,0.26523,0.9901
1694109839625000,-9.837603,0.275964,0.33877,0.38294,0.29023,0.9601
1694109839632812,-9.835603,0.278964,0.31877,0.46094,0.32323,0.8101
1694109839640625,-9.836603,0.276964,0.24877,0.48194,0.33123,0.8401
1694109839648437,-9.831603,0.272964,0.20877,0.49694,0.29823,0.6801
1694109839656250,-9.824603,0.274964,0.17877,0.52694,0.29623,0.6801
1694109839664062,-9.809603,0.270964,0.20877,0.62294,0.25123,0.601
1694109839671875,-9.804603,0.272964,0.22877,0.62094,0.32923,0.2101
1694109839679687,-9.809603,0.274964,0.20877,0.63894,0.38023,0.5401
1694109839687500,-9.827603,0.281964,0.22877,0.62294,0.31623,0.999
1694109839695312,-9.827603,0.272964,0.24877,0.63694,0.33123,0.601
1694109839703125,-9.838603,0.274964,0.22877,0.65694,0.40023,0.5601
1694109839710937,-9.822603,0.268964,0.24877,0.65594,0.39823,0.3901
1694109839718750,-9.829603,0.258964,0.8877,0.61994,0.32923,0.1099
1694109839726562,-9.827603,0.261964,0.4123,0.63794,0.36323,0.601
1694109839734375,-9.826603,0.258964,0.4877,0.64794,0.37023,0.3501
1694109839742187,-9.834603,0.252964,0.6877,0.63694,0.36123,0.3701
1694109839750000,-9.836603,0.238964,0.15877,0.64894,0.30823,0.2001
1694109839757812,-9.843603,0.238964,0.28877,0.58694,0.21023,0.5001
1694109839765625,-9.838603,0.245964,0.33877,0.57494,0.28123,0.3701
1694109839773437,-9.836603,0.238964,0.49877,0.58794,0.30823,0.6701
1694109839781250,-9.831603,0.238964,0.49877,0.50894,0.26123,0.201
1694109839789062,-9.820603,0.243964,0.65877,0.53994,0.25923,0.3401
1694109839796875,-9.809603,0.241964,0.76877,0.54094,0.24523,0.3501
1694109839804687,-9.800603,0.236964,0.76877,0.53894,0.32523,0.1399
1694109839812500,-9.786603,0.243964,0.85877,0.47794,0.29423,0.201
1694109839820312,-9.786603,0.243964,0.92877,0.44594,0.29423,0.1399
1694109839828125,-9.797603,0.245964,0.116877,0.52294,0.35623,0.201
1694109839835937,-9.798603,0.246964,0.112877,0.55994,0.39623,0.501
1694109839843750,-9.795603,0.250964,0.105877,0.50894,0.36023,0.1299
1694109839851562,-9.799603,0.258964,0.80877,0.52194,0.43323,0.6501
1694109839859375,-9.797603,0.260964,0.58877,0.50594,0.38623,0.1701
1694109839867187,-9.800603,0.263964,0.62877,0.54094,0.37623,0.1199
1694109839875000,-9.804603,0.258964,0.78877,0.58594,0.39023,0.2899
1694109839882812,-9.808603,0.258964,0.96877,0.55294,0.40323,0.1399
1694109839890625,-9.820603,0.254964,0.92877,0.58694,0.45623,0.401
1694109839898437,-9.845603,0.244964,0.78877,0.63394,0.47223,0.4399
1694109839906250,-9.856603,0.256964,0.49877,0.61894,0.44123,0.2699
1694109839914062,-9.851603,0.247964,0.26877,0.63394,0.43923,0.2799
1694109839921875,-9.840603,0.252964,0.22877,0.65394,0.49423,0.899
1694109839929687,-9.815603,0.252964,0.24877,0.63494,0.37623,0.501
1694109839937500,-9.795603,0.256964,0.24877,0.61794,0.40723,0.1199
1694109839945312,-9.788603,0.259964,0.38877,0.61994,0.47423,0.501
1694109839953125,-9.793603,0.254964,0.49877,0.55494,0.47023,0.1299
1694109839960937,-9.813603,0.258964,0.44877,0.47494,0.40323,0.101
1694109839968750,-9.831603,0.258964,0.40877,0.41194,0.48523,0.4699
1694109839976562,-9.826603,0.251964,0.22877,0.44294,0.50123,0.4699
1694109839984375,-9.837603,0.257964,0.17877,0.39394,0.41523,0.99
1694109839992187,-9.813603,0.258964,0.15877,0.39694,0.50623,0.10999
1694109840000000,-9.799603,0.261964,0.26877,0.41194,0.42123,0.4699
1694109840007812,-9.804603,0.260964,0.42877,0.38094,0.35423,0.3201
1694109840015625,-9.811603,0.283964,0.51877,0.39994,0.39323,0.201
1694109840023437,-9.804603,0.267964,0.65877,0.43194,0.44223,0.301
1694109840031250,-9.817603,0.276964,0.82877,0.36494,0.46923,0.1599
1694109840039062,-9.808603,0.272964,0.92877,0.52494,0.37623,0.301
1694109840046875,-9.817603,0.285964,0.128877,0.58894,0.40923,0.2001
1694109840054687,-9.817603,0.289964,0.118877,0.47494,0.48523,0.1399
1694109840062500,-9.813603,0.280964,0.116877,0.50894,0.40723,0.301
1694109840070312,-9.819603,0.274964,0.100877,0.44494,0.45423,0.1399
1694109840078125,-9.824603,0.276964,0.94877,0.55394,0.40523,0.301
1694109840085937,-9.826603,0.278964,0.60877,0.50694,0.48523,0.1801
1694109840093750,-9.835603,0.282964,0.33877,0.61494,0.43523,0.4499
1694109840101562,-9.819603,0.278964,0.26877,0.61394,0.46623,0.2999
1694109840109375,-9.806603,0.276964,0.24877,0.64694,0.46823,0.2899
1694109840117187,-9.797603,0.274964,0.22877,0.63394,0.37423,0.401
1694109840125000,-9.813603,0.271964,0.24877,0.64794,0.32323,0.1299
1694109840132812,-9.829603,0.256964,0.22877,0.63294,0.38823,0.301
1694109840140625,-9.827603,0.259964,0.17877,0.63794,0.39623,0.999
1694109840148437,-9.817603,0.242964,0.19877,0.64394,0.31723,0.1499
1694109840156250,-9.817603,0.244964,0.19877,0.62994,0.38423,0.201
1694109840164062,-9.820603,0.252964,0.40877,0.65094,0.42523,0.1099
1694109840171875,-9.845603,0.245964,0.65877,0.63694,0.44323,0.601
1694109840179687,-9.832603,0.239964,0.74877,0.65494,0.46423,0.2499
1694109840187500,-9.838603,0.232964,0.67877,0.52694,0.49323,0.4299
1694109840195312,-9.832603,0.250964,0.47877,0.52894,0.59523,0.8899
1694109840203125,-9.820603,0.245964,0.26877,0.39994,0.58723,0.1299
1694109840210937,-9.822603,0.233964,0.35877,0.39594,0.58323,0.7899
1694109840218750,-9.825603,0.237964,0.33877,0.42094,0.61423,0.5799
1694109840226562,-9.823603,0.246964,0.47877,0.38894,0.61223,0.2699
1694109840234375,-9.818603,0.243964,0.58877,0.38794,0.64523,0.9099
1694109840242187,-9.818603,0.260964,0.60877,0.40994,0.63623,0.699
1694109840250000,-9.818603,0.261964,0.58877,0.46694,0.64223,0.999
1694109840257812,-9.817603,0.274964,0.62877,0.41794,0.62223,0.2001
1694109840265625,-9.818603,0.272964,0.49877,0.43594,0.57923,0.2599
1694109840273437,-9.815603,0.272964,0.60877,0.41694,0.62223,0.2799
1694109840281250,-9.806603,0.277964,0.58877,0.46594,0.62623,0.2599
1694109840296875,-9.808603,0.283964,0.58877,0.49394,0.63623,0.1199
1694109840304687,-9.815603,0.272964,0.53877,0.44994,0.62423,0.501
1694109840312500,-9.833603,0.269964,0.31877,0.46094,0.63723,0.12499
1694109840320312,-9.829603,0.263964,0.24877,0.47794,0.58923,0.9199
1694109840328125,-9.816603,0.261964,0.22877,0.57494,0.57723,0.7399
1694109840335937,-9.818603,0.265964,0.31877,0.60594,0.54423,0.5699
1694109840343750,-9.820603,0.258964,0.35877,0.58594,0.55723,0.13899
1694109840351562,-9.823603,0.262964,0.38877,0.56394,0.63423,0.8699
1694109840359375,-9.818603,0.272964,0.38877,0.51494,0.61123,0.2499
