time,Acceleration X (m/s^2),Acceleration Y (m/s^2),Acceleration Z (m/s^2),Angular Velocity X (rad/s),Angular Velocity Y (rad/s),Angular Velocity Z (rad/s)
1694787790710937,-9.452014,2.398925,,,,
1694787790718750,-9.465014,0.841263,2.409925,0.70592,0.5012,0.17019
1694787790726562,-9.470014,0.847263,2.411925,0.69092,0.3412,0.20219
1694787790734375,-9.483014,0.848263,2.402925,0.70392,0.1312,0.21619
1694787790742187,-9.501014,0.850263,2.404925,0.62392,0.488,0.19819
1694787790750000,-9.501014,0.837263,2.407925,0.71792,0.5388,0.21419
1694787790765625,-9.488014,0.837263,2.404925,0.71792,0.7088,0.19819
1694787790773437,-9.479014,0.850263,2.420925,0.70292,0.3788,0.21419
1694787790781250,-9.468014,0.847263,2.429925,0.72192,0.0,0.20219
1694787790789062,-9.470014,0.852263,2.434925,0.69992,0.7488,0.21219
1694787790812500,-9.412014,0.880263,2.438925,0.70292,0.3788,0.23019
1694787790820312,-9.417014,0.887263,2.438925,0.65592,0.1412,0.13519
1694787790828125,-9.406014,0.898263,2.447925,0.70592,0.1488,0.16919
1694787790835937,-9.408014,0.895263,2.447925,0.64192,0.6388,0.13619
1694787790843750,-9.417014,0.902263,2.429925,0.61092,0.1688,0.18319
1694787790851562,-9.428014,0.905263,2.413925,0.54492,0.912,0.21219
1694787790859375,-9.426014,0.898263,2.420925,0.49792,0.5388,0.16419
1694787790867187,-9.437014,0.900263,2.416925,0.54092,0.2488,0.9819
1694787790875000,-9.450014,0.894263,2.395925,0.44692,0.1288,0.22419
1694787790882812,-9.466014,0.903263,2.395925,0.66792,0.5588,0.14919
1694787790890625,-9.493014,0.886263,2.377925,0.60292,0.4588,0.17719
1694787790898437,-9.504014,0.893263,2.382925,0.65092,0.13988,0.14719
1694787790906250,-9.507014,0.892263,2.409925,0.71992,0.11388,0.13719
1694787790914062,-9.502014,0.906263,2.431925,0.70392,0.6688,0.15219
1694787790921875,-9.487014,0.908263,2.434925,0.70192,0.7088,0.18219
1694787790929687,-9.475014,0.923263,2.427925,0.71092,0.4788,0.16119
1694787790937500,-9.460014,0.932263,2.411925,0.62392,0.4988,0.7119
1694787790945312,-9.442014,0.938263,2.397925,0.46092,0.7588,0.8019
1694787790953125,-9.435014,0.932263,2.384925,0.45992,0.5888,0.4819
1694787790960937,-9.424014,0.922263,2.375925,0.48292,0.3288,0.8619
1694787790968750,-9.430014,0.905263,2.377925,0.45092,0.5388,0.17919
1694787790976562,-9.441014,0.894263,2.366925,0.46992,0.0,0.18219
1694787790984375,-9.466014,0.903263,2.366925,0.47092,0.6388,0.19819
1694787790992187,-9.478014,0.896263,2.369925,0.45692,0.4588,0.21519
1694787791000000,-9.500014,0.899263,2.387925,0.47292,0.5988,0.16819
1694787791007812,-9.509014,0.903263,2.389925,0.53592,0.4388,0.16919
1694787791015625,-9.516014,0.901263,2.387925,0.48992,0.3988,0.12319
1694787791023437,-9.502014,0.897263,2.386925,0.52992,0.0,0.7019
1694787791031250,-9.496014,0.897263,2.411925,0.69092,0.4388,0.9119
1694787791039062,-9.471014,0.899263,2.405925,0.60892,0.212,0.5619
1694787791046875,-9.467014,0.903263,2.423925,0.63092,0.5388,0.4519
1694787791054687,-9.469014,0.899263,2.411925,0.71592,0.9888,0.819
1694787791062500,-9.457014,0.892263,2.425925,0.65492,0.13188,0.10319
1694787791070312,-9.448014,0.894263,2.418925,0.65092,0.10488,0.6819
1694787791078125,-9.450014,0.898263,2.386925,0.65092,0.3888,0.6919
1694787791085937,-9.457014,0.883263,2.382925,0.64092,0.9688,0.12019
1694787791093750,-9.464014,0.892263,2.389925,0.71992,0.6188,0.4219
1694787791101562,-9.476014,0.910263,2.378925,0.65892,0.10688,0.1119
1694787791109375,-9.480014,0.912263,2.366925,0.64392,0.4388,0.12219
1694787791117187,-9.496014,0.912263,2.373925,0.66892,0.10088,0.7019
1694787791125000,-9.500014,0.908263,2.387925,0.70492,0.4588,0.9019
1694787791132812,-9.512014,0.930263,2.396925,0.63992,0.9688,0.5619
1694787791140625,-9.510014,0.926263,2.393925,0.64292,0.9288,0.9019
1694787791148437,-9.485014,0.923263,2.384925,0.61092,0.7588,0.2619
1694787791156250,-9.480014,0.919263,2.384925,0.58992,0.10088,0.3719
1694787791164062,-9.484014,0.908263,2.398925,0.59292,0.7988,0.7119
1694787791171875,-9.480014,0.901263,2.389925,0.53192,0.9688,0.11919
1694787791179687,-9.484014,0.883263,2.398925,0.59592,0.9488,0.13719
1694787791187500,-9.502014,0.881263,2.422925,0.60392,0.8888,0.8419
1694787791195312,-9.491014,0.886263,2.431925,0.65392,0.10088,0.8619
1694787791203125,-9.466014,0.883263,2.418925,0.57392,0.6988,0.6819
1694787791210937,-9.461014,0.885263,2.420925,0.53992,0.9288,0.11319
1694787791218750,-9.443014,0.883263,2.402925,0.63692,0.8688,0.6919
1694787791226562,-9.437014,0.885263,2.411925,0.73092,0.10288,0.8619
1694787791234375,-9.421014,0.878263,2.409925,0.69892,0.5388,0.3819
1694787791242187,-9.425014,0.871263,2.400925,0.71292,0.20288,0.8419
1694787791250000,-9.445014,0.879263,2.413925,0.69092,0.18088,0.7919
1694787791257812,-9.463014,0.861263,2.416925,0.72692,0.15388,0.1181
1694787791265625,-9.468014,0.865263,2.413925,0.72592,0.13888,0.2881
1694787791273437,-9.468014,0.868263,2.413925,0.72792,0.10488,0.1081
1694787791281250,-9.477014,0.877263,2.400925,0.69492,0.14188,0.6619
1694787791289062,-9.495014,0.883263,2.386925,0.71392,0.10088,0.5781
1694787791296875,-9.500014,0.890263,2.409925,0.69792,0.16588,0.4181
1694787791304687,-9.506014,0.884263,2.391925,0.71292,0.11888,0.2681
1694787791312500,-9.513014,0.873263,2.402925,0.69992,0.8188,0.781
1694787791320312,-9.506014,0.868263,2.398925,0.69992,0.9588,0.7181
1694787791328125,-9.495014,0.868263,2.425925,0.70092,0.11288,0.781
1694787791335937,-9.473014,0.865263,2.416925,0.70392,0.9488,0.5819
1694787791343750,-9.455014,0.863263,2.420925,0.70492,0.9088,0.2081
1694787791351562,-9.430014,0.851263,2.432925,0.70292,0.12688,0.681
1694787791359375,-9.407014,0.847263,2.431925,0.70092,0.9888,0.5619
1694787791367187,-9.405014,0.849263,2.436925,0.70292,0.14388,0.4119
1694787791375000,-9.403014,0.846263,2.441925,0.70292,0.9488,0.919
1694787791382812,-9.432014,0.851263,2.441925,0.72192,0.7488,0.4419
1694787791390625,-9.432014,0.851263,2.436925,0.70792,0.15488,0.9219
1694787791398437,-9.439014,0.856263,2.436925,0.71892,0.12488,0.2181
1694787791406250,-9.439014,0.858263,2.443925,0.70392,0.15788,0.2619
1694787791414062,-9.430014,0.862263,2.456925,0.75292,0.9088,0.1219
1694787791421875,-9.430014,0.860263,2.439925,0.78692,0.8488,0.1681
1694787791429687,-9.441014,0.865263,2.452925,0.70192,0.6388,0.2519
1694787791437500,-9.455014,0.852263,2.452925,0.71892,0.9288,0.3681
1694787791445312,-9.454014,0.847263,2.463925,0.69992,0.8188,0.2481
1694787791453125,-9.457014,0.850263,2.447925,0.71492,0.8188,0.3981
1694787791460937,-9.465014,0.847263,2.438925,0.69892,0.10088,0.2581
1694787791468750,-9.466014,0.850263,2.454925,0.70492,0.7588,0.1119
1694787791476562,-9.465014,0.834263,2.441925,0.71892,0.1288,0.2181
1694787791484375,-9.463014,0.825263,2.449925,0.69992,0.8388,0.2319
1694787791492187,-9.458014,0.823263,2.438925,0.74392,0.2288,0.619
1694787791500000,-9.449014,0.823263,2.445925,0.69592,0.5488,0.2681
1694787791507812,-9.438014,0.816263,2.447925,0.79192,0.5388,0.719
1694787791515625,-9.429014,0.816263,2.441925,0.79692,0.6188,0.2081
1694787791523437,-9.432014,0.825263,2.452925,0.73392,0.11088,0.581
1694787791531250,-9.416014,0.840263,2.461925,0.85892,0.7888,0.2081
1694787791539062,-9.409014,0.849263,2.461925,0.79392,0.9888,0.3981
1694787791546875,-9.428014,0.856263,2.468925,0.81392,0.5988,0.1981
1694787791554687,-9.425014,0.865263,2.472925,0.85692,0.3288,0.581
1694787791562500,-9.432014,0.869263,2.470925,0.78192,0.4588,0.2719
1694787791570312,-9.439014,0.874263,2.467925,0.71392,0.6988,0.619
1694787791578125,-9.441014,0.862263,2.472925,0.71992,0.4388,0.481
1694787791585937,-9.448014,0.874263,2.458925,0.74592,0.6788,0.4081
1694787791593750,-9.446014,0.865263,2.463925,0.68792,0.5988,0.2181
1694787791601562,-9.464014,0.865263,2.472925,0.74992,0.4788,0.2519
1694787791609375,-9.468014,0.869263,2.463925,0.80092,0.712,0.2919
1694787791617187,-9.475014,0.863263,2.463925,0.83992,0.10088,0.819
1694787791625000,-9.472014,0.856263,2.459925,0.81392,0.8088,0.12219
1694787791632812,-9.461014,0.863263,2.456925,0.76192,0.6988,0.7119
1694787791640625,-9.470014,0.863263,2.456925,0.84392,0.9688,0.4219
1694787791648437,-9.455014,0.867263,2.452925,0.70492,0.7888,0.9019
1694787791656250,-9.461014,0.874263,2.454925,0.71892,0.11288,0.8919
1694787791664062,-9.446014,0.880263,2.461925,0.73592,0.6188,0.7419
1694787791671875,-9.444014,0.885263,2.450925,0.76992,0.4188,0.6119
1694787791679687,-9.444014,0.885263,2.454925,0.73392,0.3088,0.4119
1694787791687500,-9.439014,0.883263,2.456925,0.70292,0.6588,0.12019
1694787791695312,-9.450014,0.878263,2.447925,0.71592,0.11688,0.8719
1694787791703125,-9.453014,0.883263,2.458925,0.70192,0.4988,0.4019
1694787791710937,-9.452014,0.874263,2.461925,0.71392,0.13588,0.3719
1694787791718750,-9.443014,0.881263,2.449925,0.72792,0.10488,0.2119
1694787791726562,-9.446014,0.874263,2.454925,0.69792,0.5288,0.2581
1694787791734375,-9.444014,0.889263,2.461925,0.71892,0.4588,0.2181
1694787791742187,-9.426014,0.900263,2.452925,0.69992,0.6788,0.5519
1694787791750000,-9.408014,0.902263,2.445925,0.71292,0.12088,0.3719
1694787791757812,-9.406014,0.906263,2.441925,0.70292,0.3088,0.5719
1694787791765625,-9.410014,0.906263,2.441925,0.70292,0.8088,0.4119
1694787791773437,-9.422014,0.913263,2.434925,0.71692,0.6588,0.4019
1694787791781250,-9.437014,0.907263,2.450925,0.70292,0.3088,0.5719
1694787791789062,-9.437014,0.909263,2.441925,0.70492,0.2688,0.2719
1694787791796875,-9.437014,0.900263,2.436925,0.62992,0.688,0.4419
1694787791804687,-9.448014,0.905263,2.432925,0.60892,0.14588,0.10319
1694787791812500,-9.455014,0.894263,2.423925,0.63992,0.6388,0.5619
1694787791820312,-9.469014,0.892263,2.414925,0.59492,0.6188,0.8919
1694787791828125,-9.480014,0.881263,2.409925,0.59792,0.2488,0.7519
1694787791835937,-9.491014,0.888263,2.375925,0.62892,0.7488,0.9119
1694787791843750,-9.509014,0.890263,2.398925,0.70792,0.4188,0.9219
1694787791851562,-9.507014,0.897263,2.418925,0.72192,0.4388,0.10719
1694787791859375,-9.503014,0.912263,2.429925,0.70492,0.2888,0.7419
1694787791867187,-9.484014,0.912263,2.425925,0.65592,0.3212,0.10419
1694787791875000,-9.449014,0.914263,2.411925,0.71792,0.0,0.7219
1694787791882812,-9.442014,0.916263,2.393925,0.61192,0.612,0.4219
1694787791890625,-9.406014,0.908263,2.378925,0.62892,0.4188,0.5919
1694787791898437,-9.408014,0.902263,2.393925,0.67192,0.4588,0.681
1694787791906250,-9.412014,0.895263,2.391925,0.58892,0.8388,0.2681
1694787791914062,-9.412014,0.882263,2.391925,0.57592,0.12888,0.881
1694787791921875,-9.412014,0.878263,2.402925,0.62292,0.6788,0.8619
1694787791929687,-9.419014,0.882263,2.423925,0.53292,0.4788,0.16719
1694787791937500,-9.417014,0.896263,2.456925,0.53092,0.1688,0.13419
1694787791945312,-9.414014,0.891263,2.467925,0.46692,0.3488,0.14919
1694787791953125,-9.433014,0.905263,2.465925,0.62792,0.2988,0.15319
1694787791960937,-9.444014,0.891263,2.468925,0.64392,0.2212,0.10719
1694787791968750,-9.457014,0.896263,2.465925,0.64392,0.5512,0.5919
1694787791976562,-9.466014,0.885263,2.468925,0.68692,0.3212,0.5619
1694787791984375,-9.468014,0.881263,2.456925,0.70592,0.2212,0.2719
1694787791992187,-9.475014,0.883263,2.452925,0.57592,0.3212,0.2319
1694787792000000,-9.464014,0.892263,2.447925,0.58992,0.1212,0.3719
1694787792007812,-9.464014,0.894263,2.447925,0.60692,0.8212,0.2381
1694787792015625,-9.451014,0.894263,2.443925,0.67492,0.3812,0.5919
1694787792023437,-9.448014,0.885263,2.436925,0.66792,0.4512,0.3819
1694787792031250,-9.446014,0.883263,2.434925,0.66692,0.2812,0.2581
1694787792039062,-9.461014,0.874263,2.434925,0.56092,0.8412,0.5581
1694787792046875,-9.475014,0.863263,2.443925,0.65892,0.2412,0.3581
1694787792054687,-9.477014,0.865263,2.447925,0.65292,0.3012,0.881
1694787792062500,-9.484014,0.868263,2.445925,0.59192,0.4912,0.719
1694787792070312,-9.477014,0.877263,2.454925,0.63792,0.6312,0.2319
1694787792078125,-9.470014,0.861263,2.452925,0.70192,0.1488,0.2281
1694787792085937,-9.443014,0.869263,2.450925,0.67192,0.2888,0.581
1694787792093750,-9.439014,0.856263,2.440925,0.66892,0.11488,0.881
1694787792101562,-9.437014,0.860263,2.456925,0.67292,0.9288,0.581
1694787792109375,-9.437014,0.862263,2.488925,0.70492,0.9288,0.5919
1694787792117187,-9.427014,0.854263,2.476925,0.69792,0.6988,0.981
1694787792125000,-9.437014,0.862263,2.463925,0.65692,0.7588,0.2181
1694787792132812,-9.450014,0.869263,2.468925,0.66992,0.1488,0.5481
1694787792140625,-9.462014,0.876263,2.461925,0.62592,0.7388,0.3681
1694787792148437,-9.461014,0.876263,2.445925,0.63492,0.10288,0.2119
1694787792156250,-9.468014,0.872263,2.438925,0.65592,0.6388,0.5619
1694787792164062,-9.479014,0.863263,2.434925,0.65792,0.1088,0.581
1694787792171875,-9.500014,0.870263,2.411925,0.62492,0.1288,0.2281
1694787792179687,-9.502014,0.866263,2.398925,0.60992,0.9288,0.681
1694787792187500,-9.504014,0.859263,2.411925,0.60592,0.11688,0.6919
1694787792195312,-9.495014,0.861263,2.416925,0.70192,0.6388,0.681
1694787792203125,-9.482014,0.865263,2.418925,0.64292,0.888,0.2081
1694787792210937,-9.479014,0.856263,2.407925,0.70392,0.1288,0.4219
1694787792218750,-9.468014,0.847263,2.402925,0.72292,0.3988,0.1319
1694787792226562,-9.457014,0.840263,2.414925,0.65792,0.12288,0.2081
1694787792234375,-9.448014,0.838263,2.429925,0.72292,0.3988,0.2919
1694787792242187,-9.441014,0.840263,2.429925,0.68292,0.6788,0.981
1694787792250000,-9.425014,0.829263,2.438925,0.66892,0.9888,0.719
1694787792257812,-9.416014,0.829263,2.450925,0.67192,0.8088,0.8819
1694787792265625,-9.423014,0.845263,2.445925,0.70092,0.3012,0.3919
1694787792273437,-9.434014,0.849263,2.449925,0.71692,0.1612,0.819
1694787792281250,-9.439014,0.856263,2.447925,0.70192,0.6512,0.919
1694787792289062,-9.428014,0.862263,2.445925,0.70192,0.1488,0.919
1694787792296875,-9.436014,0.865263,2.440925,0.71492,0.8012,0.2381
1694787792304687,-9.446014,0.860263,2.432925,0.70192,0.13312,0.5381
1694787792312500,-9.443014,0.867263,2.404925,0.68592,0.1812,0.3881
1694787792320312,-9.439014,0.865263,2.391925,0.71892,0.8612,0.5281
1694787792328125,-9.441014,0.867263,2.396925,0.71892,0.3612,0.3781
1694787792335937,-9.446014,0.867263,2.389925,0.68792,0.11812,0.5281
1694787792343750,-9.459014,0.865263,2.384925,0.70192,0.10012,0.3781
1694787792351562,-9.484014,0.868263,2.386925,0.71092,0.2512,0.5981
1694787792359375,-9.488014,0.866263,2.377925,0.60792,0.4912,0.5619
1694787792367187,-9.500014,0.866263,2.389925,0.57992,0.6912,0.5719
1694787792375000,-9.504014,0.852263,2.404925,0.63892,0.1612,0.4019
1694787792382812,-9.506014,0.841263,2.391925,0.63692,0.4712,0.2481
1694787792390625,-9.503014,0.835263,2.397925,0.63392,0.10612,0.419
1694787792398437,-9.485014,0.832263,2.404925,0.66792,0.2812,0.5419
1694787792406250,-9.488014,0.828263,2.413925,0.67092,0.14912,0.2181
1694787792414062,-9.472014,0.832263,2.411925,0.66892,0.15912,0.5519
1694787792421875,-9.459014,0.834263,2.400925,0.71892,0.14712,0.5819
1694787792429687,-9.443014,0.849263,2.397925,0.69592,0.2412,0.2781
1694787792437500,-9.430014,0.847263,2.402925,0.71992,0.6712,0.7419
1694787792445312,-9.432014,0.852263,2.413925,0.69492,0.8812,0.1181
1694787792453125,-9.430014,0.851263,2.411925,0.75192,0.3612,0.5919
1694787792460937,-9.443014,0.863263,2.402925,0.74692,0.2812,0.8719
1694787792468750,-9.448014,0.858263,2.402925,0.70092,0.4912,0.3981
1694787792476562,-9.450014,0.858263,2.407925,0.71692,0.6512,0.681
1694787792484375,-9.457014,0.870263,2.415925,0.69592,0.8812,0.2019
1694787792492187,-9.468014,0.863263,2.407925,0.71792,0.9512,0.8819
1694787792500000,-9.466014,0.874263,2.411925,0.70292,0.19612,0.2619
1694787792507812,-9.466014,0.867263,2.400925,0.72192,0.12012,0.1219
1694787792515625,-9.468014,0.865263,2.400925,0.70492,0.14912,0.9019
1694787792523437,-9.468014,0.865263,2.395925,0.68492,0.12612,0.7119
1694787792531250,-9.459014,0.868263,2.379925,0.70992,0.15112,0.319
1694787792539062,-9.457014,0.858263,2.382925,0.69992,0.12712,0.2319
1694787792546875,-9.446014,0.867263,2.382925,0.71992,0.10212,0.1119
1694787792554687,-9.443014,0.865263,2.389925,0.59192,0.9812,0.819
1694787792562500,-9.461014,0.859263,2.395925,0.64992,0.7312,0.3619
1694787792570312,-9.468014,0.865263,2.407925,0.69792,0.5912,0.2219
1694787792578125,-9.475014,0.868263,2.404925,0.71492,0.5912,0.7019
1694787792585937,-9.491014,0.863263,2.418925,0.72192,0.5212,0.10719
1694787792593750,-9.488014,0.866263,2.407925,0.70092,0.11212,0.4019
1694787792601562,-9.488014,0.857263,2.395925,0.60492,0.11012,0.981
1694787792609375,-9.482014,0.868263,2.402925,0.67392,0.8512,0.5919
1694787792617187,-9.499014,0.861263,2.384925,0.66692,0.2812,0.619
1694787792625000,-9.488014,0.861263,2.393925,0.71492,0.1212,0.5519
1694787792632812,-9.484014,0.868263,2.398925,0.70492,0.5312,0.4319
1694787792640625,-9.480014,0.867263,2.378925,0.72492,0.4212,0.6219
1694787792648437,-9.475014,0.879263,2.366925,0.70392,0.5012,0.7419
1694787792656250,-9.468014,0.878263,2.380925,0.71992,0.3188,0.8919
1694787792664062,-9.461014,0.863263,2.371925,0.70392,0.3412,0.9019
1694787792671875,-9.457014,0.856263,2.373925,0.70092,0.3012,0.7219
1694787792679687,-9.456014,0.847263,2.386925,0.70292,0.1612,0.8819
1694787792687500,-9.454014,0.849263,2.402925,0.70092,0.1688,0.2419
1694787792695312,-9.461014,0.847263,2.402925,0.70192,0.212,0.919
1694787792703125,-9.452014,0.845263,2.396925,0.71992,0.15112,0.1119
1694787792710937,-9.452014,0.847263,2.384925,0.70492,0.6912,0.5919
1694787792718750,-9.454014,0.845263,2.380925,0.71392,0.10812,0.3819
1694787792726562,-9.445014,0.847263,2.380925,0.70292,0.10012,0.581
1694787792734375,-9.443014,0.845263,2.371925,0.74992,0.8312,0.581
1694787792742187,-9.445014,0.845263,2.377925,0.78092,0.8112,0.7419
1694787792750000,-9.448014,0.849263,2.355925,0.83092,0.2212,0.1319
1694787792757812,-9.443014,0.847263,2.357925,0.74892,0.9812,0.681
1694787792765625,-9.459014,0.847263,2.341925,0.69692,0.10812,0.2581
1694787792773437,-9.470014,0.850263,2.341925,0.71792,0.14512,0.8919
1694787792781250,-9.475014,0.845263,2.337925,0.70592,0.11812,0.7519
1694787792789062,-9.490014,0.848263,2.328925,0.71892,0.10012,0.581
1694787792796875,-9.504014,0.850263,2.328925,0.84892,0.5812,0.1519
1694787792804687,-9.515014,0.848263,2.330925,0.85892,0.10012,0.5181
1694787792812500,-9.517014,0.853263,2.344925,0.81192,0.6712,0.3681
1694787792820312,-9.524014,0.853263,2.359925,0.76392,0.4912,0.681
1694787792828125,-9.517014,0.853263,2.368925,0.78092,0.10012,0.2081
1694787792835937,-9.501014,0.853263,2.343925,0.83892,0.12412,0.819
1694787792843750,-9.485014,0.848263,2.334925,0.72492,0.5312,0.1281
1694787792851562,-9.481014,0.834263,2.332925,0.72892,0.7612,0.2581
1694787792859375,-9.474014,0.832263,2.321925,0.69692,0.7612,0.2581
1694787792867187,-9.463014,0.830263,2.319925,0.71792,0.14912,0.6981
1694787792875000,-9.447014,0.832263,2.301925,0.69992,0.14512,0.5581
1694787792882812,-9.447014,0.829263,2.317925,0.71592,0.19412,0.5481
1694787792890625,-9.456014,0.834263,2.317925,0.70492,0.10412,0.1981
1694787792898437,-9.461014,0.827263,2.312925,0.72292,0.16912,0.4519
1694787792906250,-9.472014,0.836263,2.321925,0.70192,0.16312,0.919
1694787792914062,-9.476014,0.841263,2.305925,0.71292,0.20712,0.5681
1694787792921875,-9.481014,0.841263,2.310925,0.70192,0.19812,0.6981
1694787792929687,-9.481014,0.841263,2.314925,0.71992,0.18612,0.6681
1694787792937500,-9.479014,0.845263,2.319925,0.72892,0.14112,0.2481
1694787792945312,-9.484014,0.854263,2.323925,0.70192,0.9812,0.919
1694787792953125,-9.477014,0.848263,2.321925,0.71392,0.11312,0.8781
1694787792960937,-9.481014,0.857263,2.323925,0.70092,0.12912,0.2419
1694787792968750,-9.495014,0.868263,2.321925,0.71892,0.11612,0.581
1694787792976562,-9.504014,0.866263,2.332925,0.73392,0.18012,0.4219
1694787792984375,-9.504014,0.864263,2.332925,0.70292,0.21212,0.4219
1694787792992187,-9.524014,0.859263,2.312925,0.72192,0.21912,0.281
1694787793000000,-9.502014,0.863263,2.308925,0.70292,0.19612,0.4219
1694787793007812,-9.502014,0.854263,2.299925,0.72192,0.21612,0.6019
1694787793015625,-9.502014,0.857263,2.285925,0.68992,0.16712,0.4319
1694787793023437,-9.502014,0.861263,2.287925,0.67392,0.16712,0.4319
1694787793031250,-9.502014,0.872263,2.283925,0.59292,0.21112,0.5619
1694787793039062,-9.509014,0.877263,2.276925,0.61192,0.20012,0.4319
1694787793046875,-9.495014,0.870263,2.280925,0.62092,0.14112,0.5319
1694787793054687,-9.491014,0.868263,2.285925,0.56592,0.18412,0.10619
1694787793062500,-9.495014,0.865263,2.292925,0.48992,0.17112,0.9119
1694787793070312,-9.484014,0.865263,2.292925,0.51892,0.20012,0.10619
1694787793078125,-9.477014,0.852263,2.289925,0.54392,0.14312,0.7019
1694787793085937,-9.470014,0.843263,2.308925,0.48792,0.18412,0.13719
1694787793093750,-9.481014,0.845263,2.305925,0.48692,0.10012,0.18419
1694787793101562,-9.479014,0.863263,2.314925,0.59392,0.14712,0.10419
1694787793109375,-9.493014,0.866263,2.319925,0.62492,0.9812,0.8819
1694787793117187,-9.491014,0.874263,2.308925,0.68792,0.9712,0.12119
1694787793125000,-9.493014,0.881263,2.314925,0.64192,0.11412,0.16919
1694787793132812,-9.486014,0.883263,2.301925,0.50192,0.10012,0.12019
1694787793140625,-9.489014,0.885263,2.287925,0.50192,0.10012,0.15219
1694787793148437,-9.482014,0.881263,2.283925,0.50192,0.18412,0.7319
1694787793156250,-9.482014,0.863263,2.276925,0.55092,0.13712,0.9119
1694787793164062,-9.497014,0.868263,2.287925,0.51692,0.18212,0.7319
1694787793171875,-9.504014,0.877263,2.281925,0.50492,0.18812,0.7519
1694787793179687,-9.520014,0.866263,2.265925,0.51392,0.16212,0.5419
1694787793187500,-9.515014,0.866263,2.271925,0.51192,0.11012,0.6919
1694787793195312,-9.520014,0.864263,2.272925,0.45292,0.13312,0.5519
1694787793203125,-9.520014,0.852263,2.267925,0.47092,0.20312,0.1019
1694787793210937,-9.517014,0.857263,2.269925,0.44992,0.14312,0.6919
1694787793218750,-9.519014,0.864263,2.285925,0.46492,0.17412,0.8419
1694787793226562,-9.511014,0.866263,2.287925,0.45492,0.16512,0.12019
1694787793234375,-9.513014,0.872263,2.285925,0.43992,0.19812,0.13619
1694787793242187,-9.513014,0.875263,2.267925,0.46992,0.14712,0.15119
1694787793250000,-9.499014,0.868263,2.285925,0.45192,0.19012,0.19619
1694787793257812,-9.486014,0.854263,2.265925,0.45492,0.14712,0.18319
1694787793265625,-9.464014,0.858263,2.263925,0.47392,0.20212,0.13819
1694787793273437,-9.443014,0.854263,2.267925,0.43992,0.14912,0.15219
1694787793281250,-9.443014,0.849263,2.260925,0.45292,0.14512,0.13419
1694787793289062,-9.447014,0.847263,2.240925,0.45392,0.18012,0.15119
1694787793296875,-9.445014,0.851263,2.227925,0.55092,0.16912,0.7519
1694787793304687,-9.464014,0.869263,2.213925,0.53292,0.19812,0.7319
1694787793312500,-9.484014,0.863263,2.213925,0.55992,0.17412,0.13319
1694787793320312,-9.504014,0.875263,2.213925,0.54592,0.20812,0.13419
1694787793328125,-9.520014,0.886263,2.213925,0.46792,0.14512,0.11819
1694787793335937,-9.538014,0.886263,2.217925,0.46892,0.12812,0.16619
1694787793343750,-9.544014,0.880263,2.217925,0.44992,0.10812,0.13119
1694787793351562,-9.552014,0.900263,2.200925,0.47092,0.18212,0.15219
1694787793359375,-9.556014,0.902263,2.209925,0.45592,0.10012,0.20019
1694787793367187,-9.561014,0.902263,2.213925,0.47192,0.6712,0.19919
1694787793375000,-9.558014,0.905263,2.229925,0.44792,0.10212,0.22519
1694787793382812,-9.547014,0.893263,2.224925,0.48392,0.6112,0.21319
1694787793390625,-9.536014,0.879263,2.224925,0.53392,0.9712,0.21519
1694787793398437,-9.540014,0.869263,2.236925,0.56292,0.4612,0.18219
1694787793406250,-9.529014,0.866263,2.226925,0.65292,0.4212,0.13319
1694787793414062,-9.515014,0.868263,2.226925,0.63992,0.9612,0.11919
1694787793421875,-9.502014,0.868263,2.231925,0.66792,0.4212,0.10119
1694787793429687,-9.509014,0.866263,2.222925,0.69092,0.312,0.13819
1694787793437500,-9.511014,0.861263,2.213925,0.76892,0.6912,0.12419
1694787793445312,-9.522014,0.873263,2.213925,0.76292,0.7712,0.7219
1694787793453125,-9.538014,0.871263,2.215925,0.73292,0.9612,0.5619
1694787793460937,-9.556014,0.882263,2.217925,0.90392,0.9112,0.10419
1694787793468750,-9.560014,0.880263,2.213925,0.94592,0.7112,0.2319
1694787793476562,-9.549014,0.880263,2.215925,0.90492,0.1888,0.7319
1694787793484375,-9.549014,0.875263,2.213925,0.94992,0.4412,0.4119
1694787793492187,-9.518014,0.879263,2.220925,0.95192,0.0,0.481
1694787793500000,-9.504014,0.893263,2.233925,0.96292,0.5788,0.2319
1694787793507812,-9.484014,0.894263,2.247925,0.90092,0.10488,0.3919
1694787793515625,-9.471014,0.910263,2.256925,0.94392,0.7888,0.3719
1694787793523437,-9.476014,0.918263,2.267925,0.86092,0.11188,0.7519
1694787793531250,-9.480014,0.932263,2.280925,0.80792,0.13788,0.8619
1694787793539062,-9.480014,0.941263,2.301925,0.79192,0.12088,0.5319
1694787793546875,-9.471014,0.936263,2.305925,0.77992,0.6388,0.1019
1694787793554687,-9.467014,0.936263,2.303925,0.84292,0.6588,0.4119
1694787793562500,-9.469014,0.932263,2.301925,0.79392,0.5188,0.2419
1694787793570312,-9.467014,0.929263,2.294925,0.74992,0.6388,0.4119
1694787793578125,-9.480014,0.919263,2.289925,0.85492,0.5588,0.5519
1694787793585937,-9.478014,0.925263,2.278925,0.80992,0.3288,0.2281
1694787793593750,-9.482014,0.925263,2.271925,0.86792,0.3888,0.5681
1694787793601562,-9.482014,0.919263,2.265925,0.90392,0.1612,0.5381
1694787793609375,-9.498014,0.921263,2.258925,0.84192,0.4912,0.3781
1694787793617187,-9.502014,0.919263,2.249925,0.76092,0.188,0.5581
1694787793625000,-9.505014,0.919263,2.251925,0.73292,0.4788,0.681
1694787793632812,-9.516014,0.922263,2.267925,0.71192,0.3888,0.1081
1694787793640625,-9.534014,0.919263,2.260925,0.73292,0.9688,0.2281
1694787793648437,-9.523014,0.928263,2.260925,0.69492,0.10488,0.5981
1694787793656250,-9.525014,0.924263,2.269925,0.70992,0.7388,0.4381
1694787793664062,-9.523014,0.906263,2.263925,0.71492,0.9888,0.4081
1694787793671875,-9.511014,0.901263,2.262925,0.69692,0.5588,0.519
1694787793679687,-9.496014,0.906263,2.272925,0.79592,0.6588,0.7319
1694787793687500,-9.493014,0.901263,2.278925,0.83292,0.11488,0.9719
1694787793695312,-9.500014,0.901263,2.276925,0.80492,0.8788,0.4181
1694787793703125,-9.480014,0.903263,2.280925,0.72592,0.10688,0.4381
1694787793710937,-9.466014,0.898263,2.267925,0.69892,0.8188,0.5681
1694787793718750,-9.484014,0.899263,2.254925,0.71492,0.11488,0.2481
1694787793726562,-9.464014,0.901263,2.274925,0.70192,0.6188,0.3781
1694787793734375,-9.477014,0.890263,2.269925,0.71792,0.11088,0.3881
1694787793742187,-9.477014,0.885263,2.272925,0.69892,0.5188,0.881
1694787793750000,-9.490014,0.877263,2.265925,0.71192,0.10488,0.2681
1694787793757812,-9.509014,0.863263,2.254925,0.71792,0.7788,0.5381
1694787793765625,-9.520014,0.868263,2.254925,0.76292,0.17888,0.3981
1694787793773437,-9.538014,0.866263,2.281925,0.75992,0.23188,0.5781
1694787793781250,-9.538014,0.866263,2.287925,0.77592,0.23188,0.4181
1694787793789062,-9.538014,0.862263,2.283925,0.74692,0.12888,0.5481
1694787793796875,-9.544014,0.864263,2.269925,0.72892,0.6788,0.5681
1694787793804687,-9.529014,0.868263,2.247925,0.69692,0.15188,0.4281
1694787793812500,-9.515014,0.866263,2.238925,0.71692,0.14388,0.5481
1694787793820312,-9.506014,0.870263,2.224925,0.71392,0.21288,0.4081
1694787793828125,-9.493014,0.865263,2.238925,0.70292,0.14188,0.2181
1694787793835937,-9.479014,0.863263,2.253925,0.70892,0.13888,0.6081
1694787793843750,-9.484014,0.856263,2.260925,0.72992,0.19688,0.4081
1694787793851562,-9.481014,0.852263,2.263925,0.69992,0.14588,0.5581
1694787793859375,-9.495014,0.850263,2.238925,0.71592,0.17788,0.5581
1694787793867187,-9.499014,0.848263,2.251925,0.71592,0.19488,0.3981
1694787793875000,-9.501014,0.850263,2.269925,0.69592,0.21988,0.3619
1694787793882812,-9.497014,0.857263,2.283925,0.71692,0.24188,0.5581
1694787793890625,-9.477014,0.857263,2.296925,0.72592,0.18688,0.4381
1694787793898437,-9.461014,0.859263,2.285925,0.72392,0.18788,0.7681
1694787793906250,-9.448014,0.860263,2.299925,0.71492,0.11488,0.2481
1694787793914062,-9.448014,0.867263,2.290925,0.69892,0.6788,0.2481
1694787793921875,-9.448014,0.872263,2.283925,0.71492,0.10088,0.881
1694787793929687,-9.455014,0.863263,2.287925,0.70292,0.2888,0.3781
1694787793937500,-9.454014,0.867263,2.278925,0.68192,0.5388,0.981
1694787793945312,-9.468014,0.867263,2.283925,0.67292,0.4588,0.5819
1694787793953125,-9.488014,0.865263,2.263925,0.62392,0.6388,0.819
1694787793960937,-9.493014,0.863263,2.251925,0.65592,0.1488,0.4119
1694787793968750,-9.508014,0.848263,2.240925,0.58592,0.4088,0.319
1694787793976562,-9.517014,0.844263,2.231925,0.67292,0.2888,0.2619
1694787793984375,-9.528014,0.846263,2.233925,0.68792,0.1288,0.581
1694787793992187,-9.519014,0.850263,2.249925,0.69992,0.8188,0.2481
1694787794000000,-9.524014,0.835263,2.249925,0.71892,0.1288,0.2181
1694787794007812,-9.515014,0.844263,2.242925,0.68192,0.5288,0.4281
1694787794015625,-9.506014,0.855263,2.229925,0.70192,0.6388,0.681
1694787794023437,-9.497014,0.863263,2.231925,0.71792,0.4788,0.681
1694787794031250,-9.479014,0.867263,2.249925,0.70192,0.212,0.3881
1694787794039062,-9.479014,0.872263,2.249925,0.71492,0.6788,0.719
1694787794046875,-9.482014,0.874263,2.256925,0.69992,0.10088,0.2219
1694787794054687,-9.486014,0.876263,2.276925,0.70292,0.9488,0.919
1694787794062500,-9.480014,0.881263,2.287925,0.71792,0.14588,0.5619
1694787794070312,-9.482014,0.881263,2.289925,0.69792,0.15388,0.10019
1694787794078125,-9.502014,0.868263,2.290925,0.69892,0.10288,0.3719
1694787794085937,-9.495014,0.868263,2.285925,0.63892,0.8488,0.10219
1694787794093750,-9.499014,0.868263,2.281925,0.66892,0.11688,0.5419
1694787794101562,-9.500014,0.872263,2.267925,0.63992,0.7988,0.2419
1694787794109375,-9.480014,0.874263,2.274925,0.65792,0.5988,0.2619
1694787794117187,-9.475014,0.894263,2.274925,0.66492,0.5488,0.1181
1694787794125000,-9.466014,0.905263,2.265925,0.71492,0.9888,0.4081
1694787794132812,-9.486014,0.899263,2.267925,0.68292,0.5088,0.4181
1694787794140625,-9.493014,0.899263,2.242925,0.66892,0.9588,0.5581
1694787794148437,-9.495014,0.892263,2.256925,0.58592,0.5688,0.319
1694787794156250,-9.504014,0.884263,2.260925,0.55692,0.7188,0.8319
1694787794164062,-9.500014,0.872263,2.247925,0.54392,0.9788,0.619
1694787794171875,-9.506014,0.866263,2.256925,0.55992,0.1888,0.7019
1694787794179687,-9.504014,0.866263,2.253925,0.57392,0.3688,0.5319
1694787794187500,-9.502014,0.866263,2.269925,0.49492,0.3688,0.2019
1694787794195312,-9.491014,0.890263,2.269925,0.51792,0.7588,0.7319
1694787794203125,-9.484014,0.899263,2.278925,0.57692,0.6388,0.719
1694787794210937,-9.473014,0.890263,2.287925,0.58892,0.6788,0.1081
1694787794218750,-9.486014,0.894263,2.265925,0.63992,0.4812,0.8819
1694787794226562,-9.475014,0.896263,2.274925,0.70192,0.1688,0.4019
1694787794234375,-9.466014,0.894263,2.267925,0.70292,0.9688,0.5719
1694787794242187,-9.475014,0.887263,2.267925,0.65692,0.6388,0.8819
1694787794250000,-9.490014,0.866263,2.276925,0.66692,0.10488,0.8419
1694787794257812,-9.482014,0.876263,2.272925,0.68492,0.8488,0.8719
1694787794265625,-9.497014,0.888263,2.276925,0.63492,0.12088,0.8419
1694787794273437,-9.486014,0.892263,2.283925,0.70092,0.10088,0.8719
1694787794281250,-9.489014,0.892263,2.281925,0.67192,0.4788,0.8919
1694787794289062,-9.475014,0.899263,2.265925,0.60692,0.288,0.8619
1694787794296875,-9.469014,0.903263,2.269925,0.60992,0.412,0.2519
1694787794304687,-9.468014,0.903263,2.272925,0.60492,0.388,0.2119
1694787794312500,-9.466014,0.894263,2.271925,0.60592,0.488,0.10119
1694787794320312,-9.477014,0.879263,2.263925,0.56292,0.6388,0.8719
1694787794328125,-9.484014,0.874263,2.258925,0.64292,0.4388,0.5819
1694787794335937,-9.495014,0.870263,2.249925,0.66092,0.4012,0.6019
1694787794343750,-9.504014,0.866263,2.247925,0.59392,0.112,0.7219
1694787794351562,-9.502014,0.863263,2.249925,0.54692,0.4488,0.4019
1694787794359375,-9.504014,0.859263,2.251925,0.63592,0.5088,0.981
1694787794367187,-9.506014,0.868263,2.240925,0.62492,0.6388,0.7219
1694787794375000,-9.502014,0.870263,2.253925,0.66792,0.6988,0.5319
1694787794382812,-9.502014,0.877263,2.272925,0.70392,0.7888,0.4219
1694787794390625,-9.502014,0.883263,2.272925,0.69492,0.6112,0.6319
1694787794398437,-9.502014,0.890263,2.283925,0.72392,0.5788,0.10819
1694787794406250,-9.504014,0.890263,2.296925,0.68992,0.2012,0.7419
1694787794414062,-9.487014,0.890263,2.308925,0.70592,0.5412,0.6019
1694787794421875,-9.469014,0.903263,2.308925,0.70392,0.3612,0.581
1694787794429687,-9.464014,0.894263,2.312925,0.64192,0.2012,0.7419
1694787794437500,-9.455014,0.900263,2.323925,0.70292,0.4812,0.7319
1694787794445312,-9.442014,0.900263,2.319925,0.59292,0.5112,0.819
1694787794453125,-9.450014,0.901263,2.317925,0.51192,0.2812,0.5219
1694787794460937,-9.453014,0.894263,2.305925,0.49892,0.9812,0.3919
1694787794468750,-9.448014,0.898263,2.290925,0.45292,0.11612,0.5519
1694787794476562,-9.466014,0.901263,2.287925,0.47092,0.10212,0.10419
1694787794484375,-9.475014,0.885263,2.278925,0.44992,0.9412,0.8419
1694787794492187,-9.493014,0.883263,2.281925,0.46592,0.11012,0.10119
1694787794500000,-9.502014,0.886263,2.271925,0.44992,0.7712,0.11619
1694787794507812,-9.509014,0.883263,2.276925,0.47092,0.5012,0.18319
1694787794515625,-9.518014,0.881263,2.283925,0.45592,0.2212,0.7319
1694787794523437,-9.525014,0.886263,2.290925,0.46892,0.212,0.7119
1694787794531250,-9.524014,0.891263,2.281925,0.40192,0.388,0.5119
1694787794539062,-9.518014,0.888263,2.290925,0.40292,0.2088,0.13119
1694787794546875,-9.522014,0.886263,2.289925,0.39992,0.2712,0.5019
1694787794554687,-9.522014,0.888263,2.287925,0.37692,0.2688,0.5519
1694787794562500,-9.520014,0.884263,2.303925,0.42492,0.2488,0.7319
1694787794570312,-9.520014,0.883263,2.308925,0.34892,0.3888,0.12119
1694787794578125,-9.513014,0.881263,2.317925,0.38992,0.6388,0.8519
1694787794585937,-9.505014,0.881263,2.328925,0.27092,0.3688,0.5719
1694787794593750,-9.502014,0.874263,2.328925,0.26592,0.6088,0.6919
1694787794601562,-9.502014,0.888263,2.312925,0.20392,0.4288,0.6919
1694787794609375,-9.503014,0.896263,2.285925,0.22192,0.5288,0.819
1694787794617187,-9.498014,0.905263,2.287925,0.21692,0.9388,0.419
1694787794625000,-9.505014,0.901263,2.269925,0.18492,0.14488,0.5019
1694787794632812,-9.509014,0.899263,2.254925,0.14392,0.8988,0.16619
1694787794640625,-9.525014,0.901263,2.251925,0.18692,0.7988,0.11519
1694787794648437,-9.547014,0.884263,2.256925,0.15692,0.15988,0.14719
1694787794656250,-9.574014,0.882263,2.269925,0.16992,0.13088,0.14619
1694787794664062,-9.571014,0.873263,2.274925,0.21692,0.14788,0.13019
1694787794671875,-9.569014,0.871263,2.287925,0.20392,0.20688,0.10019
1694787794679687,-9.562014,0.851263,2.299925,0.21292,0.19788,0.4819
1694787794687500,-9.535014,0.853263,2.323925,0.19892,0.19888,0.12819
1694787794695312,-9.513014,0.861263,2.305925,0.21992,0.14088,0.10119
1694787794703125,-9.504014,0.863263,2.290925,0.23392,0.17588,0.8419
1694787794710937,-9.477014,0.859263,2.287925,0.20092,0.20888,0.3519
1694787794718750,-9.452014,0.865263,2.290925,0.21592,0.21088,0.8219
1694787794726562,-9.443014,0.862263,2.288925,0.20392,0.17188,0.3719
1694787794734375,-9.437014,0.865263,2.303925,0.21692,0.22688,0.11419
1694787794742187,-9.423014,0.851263,2.314925,0.20192,0.17588,0.8319
1694787794750000,-9.437014,0.862263,2.306925,0.22092,0.12288,0.10219
1694787794757812,-9.432014,0.867263,2.299925,0.20692,0.8988,0.15019
1694787794765625,-9.437014,0.865263,2.317925,0.21792,0.7988,0.13119
1694787794773437,-9.448014,0.867263,2.317925,0.20292,0.4488,0.5219
1694787794781250,-9.457014,0.865263,2.317925,0.21492,0.6488,0.1819
1694787794789062,-9.464014,0.874263,2.308925,0.23592,0.4088,0.3919
1694787794796875,-9.471014,0.865263,2.312925,0.20592,0.5488,0.5519
1694787794804687,-9.482014,0.865263,2.324925,0.22192,0.10488,0.7119
1694787794812500,-9.484014,0.863263,2.326925,0.24792,0.9588,0.6719
1694787794820312,-9.486014,0.870263,2.326925,0.24592,0.9988,0.8119
1694787794828125,-9.482014,0.879263,2.337925,0.24892,0.7988,0.8419
1694787794835937,-9.497014,0.865263,2.312925,0.26792,0.9188,0.13419
1694787794843750,-9.502014,0.857263,2.317925,0.26992,0.13788,0.13519
1694787794851562,-9.504014,0.852263,2.323925,0.18392,0.6688,0.11319
1694787794859375,-9.504014,0.850263,2.314925,0.14092,0.4288,0.6919
1694787794867187,-9.510014,0.841263,2.308925,0.18692,0.7788,0.5219
1694787794875000,-9.513014,0.841263,2.308925,0.21592,0.14488,0.3519
1694787794882812,-9.519014,0.835263,2.317925,0.15392,0.22488,0.5019
1694787794890625,-9.517014,0.835263,2.321925,0.6092,0.15688,0.319
1694787794898437,-9.515014,0.837263,2.301925,0.13892,0.25588,0.319
1694787794906250,-9.503014,0.835263,2.287925,0.14992,0.18188,0.3219
1694787794914062,-9.510014,0.824263,2.285925,0.13892,0.12688,0.3519
1694787794921875,-9.533014,0.808263,2.292925,0.21992,0.18788,0.6919
1694787794929687,-9.541014,0.806263,2.308925,0.19892,0.19388,0.219
1694787794937500,-9.548014,0.806263,2.335925,0.21492,0.25988,0.1819
1694787794945312,-9.546014,0.804263,2.344925,0.19992,0.28988,0.219
1694787794953125,-9.544014,0.802263,2.346925,0.28092,0.31888,0.519
1694787794960937,-9.510014,0.801263,2.362925,0.30592,0.24688,0.1481
1694787794968750,-9.474014,0.808263,2.346925,0.35292,0.29488,0.4581
1694787794976562,-9.447014,0.803263,2.344925,0.41892,0.27388,0.1081
1694787794984375,-9.451014,0.794263,2.355925,0.45292,0.14088,0.719
1694787794992187,-9.444014,0.780263,2.335925,0.47092,0.20488,0.5619
1694787795000000,-9.449014,0.763263,2.323925,0.45092,0.12688,0.5781
1694787795007812,-9.446014,0.758263,2.326925,0.51292,0.7988,0.2581
1694787795015625,-9.453014,0.761263,2.321925,0.55892,0.17988,0.519
1694787795023437,-9.460014,0.781263,2.323925,0.46592,0.9588,0.4181
1694787795031250,-9.469014,0.781263,2.305925,0.48192,0.10988,0.8881
1694787795039062,-9.460014,0.785263,2.299925,0.50992,0.6688,0.7581
1694787795046875,-9.447014,0.780263,2.308925,0.56092,0.5688,0.16581
1694787795054687,-9.453014,0.774263,2.308925,0.70192,0.2688,0.14881
1694787795062500,-9.451014,0.774263,2.303925,0.68092,0.5088,0.12181
1694787795070312,-9.462014,0.763263,2.310925,0.69892,0.6388,0.11981
1694787795078125,-9.480014,0.772263,2.312925,0.68392,0.6388,0.10381
1694787795085937,-9.494014,0.777263,2.317925,0.69992,0.11088,0.11881
1694787795093750,-9.485014,0.781263,2.335925,0.71192,0.8388,0.13781
1694787795101562,-9.494014,0.799263,2.346925,0.69592,0.9988,0.13781
1694787795109375,-9.499014,0.810263,2.359925,0.71292,0.8388,0.8981
1694787795117187,-9.476014,0.814263,2.368925,0.66992,0.9388,0.5481
1694787795125000,-9.463014,0.812263,2.346925,0.67192,0.7588,0.3781
1694787795132812,-9.467014,0.814263,2.350925,0.71692,0.6512,0.681
1694787795140625,-9.465014,0.798263,2.341925,0.68992,0.2212,0.2719
1694787795148437,-9.473014,0.779263,2.321925,0.59092,0.4912,0.4081
1694787795156250,-9.473014,0.772263,2.328925,0.65292,0.3012,0.881
1694787795164062,-9.487014,0.757263,2.328925,0.71792,0.5112,0.581
1694787795171875,-9.500014,0.752263,2.314925,0.75092,0.1088,0.3681
1694787795179687,-9.500014,0.743263,2.305925,0.79892,0.9012,0.8181
1694787795187500,-9.500014,0.737263,2.303925,0.71492,0.1612,0.8781
1694787795195312,-9.502014,0.735263,2.312925,0.79692,0.412,0.3681
1694787795203125,-9.513014,0.744263,2.308925,0.82592,0.0,0.3881
1694787795210937,-9.504014,0.741263,2.312925,0.79192,0.10288,0.2319
1694787795218750,-9.488014,0.741263,2.321925,0.84192,0.1412,0.4119
1694787795226562,-9.477014,0.748263,2.323925,0.88692,0.7088,0.5619
1694787795234375,-9.480014,0.743263,2.321925,0.81592,0.2112,0.7719
1694787795242187,-9.473014,0.741263,2.334925,0.79092,0.10288,0.5781
1694787795250000,-9.455014,0.752263,2.339925,0.90292,0.5388,0.5619
1694787795257812,-9.451014,0.754263,2.332925,0.81292,0.5312,0.5181
1694787795265625,-9.455014,0.754263,2.346925,0.86092,0.5512,0.5081
1694787795273437,-9.444014,0.760263,2.346925,0.95192,0.1812,0.5181
1694787795281250,-9.442014,0.749263,2.339925,0.96892,0.14912,0.1881
1694787795289062,-9.451014,0.756263,2.335925,0.101692,0.8312,0.2919
1694787795296875,-9.444014,0.749263,2.321925,0.102992,0.12812,0.1219
1694787795304687,-9.451014,0.751263,2.310925,0.117792,0.12112,0.1819
1694787795312500,-9.464014,0.756263,2.308925,0.112592,0.16512,0.3281
1694787795320312,-9.473014,0.754263,2.299925,0.115992,0.18312,0.0
1694787795328125,-9.491014,0.761263,2.278925,0.111292,0.16912,0.4681
1694787795335937,-9.514014,0.766263,2.281925,0.110192,0.19112,0.419
1694787795343750,-9.528014,0.782263,2.276925,0.101992,0.17112,0.3081
1694787795351562,-9.539014,0.788263,2.261925,0.102192,0.18912,0.1381
1694787795359375,-9.535014,0.797263,2.265925,0.101992,0.17112,0.3081
1694787795367187,-9.535014,0.793263,2.258925,0.100592,0.14012,0.119
1694787795375000,-9.523014,0.797263,2.263925,0.94092,0.16512,0.12519
1694787795382812,-9.517014,0.819263,2.269925,0.93892,0.16312,0.6019
1694787795390625,-9.512014,0.815263,2.267925,0.97192,0.18112,0.11019
1694787795398437,-9.483014,0.832263,2.265925,0.92592,0.16712,0.11019
1694787795406250,-9.468014,0.827263,2.272925,0.97492,0.18312,0.15919
1694787795414062,-9.467014,0.832263,2.278925,0.84392,0.24512,0.2819
1694787795421875,-9.465014,0.829263,2.279925,0.75792,0.20312,0.17519
1694787795429687,-9.466014,0.832263,2.285925,0.80592,0.22212,0.12819
1694787795437500,-9.468014,0.830263,2.292925,0.77192,0.19912,0.20519
1694787795445312,-9.463014,0.836263,2.290925,0.70792,0.23012,0.18719
1694787795453125,-9.474014,0.832263,2.285925,0.72392,0.27912,0.20419
1694787795460937,-9.484014,0.825263,2.283925,0.71692,0.32412,0.22619
1694787795468750,-9.479014,0.814263,2.269925,0.70992,0.31412,0.20519
1694787795476562,-9.481014,0.805263,2.254925,0.72692,0.30012,0.22219
1694787795484375,-9.490014,0.817263,2.240925,0.67292,0.29012,0.20019
1694787795492187,-9.492014,0.821263,2.226925,0.64292,0.24312,0.23319
1694787795500000,-9.492014,0.825263,2.236925,0.69292,0.39412,0.20419
1694787795507812,-9.493014,0.843263,2.207925,0.65292,0.45312,0.20919
1694787795515625,-9.502014,0.846263,2.213925,0.50692,0.31612,0.18819
1694787795523437,-9.506014,0.852263,2.231925,0.53692,0.39612,0.17219
1694787795531250,-9.526014,0.853263,2.218925,0.48892,0.42512,0.23319
1694787795539062,-9.531014,0.855263,2.220925,0.45992,0.41012,0.29819
1694787795546875,-9.535014,0.859263,2.211925,0.45892,0.46012,0.20219
1694787795554687,-9.544014,0.849263,2.222925,0.45892,0.37612,0.31319
1694787795562500,-9.537014,0.853263,2.233925,0.47292,0.42112,0.34319
1694787795570312,-9.540014,0.853263,2.240925,0.46592,0.35312,0.33419
1694787795578125,-9.547014,0.860263,2.233925,0.47892,0.30012,0.34819
1694787795585937,-9.542014,0.871263,2.240925,0.46192,0.23212,0.36219
1694787795593750,-9.542014,0.871263,2.245925,0.57292,0.16812,0.38019
1694787795601562,-9.547014,0.891263,2.254925,0.51092,0.23612,0.33219
1694787795609375,-9.543014,0.890263,2.254925,0.52992,0.17412,0.39819
1694787795617187,-9.538014,0.884263,2.267925,0.50392,0.9512,0.37419
1694787795625000,-9.531014,0.888263,2.236925,0.53592,0.16012,0.37519
1694787795632812,-9.515014,0.881263,2.226925,0.50192,0.6012,0.32519
1694787795640625,-9.495014,0.868263,2.229925,0.46992,0.4412,0.34119
1694787795648437,-9.493014,0.866263,2.226925,0.48492,0.6012,0.29319
1694787795656250,-9.493014,0.875263,2.220925,0.45092,0.888,0.30619
1694787795664062,-9.504014,0.875263,2.204925,0.47092,0.6212,0.29419
1694787795671875,-9.508014,0.879263,2.190925,0.46392,0.1288,0.30419
1694787795679687,-9.511014,0.877263,2.206925,0.43692,0.7088,0.27519
1694787795687500,-9.525014,0.888263,2.204925,0.39492,0.4588,0.26319
1694787795695312,-9.518014,0.902263,2.220925,0.34292,0.6988,0.29019
1694787795703125,-9.525014,0.915263,2.229925,0.45692,0.1588,0.29519
1694787795710937,-9.523014,0.919263,2.211925,0.46792,0.6788,0.21219
1694787795718750,-9.514014,0.912263,2.222925,0.53392,0.1788,0.27919
1694787795726562,-9.522014,0.906263,2.222925,0.57992,0.1312,0.29519
1694787795734375,-9.516014,0.899263,2.220925,0.58392,0.1388,0.28119
1694787795742187,-9.520014,0.906263,2.211925,0.58592,0.6812,0.36219
1694787795750000,-9.538014,0.902263,2.193925,0.70492,0.2188,0.34319
1694787795757812,-9.541014,0.904263,2.189925,0.63392,0.8988,0.28419
1694787795765625,-9.547014,0.902263,2.175925,0.62892,0.14688,0.28019
1694787795773437,-9.559014,0.904263,2.193925,0.64692,0.9388,0.25019
1694787795781250,-9.547014,0.904263,2.202925,0.53692,0.10788,0.20219
1694787795789062,-9.540014,0.891263,2.197925,0.59492,0.6688,0.21519
1694787795796875,-9.534014,0.879263,2.200925,0.53692,0.20388,0.18619
1694787795804687,-9.524014,0.870263,2.206925,0.61192,0.22388,0.13719
1694787795812500,-9.515014,0.864263,2.213925,0.52892,0.26288,0.10019
1694787795820312,-9.518014,0.872263,2.209925,0.58092,0.27288,0.18419
1694787795828125,-9.520014,0.897263,2.220925,0.71692,0.24888,0.16619
1694787795835937,-9.514014,0.892263,2.233925,0.68992,0.20588,0.5919
1694787795843750,-9.507014,0.879263,2.215925,0.70392,0.7888,0.4219
1694787795851562,-9.516014,0.881263,2.204925,0.71992,0.11088,0.5819
1694787795859375,-9.511014,0.872263,2.209925,0.70292,0.9688,0.5719
1694787795867187,-9.502014,0.863263,2.215925,0.74792,0.13188,0.5619
1694787795875000,-9.500014,0.874263,2.209925,0.78292,0.15888,0.4319
1694787795882812,-9.480014,0.887263,2.193925,0.79892,0.9288,0.4419
1694787795890625,-9.480014,0.894263,2.191925,0.81492,0.9288,0.2819
1694787795898437,-9.485014,0.901263,2.193925,0.95892,0.5688,0.6419
1694787795906250,-9.487014,0.914263,2.191925,0.90992,0.10788,0.1419
1694787795914062,-9.496014,0.914263,2.206925,0.93592,0.8288,0.1019
1694787795921875,-9.516014,0.915263,2.211925,0.97392,0.4188,0.6319
1694787795929687,-9.543014,0.911263,2.195925,0.92292,0.9688,0.7519
1694787795937500,-9.554014,0.902263,2.195925,0.94992,0.8888,0.12019
1694787795945312,-9.563014,0.902263,2.184925,0.88992,0.13188,0.10619
1694787795953125,-9.538014,0.904263,2.195925,0.90492,0.11788,0.8919
1694787795960937,-9.511014,0.895263,2.211925,0.96792,0.18088,0.7419
1694787795968750,-9.502014,0.901263,2.200925,0.93892,0.12788,0.4419
1694787795976562,-9.503014,0.912263,2.202925,0.97992,0.3188,0.6819
1694787795984375,-9.496014,0.921263,2.213925,0.95792,0.3988,0.0
1694787795992187,-9.498014,0.914263,2.202925,0.97092,0.6288,0.6119
1694787796000000,-9.489014,0.919263,2.213925,0.95492,0.1288,0.2919
1694787796007812,-9.492014,0.919263,2.216925,0.102192,0.2388,0.4919
1694787796015625,-9.476014,0.923263,2.211925,0.103992,0.588,0.8219
1694787796023437,-9.465014,0.920263,2.209925,0.107392,0.2912,0.16419
1694787796031250,-9.465014,0.918263,2.209925,0.100392,0.6088,0.9419
1694787796039062,-9.469014,0.918263,2.216925,0.102192,0.3988,0.4819
1694787796046875,-9.485014,0.921263,2.213925,0.106392,0.3188,0.4519
1694787796054687,-9.478014,0.923263,2.234925,0.102292,0.788,0.9719
1694787796062500,-9.492014,0.930263,2.222925,0.99192,0.7288,0.12819
1694787796070312,-9.490014,0.934263,2.213925,0.99092,0.2588,0.14319
1694787796078125,-9.499014,0.939263,2.222925,0.95692,0.7688,0.7819
1694787796085937,-9.505014,0.937263,2.218925,0.96892,0.8288,0.7519
1694787796093750,-9.498014,0.936263,2.215925,0.95792,0.4388,0.11019
1694787796101562,-9.501014,0.939263,2.207925,0.97792,0.8788,0.14519
1694787796109375,-9.517014,0.934263,2.211925,0.96092,0.2388,0.12819
1694787796117187,-9.519014,0.937263,2.211925,0.97392,0.4188,0.9519
1694787796125000,-9.528014,0.941263,2.202925,0.95892,0.1188,0.14219
1694787796132812,-9.541014,0.937263,2.204925,0.97592,0.3988,0.9619
1694787796140625,-9.528014,0.928263,2.211925,0.95692,0.1912,0.10919
1694787796148437,-9.519014,0.930263,2.218925,0.97092,0.3612,0.4619
1694787796156250,-9.503014,0.930263,2.209925,0.90792,0.11388,0.10719
1694787796164062,-9.503014,0.921263,2.204925,0.93792,0.8088,0.7519
1694787796171875,-9.514014,0.926263,2.213925,0.97292,0.9388,0.9419
1694787796179687,-9.508014,0.937263,2.220925,0.95792,0.7488,0.9519
1694787796187500,-9.507014,0.937263,2.242925,0.97192,0.9288,0.6219
1694787796195312,-9.510014,0.948263,2.238925,0.95692,0.7688,0.11019
1694787796203125,-9.506014,0.952263,2.229925,0.97992,0.8188,0.8419
1694787796210937,-9.503014,0.950263,2.236925,0.102092,0.7488,0.9519
1694787796218750,-9.488014,0.963263,2.227925,0.97692,0.10388,0.9719
1694787796226562,-9.476014,0.970263,2.240925,0.96692,0.8288,0.1119
1694787796234375,-9.474014,0.972263,2.236925,0.94892,0.8488,0.5481
1694787796242187,-9.472014,0.972263,2.231925,0.97292,0.5888,0.3119
1694787796250000,-9.474014,0.972263,2.231925,0.95292,0.8088,0.481
1694787796257812,-9.494014,0.976263,2.245925,0.96892,0.9688,0.6019
1694787796265625,-9.494014,0.979263,2.251925,0.98092,0.10288,0.4119
1694787796273437,-9.497014,0.983263,2.251925,0.96592,0.6588,0.3681
1694787796281250,-9.506014,0.981263,2.267925,0.90592,0.7888,0.5181
1694787796289062,-9.503014,0.972263,2.269925,0.93592,0.6388,0.5281
1694787796296875,-9.504014,0.981263,2.265925,0.88092,0.5388,0.3219
1694787796304687,-9.499014,0.968263,2.254925,0.86092,0.7388,0.8281
1694787796312500,-9.506014,0.966263,2.265925,0.87292,0.0,0.3781
1694787796320312,-9.494014,0.959263,2.265925,0.82592,0.8288,0.919
1694787796328125,-9.501014,0.950263,2.267925,0.90692,0.3188,0.4319
1694787796335937,-9.505014,0.943263,2.256925,0.79592,0.11588,0.7319
1694787796343750,-9.508014,0.954263,2.256925,0.70292,0.8088,0.5719
1694787796351562,-9.503014,0.950263,2.272925,0.72292,0.10488,0.4519
1694787796359375,-9.503014,0.955263,2.274925,0.71392,0.15188,0.5319
1694787796367187,-9.503014,0.957263,2.274925,0.70392,0.12788,0.7319
1694787796375000,-9.503014,0.968263,2.272925,0.75092,0.7888,0.5819
1694787796382812,-9.506014,0.963263,2.267925,0.81392,0.9488,0.4319
1694787796390625,-9.499014,0.961263,2.269925,0.80892,0.8688,0.5519
1694787796398437,-9.488014,0.968263,2.278925,0.79492,0.13188,0.4019
1694787796406250,-9.490014,0.968263,2.281925,0.74392,0.18288,0.5781
1694787796414062,-9.478014,0.974263,2.274925,0.74292,0.17188,0.3619
1694787796421875,-9.481014,0.977263,2.274925,0.72792,0.18888,0.8319
1694787796429687,-9.477014,0.983263,2.276925,0.73192,0.18088,0.5519
1694787796437500,-9.483014,0.974263,2.299925,0.69692,0.16988,0.5219
1694787796445312,-9.476014,0.972263,2.296925,0.69792,0.13588,0.2119
1694787796453125,-9.467014,0.970263,2.312925,0.71292,0.13788,0.6819
1694787796460937,-9.467014,0.963263,2.312925,0.72992,0.8588,0.2219
1694787796468750,-9.467014,0.956263,2.303925,0.70992,0.10688,0.4481
1694787796476562,-9.474014,0.957263,2.289925,0.64792,0.10888,0.5019
1694787796484375,-9.469014,0.954263,2.287925,0.68292,0.3688,0.2219
1694787796492187,-9.463014,0.945263,2.279925,0.72192,0.2212,0.6019
1694787796500000,-9.469014,0.934263,2.258925,0.63892,0.4612,0.8719
1694787796507812,-9.473014,0.923263,2.249925,0.64092,0.0,0.15219
1694787796515625,-9.480014,0.917263,2.251925,0.69592,0.1088,0.8319
1694787796523437,-9.500014,0.924263,2.251925,0.71192,0.9088,0.3619
1694787796531250,-9.505014,0.923263,2.258925,0.71792,0.11588,0.10419
1694787796539062,-9.503014,0.921263,2.269925,0.68492,0.10088,0.7019
1694787796546875,-9.505014,0.932263,2.278925,0.65392,0.6588,0.2319
1694787796554687,-9.494014,0.939263,2.274925,0.63592,0.10088,0.2581
1694787796562500,-9.471014,0.950263,2.283925,0.69492,0.12488,0.8219
1694787796570312,-9.462014,0.938263,2.285925,0.56092,0.9888,0.8619
1694787796578125,-9.449014,0.940263,2.276925,0.62292,0.3288,0.3919
1694787796585937,-9.444014,0.920263,2.254925,0.56092,0.4988,0.5419
1694787796593750,-9.431014,0.916263,2.263925,0.71692,0.5188,0.8719
1694787796601562,-9.444014,0.907263,2.274925,0.67292,0.1488,0.12119
1694787796609375,-9.450014,0.901263,2.283925,0.63492,0.1088,0.17919
1694787796617187,-9.450014,0.901263,2.287925,0.68192,0.2412,0.8419
1694787796625000,-9.453014,0.910263,2.287925,0.65292,0.5712,0.16419
1694787796632812,-9.478014,0.916263,2.281925,0.63792,0.4412,0.8619
1694787796640625,-9.489014,0.926263,2.283925,0.57492,0.11012,0.3819
1694787796648437,-9.493014,0.926263,2.283925,0.50992,0.1012,0.5119
1694787796656250,-9.500014,0.928263,2.269925,0.56192,0.3088,0.3919
1694787796664062,-9.503014,0.939263,2.281925,0.70192,0.4812,0.5719
1694787796671875,-9.503014,0.937263,2.271925,0.71192,0.8812,0.3619
1694787796679687,-9.501014,0.946263,2.267925,0.71592,0.4712,0.781
1694787796687500,-9.500014,0.941263,2.269925,0.72892,0.4012,0.8519
1694787796695312,-9.500014,0.939263,2.265925,0.71492,0.5912,0.7019
1694787796703125,-9.505014,0.941263,2.260925,0.68592,0.288,0.11919
1694787796710937,-9.503014,0.944263,2.283925,0.69592,0.2688,0.8319
1694787796718750,-9.505014,0.946263,2.281925,0.74892,0.1888,0.10419
1694787796726562,-9.521014,0.953263,2.285925,0.70292,0.112,0.2519
1694787796734375,-9.535014,0.962263,2.287925,0.71992,0.2888,0.4219
1694787796742187,-9.528014,0.970263,2.285925,0.71792,0.1688,0.5619
1694787796750000,-9.517014,0.975263,2.287925,0.69592,0.7388,0.5219
1694787796757812,-9.519014,0.972263,2.294925,0.71992,0.8088,0.10519
1694787796765625,-9.505014,0.963263,2.278925,0.62292,0.6588,0.5519
1694787796773437,-9.501014,0.977263,2.258925,0.69992,0.5188,0.2319
1694787796781250,-9.487014,0.981263,2.249925,0.64792,0.10888,0.3419
1694787796789062,-9.468014,0.974263,2.270925,0.68992,0.12588,0.9019
1694787796796875,-9.456014,0.963263,2.303925,0.67092,0.6388,0.4019
1694787796804687,-9.452014,0.958263,2.297925,0.70892,0.10588,0.10919
1694787796812500,-9.456014,0.958263,2.290925,0.70392,0.4388,0.481
1694787796820312,-9.476014,0.965263,2.283925,0.72092,0.512,0.4319
1694787796828125,-9.486014,0.972263,2.279925,0.73592,0.4388,0.2081
1694787796835937,-9.488014,0.974263,2.265925,0.75092,0.5988,0.2081
1694787796843750,-9.492014,0.981263,2.263925,0.74992,0.1488,0.4219
1694787796851562,-9.488014,0.988263,2.263925,0.70092,0.8188,0.819
1694787796859375,-9.474014,0.981263,2.256925,0.71292,0.13288,0.5781
1694787796867187,-9.477014,0.987263,2.258925,0.84492,0.9288,0.3581
1694787796875000,-9.472014,0.972263,2.251925,0.80292,0.9188,0.5981
1694787796882812,-9.467014,0.961263,2.249925,0.71592,0.11488,0.881
1694787796890625,-9.467014,0.947263,2.240925,0.72692,0.7388,0.1181
1694787796898437,-9.478014,0.945263,2.238925,0.89892,0.12088,0.5781
1694787796906250,-9.489014,0.936263,2.229925,0.85692,0.3288,0.3781
1694787796914062,-9.483014,0.943263,2.220925,0.77892,0.1688,0.2281
1694787796921875,-9.485014,0.943263,2.217925,0.93292,0.6112,0.5481
1694787796929687,-9.480014,0.954263,2.226925,0.90092,0.2088,0.7181
1694787796937500,-9.476014,0.950263,2.247925,0.93192,0.3688,0.8781
1694787796945312,-9.465014,0.969263,2.249925,0.90392,0.1488,0.8481
1694787796953125,-9.470014,0.972263,2.256925,0.80692,0.388,0.4081
1694787796960937,-9.468014,0.981263,2.256925,0.79492,0.6712,0.6881
1694787796968750,-9.468014,0.989263,2.260925,0.76092,0.1412,0.5581
1694787796976562,-9.470014,0.998263,2.260925,0.79292,0.1412,0.5581
1694787796984375,-9.463014,0.994263,2.258925,0.75892,0.3488,0.13681
1694787796992187,-9.463014,0.996263,2.269925,0.69792,0.1412,0.7281
1694787797000000,-9.454014,0.994263,2.281925,0.74792,0.212,0.8681
1694787797007812,-9.463014,0.991263,2.288925,0.70192,0.3912,0.13281
1694787797015625,-9.465014,0.978263,2.285925,0.71392,0.8212,0.15081
1694787797023437,-9.458014,0.972263,2.287925,0.69892,0.13112,0.13481
1694787797031250,-9.470014,0.974263,2.283925,0.71492,0.14712,0.11881
1694787797039062,-9.465014,0.972263,2.285925,0.69892,0.19512,0.11981
1694787797046875,-9.485014,0.970263,2.287925,0.62192,0.4912,0.3981
1694787797054687,-9.485014,0.961263,2.278925,0.62392,0.13512,0.10181
1694787797062500,-9.496014,0.952263,2.276925,0.58992,0.4912,0.7281
1694787797070312,-9.503014,0.934263,2.254925,0.62492,0.10212,0.3781
1694787797078125,-9.505014,0.928263,2.249925,0.46392,0.14612,0.9081
1694787797085937,-9.507014,0.926263,2.265925,0.49492,0.9612,0.5881
1694787797093750,-9.505014,0.919263,2.285925,0.44992,0.18012,0.5681
1694787797101562,-9.507014,0.908263,2.267925,0.46492,0.14812,0.8981
1694787797109375,-9.498014,0.899263,2.269925,0.48292,0.16612,0.3981
1694787797117187,-9.497014,0.892263,2.260925,0.47592,0.15812,0.12381
1694787797125000,-9.486014,0.890263,2.242925,0.58792,0.16012,0.7381
1694787797132812,-9.477014,0.888263,2.245925,0.55892,0.16212,0.5681
1694787797140625,-9.484014,0.894263,2.251925,0.57392,0.16212,0.8881
1694787797148437,-9.485014,0.912263,2.247925,0.68792,0.21712,0.6881
1694787797156250,-9.509014,0.933263,2.249925,0.64992,0.20712,0.7381
1694787797164062,-9.523014,0.948263,2.254925,0.62092,0.21312,0.15181
1694787797171875,-9.534014,0.948263,2.269925,0.52592,0.9612,0.8981
1694787797179687,-9.534014,0.944263,2.258925,0.54392,0.13112,0.7281
1694787797187500,-9.512014,0.957263,2.249925,0.47792,0.7812,0.9181
1694787797195312,-9.503014,0.968263,2.272925,0.45292,0.5512,0.5481
1694787797203125,-9.494014,0.965263,2.285925,0.43792,0.612,0.3981
1694787797210937,-9.474014,0.952263,2.269925,0.41792,0.6612,0.5881
1694787797218750,-9.478014,0.927263,2.242925,0.33992,0.14612,0.1181
1694787797226562,-9.498014,0.905263,2.233925,0.24892,0.7012,0.2681
1694787797234375,-9.509014,0.881263,2.227925,0.20192,0.18712,0.10481
1694787797242187,-9.529014,0.862263,2.215925,0.21192,0.8112,0.10981
1694787797250000,-9.551014,0.844263,2.211925,0.20192,0.7212,0.7381
1694787797257812,-9.546014,0.824263,2.204925,0.21592,0.5212,0.4381
1694787797265625,-9.542014,0.835263,2.191925,0.20192,0.3712,0.519
1694787797273437,-9.537014,0.831263,2.191925,0.23092,0.11188,0.319
1694787797281250,-9.539014,0.835263,2.181925,0.41992,0.1612,0.5319
1694787797289062,-9.524014,0.828263,2.181925,0.38792,0.1888,0.8419
1694787797296875,-9.524014,0.833263,2.202925,0.40592,0.5112,0.8619
1694787797304687,-9.522014,0.833263,2.204925,0.45392,0.412,0.5519
1694787797312500,-9.517014,0.830263,2.202925,0.43692,0.9888,0.13319
1694787797320312,-9.505014,0.830263,2.213925,0.38292,0.2688,0.12819
1694787797328125,-9.492014,0.846263,2.217925,0.44992,0.8388,0.10019
1694787797335937,-9.501014,0.837263,2.224925,0.47092,0.9288,0.8819
1694787797343750,-9.504014,0.850263,2.222925,0.40292,0.8388,0.6719
1694787797351562,-9.506014,0.850263,2.218925,0.45092,0.9888,0.8519
1694787797359375,-9.515014,0.857263,2.227925,0.45392,0.7788,0.8719
1694787797367187,-9.520014,0.866263,2.215925,0.46792,0.1188,0.881
1694787797375000,-9.522014,0.861263,2.220925,0.51492,0.2688,0.5481
1694787797382812,-9.517014,0.852263,2.213925,0.62392,0.2012,0.5481
1694787797390625,-9.508014,0.848263,2.204925,0.53192,0.988,0.681
1694787797398437,-9.502014,0.854263,2.186925,0.52192,0.288,0.2919
1694787797406250,-9.495014,0.861263,2.191925,0.54492,0.11088,0.7281
1694787797414062,-9.481014,0.856263,2.204925,0.52892,0.8188,0.5419
1694787797421875,-9.486014,0.856263,2.202925,0.65792,0.9288,0.2619
1694787797429687,-9.495014,0.848263,2.209925,0.61292,0.5788,0.4319
1694787797437500,-9.513014,0.848263,2.193925,0.60892,0.7788,0.781
1694787797445312,-9.524014,0.855263,2.209925,0.71892,0.11088,0.2619
1694787797453125,-9.520014,0.868263,2.215925,0.70192,0.9188,0.10181
1694787797460937,-9.533014,0.866263,2.224925,0.71592,0.8188,0.781
1694787797468750,-9.524014,0.877263,2.229925,0.69992,0.13088,0.881
1694787797476562,-9.525014,0.881263,2.222925,0.76692,0.7388,0.5181
1694787797484375,-9.506014,0.857263,2.204925,0.70292,0.1288,0.3781
1694787797492187,-9.501014,0.834263,2.191925,0.75192,0.7388,0.1981
1694787797500000,-9.510014,0.830263,2.175925,0.78192,0.7588,0.3681
1694787797507812,-9.508014,0.814263,2.157925,0.79592,0.10888,0.13281
1694787797515625,-9.508014,0.799263,2.146925,0.93792,0.7588,0.8281
1694787797523437,-9.512014,0.806263,2.164925,0.96892,0.12788,0.3581
1694787797531250,-9.519014,0.815263,2.191925,0.95492,0.12388,0.4981
1694787797539062,-9.524014,0.826263,2.202925,0.95292,0.7888,0.6781
1694787797546875,-9.515014,0.837263,2.215925,0.96492,0.6588,0.10181
1694787797554687,-9.519014,0.846263,2.213925,0.95192,0.4588,0.9981
1694787797562500,-9.517014,0.853263,2.213925,0.96792,0.6388,0.3581
1694787797570312,-9.506014,0.875263,2.215925,0.98392,0.112,0.3581
1694787797578125,-9.497014,0.872263,2.220925,0.101492,0.1288,0.9881
1694787797585937,-9.489014,0.885263,2.233925,0.99792,0.2888,0.14681
1694787797593750,-9.477014,0.887263,2.236925,0.101392,0.4788,0.8381
1694787797601562,-9.449014,0.898263,2.240925,0.103392,0.4012,0.7981
1694787797609375,-9.444014,0.893263,2.222925,0.98892,0.7512,0.6281
1694787797617187,-9.444014,0.902263,2.224925,0.94992,0.0,0.10081
1694787797625000,-9.466014,0.896263,2.227925,0.96892,0.612,0.12981
1694787797632812,-9.484014,0.901263,2.215925,0.95092,0.1812,0.11581
1694787797640625,-9.507014,0.899263,2.206925,0.96192,0.1012,0.8781
1694787797648437,-9.539014,0.910263,2.211925,0.95492,0.512,0.4981
1694787797656250,-9.539014,0.926263,2.211925,0.97092,0.2212,0.3381
1694787797664062,-9.559014,0.924263,2.195925,0.92292,0.512,0.4981
1694787797671875,-9.548014,0.922263,2.191925,0.84492,0.512,0.3481
1694787797679687,-9.543014,0.908263,2.188925,0.85692,0.6512,0.5381
1694787797687500,-9.522014,0.902263,2.190925,0.80892,0.288,0.781
1694787797695312,-9.514014,0.903263,2.191925,0.82992,0.312,0.6019
1694787797703125,-9.502014,0.888263,2.206925,0.82992,0.1912,0.6019
1694787797710937,-9.504014,0.886263,2.215925,0.68992,0.2688,0.2719
1694787797718750,-9.507014,0.879263,2.229925,0.73392,0.6188,0.2181
1694787797726562,-9.502014,0.874263,2.236925,0.73292,0.6388,0.919
1694787797734375,-9.504014,0.886263,2.231925,0.71692,0.4988,0.2419
1694787797742187,-9.507014,0.895263,2.258925,0.74992,0.3412,0.2619
1694787797750000,-9.500014,0.897263,2.238925,0.73592,0.5312,0.1119
1694787797757812,-9.500014,0.892263,2.233925,0.70292,0.3612,0.2181
1694787797765625,-9.500014,0.908263,2.229925,0.72392,0.7512,0.181
1694787797773437,-9.502014,0.890263,2.213925,0.70892,0.6112,0.1681
1694787797781250,-9.502014,0.888263,2.215925,0.72092,0.17012,0.5181
1694787797789062,-9.505014,0.901263,2.211925,0.70492,0.8512,0.2719
1694787797796875,-9.518014,0.892263,2.204925,0.71992,0.10212,0.2719
1694787797804687,-9.523014,0.892263,2.202925,0.70692,0.12212,0.281
1694787797812500,-9.520014,0.890263,2.195925,0.70692,0.2412,0.1219
1694787797820312,-9.516014,0.892263,2.191925,0.71992,0.5012,0.9019
1694787797828125,-9.523014,0.886263,2.211925,0.70992,0.912,0.10919
1694787797835937,-9.520014,0.884263,2.209925,0.64092,0.4812,0.12019
1694787797843750,-9.511014,0.883263,2.213925,0.61492,0.4212,0.7719
1694787797851562,-9.500014,0.888263,2.225925,0.58392,0.2088,0.4519
1694787797859375,-9.504014,0.890263,2.218925,0.52892,0.3288,0.5419
1694787797867187,-9.507014,0.897263,2.220925,0.45492,0.1088,0.4019
1694787797875000,-9.502014,0.906263,2.229925,0.46392,0.388,0.5219
1694787797882812,-9.502014,0.899263,2.222925,0.45392,0.2012,0.4019
1694787797890625,-9.509014,0.903263,2.215925,0.45692,0.4112,0.5819
1694787797898437,-9.516014,0.903263,2.191925,0.47592,0.1412,0.4519
1694787797906250,-9.520014,0.901263,2.202925,0.48792,0.4112,0.4219
1694787797914062,-9.513014,0.901263,2.204925,0.63992,0.3212,0.5619
1694787797921875,-9.516014,0.892263,2.193925,0.53492,0.4012,0.5919
1694787797929687,-9.520014,0.884263,2.204925,0.57792,0.3412,0.4019
1694787797937500,-9.534014,0.886263,2.202925,0.62792,0.10412,0.5919
1694787797945312,-9.531014,0.881263,2.215925,0.62792,0.15312,0.4319
1694787797953125,-9.531014,0.877263,2.202925,0.63092,0.14112,0.6119
1694787797960937,-9.518014,0.877263,2.193925,0.63392,0.11212,0.7919
1694787797968750,-9.515014,0.870263,2.195925,0.64592,0.8912,0.9219
1694787797976562,-9.507014,0.881263,2.182925,0.54892,0.3612,0.10519
1694787797984375,-9.511014,0.883263,2.182925,0.56892,0.6112,0.4519
1694787797992187,-9.504014,0.881263,2.204925,0.62492,0.9688,0.8819
1694787798000000,-9.516014,0.881263,2.211925,0.69492,0.3788,0.11019
1694787798007812,-9.502014,0.877263,2.211925,0.70692,0.4388,0.12319
1694787798015625,-9.504014,0.863263,2.206925,0.72092,0.1712,0.13819
1694787798023437,-9.495014,0.863263,2.197925,0.70992,0.688,0.10919
1694787798031250,-9.488014,0.861263,2.193925,0.72092,0.7888,0.10619
1694787798039062,-9.502014,0.870263,2.191925,0.70892,0.5588,0.9319
1694787798046875,-9.504014,0.870263,2.182925,0.75092,0.1288,0.2719
1694787798054687,-9.507014,0.874263,2.188925,0.73792,0.4188,0.2819
1694787798062500,-9.516014,0.888263,2.186925,0.78392,0.9288,0.4319
1694787798070312,-9.522014,0.888263,2.184925,0.82492,0.8488,0.819
1694787798078125,-9.524014,0.884263,2.202925,0.79492,0.6588,0.919
1694787798085937,-9.520014,0.890263,2.206925,0.79692,0.11088,0.581
1694787798093750,-9.504014,0.883263,2.209925,0.84392,0.7588,0.5181
1694787798101562,-9.507014,0.894263,2.213925,0.95492,0.7688,0.3481
1694787798109375,-9.505014,0.890263,2.216925,0.90992,0.7288,0.3281
1694787798117187,-9.503014,0.901263,2.207925,0.86492,0.6788,0.6381
1694787798125000,-9.492014,0.921263,2.195925,0.89392,0.5588,0.8081
1694787798132812,-9.489014,0.918263,2.211925,0.97292,0.688,0.4781
1694787798140625,-9.487014,0.921263,2.215925,0.95492,0.1088,0.3381
1694787798148437,-9.478014,0.920263,2.204925,0.94392,0.1312,0.7781
1694787798156250,-9.478014,0.914263,2.195925,0.85592,0.1612,0.10181
1694787798164062,-9.478014,0.903263,2.211925,0.87392,0.9488,0.6881
1694787798171875,-9.482014,0.903263,2.191925,0.76492,0.7788,0.5381
1694787798179687,-9.487014,0.903263,2.182925,0.78192,0.7588,0.2081
1694787798187500,-9.498014,0.905263,2.186925,0.82792,0.7788,0.2081
1694787798195312,-9.509014,0.903263,2.186925,0.75092,0.9288,0.2081
1694787798203125,-9.519014,0.926263,2.206925,0.73692,0.7388,0.381
1694787798210937,-9.523014,0.926263,2.213925,0.71792,0.9488,0.581
1694787798218750,-9.528014,0.930263,2.211925,0.70592,0.7388,0.1219
1694787798226562,-9.539014,0.926263,2.200925,0.70292,0.7588,0.5381
1694787798234375,-9.539014,0.928263,2.206925,0.66992,0.7788,0.7081
1694787798242187,-9.555014,0.933263,2.207925,0.72292,0.11888,0.5081
1694787798250000,-9.552014,0.922263,2.191925,0.63592,0.13088,0.8981
1694787798257812,-9.541014,0.913263,2.184925,0.71892,0.10688,0.11681
1694787798265625,-9.536014,0.917263,2.182925,0.66992,0.15788,0.11881
1694787798273437,-9.514014,0.901263,2.188925,0.67092,0.13888,0.14981
1694787798281250,-9.505014,0.903263,2.197925,0.68392,0.12688,0.16681
1694787798289062,-9.502014,0.896263,2.207925,0.71892,0.10388,0.17981
1694787798296875,-9.502014,0.874263,2.258925,0.70092,0.7288,0.22881
1694787798304687,-9.490014,0.863263,2.260925,0.74392,0.9788,0.16781
1694787798312500,-9.504014,0.850263,2.260925,0.68292,0.5888,0.26181
1694787798320312,-9.531014,0.848263,2.254925,0.54792,0.6688,0.24381
1694787798328125,-9.549014,0.848263,2.233925,0.46492,0.9188,0.20081
1694787798335937,-9.574014,0.851263,2.247925,0.43292,0.12588,0.16981
1694787798343750,-9.573014,0.847263,2.260925,0.36792,0.9488,0.23581
1694787798351562,-9.585014,0.840263,2.236925,0.44592,0.9488,0.21881
1694787798359375,-9.596014,0.834263,2.233925,0.46192,0.19388,0.18681
1694787798367187,-9.591014,0.814263,2.229925,0.49892,0.20188,0.18281
1694787798375000,-9.584014,0.800263,2.249925,0.57492,0.25588,0.11981
1694787798382812,-9.561014,0.780263,2.249925,0.60692,0.27188,0.8781
1694787798390625,-9.534014,0.755263,2.251925,0.57392,0.30688,0.12181
1694787798398437,-9.504014,0.744263,2.231925,0.57092,0.26188,0.12381
1694787798406250,-9.480014,0.730263,2.213925,0.65492,0.22288,0.8681
1694787798414062,-9.443014,0.723263,2.213925,0.60592,0.20888,0.12081
1694787798421875,-9.425014,0.727263,2.220925,0.54092,0.22888,0.7581
1694787798429687,-9.426014,0.727263,2.224925,0.63992,0.15788,0.5481
1694787798437500,-9.430014,0.733263,2.229925,0.70492,0.10688,0.481
1694787798445312,-9.442014,0.747263,2.236925,0.70492,0.9488,0.9019
1694787798453125,-9.469014,0.761263,2.256925,0.67592,0.9088,0.9119
1694787798460937,-9.485014,0.759263,2.261925,0.72492,0.7088,0.6219
1694787798468750,-9.498014,0.761263,2.254925,0.70492,0.9488,0.10619
1694787798476562,-9.509014,0.755263,2.254925,0.72092,0.10888,0.7519
1694787798484375,-9.500014,0.750263,2.258925,0.70792,0.9088,0.10819
1694787798492187,-9.500014,0.741263,2.263925,0.71592,0.9888,0.819
1694787798500000,-9.493014,0.750263,2.258925,0.71892,0.6388,0.7319
1694787798507812,-9.487014,0.759263,2.256925,0.70692,0.9088,0.9219
1694787798515625,-9.484014,0.759263,2.249925,0.71792,0.7988,0.919
1694787798523437,-9.473014,0.767263,2.260925,0.76892,0.9288,0.12319
1694787798531250,-9.462014,0.776263,2.260925,0.82792,0.6388,0.4219
1694787798539062,-9.467014,0.776263,2.251925,0.81392,0.4388,0.381
1694787798546875,-9.467014,0.778263,2.251925,0.78292,0.7112,0.1981
1694787798554687,-9.474014,0.781263,2.245925,0.79992,0.688,0.6581
1694787798562500,-9.485014,0.792263,2.238925,0.74692,0.13112,0.8681
1694787798570312,-9.485014,0.796263,2.222925,0.73692,0.10612,0.3481
1694787798578125,-9.499014,0.797263,2.222925,0.70592,0.5912,0.6681
1694787798585937,-9.517014,0.795263,2.233925,0.72092,0.12212,0.6681
1694787798593750,-9.526014,0.804263,2.231925,0.73692,0.888,0.381
1694787798601562,-9.541014,0.802263,2.236925,0.70592,0.7112,0.4419
1694787798609375,-9.535014,0.795263,2.227925,0.78492,0.12012,0.2919
1694787798617187,-9.528014,0.813263,2.222925,0.73292,0.5112,0.3781
1694787798625000,-9.516014,0.788263,2.235925,0.71392,0.6112,0.881
1694787798632812,-9.501014,0.803263,2.254925,0.78492,0.3812,0.7619
1694787798640625,-9.503014,0.824263,2.274925,0.71692,0.3288,0.819
1694787798648437,-9.501014,0.828263,2.285925,0.71892,0.1288,0.1019
1694787798656250,-9.506014,0.835263,2.274925,0.70392,0.1288,0.2619
1694787798664062,-9.513014,0.850263,2.270925,0.70592,0.4188,0.2819
1694787798671875,-9.510014,0.850263,2.267925,0.69892,0.3012,0.4081
1694787798679687,-9.526014,0.848263,2.247925,0.70192,0.0,0.2419
1694787798687500,-9.517014,0.843263,2.222925,0.72292,0.2288,0.1319
1694787798695312,-9.520014,0.859263,2.200925,0.70792,0.2812,0.4981
1694787798703125,-9.504014,0.859263,2.202925,0.72392,0.3788,0.181
1694787798710937,-9.500014,0.856263,2.216925,0.69192,0.688,0.1319
1694787798718750,-9.500014,0.863263,2.213925,0.65892,0.5788,0.481
1694787798726562,-9.513014,0.866263,2.215925,0.67292,0.2212,0.3681
1694787798734375,-9.538014,0.855263,2.211925,0.64192,0.5312,0.5819
1694787798742187,-9.553014,0.851263,2.204925,0.65992,0.2288,0.1219
1694787798750000,-9.571014,0.851263,2.213925,0.69992,0.1888,0.2319
1694787798757812,-9.576014,0.847263,2.229925,0.70092,0.4712,0.2419
1694787798765625,-9.591014,0.843263,2.236925,0.68592,0.6588,0.7219
1694787798773437,-9.564014,0.836263,2.233925,0.71892,0.3388,0.10419
1694787798781250,-9.558014,0.851263,2.233925,0.72092,0.7888,0.12219
1694787798789062,-9.524014,0.857263,2.229925,0.67192,0.15988,0.2519
1694787798796875,-9.513014,0.866263,2.222925,0.63592,0.10088,0.619
1694787798804687,-9.495014,0.850263,2.213925,0.68692,0.9488,0.2281
1694787798812500,-9.481014,0.848263,2.211925,0.60692,0.9888,0.5419
1694787798820312,-9.486014,0.845263,2.213925,0.59192,0.1688,0.3919
1694787798828125,-9.499014,0.846263,2.218925,0.62592,0.7788,0.5719
1694787798835937,-9.506014,0.828263,2.213925,0.57792,0.7788,0.2419
1694787798843750,-9.508014,0.832263,2.193925,0.60892,0.7788,0.2519
1694787798851562,-9.515014,0.841263,2.177925,0.62192,0.6588,0.881
1694787798859375,-9.524014,0.830263,2.182925,0.70692,0.4188,0.7619
1694787798867187,-9.517014,0.835263,2.197925,0.72092,0.9088,0.1219
1694787798875000,-9.519014,0.832263,2.191925,0.70692,0.4188,0.4419
1694787798882812,-9.515014,0.830263,2.202925,0.70892,0.8688,0.4619
1694787798890625,-9.531014,0.833263,2.197925,0.70392,0.9488,0.5819
1694787798898437,-9.531014,0.830263,2.186925,0.62692,0.7588,0.7419
1694787798906250,-9.530014,0.830263,2.184925,0.67192,0.12788,0.4119
1694787798914062,-9.540014,0.844263,2.177925,0.70192,0.6588,0.5619
1694787798921875,-9.538014,0.846263,2.179925,0.72192,0.9088,0.4419
1694787798929687,-9.538014,0.855263,2.197925,0.70792,0.7288,0.6119
1694787798937500,-9.537014,0.846263,2.197925,0.71192,0.9088,0.5219
1694787798945312,-9.521014,0.846263,2.181925,0.69392,0.12488,0.3419
1694787798953125,-9.519014,0.846263,2.177925,0.71792,0.6388,0.919
1694787798960937,-9.510014,0.851263,2.168925,0.69092,0.11288,0.1581
1694787798968750,-9.506014,0.848263,2.163925,0.71492,0.2288,0.11719
1694787798976562,-9.501014,0.832263,2.154925,0.69992,0.5188,0.3919
1694787798984375,-9.496014,0.832263,2.168925,0.67892,0.7588,0.5119
1694787798992187,-9.483014,0.830263,2.197925,0.71592,0.1888,0.2319
1694787799000000,-9.476014,0.839263,2.190925,0.63292,0.7388,0.3519
1694787799007812,-9.470014,0.843263,2.199925,0.64592,0.2588,0.7781
1694787799015625,-9.474014,0.839263,2.213925,0.68392,0.1412,0.719
1694787799023437,-9.467014,0.843263,2.226925,0.53692,0.2588,0.3081
1694787799031250,-9.470014,0.841263,2.220925,0.66992,0.6512,0.781
1694787799039062,-9.461014,0.845263,2.222925,0.66892,0.7912,0.2319
1694787799046875,-9.463014,0.847263,2.224925,0.64992,0.2612,0.519
1694787799054687,-9.463014,0.856263,2.220925,0.63292,0.4112,0.1181
1694787799062500,-9.463014,0.854263,2.208925,0.56592,0.4488,0.6381
1694787799070312,-9.468014,0.852263,2.213925,0.58792,0.6112,0.4281
1694787799078125,-9.483014,0.848263,2.202925,0.60392,0.4512,0.2681
1694787799085937,-9.502014,0.850263,2.186925,0.61492,0.14112,0.4519
1694787799093750,-9.502014,0.848263,2.186925,0.64292,0.13512,0.4319
1694787799101562,-9.513014,0.839263,2.202925,0.58092,0.12012,0.2719
1694787799109375,-9.528014,0.833263,2.186925,0.61192,0.15312,0.1119
1694787799117187,-9.535014,0.831263,2.177925,0.51692,0.16812,0.2519
1694787799125000,-9.539014,0.831263,2.179925,0.63992,0.11612,0.2281
1694787799132812,-9.551014,0.831263,2.177925,0.63792,0.4712,0.2319
1694787799140625,-9.551014,0.833263,2.179925,0.63792,0.3312,0.3981
1694787799148437,-9.553014,0.833263,2.177925,0.68492,0.6312,0.719
1694787799156250,-9.550014,0.831263,2.197925,0.63592,0.1212,0.619
1694787799164062,-9.542014,0.840263,2.202925,0.57792,0.6712,0.5619
1694787799171875,-9.540014,0.842263,2.184925,0.63792,0.9812,0.2381
1694787799179687,-9.517014,0.835263,2.200925,0.65892,0.812,0.1219
1694787799187500,-9.499014,0.846263,2.200925,0.66992,0.4912,0.819
1694787799195312,-9.499014,0.841263,2.211925,0.61892,0.5288,0.5881
1694787799203125,-9.499014,0.843263,2.215925,0.70292,0.1488,0.2519
1694787799210937,-9.497014,0.846263,2.222925,0.71592,0.1688,0.2381
1694787799218750,-9.502014,0.846263,2.222925,0.70192,0.6188,0.5381
1694787799226562,-9.510014,0.841263,2.215925,0.71192,0.6988,0.7381
1694787799234375,-9.504014,0.848263,2.213925,0.65092,0.3488,0.7381
1694787799242187,-9.497014,0.850263,2.215925,0.67292,0.4388,0.581
1694787799250000,-9.501014,0.837263,2.202925,0.67392,0.5788,0.481
1694787799257812,-9.510014,0.830263,2.195925,0.68992,0.7388,0.2081
1694787799265625,-9.515014,0.830263,2.197925,0.66992,0.9888,0.5519
1694787799273437,-9.535014,0.833263,2.195925,0.65392,0.6588,0.3919
1694787799281250,-9.549014,0.831263,2.204925,0.67192,0.10888,0.3781
1694787799289062,-9.569014,0.842263,2.209925,0.63992,0.7788,0.681
1694787799296875,-9.560014,0.851263,2.213925,0.62292,0.9688,0.819
1694787799304687,-9.558014,0.855263,2.215925,0.57692,0.6388,0.3919
1694787799312500,-9.551014,0.853263,2.206925,0.67192,0.9688,0.10419
1694787799320312,-9.537014,0.842263,2.202925,0.58892,0.8788,0.8319
1694787799328125,-9.524014,0.828263,2.197925,0.60892,0.9688,0.7219
1694787799335937,-9.516014,0.819263,2.193925,0.61792,0.12288,0.8319
1694787799343750,-9.505014,0.795263,2.195925,0.57492,0.16588,0.6919
1694787799351562,-9.505014,0.794263,2.195925,0.60892,0.14188,0.2281
1694787799359375,-9.501014,0.792263,2.209925,0.68592,0.19288,0.3981
1694787799367187,-9.503014,0.788263,2.220925,0.60592,0.19488,0.2481
1694787799375000,-9.500014,0.783263,2.229925,0.60692,0.21088,0.981
1694787799382812,-9.503014,0.799263,2.231925,0.57692,0.20888,0.2319
1694787799390625,-9.494014,0.797263,2.247925,0.57592,0.22288,0.7181
1694787799398437,-9.485014,0.792263,2.260925,0.57792,0.19088,0.819
1694787799406250,-9.485014,0.799263,2.263925,0.61192,0.9088,0.1019
1694787799414062,-9.483014,0.810263,2.265925,0.66592,0.18188,0.5881
1694787799421875,-9.494014,0.817263,2.267925,0.61892,0.16588,0.4281
1694787799429687,-9.494014,0.823263,2.265925,0.54592,0.9388,0.2381
1694787799437500,-9.485014,0.828263,2.253925,0.61792,0.10188,0.5981
1694787799445312,-9.490014,0.825263,2.227925,0.64392,0.7188,0.381
1694787799453125,-9.501014,0.823263,2.229925,0.57392,0.5088,0.1081
1694787799460937,-9.512014,0.810263,2.215925,0.52992,0.9388,0.2481
1694787799468750,-9.532014,0.802263,2.186925,0.60692,0.1612,0.881
1694787799476562,-9.543014,0.791263,2.172925,0.55592,0.5288,0.5981
1694787799484375,-9.557014,0.782263,2.179925,0.46692,0.9388,0.2481
1694787799492187,-9.566014,0.778263,2.177925,0.46692,0.6088,0.5681
1694787799500000,-9.552014,0.775263,2.172925,0.47792,0.9988,0.7581
1694787799507812,-9.536014,0.782263,2.184925,0.51192,0.9788,0.2681
1694787799515625,-9.530014,0.788263,2.184925,0.46492,0.8188,0.2681
1694787799523437,-9.507014,0.793263,2.190925,0.55192,0.12488,0.1481
1694787799531250,-9.496014,0.788263,2.213925,0.54292,0.11488,0.981
1694787799539062,-9.503014,0.788263,2.213925,0.51592,0.7388,0.5481
1694787799546875,-9.501014,0.795263,2.224925,0.52592,0.6788,0.4281
1694787799554687,-9.503014,0.795263,2.222925,0.49592,0.1712,0.5781
1694787799562500,-9.514014,0.788263,2.217925,0.46592,0.3312,0.2581
1694787799570312,-9.532014,0.795263,2.195925,0.49292,0.5488,0.219
1694787799578125,-9.548014,0.800263,2.191925,0.52992,0.2888,0.5581
1694787799585937,-9.541014,0.811263,2.215925,0.44992,0.3088,0.4181
1694787799593750,-9.552014,0.800263,2.197925,0.49792,0.3512,0.5681
1694787799601562,-9.555014,0.802263,2.190925,0.43392,0.0,0.4281
1694787799609375,-9.550014,0.804263,2.184925,0.50592,0.7288,0.6281
1694787799617187,-9.543014,0.795263,2.175925,0.50992,0.5088,0.4281
1694787799625000,-9.539014,0.788263,2.168925,0.53292,0.5788,0.581
1694787799632812,-9.525014,0.777263,2.186925,0.51192,0.4888,0.2581
1694787799640625,-9.534014,0.762263,2.200925,0.48192,0.6088,0.5681
1694787799648437,-9.514014,0.759263,2.206925,0.50292,0.3888,0.3781
1694787799656250,-9.520014,0.759263,2.211925,0.44892,0.6488,0.5881
1694787799664062,-9.509014,0.766263,2.215925,0.46092,0.5288,0.7681
1694787799671875,-9.496014,0.772263,2.218925,0.45292,0.5888,0.781
1694787799679687,-9.492014,0.788263,2.215925,0.46692,0.7788,0.5681
1694787799687500,-9.487014,0.777263,2.209925,0.45092,0.3088,0.981
1694787799695312,-9.494014,0.786263,2.197925,0.47992,0.9988,0.419
1694787799703125,-9.481014,0.787263,2.200925,0.51792,0.8988,0.2519
1694787799710937,-9.492014,0.794263,2.206925,0.44992,0.8388,0.8419
1694787799718750,-9.496014,0.788263,2.206925,0.46792,0.9388,0.2319
1694787799726562,-9.501014,0.792263,2.191925,0.45692,0.3888,0.2619
1694787799734375,-9.510014,0.788263,2.197925,0.47092,0.7388,0.2519
1694787799742187,-9.512014,0.790263,2.206925,0.45292,0.4488,0.3919
1694787799750000,-9.514014,0.795263,2.213925,0.48892,0.5588,0.5819
1694787799757812,-9.510014,0.788263,2.213925,0.37692,0.2688,0.5519
1694787799765625,-9.516014,0.770263,2.209925,0.43892,0.10212,0.4019
1694787799773437,-9.514014,0.759263,2.206925,0.44192,0.4188,0.12119
1694787799781250,-9.518014,0.755263,2.195925,0.42392,0.412,0.11919
1694787799789062,-9.515014,0.735263,2.197925,0.46592,0.1412,0.8519
1694787799796875,-9.513014,0.721263,2.204925,0.45892,0.5912,0.9119
1694787799804687,-9.504014,0.726263,2.193925,0.46892,0.10012,0.5519
1694787799812500,-9.504014,0.723263,2.184925,0.45592,0.3612,0.13619
1694787799820312,-9.509014,0.721263,2.191925,0.47192,0.4112,0.5819
1694787799828125,-9.500014,0.728263,2.209925,0.43892,0.6912,0.7219
1694787799835937,-9.500014,0.735263,2.218925,0.42292,0.1812,0.15019
1694787799843750,-9.513014,0.744263,2.215925,0.36292,0.12012,0.12019
1694787799851562,-9.520014,0.744263,2.220925,0.39292,0.17012,0.4119
1694787799859375,-9.513014,0.737263,2.227925,0.45292,0.5112,0.5519
1694787799867187,-9.518014,0.724263,2.215925,0.45392,0.10212,0.4019
1694787799875000,-9.536014,0.726263,2.218925,0.46992,0.6712,0.11919
1694787799882812,-9.535014,0.726263,2.224925,0.44692,0.2412,0.8219
1694787799890625,-9.535014,0.722263,2.229925,0.46792,0.4912,0.10219
1694787799898437,-9.547014,0.733263,2.217925,0.45092,0.3312,0.5419
1694787799906250,-9.545014,0.742263,2.224925,0.48792,0.612,0.10519
1694787799914062,-9.543014,0.739263,2.218925,0.61592,0.6112,0.6219
1694787799921875,-9.542014,0.724263,2.206925,0.56592,0.812,0.4319
1694787799929687,-9.538014,0.728263,2.197925,0.59892,0.1012,0.6019
1694787799937500,-9.536014,0.715263,2.206925,0.70592,0.2212,0.2719
1694787799945312,-9.527014,0.726263,2.209925,0.62692,0.4388,0.4219
1694787799953125,-9.527014,0.735263,2.215925,0.72192,0.712,0.2819
1694787799960937,-9.513014,0.732263,2.222925,0.53492,0.4188,0.5819
1694787799968750,-9.518014,0.739263,2.213925,0.68792,0.3612,0.1019
1694787799976562,-9.516014,0.746263,2.215925,0.70692,0.5588,0.1319
1694787799984375,-9.514014,0.759263,2.213925,0.58092,0.888,0.2719
1694787799992187,-9.513014,0.757263,2.226925,0.66892,0.5188,0.5519
1694787800000000,-9.516014,0.759263,2.236925,0.61392,0.3988,0.4419
1694787800007812,-9.525014,0.775263,2.247925,0.61292,0.5588,0.1219
1694787800015625,-9.532014,0.770263,2.254925,0.66192,0.3788,0.2919
1694787800023437,-9.536014,0.764263,2.242925,0.55092,0.9088,0.9019
1694787800031250,-9.532014,0.759263,2.224925,0.59492,0.2888,0.5719
1694787800039062,-9.536014,0.759263,2.218925,0.58092,0.4188,0.4219
1694787800046875,-9.532014,0.759263,2.229925,0.58192,0.5588,0.4319
1694787800054687,-9.523014,0.748263,2.231925,0.67792,0.8688,0.6119
1694787800062500,-9.536014,0.750263,2.243925,0.69492,0.13588,0.14119
1694787800070312,-9.538014,0.753263,2.233925,0.65592,0.14588,0.10419
1694787800078125,-9.536014,0.759263,2.213925,0.61592,0.7288,0.17219
1694787800085937,-9.536014,0.762263,2.215925,0.57792,0.9688,0.10319
1694787800093750,-9.530014,0.757263,2.213925,0.60192,0.6588,0.4619
1694787800101562,-9.512014,0.761263,2.213925,0.57892,0.12288,0.5381
1694787800109375,-9.500014,0.763263,2.213925,0.48692,0.7388,0.4119
1694787800117187,-9.505014,0.766263,2.202925,0.55192,0.3988,0.9119
1694787800125000,-9.503014,0.761263,2.204925,0.46992,0.8988,0.681
1694787800132812,-9.514014,0.757263,2.215925,0.56492,0.9288,0.10519
1694787800140625,-9.529014,0.757263,2.209925,0.58092,0.9088,0.5819
1694787800148437,-9.536014,0.744263,2.218925,0.69492,0.6588,0.1519
1694787800156250,-9.536014,0.744263,2.229925,0.61992,0.8188,0.8981
1694787800164062,-9.536014,0.742263,2.224925,0.67492,0.9088,0.5919
1694787800171875,-9.539014,0.757263,2.216925,0.69392,0.7088,0.9419
1694787800179687,-9.520014,0.759263,2.218925,0.68992,0.2688,0.4319
1694787800187500,-9.505014,0.759263,2.213925,0.69292,0.3988,0.9319
1694787800195312,-9.514014,0.772263,2.215925,0.70692,0.1088,0.9119
1694787800203125,-9.500014,0.765263,2.209925,0.64492,0.10488,0.6019
1694787800210937,-9.512014,0.761263,2.209925,0.69392,0.10288,0.7719
1694787800218750,-9.511014,0.766263,2.213925,0.71892,0.9688,0.8919
1694787800226562,-9.511014,0.757263,2.224925,0.67392,0.19088,0.7419
1694787800234375,-9.521014,0.759263,2.243925,0.69392,0.10288,0.9319
1694787800242187,-9.514014,0.761263,2.220925,0.62992,0.5588,0.7619
1694787800250000,-9.507014,0.748263,2.195925,0.59492,0.11088,0.7219
1694787800257812,-9.520014,0.753263,2.199925,0.62392,0.16488,0.11819
1694787800265625,-9.516014,0.741263,2.188925,0.67392,0.20788,0.7319
1694787800273437,-9.525014,0.737263,2.170925,0.70192,0.22588,0.819
1694787800281250,-9.529014,0.717263,2.168925,0.72492,0.18488,0.7719
1694787800289062,-9.524014,0.726263,2.177925,0.70492,0.19088,0.9019
1694787800296875,-9.533014,0.722263,2.188925,0.72092,0.17488,0.5819
1694787800304687,-9.538014,0.726263,2.177925,0.70592,0.16088,0.16919
1694787800312500,-9.536014,0.724263,2.186925,0.70892,0.12388,0.17219
1694787800320312,-9.538014,0.733263,2.186925,0.70292,0.17888,0.10419
1694787800328125,-9.529014,0.757263,2.195925,0.71992,0.14388,0.8919
1694787800335937,-9.511014,0.757263,2.209925,0.70492,0.14188,0.5819
1694787800343750,-9.503014,0.781263,2.227925,0.72392,0.7488,0.10819
1694787800351562,-9.496014,0.797263,2.233925,0.73392,0.9888,0.8819
1694787800359375,-9.494014,0.803263,2.249925,0.69992,0.8488,0.5519
1694787800367187,-9.483014,0.810263,2.249925,0.71992,0.9688,0.12119
1694787800375000,-9.494014,0.797263,2.247925,0.70092,0.10088,0.7119
1694787800382812,-9.499014,0.794263,2.256925,0.62892,0.7388,0.7519
1694787800390625,-9.492014,0.790263,2.254925,0.67292,0.11088,0.7319
1694787800398437,-9.500014,0.777263,2.249925,0.59592,0.7888,0.12119
1694787800406250,-9.500014,0.761263,2.227925,0.56792,0.8888,0.12319
1694787800414062,-9.509014,0.761263,2.222925,0.52892,0.9888,0.7019
1694787800421875,-9.516014,0.768263,2.197925,0.51892,0.888,0.7419
1694787800429687,-9.521014,0.768263,2.193925,0.47192,0.9088,0.8919
1694787800437500,-9.528014,0.786263,2.209925,0.54992,0.10688,0.9019
1694787800445312,-9.532014,0.788263,2.202925,0.58092,0.5988,0.12219
1694787800453125,-9.537014,0.797263,2.209925,0.61492,0.12388,0.17119
1694787800460937,-9.539014,0.811263,2.202925,0.67492,0.9488,0.15319
1694787800468750,-9.530014,0.813263,2.211925,0.62792,0.4588,0.16919
1694787800476562,-9.519014,0.817263,2.220925,0.51892,0.12788,0.20019
1694787800484375,-9.512014,0.824263,2.233925,0.47192,0.9488,0.21519
1694787800492187,-9.501014,0.812263,2.254925,0.46492,0.4612,0.26919
1694787800500000,-9.501014,0.825263,2.281925,0.47792,0.5388,0.22019
1694787800507812,-9.501014,0.832263,2.287925,0.40892,0.3388,0.29319
1694787800515625,-9.501014,0.830263,2.290925,0.33092,0.3188,0.26119
1694787800523437,-9.495014,0.845263,2.287925,0.39392,0.9488,0.21419
1694787800531250,-9.479014,0.845263,2.308925,0.42692,0.7688,0.23219
1694787800539062,-9.461014,0.838263,2.305925,0.36092,0.7988,0.19719
1694787800546875,-9.452014,0.834263,2.305925,0.47092,0.3388,0.24619
1694787800554687,-9.456014,0.836263,2.303925,0.41992,0.3488,0.14819
1694787800562500,-9.456014,0.832263,2.292925,0.45792,0.3812,0.18519
1694787800570312,-9.456014,0.823263,2.276925,0.47492,0.712,0.18619
1694787800578125,-9.474014,0.825263,2.267925,0.45892,0.2412,0.15419
1694787800585937,-9.483014,0.823263,2.249925,0.47192,0.312,0.20019
1694787800593750,-9.499014,0.825263,2.263925,0.45892,0.5588,0.12219
1694787800601562,-9.503014,0.832263,2.258925,0.46892,0.4612,0.19719
1694787800609375,-9.515014,0.830263,2.245925,0.37692,0.10012,0.15119
1694787800617187,-9.542014,0.826263,2.251925,0.42392,0.3612,0.10319
1694787800625000,-9.546014,0.833263,2.249925,0.46892,0.4988,0.16619
1694787800632812,-9.544014,0.831263,2.262925,0.36892,0.5988,0.17519
1694787800640625,-9.542014,0.829263,2.263925,0.34192,0.3288,0.10019
1694787800648437,-9.537014,0.831263,2.276925,0.32592,0.3688,0.17819
1694787800656250,-9.517014,0.833263,2.280925,0.38592,0.10488,0.14519
1694787800664062,-9.492014,0.819263,2.281925,0.44192,0.4388,0.18419
1694787800671875,-9.478014,0.799263,2.276925,0.44092,0.6188,0.21519
1694787800679687,-9.445014,0.796263,2.267925,0.37492,0.4688,0.11719
1694787800687500,-9.451014,0.789263,2.258925,0.46592,0.3488,0.10019
1694787800695312,-9.458014,0.783263,2.245925,0.45292,0.0,0.15019
1694787800703125,-9.471014,0.787263,2.242925,0.47092,0.5312,0.10419
1694787800710937,-9.496014,0.794263,2.231925,0.42192,0.3512,0.7019
1694787800718750,-9.516014,0.797263,2.229925,0.45392,0.2012,0.4019
1694787800726562,-9.539014,0.813263,2.211925,0.43592,0.4912,0.5419
1694787800734375,-9.562014,0.818263,2.213925,0.45292,0.3712,0.2419
1694787800742187,-9.575014,0.820263,2.206925,0.45292,0.3712,0.819
1694787800750000,-9.573014,0.831263,2.211925,0.43892,0.1088,0.4019
1694787800757812,-9.566014,0.809263,2.229925,0.47392,0.2288,0.7419
1694787800765625,-9.543014,0.797263,2.242925,0.45192,0.6388,0.5419
1694787800773437,-9.525014,0.788263,2.242925,0.47192,0.2412,0.5819
1694787800781250,-9.509014,0.770263,2.251925,0.45392,0.6188,0.8719
1694787800789062,-9.498014,0.763263,2.258925,0.49992,0.3712,0.819
1694787800796875,-9.503014,0.768263,2.251925,0.56392,0.412,0.5719
1694787800804687,-9.476014,0.772263,2.260925,0.58092,0.2488,0.2719
1694787800812500,-9.480014,0.767263,2.279925,0.70892,0.5912,0.4619
1694787800820312,-9.480014,0.785263,2.263925,0.62592,0.3412,0.7319
1694787800828125,-9.485014,0.781263,2.251925,0.59392,0.2012,0.681
1694787800835937,-9.496014,0.788263,2.251925,0.60992,0.6712,0.8919
1694787800843750,-9.503014,0.788263,2.256925,0.63992,0.3088,0.819
1694787800851562,-9.501014,0.799263,2.258925,0.57992,0.4388,0.4119
1694787800859375,-9.501014,0.792263,2.251925,0.56492,0.5712,0.481
1694787800867187,-9.503014,0.794263,2.245925,0.48692,0.4112,0.581
1694787800875000,-9.508014,0.779263,2.249925,0.58392,0.4712,0.1781
1694787800882812,-9.505014,0.788263,2.258925,0.66992,0.5112,0.5481
1694787800890625,-9.500014,0.772263,2.251925,0.67292,0.3912,0.3681
1694787800898437,-9.500014,0.759263,2.245925,0.68892,0.10412,0.3581
1694787800906250,-9.500014,0.763263,2.229925,0.70492,0.12012,0.5181
1694787800914062,-9.505014,0.759263,2.222925,0.72192,0.9012,0.3481
1694787800921875,-9.507014,0.759263,2.220925,0.70192,0.1812,0.2281
1694787800929687,-9.516014,0.766263,2.220925,0.71592,0.6512,0.5481
1694787800937500,-9.521014,0.768263,2.227925,0.63992,0.3712,0.5381
1694787800945312,-9.530014,0.771263,2.222925,0.59192,0.5112,0.3981
1694787800953125,-9.534014,0.755263,2.222925,0.53292,0.812,0.2181
1694787800960937,-9.536014,0.775263,2.213925,0.51392,0.2588,0.13581
1694787800968750,-9.543014,0.762263,2.204925,0.62592,0.7112,0.3681
1694787800976562,-9.552014,0.762263,2.195925,0.57492,0.1612,0.5681
1694787800984375,-9.552014,0.753263,2.173925,0.57592,0.412,0.8681
1694787800992187,-9.563014,0.749263,2.170925,0.67392,0.612,0.1119
1694787801000000,-9.572014,0.747263,2.159925,0.65592,0.3212,0.7219
1694787801007812,-9.576014,0.745263,2.152925,0.70292,0.11088,0.2519
1694787801015625,-9.558014,0.742263,2.161925,0.68592,0.9688,0.2419
1694787801023437,-9.549014,0.753263,2.161925,0.60592,0.9888,0.619
1694787801031250,-9.541014,0.760263,2.170925,0.60592,0.11488,0.981
1694787801039062,-9.534014,0.757263,2.168925,0.65492,0.6188,0.7081
1694787801046875,-9.534014,0.755263,2.191925,0.62892,0.5588,0.381
1694787801054687,-9.543014,0.757263,2.197925,0.70192,0.11288,0.819
1694787801062500,-9.552014,0.746263,2.209925,0.72292,0.7488,0.7619
1694787801070312,-9.547014,0.738263,2.215925,0.69792,0.16588,0.981
1694787801078125,-9.529014,0.746263,2.213925,0.70492,0.5988,0.1119
1694787801085937,-9.529014,0.746263,2.233925,0.70292,0.10888,0.5381
1694787801093750,-9.523014,0.744263,2.231925,0.70492,0.5788,0.3581
1694787801101562,-9.504014,0.737263,2.211925,0.70092,0.6388,0.2281
1694787801109375,-9.509014,0.739263,2.215925,0.70292,0.11088,0.2519
1694787801117187,-9.522014,0.751263,2.195925,0.70192,0.6788,0.11919
1694787801125000,-9.518014,0.753263,2.186925,0.70092,0.14788,0.2319
1694787801132812,-9.532014,0.762263,2.191925,0.70192,0.14388,0.2281
1694787801140625,-9.539014,0.764263,2.193925,0.70792,0.7288,0.4519
1694787801148437,-9.546014,0.779263,2.206925,0.72192,0.13788,0.381
1694787801156250,-9.547014,0.771263,2.208925,0.70092,0.14788,0.7119
1694787801164062,-9.538014,0.773263,2.208925,0.71492,0.18488,0.8519
1694787801171875,-9.543014,0.766263,2.193925,0.70292,0.20988,0.2519
1694787801179687,-9.547014,0.764263,2.175925,0.71892,0.27488,0.7219
1694787801187500,-9.547014,0.751263,2.175925,0.67592,0.33488,0.9019
1694787801195312,-9.542014,0.742263,2.197925,0.69692,0.28488,0.8319
1694787801203125,-9.545014,0.738263,2.197925,0.68292,0.36288,0.8419
1694787801210937,-9.549014,0.742263,2.195925,0.69792,0.28288,0.8419
1694787801218750,-9.545014,0.740263,2.204925,0.71392,0.28288,0.6819
1694787801226562,-9.536014,0.742263,2.209925,0.71892,0.24488,0.13619
1694787801234375,-9.538014,0.744263,2.197925,0.70492,0.22388,0.9019
1694787801242187,-9.518014,0.755263,2.209925,0.78592,0.28788,0.15519
1694787801250000,-9.514014,0.768263,2.209925,0.78392,0.15888,0.7519
1694787801257812,-9.501014,0.781263,2.197925,0.75092,0.22588,0.7319
1694787801265625,-9.510014,0.790263,2.211925,0.82792,0.16288,0.5719
1694787801273437,-9.501014,0.792263,2.215925,0.82992,0.17688,0.10619
1694787801281250,-9.503014,0.795263,2.213925,0.81192,0.11288,0.2619
1694787801289062,-9.501014,0.794263,2.213925,0.78392,0.7488,0.1219
1694787801296875,-9.503014,0.799263,2.218925,0.72092,0.9288,0.7519
1694787801304687,-9.483014,0.801263,2.233925,0.77892,0.8288,0.819
1694787801312500,-9.474014,0.812263,2.222925,0.65692,0.9488,0.4119
1694787801320312,-9.472014,0.814263,2.213925,0.61992,0.8388,0.2581
1694787801328125,-9.465014,0.812263,2.233925,0.65892,0.9088,0.4319
1694787801335937,-9.454014,0.809263,2.233925,0.70892,0.912,0.9319
1694787801343750,-9.438014,0.822263,2.234925,0.63192,0.6112,0.6219
1694787801351562,-9.436014,0.829263,2.254925,0.56392,0.6912,0.4119
1694787801359375,-9.443014,0.831263,2.256925,0.61392,0.8912,0.7619
1694787801367187,-9.443014,0.829263,2.256925,0.69092,0.13612,0.6019
1694787801375000,-9.438014,0.827263,2.251925,0.64492,0.16912,0.9219
1694787801382812,-9.447014,0.829263,2.249925,0.55192,0.10412,0.15519
1694787801390625,-9.454014,0.827263,2.247925,0.62392,0.12612,0.16719
1694787801398437,-9.456014,0.814263,2.251925,0.51992,0.18112,0.21719
1694787801406250,-9.474014,0.819263,2.253925,0.45292,0.14512,0.16619
1694787801414062,-9.492014,0.826263,2.269925,0.46892,0.17812,0.15019
1694787801421875,-9.508014,0.839263,2.269925,0.45492,0.16312,0.19919
1694787801429687,-9.522014,0.846263,2.258925,0.47092,0.17912,0.18319
1694787801437500,-9.528014,0.851263,2.245925,0.45592,0.16312,0.24719
1694787801445312,-9.540014,0.857263,2.233925,0.45292,0.16312,0.10319
1694787801453125,-9.533014,0.864263,2.229925,0.47292,0.21412,0.21719
1694787801460937,-9.533014,0.862263,2.231925,0.45692,0.15112,0.15319
1694787801468750,-9.537014,0.840263,2.229925,0.46992,0.16312,0.13519
1694787801476562,-9.537014,0.833263,2.222925,0.50192,0.19612,0.15219
1694787801484375,-9.537014,0.835263,2.206925,0.48692,0.11612,0.18419
1694787801492187,-9.546014,0.829263,2.202925,0.45292,0.9812,0.8619
1694787801500000,-9.537014,0.815263,2.215925,0.45692,0.10212,0.16819
1694787801507812,-9.537014,0.808263,2.222925,0.47392,0.4012,0.12219
1694787801515625,-9.537014,0.808263,2.213925,0.45792,0.2212,0.20119
1694787801523437,-9.541014,0.815263,2.229925,0.50292,0.1288,0.18419
1694787801531250,-9.537014,0.813263,2.249925,0.52792,0.10288,0.13219
1694787801539062,-9.539014,0.811263,2.260925,0.46692,0.8688,0.21119
1694787801546875,-9.530014,0.804263,2.258925,0.58192,0.7888,0.20119
1694787801554687,-9.519014,0.795263,2.261925,0.58492,0.7288,0.15619
1694787801562500,-9.510014,0.797263,2.251925,0.49992,0.6588,0.15019
1694787801570312,-9.501014,0.794263,2.245925,0.54992,0.1088,0.8919
1694787801578125,-9.501014,0.797263,2.238925,0.62792,0.512,0.7419
1694787801585937,-9.501014,0.797263,2.229925,0.65692,0.1488,0.7319
1694787801593750,-9.499014,0.812263,2.229925,0.54792,0.1288,0.7219
1694787801601562,-9.485014,0.810263,2.215925,0.51692,0.2688,0.919
1694787801609375,-9.490014,0.819263,2.222925,0.69092,0.7112,0.6019
1694787801617187,-9.496014,0.819263,2.213925,0.65192,0.388,0.619
1694787801625000,-9.503014,0.819263,2.211925,0.67192,0.2888,0.1019
1694787801632812,-9.519014,0.828263,2.213925,0.71792,0.0,0.5619
1694787801640625,-9.517014,0.826263,2.218925,0.70292,0.4788,0.4119
1694787801648437,-9.512014,0.815263,2.213925,0.65592,0.6388,0.5619
1694787801656250,-9.528014,0.817263,2.218925,0.70592,0.4388,0.5919
1694787801664062,-9.532014,0.813263,2.204925,0.59292,0.1488,0.2419
1694787801671875,-9.524014,0.819263,2.195925,0.67192,0.2888,0.1019
1694787801679687,-9.528014,0.815263,2.195925,0.71392,0.2812,0.719
1694787801687500,-9.537014,0.811263,2.195925,0.70192,0.0,0.5619
1694787801695312,-9.537014,0.802263,2.193925,0.71692,0.3088,0.2281
1694787801703125,-9.548014,0.788263,2.195925,0.70492,0.512,0.2719
1694787801710937,-9.548014,0.795263,2.184925,0.71992,0.5312,0.2719
1694787801718750,-9.537014,0.779263,2.168925,0.74192,0.4612,0.1619
1694787801726562,-9.532014,0.773263,2.175925,0.70892,0.9412,0.1681
1694787801734375,-9.523014,0.779263,2.177925,0.70292,0.3712,0.5381
1694787801742187,-9.514014,0.790263,2.184925,0.80192,0.1212,0.3281
1694787801750000,-9.505014,0.799263,2.200925,0.79992,0.712,0.1881
1694787801757812,-9.501014,0.808263,2.193925,0.76592,0.5312,0.5281
1694787801765625,-9.499014,0.817263,2.204925,0.79392,0.13188,0.2381
1694787801773437,-9.483014,0.821263,2.213925,0.86292,0.7188,0.3381
1694787801781250,-9.499014,0.830263,2.204925,0.89392,0.3988,0.4881
1694787801789062,-9.490014,0.828263,2.197925,0.82892,0.5312,0.1981
1694787801796875,-9.499014,0.812263,2.204925,0.85892,0.2012,0.6781
1694787801804687,-9.501014,0.814263,2.188925,0.76392,0.5112,0.6981
1694787801812500,-9.501014,0.799263,2.189925,0.81692,0.6112,0.7981
1694787801820312,-9.507014,0.808263,2.190925,0.77692,0.9612,0.8681
1694787801828125,-9.514014,0.801263,2.179925,0.74592,0.14712,0.13481
1694787801835937,-9.528014,0.810263,2.173925,0.78192,0.13512,0.5181
1694787801843750,-9.533014,0.813263,2.161925,0.76992,0.9112,0.3381
1694787801851562,-9.537014,0.822263,2.161925,0.78092,0.5512,0.13181
1694787801859375,-9.546014,0.820263,2.157925,0.68392,0.3512,0.11881
1694787801867187,-9.564014,0.824263,2.161925,0.71792,0.5312,0.6881
1694787801875000,-9.573014,0.831263,2.157925,0.70292,0.3612,0.3781
1694787801882812,-9.578014,0.822263,2.155925,0.71792,0.3712,0.5381
1694787801890625,-9.580014,0.836263,2.168925,0.73392,0.988,0.10081
1694787801898437,-9.573014,0.829263,2.173925,0.70392,0.7588,0.3781
1694787801906250,-9.571014,0.831263,2.179925,0.71792,0.212,0.681
1694787801914062,-9.550014,0.829263,2.166925,0.76092,0.488,0.719
1694787801921875,-9.542014,0.815263,2.175925,0.79992,0.888,0.1881
1694787801929687,-9.535014,0.810263,2.173925,0.70492,0.2412,0.5181
1694787801937500,-9.523014,0.804263,2.182925,0.77892,0.11288,0.5481
1694787801945312,-9.498014,0.810263,2.190925,0.71292,0.6988,0.4181
1694787801953125,-9.503014,0.817263,2.206925,0.74892,0.6188,0.5381
1694787801960937,-9.501014,0.830263,2.206925,0.73092,0.14788,0.4081
1694787801968750,-9.501014,0.830263,2.213925,0.69992,0.8188,0.2481
1694787801976562,-9.497014,0.830263,2.220925,0.70092,0.4688,0.3881
1694787801984375,-9.499014,0.832263,2.211925,0.72092,0.5588,0.6681
1694787801992187,-9.501014,0.828263,2.204925,0.68892,0.5788,0.5281
1694787802000000,-9.508014,0.817263,2.193925,0.69292,0.3488,0.3281
1694787802007812,-9.519014,0.808263,2.188925,0.57692,0.6188,0.5581
1694787802015625,-9.528014,0.804263,2.182925,0.57692,0.4488,0.3981
1694787802023437,-9.544014,0.804263,2.173925,0.71892,0.9288,0.2081
1694787802031250,-9.564014,0.816263,2.168925,0.69792,0.8188,0.12081
1694787802039062,-9.575014,0.804263,2.166925,0.68492,0.7788,0.10281
1694787802046875,-9.573014,0.802263,2.181925,0.71492,0.11488,0.5681
1694787802054687,-9.580014,0.809263,2.202925,0.73292,0.12688,0.7081
1694787802062500,-9.568014,0.807263,2.191925,0.70092,0.7988,0.3981
1694787802070312,-9.555014,0.802263,2.182925,0.70792,0.8688,0.1881
1694787802078125,-9.546014,0.791263,2.166925,0.71892,0.9288,0.5381
1694787802085937,-9.525014,0.773263,2.161925,0.68492,0.12888,0.3981
1694787802093750,-9.505014,0.754263,2.137925,0.65592,0.14188,0.3881
1694787802101562,-9.496014,0.766263,2.159925,0.68292,0.22988,0.5781
1694787802109375,-9.486014,0.752263,2.161925,0.69792,0.13288,0.4181
1694787802117187,-9.491014,0.757263,2.146925,0.71692,0.15988,0.5481
1694787802125000,-9.493014,0.752263,2.179925,0.70392,0.14188,0.581
1694787802132812,-9.507014,0.759263,2.177925,0.70492,0.17488,0.4219
1694787802140625,-9.530014,0.779263,2.177925,0.71592,0.16388,0.2319
1694787802148437,-9.521014,0.788263,2.184925,0.70092,0.9688,0.5581
1694787802156250,-9.517014,0.797263,2.197925,0.81292,0.9288,0.3581
1694787802164062,-9.507014,0.797263,2.208925,0.85592,0.9888,0.3881
1694787802171875,-9.501014,0.799263,2.218925,0.77892,0.3088,0.6981
1694787802179687,-9.487014,0.814263,2.227925,0.76092,0.11488,0.8781
1694787802187500,-9.472014,0.807263,2.231925,0.84192,0.7788,0.11681
1694787802195312,-9.465014,0.803263,2.224925,0.72592,0.11888,0.13881
1694787802203125,-9.460014,0.796263,2.218925,0.71592,0.2888,0.16581
1694787802210937,-9.469014,0.794263,2.224925,0.70092,0.6188,0.10281
1694787802218750,-9.485014,0.797263,2.229925,0.71392,0.8188,0.8881
1694787802226562,-9.496014,0.790263,2.224925,0.71592,0.1388,0.10281
1694787802234375,-9.503014,0.792263,2.202925,0.76092,0.1888,0.5581
1694787802242187,-9.528014,0.795263,2.197925,0.76392,0.6188,0.6981
1694787802250000,-9.543014,0.797263,2.197925,0.71592,0.212,0.8681
1694787802257812,-9.548014,0.797263,2.191925,0.69992,0.1388,0.8681
1694787802265625,-9.546014,0.795263,2.188925,0.72192,0.1012,0.6681
1694787802273437,-9.539014,0.797263,2.186925,0.70292,0.4288,0.5281
1694787802281250,-9.530014,0.786263,2.177925,0.72192,0.3988,0.1881
1694787802289062,-9.521014,0.797263,2.177925,0.70092,0.4688,0.3881
1694787802296875,-9.525014,0.795263,2.193925,0.71492,0.4712,0.5581
1694787802304687,-9.527014,0.784263,2.193925,0.65392,0.3088,0.3981
1694787802312500,-9.534014,0.791263,2.206925,0.70392,0.9288,0.1019
1694787802320312,-9.539014,0.797263,2.206925,0.72192,0.2488,0.1219
1694787802328125,-9.532014,0.813263,2.200925,0.71592,0.11288,0.5581
1694787802335937,-9.523014,0.804263,2.197925,0.65592,0.2888,0.3881
1694787802343750,-9.526014,0.817263,2.202925,0.64192,0.9288,0.4219
1694787802351562,-9.510014,0.810263,2.188925,0.56292,0.7788,0.4019
1694787802359375,-9.499014,0.823263,2.191925,0.50192,0.10888,0.10419
1694787802367187,-9.492014,0.814263,2.179925,0.45592,0.7388,0.7319
1694787802375000,-9.492014,0.810263,2.155925,0.47092,0.7388,0.4119
1694787802382812,-9.501014,0.801263,2.168925,0.45792,0.5388,0.1119
1694787802390625,-9.505014,0.794263,2.161925,0.47292,0.7188,0.4219
1694787802398437,-9.516014,0.792263,2.168925,0.45492,0.5988,0.8819
1694787802406250,-9.519014,0.777263,2.155925,0.47192,0.10688,0.7319
1694787802414062,-9.532014,0.780263,2.184925,0.47992,0.8588,0.8319
1694787802421875,-9.538014,0.760263,2.200925,0.48292,0.11288,0.3819
1694787802429687,-9.536014,0.750263,2.195925,0.59692,0.5588,0.3681
1694787802437500,-9.536014,0.746263,2.195925,0.48392,0.6188,0.719
1694787802445312,-9.536014,0.742263,2.211925,0.59892,0.2088,0.1319
1694787802453125,-9.523014,0.748263,2.211925,0.55292,0.5188,0.1319
1694787802460937,-9.505014,0.761263,2.213925,0.54992,0.5788,0.5819
1694787802468750,-9.487014,0.759263,2.202925,0.56692,0.5912,0.1219
1694787802476562,-9.473014,0.763263,2.200925,0.45492,0.4288,0.8819
1694787802484375,-9.473014,0.774263,2.213925,0.54492,0.9688,0.2319
1694787802492187,-9.471014,0.772263,2.215925,0.54592,0.6188,0.3981
1694787802500000,-9.456014,0.769263,2.213925,0.53492,0.12088,0.5819
1694787802507812,-9.464014,0.769263,2.215925,0.60892,0.9488,0.781
1694787802515625,-9.485014,0.768263,2.213925,0.49692,0.9588,0.2581
1694787802523437,-9.498014,0.779263,2.224925,0.57792,0.1288,0.919
1694787802531250,-9.514014,0.766263,2.218925,0.60792,0.212,0.819
1694787802539062,-9.521014,0.770263,2.218925,0.63792,0.12888,0.2481
1694787802546875,-9.539014,0.777263,2.220925,0.49892,0.1188,0.5581
1694787802554687,-9.554014,0.775263,2.218925,0.53192,0.2012,0.2419
1694787802562500,-9.541014,0.788263,2.204925,0.53292,0.3912,0.681
1694787802570312,-9.552014,0.784263,2.195925,0.45392,0.788,0.5481
1694787802578125,-9.541014,0.768263,2.193925,0.47092,0.2488,0.2519
1694787802585937,-9.543014,0.780263,2.182925,0.45292,0.4488,0.719
1694787802593750,-9.532014,0.777263,2.184925,0.54392,0.0,0.981
1694787802601562,-9.516014,0.786263,2.175925,0.54292,0.188,0.519
1694787802609375,-9.507014,0.781263,2.195925,0.47992,0.5088,0.419
1694787802617187,-9.505014,0.772263,2.186925,0.44992,0.188,0.5219
1694787802625000,-9.502014,0.773263,2.193925,0.49492,0.4312,0.5119
1694787802632812,-9.509014,0.779263,2.217925,0.52592,0.2088,0.419
1694787802640625,-9.511014,0.777263,2.213925,0.44492,0.3888,0.2981
1694787802648437,-9.502014,0.772263,2.226925,0.59092,0.1412,0.5419
1694787802656250,-9.507014,0.783263,2.222925,0.51492,0.7788,0.719
1694787802664062,-9.516014,0.773263,2.224925,0.46292,0.5288,0.1281
1694787802671875,-9.514014,0.773263,2.227925,0.48292,0.6388,0.3819
1694787802679687,-9.514014,0.779263,2.227925,0.51792,0.2212,0.5719
1694787802687500,-9.523014,0.784263,2.215925,0.47092,0.612,0.4119
1694787802695312,-9.523014,0.788263,2.213925,0.45292,0.11088,0.7119
1694787802703125,-9.516014,0.793263,2.220925,0.46792,0.6188,0.2319
1694787802710937,-9.503014,0.781263,2.224925,0.45192,0.1488,0.5419
1694787802718750,-9.505014,0.763263,2.227925,0.45392,0.2012,0.7219
1694787802726562,-9.500014,0.763263,2.222925,0.46792,0.3512,0.5519
1694787802734375,-9.502014,0.750263,2.215925,0.45292,0.2012,0.2419
1694787802742187,-9.509014,0.741263,2.204925,0.46992,0.5512,0.681
1694787802750000,-9.502014,0.734263,2.197925,0.45592,0.812,0.4119
1694787802757812,-9.518014,0.735263,2.209925,0.48292,0.212,0.2319
1694787802765625,-9.518014,0.753263,2.209925,0.54892,0.5512,0.4219
1694787802773437,-9.527014,0.748263,2.197925,0.51992,0.4212,0.4319
1694787802781250,-9.541014,0.748263,2.195925,0.48492,0.4288,0.819
1694787802789062,-9.547014,0.751263,2.186925,0.53292,0.2212,0.919
1694787802796875,-9.552014,0.762263,2.175925,0.49992,0.8812,0.5481
1694787802804687,-9.557014,0.771263,2.186925,0.45292,0.988,0.5581
1694787802812500,-9.566014,0.784263,2.188925,0.45492,0.10612,0.3781
1694787802820312,-9.573014,0.791263,2.175925,0.46692,0.2112,0.5681
1694787802828125,-9.573014,0.802263,2.184925,0.45492,0.10412,0.681
1694787802835937,-9.584014,0.809263,2.197925,0.46992,0.7112,0.919
1694787802843750,-9.582014,0.820263,2.188925,0.34492,0.10412,0.2419
1694787802851562,-9.578014,0.815263,2.191925,0.40892,0.5912,0.5381
1694787802859375,-9.566014,0.800263,2.209925,0.43592,0.5112,0.2581
1694787802867187,-9.564014,0.798263,2.204925,0.42392,0.2888,0.13519
1694787802875000,-9.550014,0.780263,2.216925,0.49092,0.3788,0.10819
1694787802882812,-9.521014,0.768263,2.218925,0.37992,0.7188,0.10519
1694787802890625,-9.511014,0.748263,2.209925,0.33292,0.10488,0.12019
1694787802898437,-9.511014,0.739263,2.224925,0.47192,0.5788,0.8919
1694787802906250,-9.502014,0.744263,2.238925,0.45292,0.4688,0.7019
1694787802914062,-9.505014,0.730263,2.231925,0.47592,0.3488,0.6019
1694787802921875,-9.518014,0.735263,2.227925,0.46892,0.4788,0.8619
1694787802929687,-9.527014,0.744263,2.247925,0.51792,0.5788,0.1019
1694787802937500,-9.534014,0.757263,2.265925,0.51692,0.5988,0.4119
1694787802945312,-9.534014,0.759263,2.267925,0.55092,0.4188,0.7419
1694787802953125,-9.520014,0.762263,2.249925,0.46992,0.4488,0.7119
1694787802960937,-9.516014,0.759263,2.233925,0.53492,0.4188,0.7419
1694787802968750,-9.516014,0.759263,2.229925,0.48992,0.488,0.4419
1694787802976562,-9.498014,0.759263,2.218925,0.45692,0.7188,0.5819
1694787802984375,-9.482014,0.745263,2.202925,0.45692,0.888,0.10519
1694787802992187,-9.477014,0.730263,2.208925,0.48092,0.5088,0.3619
1694787803000000,-9.482014,0.721263,2.202925,0.46992,0.4788,0.13419
1694787803007812,-9.477014,0.708263,2.190925,0.45192,0.6388,0.5419
1694787803015625,-9.479014,0.705263,2.184925,0.46992,0.7788,0.11919
1694787803023437,-9.493014,0.697263,2.182925,0.58292,0.5588,0.5919
1694787803031250,-9.499014,0.694263,2.177925,0.59992,0.288,0.181
1694787803039062,-9.517014,0.699263,2.191925,0.51892,0.1012,0.481
1694787803046875,-9.526014,0.706263,2.204925,0.65592,0.1488,0.2519
1694787803054687,-9.522014,0.706263,2.195925,0.67792,0.488,0.3019
1694787803062500,-9.522014,0.713263,2.191925,0.65892,0.3812,0.2719
1694787803070312,-9.511014,0.723263,2.184925,0.72592,0.5388,0.9419
1694787803078125,-9.502014,0.737263,2.193925,0.67492,0.11812,0.7519
1694787803085937,-9.511014,0.748263,2.202925,0.64492,0.2212,0.12319
1694787803093750,-9.521014,0.757263,2.206925,0.70992,0.4212,0.9419
1694787803101562,-9.527014,0.761263,2.204925,0.63092,0.9112,0.4519
1694787803109375,-9.536014,0.755263,2.200925,0.63192,0.2812,0.7819
1694787803117187,-9.543014,0.751263,2.209925,0.58092,0.2212,0.9019
1694787803125000,-9.559014,0.744263,2.198925,0.60192,0.6312,0.4619
1694787803132812,-9.552014,0.749263,2.213925,0.58292,0.4212,0.2819
1694787803140625,-9.551014,0.735263,2.213925,0.59292,0.4788,0.5619
1694787803148437,-9.525014,0.726263,2.213925,0.70992,0.1112,0.6219
1694787803156250,-9.525014,0.724263,2.215925,0.59992,0.912,0.9219
1694787803164062,-9.513014,0.726263,2.209925,0.59692,0.1088,0.9019
1694787803171875,-9.506014,0.728263,2.208925,0.54392,0.1888,0.3719
1694787803179687,-9.520014,0.724263,2.215925,0.58292,0.3988,0.6019
1694787803187500,-9.517014,0.710263,2.227925,0.67392,0.6188,0.10619
1694787803195312,-9.536014,0.722263,2.234925,0.71092,0.488,0.9419
1694787803203125,-9.545014,0.719263,2.231925,0.61592,0.3788,0.6119
1694787803210937,-9.547014,0.722263,2.234925,0.66292,0.1112,0.6219
1694787803218750,-9.545014,0.731263,2.238925,0.63392,0.11588,0.11119
1694787803226562,-9.534014,0.737263,2.236925,0.66292,0.5388,0.7719
1694787803234375,-9.538014,0.749263,2.229925,0.68192,0.12088,0.8419
1694787803242187,-9.529014,0.746263,2.240925,0.72092,0.7688,0.5919
1694787803250000,-9.520014,0.746263,2.240925,0.70492,0.7888,0.9019
1694787803257812,-9.536014,0.744263,2.231925,0.71092,0.6888,0.9519
1694787803265625,-9.529014,0.744263,2.218925,0.68992,0.9288,0.7419
1694787803273437,-9.520014,0.737263,2.213925,0.72092,0.7388,0.381
1694787803281250,-9.518014,0.732263,2.215925,0.69092,0.10688,0.7519
1694787803289062,-9.518014,0.728263,2.220925,0.68792,0.5988,0.3781
1694787803296875,-9.506014,0.723263,2.222925,0.65892,0.5988,0.5819
1694787803304687,-9.497014,0.723263,2.215925,0.67092,0.1488,0.919
1694787803312500,-9.486014,0.723263,2.211925,0.57992,0.5988,0.2519
1694787803320312,-9.491014,0.727263,2.216925,0.56892,0.288,0.1419
1694787803328125,-9.489014,0.723263,2.216925,0.67892,0.288,0.1519
1694787803335937,-9.493014,0.726263,2.209925,0.59292,0.412,0.2281
1694787803343750,-9.500014,0.723263,2.206925,0.56292,0.4488,0.2419
1694787803351562,-9.500014,0.741263,2.197925,0.51992,0.2088,0.381
1694787803359375,-9.502014,0.748263,2.182925,0.48792,0.4312,0.1119
1694787803367187,-9.498014,0.741263,2.175925,0.46792,0.8612,0.2381
1694787803375000,-9.507014,0.750263,2.164925,0.58292,0.10812,0.381
1694787803382812,-9.520014,0.748263,2.170925,0.45292,0.7212,0.5481
1694787803390625,-9.513014,0.741263,2.177925,0.46992,0.12112,0.3881
1694787803398437,-9.516014,0.735263,2.155925,0.45892,0.19012,0.4419
1694787803406250,-9.536014,0.735263,2.148925,0.47492,0.17612,0.2919
1694787803414062,-9.536014,0.742263,2.150925,0.47092,0.16812,0.7319
1694787803421875,-9.542014,0.728263,2.128925,0.45692,0.18612,0.9019
1694787803429687,-9.560014,0.738263,2.121925,0.43892,0.16512,0.12019
1694787803437500,-9.558014,0.722263,2.132925,0.46792,0.7912,0.14919
1694787803445312,-9.556014,0.724263,2.130925,0.46992,0.10012,0.10319
1694787803453125,-9.553014,0.727263,2.123925,0.45192,0.12912,0.10219
1694787803460937,-9.545014,0.735263,2.132925,0.54792,0.16312,0.15219
1694787803468750,-9.536014,0.731263,2.139925,0.50092,0.13312,0.8819
1694787803476562,-9.524014,0.742263,2.143925,0.45192,0.17812,0.11819
1694787803484375,-9.534014,0.748263,2.141925,0.47092,0.16512,0.13619
1694787803492187,-9.543014,0.757263,2.157925,0.46092,0.19012,0.15619
1694787803500000,-9.556014,0.762263,2.157925,0.45692,0.12012,0.10519
1694787803507812,-9.552014,0.760263,2.168925,0.47192,0.10412,0.8919
1694787803515625,-9.549014,0.762263,2.184925,0.37292,0.4512,0.17919
1694787803523437,-9.552014,0.760263,2.195925,0.38992,0.9612,0.18119
1694787803531250,-9.554014,0.764263,2.197925,0.40992,0.8512,0.18419
1694787803539062,-9.547014,0.751263,2.193925,0.29892,0.3412,0.18119
1694787803546875,-9.534014,0.735263,2.209925,0.42592,0.10212,0.21619
1694787803554687,-9.517014,0.731263,2.204925,0.43692,0.19212,0.19719
1694787803562500,-9.499014,0.717263,2.215925,0.44992,0.10812,0.13119
1694787803570312,-9.497014,0.719263,2.213925,0.46992,0.13312,0.12019
1694787803578125,-9.488014,0.712263,2.215925,0.45092,0.8012,0.10119
1694787803585937,-9.488014,0.717263,2.204925,0.47392,0.7112,0.20119
1694787803593750,-9.502014,0.726263,2.204925,0.44992,0.1412,0.6919
1694787803601562,-9.497014,0.721263,2.213925,0.46592,0.4512,0.11619
1694787803609375,-9.497014,0.724263,2.215925,0.43392,0.2612,0.16319
1694787803617187,-9.500014,0.728263,2.217925,0.45292,0.8112,0.13419
1694787803625000,-9.506014,0.719263,2.215925,0.46992,0.14912,0.10419
1694787803632812,-9.515014,0.719263,2.200925,0.45892,0.18812,0.10719
1694787803640625,-9.533014,0.726263,2.181925,0.46892,0.14712,0.11919
1694787803648437,-9.540014,0.719263,2.166925,0.45792,0.17212,0.5919
1694787803656250,-9.553014,0.724263,2.159925,0.46592,0.17612,0.10119
1694787803664062,-9.565014,0.731263,2.164925,0.48792,0.17012,0.5819
1694787803671875,-9.583014,0.736263,2.159925,0.45792,0.15312,0.13819
1694787803679687,-9.588014,0.742263,2.148925,0.50792,0.15912,0.12519
1694787803687500,-9.579014,0.749263,2.141925,0.53292,0.612,0.4119
1694787803695312,-9.570014,0.753263,2.143925,0.55392,0.5388,0.14019
1694787803703125,-9.586014,0.754263,2.143925,0.53492,0.2688,0.13719
1694787803710937,-9.585014,0.745263,2.148925,0.55192,0.4188,0.12219
1694787803718750,-9.579014,0.747263,2.137925,0.56692,0.4388,0.17019
1694787803726562,-9.565014,0.762263,2.152925,0.53192,0.6188,0.8819
1694787803734375,-9.565014,0.760263,2.150925,0.48292,0.3088,0.3919
1694787803742187,-9.559014,0.764263,2.119925,0.50192,0.4288,0.4119
1694787803750000,-9.559014,0.762263,2.146925,0.48392,0.11088,0.5519
1694787803757812,-9.554014,0.767263,2.161925,0.44692,0.8788,0.6619
1694787803765625,-9.543014,0.779263,2.148925,0.48992,0.8688,0.7519
1694787803773437,-9.534014,0.773263,2.170925,0.36292,0.12288,0.15219
1694787803781250,-9.528014,0.779263,2.184925,0.41292,0.13788,0.20119
1694787803789062,-9.523014,0.773263,2.204925,0.47592,0.5788,0.25019
1694787803796875,-9.514014,0.757263,2.218925,0.45792,0.9288,0.23219
1694787803804687,-9.516014,0.759263,2.206925,0.47592,0.17088,0.21819
1694787803812500,-9.512014,0.755263,2.213925,0.47692,0.20388,0.28219
1694787803820312,-9.514014,0.761263,2.245925,0.46092,0.28388,0.23419
1694787803828125,-9.514014,0.762263,2.272925,0.49892,0.36088,0.21219
1694787803835937,-9.494014,0.774263,2.292925,0.65792,0.30988,0.21519
1694787803843750,-9.498014,0.766263,2.292925,0.66192,0.20588,0.20319
1694787803851562,-9.473014,0.770263,2.260925,0.51492,0.22988,0.19719
1694787803859375,-9.473014,0.756263,2.224925,0.60892,0.16188,0.10319
1694787803867187,-9.475014,0.759263,2.209925,0.71892,0.11088,0.4219
1694787803875000,-9.482014,0.750263,2.202925,0.70092,0.6788,0.8719
1694787803882812,-9.480014,0.734263,2.191925,0.70492,0.7688,0.4319
1694787803890625,-9.486014,0.732263,2.177925,0.73392,0.6388,0.5719
1694787803898437,-9.500014,0.730263,2.170925,0.76492,0.6388,0.4119
1694787803906250,-9.513014,0.735263,2.186925,0.79392,0.5188,0.4019
1694787803914062,-9.520014,0.750263,2.184925,0.74992,0.3188,0.5819
1694787803921875,-9.534014,0.766263,2.173925,0.70492,0.4388,0.4319
1694787803929687,-9.543014,0.775263,2.168925,0.71592,0.2812,0.8719
1694787803937500,-9.536014,0.786263,2.166925,0.70192,0.0,0.5619
1694787803945312,-9.519014,0.793263,2.168925,0.71892,0.4812,0.7319
1694787803953125,-9.521014,0.795263,2.163925,0.70092,0.3488,0.5519
1694787803960937,-9.519014,0.803263,2.175925,0.71092,0.1888,0.6319
1694787803968750,-9.519014,0.812263,2.168925,0.72192,0.2212,0.4419
1694787803976562,-9.528014,0.813263,2.177925,0.70892,0.2612,0.7719
1694787803984375,-9.539014,0.815263,2.175925,0.72192,0.5212,0.10719
1694787803992187,-9.535014,0.811263,2.168925,0.70392,0.3212,0.13719
1694787804000000,-9.552014,0.800263,2.177925,0.71992,0.1512,0.16919
1694787804007812,-9.562014,0.795263,2.179925,0.69292,0.5612,0.12519
1694787804015625,-9.559014,0.793263,2.186925,0.70492,0.112,0.13719
1694787804023437,-9.546014,0.815263,2.202925,0.72492,0.7312,0.12519
1694787804031250,-9.533014,0.819263,2.191925,0.65892,0.312,0.10619
1694787804039062,-9.521014,0.817263,2.184925,0.66992,0.0,0.2419
1694787804046875,-9.510014,0.830263,2.195925,0.67292,0.5312,0.4219
1694787804054687,-9.506014,0.808263,2.189925,0.60292,0.4812,0.7919
1694787804062500,-9.501014,0.814263,2.200925,0.48792,0.5512,0.8919
1694787804070312,-9.501014,0.799263,2.193925,0.52092,0.5912,0.6019
1694787804078125,-9.501014,0.794263,2.207925,0.46092,0.4612,0.9319
1694787804085937,-9.503014,0.792263,2.211925,0.47592,0.5912,0.15519
1694787804093750,-9.510014,0.772263,2.209925,0.46392,0.1512,0.15819
1694787804101562,-9.514014,0.775263,2.211925,0.47392,0.5788,0.16919
1694787804109375,-9.523014,0.775263,2.213925,0.45592,0.2488,0.5719
1694787804117187,-9.523014,0.777263,2.224925,0.47192,0.3812,0.10519
1694787804125000,-9.532014,0.777263,2.222925,0.45992,0.1212,0.9219
1694787804132812,-9.534014,0.773263,2.227925,0.54892,0.5988,0.8919
1694787804140625,-9.529014,0.773263,2.222925,0.57792,0.4912,0.10319
1694787804148437,-9.541014,0.768263,2.218925,0.59892,0.4212,0.7619
1694787804156250,-9.536014,0.757263,2.211925,0.61792,0.4612,0.9519
1694787804164062,-9.521014,0.757263,2.200925,0.67792,0.7512,0.6119
1694787804171875,-9.509014,0.755263,2.182925,0.62592,0.1088,0.3781
1694787804179687,-9.500014,0.741263,2.177925,0.65392,0.3288,0.881
1694787804187500,-9.502014,0.752263,2.170925,0.59292,0.4488,0.681
1694787804195312,-9.500014,0.748263,2.161925,0.57892,0.612,0.581
1694787804203125,-9.514014,0.750263,2.139925,0.57792,0.2888,0.919
1694787804210937,-9.538014,0.760263,2.148925,0.57192,0.388,0.5881
1694787804218750,-9.570014,0.760263,2.132925,0.64492,0.2812,0.3381
1694787804226562,-9.599014,0.760263,2.130925,0.55892,0.7988,0.7281
1694787804234375,-9.610014,0.761263,2.123925,0.67292,0.1088,0.2081
1694787804242187,-9.626014,0.759263,2.128925,0.57792,0.4488,0.819
1694787804250000,-9.624014,0.754263,2.141925,0.60892,0.7788,0.2519
1694787804257812,-9.613014,0.756263,2.152925,0.66192,0.8888,0.10819
1694787804265625,-9.603014,0.758263,2.157925,0.68292,0.8588,0.2119
1694787804273437,-9.586014,0.760263,2.161925,0.68592,0.17888,0.4019
1694787804281250,-9.574014,0.765263,2.164925,0.65692,0.19288,0.7219
1694787804289062,-9.577014,0.765263,2.179925,0.68392,0.22988,0.2219
1694787804296875,-9.572014,0.758263,2.208925,0.71592,0.21388,0.3919
1694787804304687,-9.565014,0.762263,2.213925,0.70192,0.17888,0.4019
1694787804312500,-9.559014,0.766263,2.215925,0.68992,0.25288,0.1119
1694787804320312,-9.550014,0.773263,2.213925,0.72192,0.31788,0.2719
1694787804328125,-9.543014,0.771263,2.213925,0.70692,0.26688,0.2819
1694787804335937,-9.530014,0.784263,2.204925,0.72292,0.31388,0.281
1694787804343750,-9.514014,0.786263,2.193925,0.70492,0.23588,0.2081
1694787804351562,-9.501014,0.786263,2.177925,0.71792,0.23988,0.5481
1694787804359375,-9.508014,0.788263,2.166925,0.73792,0.28288,0.381
1694787804367187,-9.523014,0.784263,2.150925,0.70692,0.20388,0.6019
1694787804375000,-9.526014,0.790263,2.143925,0.70792,0.31588,0.7619
1694787804382812,-9.539014,0.797263,2.155925,0.65892,0.36688,0.7419
1694787804390625,-9.559014,0.795263,2.159925,0.59392,0.33888,0.7219
1694787804398437,-9.555014,0.798263,2.152925,0.66992,0.45688,0.10219
1694787804406250,-9.559014,0.793263,2.143925,0.61292,0.39988,0.12119
1694787804414062,-9.548014,0.795263,2.177925,0.60692,0.34188,0.3819
1694787804421875,-9.545014,0.780263,2.200925,0.48392,0.39188,0.16419
1694787804429687,-9.532014,0.773263,2.215925,0.59192,0.37488,0.11719
1694787804437500,-9.516014,0.761263,2.213925,0.62492,0.34088,0.11919
1694787804445312,-9.505014,0.752263,2.227925,0.67292,0.35488,0.8819
1694787804453125,-9.486014,0.748263,2.233925,0.70092,0.34488,0.11819
1694787804460937,-9.471014,0.752263,2.231925,0.71492,0.36288,0.8519
1694787804468750,-9.446014,0.760263,2.231925,0.69892,0.29788,0.6919
1694787804476562,-9.424014,0.760263,2.226925,0.71592,0.14988,0.8619
1694787804484375,-9.415014,0.769263,2.235925,0.73292,0.18088,0.7119
1694787804492187,-9.411014,0.778263,2.238925,0.73692,0.17488,0.9019
1694787804500000,-9.426014,0.782263,2.236925,0.77892,0.8288,0.819
1694787804507812,-9.426014,0.787263,2.218925,0.73592,0.9488,0.9019
1694787804515625,-9.447014,0.789263,2.215925,0.73192,0.8288,0.2419
1694787804523437,-9.472014,0.794263,2.206925,0.75192,0.9288,0.5919
1694787804531250,-9.503014,0.797263,2.204925,0.73792,0.5988,0.9119
1694787804539062,-9.521014,0.795263,2.200925,0.90892,0.10988,0.6119
1694787804546875,-9.539014,0.802263,2.195925,0.79592,0.6588,0.5719
1694787804554687,-9.568014,0.813263,2.195925,0.85892,0.9888,0.10519
1694787804562500,-9.573014,0.816263,2.204925,0.81192,0.11388,0.5819
1694787804570312,-9.571014,0.816263,2.200925,0.73492,0.12988,0.10519
1694787804578125,-9.564014,0.829263,2.197925,0.85892,0.9688,0.4219
1694787804585937,-9.553014,0.833263,2.200925,0.87292,0.9888,0.681
1694787804593750,-9.533014,0.828263,2.218925,0.84392,0.8088,0.7419
1694787804601562,-9.519014,0.830263,2.209925,0.78292,0.4588,0.4319
1694787804609375,-9.513014,0.846263,2.227925,0.76392,0.6588,0.5619
1694787804617187,-9.483014,0.848263,2.227925,0.74692,0.11488,0.2381
1694787804625000,-9.483014,0.839263,2.227925,0.70092,0.4988,0.781
