time,Acceleration X (m/s^2),Acceleration Y (m/s^2),Acceleration Z (m/s^2),Angular Velocity X (rad/s),Angular Velocity Y (rad/s),Angular Velocity Z (rad/s)
1694787752710937,-9.552071,2.100818,-0.005951,,,
1694787752718750,-9.549071,0.764467,2.116818,0.56535,0.8151,0.1476
1694787752726562,-9.549071,0.771467,2.118818,0.45735,0.6051,0.1724
1694787752734375,-9.549071,0.780467,2.123818,0.57035,0.1051,0.4976
1694787752742187,-9.536071,0.778467,2.127818,0.58035,0.151,0.2976
1694787752750000,-9.536071,0.760467,2.114818,0.50835,0.2451,0.4976
1694787752765625,-9.531071,0.758467,2.116818,0.57735,0.2749,0.1924
1694787752773437,-9.536071,0.762467,2.98818,0.61335,0.1451,0.1676
1694787752781250,-9.536071,0.766467,2.98818,0.59935,0.7751,0.1676
1694787752789062,-9.547071,0.757467,2.87818,0.66435,0.849,0.2824
1694787752812500,-9.572071,0.760467,2.91818,0.59935,0.10851,0.176
1694787752820312,-9.574071,0.762467,2.87818,0.64435,0.11051,0.6324
1694787752828125,-9.576071,0.760467,2.66818,0.58235,0.9651,0.1576
1694787752835937,-9.563071,0.760467,2.75818,0.64735,0.9251,0.176
1694787752843750,-9.569071,0.754467,2.93818,0.62535,0.13251,0.224
1694787752851562,-9.554071,0.764467,2.82818,0.55335,0.7351,0.3024
1694787752859375,-9.549071,0.758467,2.84818,0.62835,0.7951,0.0
1694787752867187,-9.533071,0.764467,2.82818,0.67335,0.3451,0.3324
1694787752875000,-9.533071,0.755467,2.84818,0.70735,0.3251,0.6476
1694787752882812,-9.533071,0.760467,2.89818,0.59935,0.14151,0.76
1694787752890625,-9.536071,0.766467,2.96818,0.61935,0.5351,0.2724
1694787752898437,-9.525071,0.768467,2.96818,0.70835,0.7551,0.6124
1694787752906250,-9.525071,0.761467,2.91818,0.65235,0.4951,0.4024
1694787752914062,-9.518071,0.759467,2.94818,0.70235,0.6151,0.5424
1694787752921875,-9.518071,0.755467,2.89818,0.68135,0.3651,0.4224
1694787752929687,-9.518071,0.748467,2.80818,0.66735,0.1249,0.1024
1694787752937500,-9.527071,0.757467,2.71818,0.71235,0.2251,0.576
1694787752945312,-9.543071,0.753467,2.67818,0.69835,0.251,0.5724
1694787752953125,-9.554071,0.751467,2.62818,0.70935,0.7149,0.4424
1694787752960937,-9.558071,0.744467,2.67818,0.70135,0.0,0.4076
1694787752968750,-9.574071,0.751467,2.46818,0.71635,0.1649,0.724
1694787752976562,-9.567071,0.740467,2.42818,0.69835,0.451,0.924
1694787752984375,-9.572071,0.749467,2.44818,0.74535,0.651,0.3776
1694787752992187,-9.560071,0.760467,2.62818,0.74335,0.3951,0.1024
1694787753000000,-9.561071,0.762467,2.71818,0.71335,0.3751,0.2624
1694787753007812,-9.551071,0.755467,2.69818,0.72435,0.1051,0.6024
1694787753015625,-9.545071,0.759467,2.71818,0.73335,0.1849,0.3824
1694787753023437,-9.547071,0.760467,2.76818,0.74635,0.5151,0.2376
1694787753031250,-9.536071,0.759467,2.87818,0.69735,0.5351,0.2624
1694787753039062,-9.533071,0.751467,2.94818,0.71235,0.851,0.2076
1694787753046875,-9.533071,0.753467,2.103818,0.71035,0.1051,0.1976
1694787753054687,-9.524071,0.746467,2.107818,0.74635,0.1449,0.824
1694787753062500,-9.524071,0.742467,2.105818,0.74435,0.4249,0.2624
1694787753070312,-9.511071,0.744467,2.107818,0.72335,0.1849,0.3024
1694787753078125,-9.522071,0.750467,2.105818,0.74435,0.4249,0.576
1694787753085937,-9.518071,0.759467,2.107818,0.74535,0.2649,0.6976
1694787753093750,-9.527071,0.775467,2.100818,0.74835,0.6249,0.5676
1694787753101562,-9.534071,0.777467,2.92818,0.76935,0.7049,0.4476
1694787753109375,-9.547071,0.780467,2.107818,0.69935,0.251,0.2524
1694787753117187,-9.561071,0.786467,2.100818,0.74735,0.6349,0.876
1694787753125000,-9.561071,0.780467,2.98818,0.70235,0.8149,0.4076
1694787753132812,-9.570071,0.782467,2.100818,0.70035,0.3049,0.776
1694787753140625,-9.572071,0.780467,2.91818,0.66335,0.3649,0.8276
1694787753148437,-9.574071,0.775467,2.80818,0.71835,0.8149,0.5676
1694787753156250,-9.568071,0.771467,2.76818,0.70435,0.1251,0.2676
1694787753164062,-9.583071,0.767467,2.82818,0.71535,0.5151,0.676
1694787753171875,-9.581071,0.760467,2.87818,0.70235,0.8051,0.876
1694787753179687,-9.585071,0.760467,2.96818,0.71435,0.3751,0.3876
1694787753187500,-9.594071,0.760467,2.107818,0.74735,0.5351,0.10276
1694787753195312,-9.597071,0.769467,2.105818,0.68035,0.13951,0.5176
1694787753203125,-9.592071,0.767467,2.112818,0.70135,0.10151,0.10276
1694787753210937,-9.590071,0.771467,2.112818,0.74735,0.8451,0.5576
1694787753218750,-9.581071,0.756467,2.128818,0.75135,0.11351,0.12176
1694787753226562,-9.565071,0.758467,2.118818,0.69335,0.11051,0.1776
1694787753234375,-9.531071,0.757467,2.134818,0.71035,0.7351,0.2824
1694787753242187,-9.513071,0.761467,2.139818,0.69435,0.12551,0.5076
1694787753250000,-9.509071,0.759467,2.143818,0.73435,0.8251,0.10476
1694787753257812,-9.497071,0.761467,2.134818,0.82035,0.6251,0.11576
1694787753265625,-9.502071,0.770467,2.139818,0.69435,0.9251,0.3476
1694787753273437,-9.493071,0.788467,2.143818,0.71035,0.6151,0.8276
1694787753281250,-9.491071,0.788467,2.145818,0.71235,0.12151,0.3676
1694787753289062,-9.502071,0.783467,2.141818,0.69835,0.8851,0.8476
1694787753296875,-9.498071,0.797467,2.130818,0.73135,0.10051,0.3876
1694787753304687,-9.509071,0.777467,2.116818,0.59135,0.9851,0.2276
1694787753312500,-9.529071,0.773467,2.114818,0.52435,0.7151,0.276
1694787753320312,-9.559071,0.773467,2.112818,0.66735,0.6951,0.3776
1694787753328125,-9.561071,0.760467,2.121818,0.68335,0.13351,0.2176
1694787753335937,-9.554071,0.769467,2.141818,0.70935,0.14151,0.276
1694787753343750,-9.556071,0.764467,2.161818,0.69835,0.8851,0.6876
1694787753351562,-9.552071,0.762467,2.159818,0.71535,0.8651,0.10176
1694787753359375,-9.544071,0.760467,2.129818,0.62835,0.11451,0.4676
1694787753367187,-9.522071,0.762467,2.123818,0.66435,0.10851,0.9876
1694787753375000,-9.525071,0.761467,2.114818,0.65235,0.7051,0.8576
1694787753382812,-9.518071,0.755467,2.127818,0.69435,0.12751,0.8176
1694787753390625,-9.506071,0.752467,2.105818,0.71035,0.10851,0.3476
1694787753398437,-9.511071,0.750467,2.123818,0.69235,0.9651,0.4876
1694787753406250,-9.511071,0.752467,2.121818,0.63435,0.12051,0.1976
1694787753414062,-9.506071,0.759467,2.120818,0.63035,0.7751,0.3276
1694787753421875,-9.516071,0.759467,2.139818,0.63635,0.3751,0.6976
1694787753429687,-9.513071,0.759467,2.139818,0.71435,0.2051,0.3876
1694787753437500,-9.522071,0.766467,2.148818,0.68335,0.5849,0.8576
1694787753445312,-9.504071,0.759467,2.164818,0.68735,0.0,0.8876
1694787753453125,-9.500071,0.766467,2.154818,0.60335,0.749,0.6776
1694787753460937,-9.489071,0.768467,2.152818,0.64935,0.5449,0.8376
1694787753468750,-9.480071,0.774467,2.157818,0.67035,0.251,0.8676
1694787753476562,-9.482071,0.772467,2.145818,0.54235,0.4249,0.6776
1694787753484375,-9.480071,0.763467,2.163818,0.59235,0.3049,0.8676
1694787753492187,-9.493071,0.761467,2.157818,0.60635,0.14349,0.3876
1694787753500000,-9.504071,0.759467,2.146818,0.63835,0.6549,0.824
1694787753507812,-9.527071,0.762467,2.145818,0.61735,0.12049,0.376
1694787753515625,-9.542071,0.760467,2.132818,0.57035,0.9049,0.1224
1694787753523437,-9.558071,0.749467,2.123818,0.52835,0.10049,0.8824
1694787753531250,-9.574071,0.749467,2.118818,0.61535,0.4149,0.9224
1694787753539062,-9.576071,0.749467,2.116818,0.56335,0.8549,0.976
1694787753546875,-9.572071,0.749467,2.116818,0.54035,0.7349,0.1876
1694787753554687,-9.572071,0.753467,2.105818,0.52935,0.6749,0.2424
1694787753562500,-9.565071,0.751467,2.125818,0.54535,0.4849,0.5476
1694787753570312,-9.563071,0.751467,2.123818,0.54235,0.2649,0.11576
1694787753578125,-9.538071,0.746467,2.134818,0.45035,0.3049,0.8476
1694787753585937,-9.544071,0.749467,2.127818,0.45835,0.4751,0.9476
1694787753593750,-9.547071,0.757467,2.148818,0.51035,0.12151,0.9876
1694787753601562,-9.538071,0.759467,2.152818,0.49535,0.4549,0.3676
1694787753609375,-9.554071,0.764467,2.139818,0.48035,0.3049,0.2076
1694787753617187,-9.552071,0.780467,2.132818,0.45035,0.4949,0.576
1694787753625000,-9.538071,0.777467,2.132818,0.46535,0.3049,0.2076
1694787753632812,-9.527071,0.784467,2.132818,0.44535,0.3851,0.3024
1694787753640625,-9.529071,0.764467,2.138818,0.45835,0.2851,0.1576
1694787753648437,-9.538071,0.764467,2.118818,0.44335,0.3749,0.1576
1694787753656250,-9.531071,0.739467,2.107818,0.44835,0.4549,0.3576
1694787753664062,-9.533071,0.715467,2.105818,0.46335,0.651,0.5076
1694787753671875,-9.542071,0.708467,2.112818,0.45135,0.1651,0.5376
1694787753679687,-9.553071,0.711467,2.112818,0.46535,0.1449,0.2076
1694787753687500,-9.560071,0.718467,2.105818,0.44735,0.651,0.3476
1694787753695312,-9.567071,0.724467,2.105818,0.52735,0.6149,0.5276
1694787753703125,-9.558071,0.738467,2.102818,0.50735,0.649,0.3376
1694787753710937,-9.565071,0.740467,2.101818,0.45135,0.249,0.676
1694787753718750,-9.558071,0.753467,2.87818,0.46235,0.8551,0.1324
1694787753726562,-9.552071,0.755467,2.92818,0.45035,0.249,0.2524
1694787753734375,-9.540071,0.746467,2.89818,0.46935,0.349,0.7176
1694787753742187,-9.536071,0.757467,2.96818,0.44435,0.7551,0.6376
1694787753750000,-9.520071,0.755467,2.89818,0.47935,0.10451,0.9876
1694787753757812,-9.520071,0.744467,2.91818,0.46435,0.6951,0.9976
1694787753765625,-9.529071,0.742467,2.96818,0.48035,0.2849,0.5176
1694787753773437,-9.517071,0.733467,2.94818,0.49335,0.2449,0.8276
1694787753781250,-9.517071,0.721467,2.85818,0.48035,0.4449,0.6876
1694787753789062,-9.531071,0.724467,2.82818,0.44535,0.2449,0.3376
1694787753796875,-9.524071,0.728467,2.87818,0.44535,0.3949,0.4876
1694787753804687,-9.542071,0.713467,2.87818,0.49135,0.8849,0.1776
1694787753812500,-9.553071,0.717467,2.80818,0.49935,0.16349,0.3976
1694787753820312,-9.562071,0.713467,2.67818,0.54435,0.6349,0.5376
1694787753828125,-9.566071,0.716467,2.87818,0.69735,0.5749,0.5276
1694787753835937,-9.569071,0.707467,2.80818,0.71435,0.19049,0.3876
1694787753843750,-9.562071,0.720467,2.75818,0.64935,0.7149,0.5176
1694787753851562,-9.551071,0.729467,2.78818,0.68435,0.14349,0.2376
1694787753859375,-9.535071,0.722467,2.73818,0.71635,0.19249,0.3976
1694787753867187,-9.535071,0.731467,2.87818,0.71335,0.20649,0.2524
1694787753875000,-9.520071,0.737467,2.80818,0.69835,0.19249,0.4024
1694787753882812,-9.515071,0.735467,2.87818,0.71335,0.13949,0.2176
1694787753890625,-9.513071,0.744467,2.82818,0.65035,0.17149,0.476
1694787753898437,-9.522071,0.735467,2.84818,0.68035,0.16949,0.476
1694787753906250,-9.515071,0.744467,2.103818,0.71335,0.22049,0.576
1694787753914062,-9.513071,0.750467,2.107818,0.70035,0.17549,0.2376
1694787753921875,-9.518071,0.744467,2.94818,0.71135,0.13949,0.5824
1694787753929687,-9.526071,0.737467,2.96818,0.59835,0.11649,0.76
1694787753937500,-9.531071,0.731467,2.100818,0.71335,0.15549,0.3776
1694787753945312,-9.531071,0.728467,2.100818,0.63235,0.17049,0.1224
1694787753953125,-9.537071,0.720467,2.109818,0.66235,0.13749,0.9224
1694787753960937,-9.528071,0.726467,2.89818,0.71235,0.18849,0.1024
1694787753968750,-9.538071,0.733467,2.91818,0.70135,0.14749,0.2224
1694787753976562,-9.533071,0.744467,2.96818,0.70935,0.20049,0.6024
1694787753984375,-9.527071,0.753467,2.82818,0.71435,0.19049,0.2276
1694787753992187,-9.540071,0.755467,2.85818,0.69935,0.23949,0.2276
1694787754000000,-9.543071,0.744467,2.78818,0.68835,0.24749,0.524
1694787754007812,-9.558071,0.753467,2.75818,0.71135,0.21649,0.3576
1694787754015625,-9.565071,0.764467,2.80818,0.70035,0.19249,0.2376
1694787754023437,-9.572071,0.760467,2.73818,0.65235,0.20849,0.2424
1694787754031250,-9.585071,0.758467,2.64818,0.69035,0.18049,0.6224
1694787754039062,-9.576071,0.756467,2.71818,0.71035,0.20049,0.1976
1694787754046875,-9.583071,0.749467,2.69818,0.70035,0.19249,0.3976
1694787754054687,-9.585071,0.758467,2.67818,0.71435,0.14049,0.5476
1694787754062500,-9.576071,0.753467,2.67818,0.70535,0.18349,0.1176
1694787754070312,-9.572071,0.749467,2.78818,0.68135,0.9249,0.2624
1694787754078125,-9.560071,0.755467,2.78818,0.68235,0.11049,0.4124
1694787754085937,-9.550071,0.757467,2.74818,0.70635,0.4049,0.324
1694787754093750,-9.536071,0.757467,2.91818,0.68435,0.7749,0.3876
1694787754101562,-9.531071,0.759467,2.89818,0.63535,0.2649,0.3676
1694787754109375,-9.531071,0.746467,2.94818,0.59035,0.9349,0.5376
1694787754117187,-9.527071,0.757467,2.76818,0.60335,0.14149,0.1024
1694787754125000,-9.529071,0.750467,2.92818,0.70335,0.6749,0.4176
1694787754132812,-9.525071,0.755467,2.89818,0.68535,0.6349,0.2376
1694787754140625,-9.538071,0.751467,2.78818,0.66635,0.8949,0.8476
1694787754148437,-9.547071,0.753467,2.82818,0.69635,0.5749,0.2076
1694787754156250,-9.554071,0.753467,2.98818,0.71135,0.15349,0.2076
1694787754164062,-9.554071,0.767467,2.87818,0.66335,0.11849,0.1876
1694787754171875,-9.554071,0.762467,2.91818,0.58435,0.8849,0.2924
1694787754179687,-9.540071,0.762467,2.73818,0.56835,0.10249,0.3024
1694787754187500,-9.547071,0.758467,2.62818,0.60035,0.13549,0.276
1694787754195312,-9.567071,0.747467,2.42818,0.56935,0.10249,0.3376
1694787754203125,-9.569071,0.733467,2.28818,0.55335,0.5349,0.3276
1694787754210937,-9.583071,0.747467,2.48818,0.66335,0.6949,0.6676
1694787754218750,-9.587071,0.749467,2.49818,0.63435,0.749,0.5176
1694787754226562,-9.594071,0.745467,2.62818,0.72935,0.7549,0.3876
1694787754234375,-9.592071,0.743467,2.64818,0.60335,0.2451,0.8376
1694787754242187,-9.583071,0.749467,2.49818,0.57335,0.5351,0.3676
1694787754250000,-9.578071,0.745467,2.35818,0.58535,0.5349,0.6576
1694787754257812,-9.555071,0.736467,2.17818,0.59735,0.1651,0.6376
1694787754265625,-9.546071,0.720467,2.21818,0.53635,0.3051,0.7976
1694787754273437,-9.535071,0.720467,2.17818,0.55635,0.2449,0.5076
1694787754281250,-9.537071,0.724467,2.17818,0.69735,0.851,0.10076
1694787754289062,-9.539071,0.722467,2.10818,0.61335,0.1649,0.6376
1694787754296875,-9.540071,0.724467,2.19818,0.71235,0.4151,0.5276
1694787754304687,-9.558071,0.724467,2.37818,0.57035,0.9251,0.8176
1694787754312500,-9.560071,0.733467,2.64818,0.67635,0.4951,0.7976
1694787754320312,-9.562071,0.736467,2.69818,0.61835,0.10651,0.6676
1694787754328125,-9.562071,0.724467,2.71818,0.62435,0.0,0.7176
1694787754335937,-9.553071,0.735467,2.69818,0.63435,0.2449,0.6776
1694787754343750,-9.553071,0.722467,2.76818,0.69735,0.4249,0.2176
1694787754351562,-9.540071,0.737467,2.80818,0.67935,0.849,0.2824
1694787754359375,-9.524071,0.737467,2.67818,0.69835,0.2849,0.676
1694787754367187,-9.513071,0.741467,2.74818,0.71935,0.8349,0.4176
1694787754375000,-9.515071,0.746467,2.64818,0.69735,0.7349,0.5276
1694787754382812,-9.513071,0.741467,2.71818,0.71135,0.2249,0.3576
1694787754390625,-9.522071,0.746467,2.51818,0.71235,0.8949,0.476
1694787754398437,-9.540071,0.735467,2.42818,0.69435,0.17049,0.5924
1694787754406250,-9.560071,0.744467,2.35818,0.71435,0.12649,0.4024
1694787754414062,-9.571071,0.751467,2.15818,0.69335,0.16849,0.6024
1694787754421875,-9.585071,0.753467,2.17818,0.67035,0.16149,0.5676
1694787754429687,-9.596071,0.758467,2.12818,0.65135,0.17149,0.5276
1694787754437500,-9.594071,0.756467,2.6818,0.69735,0.17149,0.3776
1694787754445312,-9.601071,0.756467,1.997818,0.69935,0.15749,0.3876
1694787754453125,-9.587071,0.745467,1.988818,0.64835,0.18649,0.376
1694787754460937,-9.583071,0.736467,1.988818,0.70335,0.14649,0.7376
1694787754468750,-9.585071,0.733467,1.992818,0.51535,0.16349,0.8776
1694787754476562,-9.582071,0.729467,1.997818,0.53935,0.8749,0.6676
1694787754484375,-9.580071,0.738467,2.6818,0.59235,0.7949,0.10276
1694787754492187,-9.571071,0.738467,2.15818,0.55435,0.8349,0.12876
1694787754500000,-9.567071,0.736467,2.30818,0.60035,0.1849,0.12876
1694787754507812,-9.551071,0.733467,2.35818,0.61335,0.6849,0.18576
1694787754515625,-9.535071,0.748467,2.37818,0.61935,0.1051,0.16276
1694787754523437,-9.538071,0.739467,2.42818,0.67335,0.9949,0.10576
1694787754531250,-9.544071,0.735467,2.35818,0.61635,0.3649,0.6576
1694787754539062,-9.549071,0.729467,2.21818,0.63435,0.5449,0.11576
1694787754546875,-9.551071,0.724467,2.10818,0.69635,0.5749,0.2076
1694787754554687,-9.563071,0.740467,2.13818,0.70235,0.4649,0.10376
1694787754562500,-9.576071,0.731467,2.15818,0.63335,0.2249,0.5076
1694787754570312,-9.567071,0.742467,2.12818,0.72535,0.2249,0.4424
1694787754578125,-9.576071,0.744467,2.13818,0.66835,0.251,0.2276
1694787754585937,-9.583071,0.754467,2.10818,0.69335,0.3449,0.4976
1694787754593750,-9.572071,0.749467,2.8818,0.71235,0.749,0.3676
1694787754601562,-9.574071,0.749467,2.4818,0.70135,0.4649,0.5576
1694787754609375,-9.576071,0.742467,2.1818,0.71535,0.4449,0.3876
1694787754617187,-9.572071,0.744467,2.4818,0.59035,0.251,0.3776
1694787754625000,-9.569071,0.747467,2.4818,0.60535,0.4449,0.5376
1694787754632812,-9.567071,0.742467,2.3818,0.66535,0.2451,0.3576
1694787754640625,-9.565071,0.740467,2.12818,0.61835,0.5751,0.5076
1694787754648437,-9.574071,0.751467,2.17818,0.69635,0.749,0.3676
1694787754656250,-9.571071,0.740467,2.17818,0.69935,0.2351,0.10176
1694787754664062,-9.576071,0.731467,2.19818,0.65235,0.5551,0.13276
1694787754671875,-9.571071,0.725467,2.12818,0.69735,0.2551,0.8476
1694787754679687,-9.574071,0.729467,2.17818,0.69935,0.2051,0.7076
1694787754687500,-9.569071,0.727467,2.17818,0.73135,0.7051,0.8676
1694787754695312,-9.553071,0.724467,2.15818,0.72035,0.4551,0.7476
1694787754703125,-9.556071,0.733467,2.1818,0.73035,0.10551,0.11676
1694787754710937,-9.547071,0.737467,1.995818,0.76435,0.1951,0.11976
1694787754718750,-9.553071,0.744467,1.990818,0.77235,0.1451,0.8276
1694787754726562,-9.556071,0.760467,1.988818,0.72535,0.9451,0.4976
1694787754734375,-9.552071,0.760467,1.990818,0.69835,0.2251,0.5376
1694787754742187,-9.554071,0.762467,1.979818,0.71235,0.4049,0.2076
1694787754750000,-9.554071,0.751467,1.979818,0.69635,0.2449,0.3676
1694787754757812,-9.562071,0.753467,1.988818,0.70735,0.0,0.4876
1694787754765625,-9.569071,0.760467,1.985818,0.71135,0.5549,0.3576
1694787754773437,-9.562071,0.749467,1.985818,0.69135,0.0,0.1676
1694787754781250,-9.569071,0.751467,1.988818,0.71035,0.3649,0.3476
1694787754789062,-9.558071,0.753467,1.986818,0.70135,0.6249,0.7176
1694787754796875,-9.549071,0.755467,1.992818,0.74935,0.6449,0.4176
1694787754804687,-9.547071,0.751467,1.985818,0.74635,0.10849,0.5476
1694787754812500,-9.555071,0.747467,1.976818,0.72335,0.8149,0.3376
1694787754820312,-9.556071,0.742467,1.983818,0.71135,0.5449,0.5176
1694787754828125,-9.556071,0.755467,1.979818,0.69635,0.2449,0.2076
1694787754835937,-9.558071,0.766467,1.979818,0.72835,0.12249,0.3776
1694787754843750,-9.565071,0.778467,1.970818,0.77635,0.15549,0.5476
1694787754851562,-9.574071,0.773467,1.961818,0.69935,0.11049,0.676
1694787754859375,-9.577071,0.785467,1.958818,0.71335,0.15549,0.3776
1694787754867187,-9.583071,0.789467,1.958818,0.69335,0.9849,0.8176
1694787754875000,-9.592071,0.778467,1.952818,0.69835,0.15549,0.6976
1694787754882812,-9.590071,0.783467,1.961818,0.71235,0.10449,0.8476
1694787754890625,-9.590071,0.771467,1.954818,0.68235,0.8949,0.10076
1694787754898437,-9.594071,0.758467,1.959818,0.61035,0.9749,0.13676
1694787754906250,-9.590071,0.771467,1.963818,0.63435,0.7349,0.5276
1694787754914062,-9.576071,0.769467,1.961818,0.71135,0.3649,0.9876
1694787754921875,-9.572071,0.771467,1.963818,0.65335,0.1149,0.10176
1694787754929687,-9.572071,0.764467,1.970818,0.67135,0.17749,0.10476
1694787754937500,-9.572071,0.780467,1.968818,0.65335,0.6049,0.8676
1694787754945312,-9.574071,0.780467,1.965818,0.71035,0.2651,0.3576
1694787754953125,-9.577071,0.778467,1.963818,0.69835,0.4249,0.5376
1694787754960937,-9.577071,0.787467,1.961818,0.71135,0.5549,0.3576
1694787754968750,-9.590071,0.783467,1.970818,0.69735,0.7349,0.3676
1694787754976562,-9.583071,0.778467,1.963818,0.71335,0.5649,0.5276
1694787754984375,-9.606071,0.780467,1.965818,0.71635,0.4449,0.8676
1694787754992187,-9.592071,0.765467,1.963818,0.66935,0.1851,0.7076
1694787755000000,-9.590071,0.783467,1.972818,0.64735,0.149,0.12876
1694787755007812,-9.583071,0.780467,1.974818,0.70035,0.2351,0.16576
1694787755015625,-9.570071,0.782467,1.990818,0.66335,0.6351,0.14476
1694787755023437,-9.566071,0.789467,1.990818,0.65435,0.6851,0.10276
1694787755031250,-9.563071,0.791467,1.992818,0.69435,0.6451,0.14476
1694787755039062,-9.552071,0.793467,1.992818,0.71035,0.7851,0.8176
1694787755046875,-9.550071,0.791467,1.983818,0.68835,0.4649,0.18376
1694787755054687,-9.556071,0.786467,1.997818,0.69735,0.2449,0.8476
1694787755062500,-9.561071,0.780467,2.6818,0.71335,0.5751,0.13276
1694787755070312,-9.570071,0.789467,2.6818,0.66235,0.9451,0.6576
1694787755078125,-9.574071,0.785467,1.992818,0.69635,0.5249,0.11476
1694787755085937,-9.572071,0.787467,1.972818,0.69935,0.651,0.13376
1694787755093750,-9.583071,0.780467,1.949818,0.71135,0.549,0.6776
1694787755101562,-9.587071,0.774467,1.936818,0.66335,0.1251,0.8176
1694787755109375,-9.599071,0.756467,1.940818,0.63435,0.13751,0.6776
1694787755117187,-9.619071,0.763467,1.956818,0.71235,0.9251,0.13076
1694787755125000,-9.603071,0.761467,1.961818,0.69635,0.9051,0.6776
1694787755132812,-9.608071,0.761467,1.970818,0.70935,0.12751,0.6576
1694787755140625,-9.592071,0.760467,1.994818,0.69735,0.13951,0.9976
1694787755148437,-9.576071,0.760467,1.988818,0.71035,0.6151,0.6576
1694787755156250,-9.565071,0.758467,1.965818,0.66635,0.10451,0.5276
1694787755164062,-9.551071,0.760467,1.947818,0.63135,0.12751,0.9676
1694787755171875,-9.542071,0.762467,1.943818,0.69735,0.9051,0.8376
1694787755179687,-9.538071,0.762467,1.956818,0.70935,0.9251,0.1324
1694787755187500,-9.529071,0.759467,1.961818,0.69635,0.10651,0.6776
1694787755195312,-9.531071,0.764467,1.965818,0.69435,0.19051,0.4976
1694787755203125,-9.538071,0.773467,1.990818,0.71135,0.10651,0.3576
1694787755210937,-9.541071,0.786467,1.992818,0.69935,0.13551,0.6976
1694787755218750,-9.541071,0.784467,1.997818,0.71135,0.15851,0.9876
1694787755226562,-9.556071,0.782467,2.6818,0.66835,0.13551,0.13376
1694787755234375,-9.549071,0.780467,2.15818,0.69335,0.14351,0.6576
1694787755242187,-9.552071,0.771467,2.8818,0.68635,0.3551,0.13476
1694787755250000,-9.565071,0.773467,2.12818,0.69235,0.8051,0.6476
1694787755257812,-9.558071,0.762467,2.8818,0.71035,0.7651,0.5076
1694787755265625,-9.552071,0.771467,2.4818,0.70035,0.3751,0.8676
1694787755273437,-9.545071,0.777467,2.15818,0.71035,0.2851,0.6676
1694787755281250,-9.543071,0.793467,2.6818,0.69535,0.7851,0.11376
1694787755289062,-9.539071,0.797467,2.1818,0.69835,0.949,0.6976
1694787755296875,-9.543071,0.800467,2.17818,0.69635,0.4049,0.476
1694787755304687,-9.541071,0.793467,1.999818,0.69735,0.8749,0.9976
1694787755312500,-9.543071,0.795467,1.983818,0.69535,0.5249,0.6676
1694787755320312,-9.556071,0.800467,1.967818,0.69535,0.3849,0.376
1694787755328125,-9.552071,0.793467,1.981818,0.69135,0.1451,0.1524
1694787755335937,-9.557071,0.797467,1.972818,0.69735,0.2251,0.476
1694787755343750,-9.568071,0.809467,1.967818,0.69535,0.2651,0.3476
1694787755351562,-9.570071,0.809467,1.956818,0.71335,0.6951,0.1024
1694787755359375,-9.579071,0.796467,1.934818,0.69535,0.7651,0.5076
1694787755367187,-9.583071,0.789467,1.929818,0.68035,0.5751,0.3576
1694787755375000,-9.574071,0.787467,1.958818,0.58235,0.12951,0.6376
1694787755382812,-9.583071,0.785467,1.976818,0.67735,0.6351,0.8076
1694787755390625,-9.586071,0.794467,1.983818,0.65035,0.4151,0.8376
1694787755398437,-9.590071,0.798467,1.988818,0.70135,0.8451,0.11876
1694787755406250,-9.586071,0.809467,1.999818,0.68035,0.10651,0.6776
1694787755414062,-9.573071,0.816467,2.1818,0.69735,0.7451,0.11576
1694787755421875,-9.573071,0.822467,2.4818,0.62135,0.12151,0.17976
1694787755429687,-9.572071,0.813467,2.12818,0.60335,0.7851,0.20876
1694787755437500,-9.570071,0.800467,2.1818,0.57035,0.12951,0.20776
1694787755445312,-9.556071,0.791467,1.990818,0.52635,0.749,0.16276
1694787755453125,-9.561071,0.804467,1.976818,0.63535,0.10751,0.13076
1694787755460937,-9.550071,0.806467,1.972818,0.65535,0.9851,0.11976
1694787755468750,-9.547071,0.797467,1.981818,0.58535,0.14351,0.14476
1694787755476562,-9.532071,0.822467,1.981818,0.60335,0.10651,0.13076
1694787755484375,-9.528071,0.819467,1.985818,0.66435,0.9051,0.3576
1694787755492187,-9.539071,0.824467,1.976818,0.63335,0.11151,0.16076
1694787755500000,-9.552071,0.813467,1.974818,0.68335,0.10551,0.13276
1694787755507812,-9.550071,0.824467,1.981818,0.61935,0.8851,0.6776
1694787755515625,-9.556071,0.802467,1.972818,0.58435,0.11051,0.6476
1694787755523437,-9.559071,0.802467,1.994818,0.55335,0.11051,0.7976
1694787755531250,-9.572071,0.798467,1.994818,0.59935,0.14351,0.6476
1694787755539062,-9.568071,0.795467,1.988818,0.58735,0.2451,0.8276
1694787755546875,-9.572071,0.793467,1.977818,0.70235,0.3351,0.5576
1694787755554687,-9.577071,0.796467,1.983818,0.68335,0.3951,0.10076
1694787755562500,-9.577071,0.787467,1.981818,0.66535,0.549,0.11576
1694787755570312,-9.588071,0.782467,1.974818,0.69735,0.7451,0.9976
1694787755578125,-9.590071,0.778467,1.974818,0.71335,0.5551,0.6976
1694787755585937,-9.588071,0.793467,1.972818,0.67135,0.6851,0.16676
1694787755593750,-9.583071,0.798467,1.994818,0.63435,0.5951,0.14676
1694787755601562,-9.570071,0.798467,1.981818,0.69635,0.7651,0.9876
1694787755609375,-9.570071,0.796467,1.988818,0.67635,0.4951,0.6376
1694787755617187,-9.548071,0.804467,1.983818,0.71435,0.4151,0.14876
1694787755625000,-9.548071,0.815467,1.997818,0.69735,0.549,0.14776
1694787755632812,-9.545071,0.809467,2.10818,0.69635,0.12551,0.14676
1694787755640625,-9.537071,0.811467,2.10818,0.68435,0.7251,0.14876
1694787755648437,-9.534071,0.802467,2.3818,0.71235,0.12351,0.8376
1694787755656250,-9.536071,0.795467,2.6818,0.71135,0.11151,0.12976
1694787755664062,-9.534071,0.797467,2.24818,0.61635,0.449,0.4976
1694787755671875,-9.536071,0.791467,2.24818,0.69835,0.651,0.5376
1694787755679687,-9.538071,0.791467,2.6818,0.67835,0.2851,0.6576
1694787755687500,-9.545071,0.793467,2.13818,0.69935,0.3951,0.13376
1694787755695312,-9.554071,0.780467,2.15818,0.71235,0.5751,0.5176
1694787755703125,-9.556071,0.784467,2.10818,0.69635,0.7651,0.9876
1694787755710937,-9.572071,0.776467,2.1818,0.70935,0.2851,0.3476
1694787755718750,-9.574071,0.787467,2.13818,0.69835,0.2351,0.8576
1694787755726562,-9.579071,0.793467,2.4818,0.69835,0.3951,0.8476
1694787755734375,-9.577071,0.798467,2.15818,0.70035,0.251,0.5576
1694787755742187,-9.570071,0.793467,1.990818,0.69935,0.5351,0.6976
1694787755750000,-9.564071,0.818467,2.37818,0.70935,0.22351,0.3376
1694787755757812,-9.579071,0.820467,2.6818,0.69435,0.9251,0.1876
1694787755765625,-9.566071,0.818467,2.3818,0.71135,0.4351,0.6776
1694787755773437,-9.575071,0.822467,2.31818,0.70035,0.1851,0.3976
1694787755781250,-9.559071,0.818467,2.17818,0.71335,0.2251,0.5376
1694787755789062,-9.559071,0.806467,2.31818,0.64935,0.7351,0.3576
1694787755796875,-9.554071,0.798467,2.33818,0.68135,0.4151,0.5176
1694787755804687,-9.561071,0.800467,2.49818,0.71535,0.8451,0.3876
1694787755812500,-9.554071,0.784467,2.44818,0.69735,0.13951,0.11576
1694787755820312,-9.547071,0.782467,2.33818,0.71535,0.8651,0.8576
1694787755828125,-9.541071,0.784467,2.35818,0.70135,0.6851,0.10276
1694787755835937,-9.543071,0.795467,2.33818,0.71535,0.10051,0.5476
1694787755843750,-9.538071,0.784467,2.21818,0.69635,0.12351,0.6776
1694787755851562,-9.548071,0.804467,2.10818,0.71435,0.7051,0.3776
1694787755859375,-9.552071,0.802467,2.10818,0.69735,0.5551,0.5276
1694787755867187,-9.564071,0.806467,2.15818,0.71935,0.6251,0.4176
1694787755875000,-9.562071,0.820467,2.17818,0.66935,0.5151,0.5476
1694787755882812,-9.555071,0.820467,2.6818,0.69435,0.7551,0.276
1694787755890625,-9.573071,0.816467,2.8818,0.68135,0.10451,0.3676
1694787755898437,-9.555071,0.818467,2.19818,0.69435,0.9251,0.3476
1694787755906250,-9.566071,0.829467,2.12818,0.67535,0.14551,0.1624
1694787755914062,-9.555071,0.829467,2.26818,0.69335,0.11051,0.4976
1694787755921875,-9.546071,0.831467,2.35818,0.70935,0.6151,0.3376
1694787755929687,-9.544071,0.830467,2.37818,0.73335,0.6651,0.5676
1694787755937500,-9.541071,0.831467,2.58818,0.69635,0.5551,0.476
1694787755945312,-9.532071,0.837467,2.64818,0.69435,0.7551,0.276
1694787755953125,-9.517071,0.835467,2.62818,0.71335,0.5551,0.5276
1694787755960937,-9.519071,0.839467,2.53818,0.66635,0.7151,0.3676
1694787755968750,-9.512071,0.848467,2.53818,0.64935,0.4151,0.5176
1694787755976562,-9.521071,0.844467,2.58818,0.66535,0.851,0.3576
1694787755984375,-9.523071,0.833467,2.39818,0.55435,0.2249,0.4976
1694787755992187,-9.537071,0.824467,2.35818,0.52635,0.4249,0.6776
1694787756000000,-9.552071,0.811467,2.28818,0.52335,0.2049,0.9676
1694787756007812,-9.570071,0.798467,2.22818,0.57335,0.3751,0.5276
1694787756015625,-9.590071,0.805467,2.3818,0.57235,0.851,0.11476
1694787756023437,-9.611071,0.825467,1.995818,0.63735,0.3751,0.11776
1694787756031250,-9.602071,0.825467,2.12818,0.63335,0.5951,0.8276
1694787756039062,-9.602071,0.827467,2.26818,0.55435,0.7551,0.8176
1694787756046875,-9.589071,0.833467,2.22818,0.57435,0.5351,0.8476
1694787756054687,-9.584071,0.822467,2.10818,0.50735,0.9251,0.8076
1694787756062500,-9.575071,0.836467,1.997818,0.51035,0.10451,0.8276
1694787756070312,-9.559071,0.824467,1.999818,0.44435,0.9251,0.7976
1694787756078125,-9.543071,0.815467,2.12818,0.42835,0.9451,0.12676
1694787756085937,-9.539071,0.813467,2.17818,0.44335,0.11051,0.9476
1694787756093750,-9.530071,0.817467,2.17818,0.46135,0.9051,0.8076
1694787756101562,-9.517071,0.815467,2.28818,0.46535,0.10051,0.6776
1694787756109375,-9.510071,0.810467,2.40818,0.45235,0.6551,0.11776
1694787756117187,-9.516071,0.826467,2.55818,0.47435,0.12651,0.9476
1694787756125000,-9.512071,0.826467,2.53818,0.45335,0.10451,0.10576
1694787756132812,-9.512071,0.821467,2.48818,0.45835,0.11051,0.3076
1694787756140625,-9.510071,0.817467,2.62818,0.51535,0.1849,0.7176
1694787756148437,-9.501071,0.830467,2.55818,0.44835,0.2649,0.8276
1694787756156250,-9.505071,0.828467,2.53818,0.48935,0.1451,0.7876
1694787756164062,-9.501071,0.819467,2.55818,0.44635,0.4051,0.8176
1694787756171875,-9.514071,0.830467,2.40818,0.46235,0.10649,0.6676
1694787756179687,-9.528071,0.835467,2.37818,0.44935,0.4549,0.6776
1694787756187500,-9.539071,0.830467,2.35818,0.45135,0.3249,0.6976
1694787756195312,-9.553071,0.833467,2.42818,0.46235,0.4049,0.8176
1694787756203125,-9.562071,0.826467,2.22818,0.44835,0.9249,0.8376
1694787756210937,-9.575071,0.831467,2.17818,0.46235,0.851,0.8176
1694787756218750,-9.597071,0.829467,2.19818,0.39635,0.5349,0.4776
1694787756226562,-9.591071,0.836467,2.10818,0.44835,0.6149,0.1976
1694787756234375,-9.591071,0.827467,1.995818,0.44735,0.14149,0.1976
1694787756242187,-9.593071,0.818467,1.997818,0.39435,0.9849,0.6176
1694787756250000,-9.590071,0.814467,1.994818,0.42435,0.1449,0.4476
1694787756257812,-9.577071,0.796467,1.985818,0.44335,0.3749,0.3176
1694787756265625,-9.572071,0.796467,1.999818,0.44335,0.1451,0.9476
1694787756273437,-9.567071,0.785467,2.3818,0.42635,0.6351,0.6176
1694787756281250,-9.572071,0.785467,2.30818,0.44335,0.9451,0.9476
1694787756289062,-9.577071,0.791467,2.42818,0.40135,0.10451,0.12976
1694787756296875,-9.572071,0.798467,2.55818,0.47335,0.9651,0.6276
1694787756304687,-9.570071,0.818467,2.71818,0.42735,0.9451,0.7876
1694787756312500,-9.559071,0.829467,2.71818,0.42335,0.9951,0.4376
1694787756320312,-9.553071,0.831467,2.73818,0.44835,0.10251,0.9876
1694787756328125,-9.544071,0.833467,2.69818,0.43035,0.9051,0.8076
1694787756335937,-9.541071,0.828467,2.71818,0.46135,0.9051,0.4876
1694787756343750,-9.552071,0.822467,2.58818,0.44635,0.10451,0.4976
1694787756351562,-9.543071,0.815467,2.42818,0.44235,0.7751,0.3076
1694787756359375,-9.552071,0.818467,2.28818,0.47435,0.12451,0.0
1694787756367187,-9.552071,0.815467,2.31818,0.53835,0.7351,0.176
1694787756375000,-9.561071,0.815467,2.28818,0.57035,0.9251,0.11376
1694787756382812,-9.577071,0.809467,2.17818,0.50735,0.5951,0.4876
1694787756390625,-9.592071,0.794467,2.1818,0.53735,0.12451,0.1676
1694787756398437,-9.597071,0.798467,1.999818,0.58435,0.10851,0.1776
1694787756406250,-9.590071,0.789467,1.983818,0.64135,0.14751,0.4924
1694787756414062,-9.581071,0.780467,1.992818,0.58535,0.9051,0.276
1694787756421875,-9.561071,0.778467,2.17818,0.58635,0.10451,0.1224
1694787756429687,-9.565071,0.780467,2.15818,0.54935,0.7951,0.3324
1694787756437500,-9.556071,0.778467,2.30818,0.64635,0.9451,0.3276
1694787756445312,-9.556071,0.795467,2.35818,0.64935,0.5751,0.5176
1694787756453125,-9.547071,0.793467,2.44818,0.62835,0.9351,0.6324
1694787756460937,-9.538071,0.795467,2.35818,0.69535,0.9251,0.5076
1694787756468750,-9.536071,0.802467,2.28818,0.64735,0.10851,0.4976
1694787756476562,-9.538071,0.806467,2.48818,0.69135,0.6551,0.3176
1694787756484375,-9.523071,0.810467,2.51818,0.68135,0.10451,0.5276
1694787756492187,-9.525071,0.797467,2.30818,0.69535,0.10851,0.9876
1694787756500000,-9.516071,0.797467,2.48818,0.64835,0.4351,0.5076
1694787756507812,-9.505071,0.810467,2.33818,0.70835,0.149,0.3376
1694787756515625,-9.516071,0.810467,2.37818,0.68335,0.451,0.2176
1694787756523437,-9.518071,0.801467,2.40818,0.66535,0.4049,0.3676
1694787756531250,-9.534071,0.802467,2.26818,0.64535,0.1451,0.0
1694787756539062,-9.550071,0.813467,2.26818,0.69735,0.2449,0.5276
1694787756546875,-9.579071,0.803467,2.1818,0.64235,0.3149,0.3324
1694787756554687,-9.586071,0.816467,2.10818,0.67635,0.2049,0.6224
1694787756562500,-9.595071,0.823467,2.17818,0.70735,0.7751,0.4624
1694787756570312,-9.588071,0.816467,2.15818,0.70935,0.12451,0.1324
1694787756578125,-9.599071,0.814467,2.15818,0.67735,0.11051,0.176
1694787756585937,-9.593071,0.814467,2.33818,0.69335,0.8951,0.7624
1694787756593750,-9.590071,0.800467,2.39818,0.61535,0.12451,0.1424
1694787756601562,-9.579071,0.802467,2.40818,0.69535,0.13951,0.1976
1694787756609375,-9.579071,0.791467,2.51818,0.61235,0.15951,0.4824
1694787756617187,-9.556071,0.798467,2.51818,0.55335,0.5951,0.1776
1694787756625000,-9.547071,0.798467,2.48818,0.67735,0.9451,0.176
1694787756632812,-9.543071,0.791467,2.64818,0.67235,0.8351,0.6524
1694787756640625,-9.543071,0.791467,2.69818,0.70735,0.11251,0.0
1694787756648437,-9.536071,0.797467,2.71818,0.68935,0.11451,0.1624
1694787756656250,-9.536071,0.806467,2.69818,0.70935,0.9251,0.2924
1694787756664062,-9.537071,0.817467,2.71818,0.67935,0.9051,0.1224
1694787756671875,-9.532071,0.826467,2.76818,0.66735,0.16351,0.5724
1694787756679687,-9.528071,0.826467,2.73818,0.69435,0.12251,0.4424
1694787756687500,-9.539071,0.826467,2.78818,0.69135,0.7751,0.6224
1694787756695312,-9.532071,0.828467,2.85818,0.63135,0.8951,0.4524
1694787756703125,-9.537071,0.826467,2.87818,0.63135,0.5751,0.6124
1694787756710937,-9.541071,0.815467,2.82818,0.56935,0.4051,0.4524
1694787756718750,-9.537071,0.804467,2.85818,0.57135,0.5351,0.4324
1694787756726562,-9.539071,0.799467,2.78818,0.62435,0.6351,0.5576
1694787756734375,-9.536071,0.793467,2.64818,0.52435,0.5551,0.276
1694787756742187,-9.541071,0.788467,2.62818,0.57235,0.10051,0.4324
1694787756750000,-9.557071,0.793467,2.58818,0.58835,0.10051,0.2624
1694787756757812,-9.541071,0.790467,2.64818,0.51135,0.8151,0.5824
1694787756765625,-9.539071,0.788467,2.74818,0.62335,0.9451,0.5524
1694787756773437,-9.545071,0.784467,2.73818,0.50935,0.8551,0.1224
1694787756781250,-9.545071,0.786467,2.69818,0.44335,0.13851,0.3124
1694787756789062,-9.557071,0.793467,2.71818,0.44635,0.11851,0.1324
1694787756796875,-9.556071,0.777467,2.69818,0.48035,0.8351,0.2076
1694787756804687,-9.572071,0.787467,2.76818,0.53935,0.12051,0.2924
1694787756812500,-9.574071,0.780467,2.75818,0.53635,0.17351,0.3224
1694787756820312,-9.586071,0.782467,2.58818,0.58735,0.16751,0.2824
1694787756828125,-9.581071,0.778467,2.64818,0.61535,0.15751,0.176
1694787756835937,-9.572071,0.778467,2.69818,0.52235,0.12251,0.1424
1694787756843750,-9.565071,0.778467,2.67818,0.46535,0.14751,0.476
1694787756851562,-9.563071,0.782467,2.69818,0.41535,0.6951,0.1324
1694787756859375,-9.538071,0.777467,2.85818,0.46435,0.18051,0.476
1694787756867187,-9.520071,0.764467,2.94818,0.49335,0.10451,0.3476
1694787756875000,-9.516071,0.766467,2.91818,0.44335,0.13851,0.1524
1694787756882812,-9.522071,0.768467,2.105818,0.50635,0.5951,0.0
1694787756890625,-9.504071,0.757467,2.112818,0.46135,0.10451,0.1776
1694787756898437,-9.509071,0.768467,2.114818,0.52435,0.10451,0.276
1694787756906250,-9.500071,0.763467,2.107818,0.49435,0.5351,0.1976
1694787756914062,-9.502071,0.761467,2.85818,0.44535,0.10451,0.1424
1694787756921875,-9.504071,0.764467,2.78818,0.44235,0.10851,0.1624
1694787756929687,-9.520071,0.755467,2.69818,0.39635,0.10851,0.3176
1694787756937500,-9.540071,0.759467,2.82818,0.41435,0.15151,0.4624
1694787756945312,-9.558071,0.758467,2.87818,0.45735,0.20651,0.1724
1694787756953125,-9.565071,0.758467,2.94818,0.44235,0.20451,0.8024
1694787756960937,-9.571071,0.751467,2.107818,0.45835,0.9151,0.1624
1694787756968750,-9.565071,0.753467,2.116818,0.44235,0.10851,0.3224
1694787756976562,-9.549071,0.762467,2.105818,0.45835,0.951,0.3124
1694787756984375,-9.549071,0.746467,2.80818,0.44635,0.5751,0.6476
1694787756992187,-9.536071,0.764467,2.73818,0.46335,0.6951,0.1876
1694787757000000,-9.533071,0.753467,2.78818,0.40835,0.6251,0.5024
1694787757007812,-9.513071,0.759467,2.69818,0.44435,0.7351,0.1524
1694787757015625,-9.527071,0.746467,2.76818,0.43135,0.6951,0.1324
1694787757023437,-9.538071,0.751467,2.94818,0.44635,0.3851,0.176
1694787757031250,-9.540071,0.748467,2.82818,0.46635,0.4951,0.5376
1694787757039062,-9.549071,0.729467,2.89818,0.44735,0.7151,0.6576
1694787757046875,-9.551071,0.729467,2.109818,0.46435,0.6951,0.8376
1694787757054687,-9.546071,0.720467,2.105818,0.44335,0.12451,0.1576
1694787757062500,-9.533071,0.726467,2.118818,0.46135,0.5751,0.3376
1694787757070312,-9.540071,0.733467,2.121818,0.45135,0.6351,0.576
1694787757078125,-9.526071,0.731467,2.121818,0.44435,0.849,0.1424
1694787757085937,-9.529071,0.750467,2.112818,0.38435,0.351,0.2924
1694787757093750,-9.513071,0.757467,2.114818,0.44235,0.7751,0.124
1694787757101562,-9.518071,0.759467,2.114818,0.41635,0.2051,0.3476
1694787757109375,-9.516071,0.766467,2.121818,0.38335,0.2451,0.4876
1694787757117187,-9.518071,0.764467,2.130818,0.38435,0.5551,0.4976
1694787757125000,-9.536071,0.751467,2.132818,0.43435,0.10051,0.8376
1694787757132812,-9.538071,0.757467,2.125818,0.46135,0.5751,0.3376
1694787757140625,-9.556071,0.751467,2.132818,0.40735,0.349,0.8676
1694787757148437,-9.554071,0.749467,2.127818,0.38335,0.3851,0.1776
1694787757156250,-9.553071,0.731467,2.118818,0.45035,0.5151,0.8476
1694787757164062,-9.551071,0.744467,2.111818,0.45835,0.3449,0.6276
1694787757171875,-9.574071,0.756467,2.114818,0.43135,0.1049,0.1876
1694787757179687,-9.563071,0.758467,2.114818,0.40235,0.451,0.8276
1694787757187500,-9.547071,0.762467,2.100818,0.46035,0.5751,0.1776
1694787757195312,-9.536071,0.759467,2.119818,0.45035,0.0,0.3776
1694787757203125,-9.531071,0.757467,2.69818,0.44935,0.2051,0.8376
1694787757210937,-9.507071,0.754467,2.152818,0.30835,0.34351,0.6576
1694787757218750,-9.543071,0.748467,2.82818,0.30935,0.16351,0.8276
1694787757226562,-9.535071,0.733467,2.82818,0.34035,0.5151,0.6676
1694787757234375,-9.540071,0.728467,2.116818,0.34335,0.9651,0.10076
1694787757242187,-9.556071,0.731467,2.112818,0.26035,0.8551,0.8076
1694787757250000,-9.549071,0.742467,2.125818,0.29235,0.10251,0.12976
1694787757257812,-9.545071,0.744467,2.114818,0.29535,0.8251,0.14776
1694787757265625,-9.551071,0.740467,2.123818,0.37335,0.9851,0.9976
1694787757273437,-9.549071,0.733467,2.132818,0.30635,0.8751,0.8076
1694787757281250,-9.553071,0.738467,2.143818,0.35135,0.12251,0.7976
1694787757289062,-9.560071,0.731467,2.127818,0.32135,0.8751,0.6476
1694787757296875,-9.571071,0.733467,2.112818,0.25635,0.5851,0.7776
1694787757304687,-9.567071,0.729467,2.100818,0.33735,0.8751,0.6476
1694787757312500,-9.576071,0.724467,2.105818,0.35635,0.8151,0.6776
1694787757320312,-9.573071,0.722467,2.116818,0.32035,0.12451,0.14276
1694787757328125,-9.573071,0.725467,2.114818,0.33935,0.11851,0.11376
1694787757335937,-9.569071,0.729467,2.114818,0.44235,0.14551,0.9376
1694787757343750,-9.553071,0.722467,2.121818,0.39535,0.19051,0.1476
1694787757351562,-9.544071,0.726467,2.125818,0.39535,0.14351,0.6176
1694787757359375,-9.528071,0.719467,2.125818,0.41435,0.8951,0.4876
1694787757367187,-9.519071,0.710467,2.118818,0.32035,0.10651,0.6376
1694787757375000,-9.522071,0.713467,2.116818,0.46135,0.9051,0.8076
1694787757382812,-9.513071,0.719467,2.111818,0.33435,0.10851,0.6276
1694787757390625,-9.504071,0.721467,2.109818,0.39635,0.11051,0.7876
1694787757398437,-9.508071,0.728467,2.121818,0.36635,0.9151,0.6276
1694787757406250,-9.513071,0.735467,2.141818,0.35235,0.8951,0.7976
1694787757414062,-9.508071,0.726467,2.114818,0.46435,0.10051,0.376
1694787757421875,-9.499071,0.717467,2.165818,0.25335,0.17751,0.7576
1694787757429687,-9.515071,0.735467,2.139818,0.22435,0.15751,0.6076
1694787757437500,-9.522071,0.719467,2.85818,0.43035,0.7351,0.6476
1694787757445312,-9.540071,0.726467,2.127818,0.36435,0.249,0.7776
1694787757453125,-9.551071,0.715467,2.107818,0.38135,0.2049,0.7876
1694787757460937,-9.551071,0.718467,2.123818,0.44435,0.3449,0.12676
1694787757468750,-9.553071,0.724467,2.105818,0.46335,0.7549,0.3576
1694787757476562,-9.544071,0.724467,2.112818,0.44835,0.17449,0.5176
1694787757484375,-9.551071,0.726467,2.98818,0.46535,0.15749,0.9976
1694787757492187,-9.540071,0.722467,2.103818,0.43035,0.10649,0.1776
1694787757500000,-9.555071,0.718467,2.100818,0.38735,0.4449,0.13176
1694787757507812,-9.565071,0.720467,2.107818,0.46835,0.3449,0.3876
1694787757515625,-9.549071,0.720467,2.125818,0.45135,0.4949,0.5376
1694787757523437,-9.533071,0.724467,2.118818,0.46235,0.5749,0.6676
1694787757531250,-9.537071,0.720467,2.105818,0.43035,0.10449,0.6576
1694787757539062,-9.535071,0.724467,2.116818,0.44035,0.3349,0.2976
1694787757546875,-9.526071,0.726467,2.114818,0.46635,0.6549,0.2176
1694787757554687,-9.530071,0.711467,2.123818,0.44235,0.449,0.1624
1694787757562500,-9.535071,0.717467,2.139818,0.46035,0.3949,0.1676
1694787757570312,-9.539071,0.718467,2.129818,0.50535,0.2049,0.1676
1694787757578125,-9.539071,0.709467,2.123818,0.44335,0.3749,0.3176
1694787757585937,-9.548071,0.702467,2.123818,0.49535,0.6149,0.2076
1694787757593750,-9.553071,0.702467,2.120818,0.53835,0.3949,0.176
1694787757601562,-9.551071,0.700467,2.112818,0.47835,0.5749,0.6676
1694787757609375,-9.548071,0.684467,2.120818,0.58235,0.5149,0.0
1694787757617187,-9.548071,0.696467,2.114818,0.53435,0.1649,0.124
1694787757625000,-9.561071,0.694467,2.123818,0.65835,0.8049,0.1624
1694787757632812,-9.553071,0.691467,2.114818,0.64635,0.7149,0.6124
1694787757640625,-9.537071,0.697467,2.114818,0.64835,0.10449,0.1976
1694787757648437,-9.539071,0.707467,2.120818,0.69035,0.19449,0.3124
1694787757656250,-9.530071,0.704467,2.118818,0.65135,0.19049,0.576
1694787757664062,-9.526071,0.708467,2.118818,0.66635,0.18849,0.5376
1694787757671875,-9.513071,0.706467,2.132818,0.69835,0.6149,0.924
1694787757679687,-9.510071,0.708467,2.134818,0.71335,0.12249,0.3776
1694787757687500,-9.519071,0.710467,2.141818,0.69535,0.2249,0.1976
1694787757695312,-9.519071,0.708467,2.141818,0.69835,0.9149,0.5376
1694787757703125,-9.512071,0.715467,2.143818,0.70935,0.10249,0.1224
1694787757710937,-9.515071,0.724467,2.139818,0.69735,0.13949,0.2176
1694787757718750,-9.526071,0.724467,2.141818,0.77535,0.9149,0.4124
1694787757726562,-9.535071,0.724467,2.145818,0.72335,0.18249,0.4524
1694787757734375,-9.540071,0.726467,2.150818,0.70335,0.18149,0.524
1694787757742187,-9.553071,0.722467,2.127818,0.71135,0.18849,0.5824
1694787757750000,-9.560071,0.711467,2.125818,0.69835,0.14349,0.2424
1694787757757812,-9.568071,0.718467,2.114818,0.70435,0.12949,0.6324
1694787757765625,-9.573071,0.718467,2.114818,0.69735,0.19049,0.5724
1694787757773437,-9.571071,0.709467,2.112818,0.70035,0.7949,0.824
1694787757781250,-9.571071,0.716467,2.103818,0.69635,0.4349,0.5824
1694787757789062,-9.558071,0.713467,2.112818,0.69835,0.19049,0.924
1694787757796875,-9.560071,0.713467,2.100818,0.70035,0.11249,0.824
1694787757804687,-9.555071,0.713467,2.89818,0.69735,0.18849,0.576
1694787757812500,-9.546071,0.715467,2.105818,0.70035,0.16149,0.2324
1694787757820312,-9.533071,0.713467,2.94818,0.69735,0.15749,0.2524
1694787757828125,-9.546071,0.706467,2.73818,0.69535,0.17249,0.5824
1694787757835937,-9.546071,0.711467,2.91818,0.71535,0.19449,0.3924
1694787757843750,-9.535071,0.715467,2.114818,0.70535,0.20049,0.1176
1694787757851562,-9.528071,0.713467,2.94818,0.69835,0.23749,0.2176
1694787757859375,-9.488071,0.694467,2.154818,0.54135,0.351,0.2724
1694787757867187,-9.486071,0.716467,2.204818,0.33935,0.40951,0.6576
1694787757875000,-9.528071,0.697467,1.970818,0.57635,0.1649,0.2276
1694787757882812,-9.533071,0.697467,2.112818,0.59035,0.11049,0.6976
1694787757890625,-9.542071,0.686467,2.82818,0.65935,0.19749,0.12276
1694787757898437,-9.548071,0.693467,2.125818,0.65035,0.15549,0.3676
1694787757906250,-9.551071,0.711467,2.134818,0.68635,0.11249,0.5576
1694787757914062,-9.562071,0.720467,2.148818,0.69935,0.20649,0.5476
1694787757921875,-9.573071,0.722467,2.157818,0.71435,0.17349,0.3876
1694787757929687,-9.564071,0.718467,2.136818,0.63335,0.15349,0.3576
1694787757937500,-9.553071,0.711467,2.107818,0.66835,0.15749,0.8676
1694787757945312,-9.548071,0.698467,2.107818,0.69635,0.18349,0.8376
1694787757953125,-9.542071,0.697467,2.89818,0.61835,0.17249,0.476
1694787757960937,-9.525071,0.688467,2.64818,0.67835,0.23149,0.3476
1694787757968750,-9.532071,0.677467,2.46818,0.68235,0.15549,0.3776
1694787757976562,-9.537071,0.693467,2.48818,0.69535,0.20049,0.5176
1694787757984375,-9.562071,0.682467,2.51818,0.71435,0.17349,0.2276
1694787757992187,-9.573071,0.694467,2.48818,0.70935,0.18249,0.3476
1694787758000000,-9.575071,0.696467,2.66818,0.69635,0.8749,0.5176
1694787758007812,-9.571071,0.707467,2.71818,0.71335,0.12249,0.3776
1694787758015625,-9.567071,0.709467,2.69818,0.66935,0.17549,0.3976
1694787758023437,-9.551071,0.711467,2.75818,0.66535,0.13649,0.6776
1694787758031250,-9.544071,0.706467,2.91818,0.71935,0.17949,0.8976
1694787758039062,-9.535071,0.706467,2.93818,0.70935,0.16349,0.8176
1694787758046875,-9.522071,0.710467,2.114818,0.69835,0.14049,0.3876
1694787758054687,-9.492071,0.703467,2.67818,0.77935,0.14049,0.11976
1694787758062500,-9.479071,0.708467,2.190818,0.61735,0.35251,0.9676
1694787758070312,-9.522071,0.726467,2.22818,0.68235,0.1049,0.2176
1694787758078125,-9.499071,0.721467,2.35818,0.71435,0.17349,0.2276
1694787758085937,-9.524071,0.728467,2.66818,0.69835,0.36649,0.5376
1694787758093750,-9.537071,0.720467,2.12818,0.71235,0.33349,0.576
1694787758101562,-9.555071,0.726467,2.31818,0.69835,0.25549,0.2524
1694787758109375,-9.562071,0.727467,2.28818,0.69335,0.23149,0.1324
1694787758117187,-9.573071,0.725467,2.51818,0.70735,0.18049,0.1424
1694787758125000,-9.580071,0.729467,2.26818,0.70135,0.17749,0.2476
1694787758132812,-9.591071,0.716467,2.46818,0.68235,0.14149,0.2276
1694787758140625,-9.580071,0.716467,2.66818,0.71235,0.13649,0.6876
1694787758148437,-9.553071,0.702467,2.85818,0.70035,0.14249,0.7176
1694787758156250,-9.526071,0.708467,2.60818,0.71335,0.15349,0.8476
1694787758164062,-9.504071,0.701467,2.78818,0.70235,0.16149,0.5676
1694787758171875,-9.483071,0.697467,2.93818,0.71135,0.13449,0.6776
1694787758179687,-9.474071,0.708467,2.66818,0.69435,0.18249,0.3476
1694787758187500,-9.470071,0.701467,2.84818,0.72735,0.18449,0.5176
1694787758195312,-9.481071,0.712467,2.48818,0.76135,0.26749,0.10276
1694787758203125,-9.495071,0.726467,2.55818,0.69635,0.31549,0.6876
1694787758210937,-9.524071,0.724467,2.57818,0.71335,0.38049,0.8576
1694787758218750,-9.549071,0.729467,2.53818,0.70235,0.43749,0.5776
1694787758226562,-9.569071,0.736467,2.35818,0.74535,0.41549,0.5476
1694787758234375,-9.585071,0.734467,2.15818,0.74935,0.42149,0.4176
1694787758242187,-9.612071,0.745467,2.6818,0.73435,0.45649,0.2676
1694787758250000,-9.639071,0.743467,2.10818,0.71735,0.38849,0.5776
1694787758257812,-9.646071,0.737467,2.28818,0.70135,0.32349,0.5676
1694787758265625,-9.625071,0.721467,2.28818,0.71235,0.26549,0.8476
1694787758273437,-9.614071,0.727467,2.107818,0.66935,0.3551,0.7076
1694787758281250,-9.623071,0.728467,1.983818,0.71335,0.12249,0.6976
1694787758289062,-9.607071,0.725467,2.46818,0.76035,0.17149,0.5476
1694787758296875,-9.583071,0.731467,2.64818,0.82435,0.15749,0.3976
1694787758304687,-9.553071,0.738467,2.48818,0.83935,0.18749,0.5576
1694787758312500,-9.531071,0.746467,2.46818,0.79735,0.14649,0.4276
1694787758320312,-9.515071,0.750467,2.42818,0.91135,0.16549,0.4324
1694787758328125,-9.513071,0.764467,2.28818,0.83835,0.15749,0.5624
1694787758335937,-9.516071,0.775467,2.15818,0.77235,0.16749,0.4324
1694787758343750,-9.518071,0.792467,2.13818,0.71635,0.16149,0.724
1694787758351562,-9.520071,0.797467,2.15818,0.76935,0.18049,0.6124
1694787758359375,-9.545071,0.797467,2.8818,0.74635,0.15949,0.2424
1694787758367187,-9.559071,0.793467,1.992818,0.67735,0.14949,0.276
1694787758375000,-9.567071,0.789467,1.988818,0.67735,0.14949,0.1324
1694787758382812,-9.577071,0.780467,1.970818,0.63935,0.12849,0.5576
1694787758390625,-9.597071,0.774467,1.979818,0.62135,0.15749,0.5376
1694787758398437,-9.588071,0.769467,1.976818,0.68235,0.12249,0.5276
1694787758406250,-9.601071,0.767467,1.974818,0.55735,0.4049,0.9976
1694787758414062,-9.599071,0.774467,1.961818,0.65135,0.10649,0.6876
1694787758421875,-9.592071,0.776467,1.963818,0.63535,0.14349,0.4124
1694787758429687,-9.590071,0.765467,1.952818,0.62435,0.16349,0.2476
1694787758437500,-9.599071,0.760467,1.963818,0.54235,0.17649,0.1024
1694787758445312,-9.599071,0.754467,1.945818,0.52735,0.16249,0.5724
1694787758453125,-9.601071,0.758467,1.947818,0.45935,0.10249,0.1676
1694787758460937,-9.607071,0.754467,1.943818,0.47435,0.15149,0.1524
1694787758468750,-9.605071,0.743467,1.952818,0.45035,0.12649,0.8476
1694787758476562,-9.605071,0.716467,1.950818,0.46835,0.18049,0.5476
1694787758484375,-9.614071,0.714467,1.938818,0.44535,0.10449,0.3376
1694787758492187,-9.604071,0.707467,1.936818,0.52335,0.649,0.4976
1694787758500000,-9.605071,0.707467,1.925818,0.57335,0.7549,0.5276
1694787758507812,-9.611071,0.710467,1.936818,0.63335,0.10249,0.8276
1694787758515625,-9.618071,0.710467,1.933818,0.70835,0.6749,0.3376
1694787758523437,-9.612071,0.718467,1.949818,0.73035,0.7749,0.2376
1694787758531250,-9.603071,0.725467,1.959818,0.90535,0.2949,0.5776
1694787758539062,-9.585071,0.727467,1.954818,0.91535,0.2149,0.5376
1694787758546875,-9.585071,0.747467,1.963818,0.93235,0.9149,0.724
1694787758554687,-9.571071,0.756467,1.963818,0.85135,0.6949,0.2076
1694787758562500,-9.558071,0.760467,1.963818,0.82235,0.8949,0.676
1694787758570312,-9.554071,0.762467,1.952818,0.89135,0.13049,0.5976
1694787758578125,-9.551071,0.755467,1.947818,0.91335,0.549,0.5824
1694787758585937,-9.549071,0.755467,1.943818,0.91335,0.549,0.4224
1694787758593750,-9.549071,0.757467,1.945818,0.96835,0.19549,0.1924
1694787758601562,-9.560071,0.742467,1.943818,0.93235,0.7549,0.3924
1694787758609375,-9.563071,0.755467,1.956818,0.84135,0.11449,0.6924
1694787758617187,-9.561071,0.760467,1.963818,0.87335,0.8149,0.5324
1694787758625000,-9.567071,0.764467,1.945818,0.86735,0.4049,0.4124
1694787758632812,-9.574071,0.780467,1.961818,0.94635,0.2449,0.2424
1694787758640625,-9.572071,0.780467,1.958818,0.93035,0.7451,0.676
1694787758648437,-9.576071,0.778467,1.958818,0.91335,0.9251,0.1124
1694787758656250,-9.590071,0.776467,1.963818,0.94835,0.4449,0.3824
1694787758664062,-9.601071,0.772467,1.936818,0.93035,0.4049,0.2524
1694787758671875,-9.614071,0.765467,1.925818,0.90135,0.2649,0.776
1694787758679687,-9.626071,0.768467,1.936818,0.84735,0.249,0.9324
1694787758687500,-9.644071,0.777467,1.931818,0.75535,0.449,0.2924
1694787758695312,-9.644071,0.781467,1.898818,0.72235,0.9351,0.7824
1694787758703125,-9.646071,0.783467,1.893818,0.70735,0.6351,0.76
1694787758710937,-9.637071,0.803467,1.909818,0.74235,0.9051,0.1976
1694787758718750,-9.619071,0.801467,1.904818,0.71035,0.13951,0.376
1694787758726562,-9.606071,0.803467,1.923818,0.79435,0.11751,0.5576
1694787758734375,-9.581071,0.796467,1.931818,0.78935,0.9051,0.1124
1694787758742187,-9.568071,0.796467,1.943818,0.69335,0.17451,0.176
1694787758750000,-9.561071,0.795467,1.927818,0.83435,0.17451,0.376
1694787758757812,-9.570071,0.780467,1.907818,0.76235,0.13351,0.5476
1694787758765625,-9.576071,0.778467,1.925818,0.69535,0.18851,0.3476
1694787758773437,-9.572071,0.767467,1.927818,0.74535,0.13551,0.3776
1694787758781250,-9.578071,0.762467,1.911818,0.77435,0.10651,0.5276
1694787758789062,-9.601071,0.765467,1.902818,0.69935,0.5151,0.676
1694787758796875,-9.606071,0.785467,1.920818,0.71135,0.7351,0.1976
1694787758804687,-9.597071,0.791467,1.925818,0.76135,0.3951,0.8576
1694787758812500,-9.583071,0.796467,1.920818,0.84935,0.12951,0.6676
1694787758820312,-9.570071,0.795467,1.918818,0.72935,0.6951,0.1024
1694787758828125,-9.570071,0.798467,1.920818,0.71035,0.6151,0.9876
1694787758835937,-9.565071,0.789467,1.927818,0.69635,0.13951,0.8376
1694787758843750,-9.574071,0.778467,1.938818,0.71135,0.11151,0.12976
1694787758851562,-9.565071,0.762467,1.936818,0.70035,0.5151,0.5476
1694787758859375,-9.563071,0.762467,1.952818,0.71135,0.10651,0.1976
1694787758867187,-9.574071,0.749467,1.979818,0.69735,0.6951,0.2624
1694787758875000,-9.572071,0.751467,1.992818,0.71235,0.8851,0.2076
1694787758882812,-9.556071,0.751467,1.992818,0.69335,0.9251,0.1324
1694787758890625,-9.554071,0.746467,1.972818,0.71835,0.8051,0.4076
1694787758898437,-9.558071,0.748467,1.943818,0.68635,0.3051,0.2324
1694787758906250,-9.551071,0.742467,1.938818,0.69635,0.5551,0.1124
1694787758914062,-9.551071,0.740467,1.929818,0.71735,0.9549,0.5676
1694787758921875,-9.547071,0.753467,1.923818,0.65335,0.1851,0.5476
1694787758929687,-9.556071,0.740467,1.909818,0.64835,0.2451,0.376
1694787758937500,-9.567071,0.753467,1.907818,0.66835,0.1449,0.676
1694787758945312,-9.578071,0.762467,1.922818,0.57035,0.9051,0.5076
1694787758953125,-9.608071,0.760467,1.934818,0.55635,0.5351,0.1124
1694787758960937,-9.610071,0.763467,1.947818,0.55135,0.9351,0.0
1694787758968750,-9.612071,0.761467,1.954818,0.47535,0.10651,0.76
1694787758976562,-9.621071,0.759467,1.958818,0.49235,0.5751,0.4976
1694787758984375,-9.614071,0.750467,1.963818,0.43035,0.12051,0.4976
1694787758992187,-9.607071,0.729467,1.965818,0.51335,0.11451,0.8576
1694787759000000,-9.605071,0.727467,1.961818,0.54235,0.13551,0.6776
1694787759007812,-9.589071,0.718467,1.963818,0.51335,0.9851,0.5376
1694787759015625,-9.576071,0.725467,1.974818,0.52635,0.15351,0.13076
1694787759023437,-9.565071,0.731467,1.972818,0.43335,0.14951,0.8376
1694787759031250,-9.545071,0.733467,1.984818,0.59635,0.7451,0.4276
1694787759039062,-9.520071,0.744467,1.988818,0.50635,0.5951,0.0
1694787759046875,-9.513071,0.750467,2.10818,0.49635,0.3451,0.2076
1694787759054687,-9.518071,0.741467,2.10818,0.50935,0.13751,0.5076
1694787759062500,-9.515071,0.746467,2.8818,0.44835,0.1049,0.8276
1694787759070312,-9.525071,0.757467,1.995818,0.54335,0.1449,0.3776
1694787759078125,-9.549071,0.751467,1.985818,0.58635,0.4051,0.276
1694787759085937,-9.574071,0.744467,1.977818,0.52935,0.3249,0.5476
1694787759093750,-9.581071,0.742467,1.963818,0.48235,0.6549,0.676
1694787759101562,-9.594071,0.742467,1.950818,0.51635,0.11849,0.876
1694787759109375,-9.603071,0.738467,1.922818,0.49335,0.4049,0.5076
1694787759117187,-9.619071,0.734467,1.922818,0.40235,0.11049,0.3576
1694787759125000,-9.621071,0.725467,1.925818,0.43735,0.1849,0.7076
1694787759132812,-9.634071,0.719467,1.929818,0.43435,0.10051,0.8376
1694787759140625,-9.641071,0.715467,1.947818,0.41235,0.12451,0.6376
1694787759148437,-9.630071,0.721467,1.959818,0.44935,0.451,0.8376
1694787759156250,-9.625071,0.732467,1.974818,0.27735,0.8351,0.6576
1694787759164062,-9.618071,0.714467,1.992818,0.24335,0.10451,0.7976
1694787759171875,-9.587071,0.709467,1.997818,0.40135,0.8551,0.6676
1694787759179687,-9.569071,0.711467,1.997818,0.46635,0.16151,0.576
1694787759187500,-9.544071,0.708467,2.15818,0.45135,0.11251,0.5376
1694787759195312,-9.522071,0.712467,2.28818,0.50035,0.7851,0.3976
1694787759203125,-9.519071,0.708467,2.31818,0.49435,0.11851,0.5176
1694787759210937,-9.519071,0.706467,2.19818,0.49035,0.9151,0.0
1694787759218750,-9.528071,0.708467,2.13818,0.52535,0.13551,0.3576
1694787759226562,-9.544071,0.697467,1.997818,0.49235,0.2451,0.1776
1694787759234375,-9.553071,0.700467,1.997818,0.48835,0.2851,0.3224
1694787759242187,-9.566071,0.709467,1.990818,0.44335,0.951,0.1524
1694787759250000,-9.578071,0.711467,1.981818,0.45935,0.5951,0.0
1694787759257812,-9.578071,0.722467,1.974818,0.50935,0.651,0.1876
1694787759265625,-9.578071,0.727467,1.970818,0.45935,0.3949,0.3124
1694787759273437,-9.574071,0.724467,1.968818,0.46735,0.149,0.3876
1694787759281250,-9.571071,0.724467,1.974818,0.44335,0.2451,0.4724
1694787759289062,-9.572071,0.726467,1.972818,0.49835,0.7751,0.2424
1694787759296875,-9.578071,0.725467,1.979818,0.42835,0.849,0.4624
1694787759304687,-9.587071,0.729467,1.963818,0.46135,0.851,0.3376
1694787759312500,-9.596071,0.723467,1.965818,0.47935,0.1249,0.1976
1694787759320312,-9.611071,0.710467,1.972818,0.47735,0.3851,0.1876
1694787759328125,-9.627071,0.708467,1.963818,0.44135,0.12651,0.1476
1694787759335937,-9.616071,0.699467,1.974818,0.44335,0.9151,0.0
1694787759343750,-9.616071,0.701467,1.963818,0.46135,0.7351,0.6576
1694787759351562,-9.616071,0.703467,1.976818,0.47135,0.12851,0.224
1694787759359375,-9.609071,0.694467,1.954818,0.44635,0.8751,0.1776
1694787759367187,-9.611071,0.700467,1.950818,0.46535,0.14751,0.2076
1694787759375000,-9.600071,0.703467,1.961818,0.44435,0.17151,0.3276
1694787759382812,-9.589071,0.709467,1.970818,0.45935,0.28651,0.4776
1694787759390625,-9.589071,0.707467,1.979818,0.44535,0.33351,0.4776
1694787759398437,-9.586071,0.709467,2.1818,0.45735,0.32351,0.7776
1694787759406250,-9.571071,0.707467,2.17818,0.44535,0.38351,0.9576
1694787759414062,-9.573071,0.704467,2.1818,0.46335,0.31351,0.6676
1694787759421875,-9.566071,0.709467,2.8818,0.44335,0.22351,0.7876
1694787759429687,-9.557071,0.707467,2.17818,0.45935,0.20651,0.6376
1694787759437500,-9.548071,0.715467,2.15818,0.48935,0.22551,0.7876
1694787759445312,-9.540071,0.726467,2.21818,0.42835,0.23751,0.4776
1694787759453125,-9.531071,0.708467,2.19818,0.49535,0.10251,0.6776
1694787759460937,-9.521071,0.697467,2.17818,0.47935,0.11651,0.1976
1694787759468750,-9.532071,0.684467,2.10818,0.47935,0.11851,0.6676
1694787759476562,-9.530071,0.688467,2.4818,0.49535,0.13351,0.1976
1694787759484375,-9.537071,0.682467,2.3818,0.44435,0.16951,0.1524
1694787759492187,-9.535071,0.677467,1.997818,0.46135,0.7151,0.176
1694787759500000,-9.544071,0.693467,1.997818,0.63935,0.9851,0.8676
1694787759507812,-9.541071,0.686467,2.1818,0.57335,0.8651,0.6876
1694787759515625,-9.548071,0.686467,1.995818,0.58935,0.10251,0.8476
1694787759523437,-9.550071,0.691467,1.997818,0.60335,0.7451,0.8276
1694787759531250,-9.562071,0.689467,2.15818,0.63735,0.11751,0.5376
1694787759539062,-9.566071,0.691467,2.4818,0.68435,0.8651,0.8576
1694787759546875,-9.564071,0.689467,2.1818,0.63435,0.7151,0.3576
1694787759554687,-9.564071,0.695467,2.4818,0.70035,0.8451,0.5476
1694787759562500,-9.551071,0.706467,2.26818,0.68335,0.10251,0.6976
1694787759570312,-9.530071,0.695467,2.33818,0.66735,0.8851,0.10076
1694787759578125,-9.539071,0.697467,2.35818,0.69535,0.5951,0.8276
1694787759585937,-9.526071,0.697467,2.33818,0.69735,0.5551,0.5276
1694787759593750,-9.517071,0.688467,2.33818,0.71635,0.1651,0.876
1694787759601562,-9.510071,0.688467,2.10818,0.69635,0.2449,0.476
1694787759609375,-9.530071,0.691467,1.994818,0.72835,0.7549,0.1024
1694787759617187,-9.537071,0.688467,1.997818,0.61935,0.18849,0.5276
1694787759625000,-9.566071,0.693467,1.985818,0.64835,0.15349,0.1224
1694787759632812,-9.573071,0.713467,1.990818,0.63535,0.17149,0.3676
1694787759640625,-9.598071,0.709467,1.990818,0.71735,0.21249,0.5424
1694787759648437,-9.607071,0.723467,1.986818,0.55835,0.6149,0.2076
1694787759656250,-9.607071,0.734467,1.979818,0.59035,0.17549,0.3876
1694787759664062,-9.607071,0.723467,1.979818,0.62235,0.7749,0.6976
1694787759671875,-9.616071,0.723467,1.963818,0.50835,0.8849,0.6576
1694787759679687,-9.623071,0.718467,1.968818,0.50135,0.6749,0.10376
1694787759687500,-9.625071,0.705467,1.977818,0.49735,0.8651,0.14776
1694787759695312,-9.620071,0.690467,1.979818,0.47635,0.9251,0.8076
1694787759703125,-9.629071,0.685467,1.988818,0.51035,0.12151,0.11476
1694787759710937,-9.618071,0.672467,2.4818,0.43935,0.6451,0.18276
1694787759718750,-9.593071,0.674467,2.15818,0.54435,0.18451,0.19576
1694787759726562,-9.580071,0.685467,2.28818,0.58935,0.13751,0.14776
1694787759734375,-9.569071,0.695467,2.33818,0.56235,0.4951,0.11876
1694787759742187,-9.564071,0.702467,2.44818,0.67935,0.17451,0.8176
1694787759750000,-9.555071,0.711467,2.53818,0.71835,0.16451,0.13576
1694787759757812,-9.553071,0.724467,2.66818,0.69635,0.15851,0.14676
1694787759765625,-9.553071,0.729467,2.82818,0.71435,0.10251,0.6976
1694787759773437,-9.531071,0.724467,2.69818,0.54335,0.8651,0.11576
1694787759781250,-9.535071,0.722467,2.69818,0.52135,0.12951,0.12676
1694787759789062,-9.551071,0.709467,2.64818,0.55435,0.7551,0.6576
1694787759796875,-9.548071,0.709467,2.75818,0.52235,0.10851,0.6476
1694787759804687,-9.553071,0.706467,2.94818,0.57235,0.15351,0.6676
1694787759812500,-9.551071,0.704467,2.87818,0.64835,0.18851,0.3476
1694787759820312,-9.553071,0.709467,2.84818,0.70735,0.12951,0.4876
1694787759828125,-9.555071,0.698467,2.91818,0.62035,0.18251,0.3676
1694787759835937,-9.551071,0.693467,2.85818,0.71635,0.8451,0.5476
1694787759843750,-9.548071,0.691467,2.33818,0.58535,0.5951,0.4976
1694787759851562,-9.552071,0.687467,2.1818,0.66435,0.6251,0.16176
1694787759859375,-9.568071,0.689467,1.976818,0.67935,0.7651,0.5076
1694787759867187,-9.588071,0.674467,1.976818,0.68135,0.8851,0.3676
1694787759875000,-9.591071,0.674467,1.985818,0.65135,0.7251,0.8476
1694787759882812,-9.606071,0.681467,1.972818,0.69435,0.15751,0.1776
1694787759890625,-9.611071,0.683467,1.983818,0.70635,0.26251,0.9476
1694787759898437,-9.609071,0.690467,1.990818,0.69235,0.30751,0.3176
1694787759906250,-9.604071,0.690467,2.3818,0.69135,0.21351,0.9476
1694787759914062,-9.588071,0.692467,2.19818,0.70735,0.22751,0.7976
1694787759921875,-9.580071,0.682467,2.37818,0.70235,0.26251,0.13476
1694787759929687,-9.573071,0.669467,2.71818,0.71635,0.26551,0.14976
1694787759937500,-9.557071,0.667467,2.71818,0.69735,0.28751,0.17876
1694787759945312,-9.550071,0.660467,2.89818,0.71035,0.19551,0.19276
1694787759953125,-9.520071,0.655467,2.114818,0.69335,0.29351,0.14376
1694787759960937,-9.507071,0.668467,2.116818,0.71535,0.26751,0.16476
1694787759968750,-9.490071,0.679467,2.116818,0.77735,0.25051,0.11776
1694787759976562,-9.478071,0.690467,2.123818,0.72635,0.22351,0.9876
1694787759984375,-9.496071,0.690467,2.118818,0.69535,0.18851,0.5076
1694787759992187,-9.496071,0.688467,2.120818,0.70935,0.15951,0.4976
1694787760000000,-9.512071,0.688467,2.105818,0.69435,0.15751,0.5076
1694787760007812,-9.528071,0.691467,2.105818,0.74435,0.5551,0.3776
1694787760015625,-9.537071,0.689467,2.102818,0.83435,0.16051,0.5076
1694787760023437,-9.537071,0.688467,2.87818,0.82435,0.21551,0.3876
1694787760031250,-9.542071,0.706467,2.87818,0.88835,0.11551,0.2576
1694787760039062,-9.553071,0.702467,2.76818,0.74435,0.7251,0.2176
1694787760046875,-9.555071,0.697467,2.76818,0.79535,0.4951,0.4076
1694787760054687,-9.557071,0.709467,2.62818,0.77635,0.13751,0.10176
1694787760062500,-9.566071,0.698467,2.67818,0.77935,0.14851,0.7276
1694787760070312,-9.573071,0.689467,2.69818,0.69935,0.8651,0.5376
1694787760078125,-9.562071,0.696467,2.64818,0.71035,0.9251,0.3476
1694787760085937,-9.567071,0.706467,2.71818,0.70335,0.12951,0.12076
1694787760093750,-9.578071,0.711467,2.85818,0.71835,0.6451,0.4076
1694787760101562,-9.573071,0.711467,2.71818,0.70035,0.10351,0.14976
1694787760109375,-9.574071,0.713467,2.80818,0.69435,0.18551,0.12476
1694787760117187,-9.571071,0.704467,2.80818,0.71935,0.24451,0.13576
1694787760125000,-9.578071,0.687467,2.71818,0.70535,0.24251,0.18476
1694787760132812,-9.584071,0.685467,2.89818,0.71635,0.29751,0.13376
1694787760140625,-9.588071,0.676467,2.89818,0.69735,0.36951,0.17776
1694787760148437,-9.582071,0.689467,2.87818,0.70935,0.29351,0.17576
1694787760156250,-9.564071,0.687467,2.89818,0.66535,0.35251,0.14576
1694787760164062,-9.551071,0.691467,2.91818,0.67135,0.30951,0.11876
1694787760171875,-9.546071,0.709467,2.84818,0.69635,0.28951,0.16176
1694787760179687,-9.537071,0.697467,2.96818,0.74935,0.26051,0.8776
1694787760187500,-9.539071,0.702467,2.100818,0.74535,0.28551,0.14776
1694787760195312,-9.535071,0.704467,2.100818,0.70035,0.23251,0.10176
1694787760203125,-9.526071,0.702467,2.107818,0.71335,0.20351,0.8376
1694787760210937,-9.517071,0.693467,2.105818,0.69935,0.18451,0.8476
1694787760218750,-9.515071,0.692467,2.103818,0.71735,0.14851,0.8776
1694787760226562,-9.526071,0.686467,2.107818,0.69835,0.25051,0.6876
1694787760234375,-9.512071,0.688467,2.103818,0.69635,0.20551,0.8276
1694787760242187,-9.512071,0.688467,2.100818,0.71635,0.10051,0.7076
1694787760250000,-9.510071,0.706467,2.98818,0.70235,0.6651,0.8776
1694787760257812,-9.530071,0.693467,2.100818,0.71135,0.13951,0.5176
1694787760265625,-9.528071,0.688467,2.94818,0.69735,0.15451,0.6876
1694787760273437,-9.533071,0.704467,2.105818,0.71335,0.15451,0.6876
1694787760281250,-9.535071,0.706467,2.98818,0.73735,0.9851,0.3176
1694787760289062,-9.537071,0.708467,2.107818,0.74335,0.13951,0.6776
1694787760296875,-9.542071,0.709467,2.109818,0.76035,0.8851,0.3776
1694787760304687,-9.539071,0.706467,2.116818,0.74135,0.9451,0.8276
1694787760312500,-9.542071,0.702467,2.116818,0.82135,0.10951,0.8376
1694787760320312,-9.542071,0.713467,2.118818,0.69635,0.9051,0.6776
1694787760328125,-9.551071,0.716467,2.136818,0.77235,0.4751,0.11376
1694787760335937,-9.546071,0.722467,2.139818,0.74635,0.2351,0.11776
1694787760343750,-9.533071,0.713467,2.134818,0.82235,0.5851,0.8576
1694787760351562,-9.531071,0.717467,2.114818,0.71535,0.451,0.5476
1694787760359375,-9.508071,0.721467,2.130818,0.69735,0.5551,0.5276
1694787760367187,-9.504071,0.721467,2.127818,0.71235,0.1051,0.9976
1694787760375000,-9.497071,0.726467,2.132818,0.69935,0.949,0.8576
1694787760382812,-9.495071,0.728467,2.130818,0.72935,0.5949,0.3776
1694787760390625,-9.495071,0.721467,2.139818,0.71335,0.4049,0.8476
1694787760398437,-9.499071,0.726467,2.118818,0.69935,0.1149,0.3876
1694787760406250,-9.499071,0.737467,2.134818,0.69535,0.2449,0.1124
1694787760414062,-9.513071,0.739467,2.136818,0.71335,0.10849,0.924
1694787760421875,-9.515071,0.735467,2.136818,0.74335,0.5749,0.576
1694787760429687,-9.520071,0.746467,2.141818,0.74735,0.12649,0.5576
1694787760437500,-9.529071,0.742467,2.118818,0.80835,0.17349,0.776
1694787760445312,-9.515071,0.737467,2.105818,0.93535,0.15949,0.2576
1694787760453125,-9.538071,0.748467,2.107818,0.79235,0.17349,0.824
1694787760460937,-9.547071,0.753467,2.107818,0.74235,0.16949,0.2724
1694787760468750,-9.556071,0.760467,2.102818,0.78335,0.14549,0.6224
1694787760476562,-9.563071,0.762467,2.105818,0.77735,0.19249,0.3924
1694787760484375,-9.572071,0.758467,2.103818,0.74635,0.11249,0.3924
1694787760492187,-9.574071,0.749467,2.96818,0.70035,0.7949,0.776
1694787760500000,-9.567071,0.756467,2.125818,0.71235,0.5749,0.476
1694787760507812,-9.572071,0.762467,2.118818,0.69935,0.2849,0.5476
1694787760515625,-9.558071,0.760467,2.121818,0.65135,0.2251,0.6876
1694787760523437,-9.552071,0.748467,2.125818,0.70235,0.3351,0.8876
1694787760531250,-9.558071,0.744467,2.132818,0.71235,0.4351,0.11576
1694787760539062,-9.544071,0.738467,2.141818,0.64835,0.549,0.5076
1694787760546875,-9.535071,0.729467,2.145818,0.68135,0.3849,0.9976
1694787760554687,-9.540071,0.726467,2.143818,0.71235,0.2449,0.2076
1694787760562500,-9.539071,0.715467,2.132818,0.71235,0.3849,0.6776
1694787760570312,-9.555071,0.727467,2.123818,0.67735,0.1451,0.3276
1694787760578125,-9.555071,0.724467,2.125818,0.69635,0.7451,0.6776
1694787760585937,-9.569071,0.731467,2.134818,0.71035,0.6151,0.8276
1694787760593750,-9.578071,0.734467,2.143818,0.69735,0.7451,0.8376
1694787760601562,-9.576071,0.751467,2.141818,0.70935,0.9451,0.3376
1694787760609375,-9.576071,0.763467,2.145818,0.69135,0.11451,0.7976
1694787760617187,-9.579071,0.769467,2.154818,0.69535,0.7651,0.5076
1694787760625000,-9.570071,0.776467,2.166818,0.69735,0.8851,0.5276
1694787760632812,-9.563071,0.758467,2.166818,0.69535,0.9251,0.6676
1694787760640625,-9.545071,0.762467,2.163818,0.69335,0.11051,0.4976
1694787760648437,-9.536071,0.760467,2.175818,0.71335,0.10451,0.8476
1694787760656250,-9.524071,0.762467,2.154818,0.69335,0.11051,0.1776
1694787760664062,-9.504071,0.757467,2.157818,0.71135,0.17251,0.6776
1694787760671875,-9.488071,0.752467,2.154818,0.69335,0.6351,0.9676
1694787760679687,-9.497071,0.750467,2.172818,0.69635,0.13951,0.5176
1694787760687500,-9.506071,0.748467,2.179818,0.65035,0.15351,0.8376
1694787760695312,-9.515071,0.757467,2.179818,0.69435,0.12751,0.8176
1694787760703125,-9.518071,0.764467,2.170818,0.69735,0.12151,0.6876
1694787760710937,-9.534071,0.773467,2.170818,0.71135,0.15551,0.3576
1694787760718750,-9.560071,0.760467,2.150818,0.69435,0.14351,0.9776
1694787760726562,-9.583071,0.747467,2.143818,0.70935,0.12751,0.4976
1694787760734375,-9.607071,0.743467,2.145818,0.69435,0.7551,0.3476
1694787760742187,-9.607071,0.745467,2.116818,0.71335,0.10451,0.5276
1694787760750000,-9.603071,0.734467,2.141818,0.72435,0.20951,0.3276
1694787760757812,-9.585071,0.743467,2.148818,0.74435,0.18651,0.5276
1694787760765625,-9.553071,0.749467,2.163818,0.75835,0.10951,0.8376
1694787760773437,-9.549071,0.758467,2.170818,0.72735,0.12551,0.9876
1694787760781250,-9.524071,0.759467,2.157818,0.75835,0.20551,0.6776
1694787760789062,-9.511071,0.764467,2.150818,0.70735,0.17851,0.6476
1694787760796875,-9.499071,0.764467,2.134818,0.76635,0.18451,0.6176
1694787760804687,-9.491071,0.759467,2.139818,0.72535,0.19051,0.5076
1694787760812500,-9.482071,0.750467,2.157818,0.74335,0.23551,0.3576
1694787760820312,-9.486071,0.759467,2.143818,0.77135,0.19251,0.4976
1694787760828125,-9.495071,0.761467,2.148818,0.78735,0.22351,0.3476
1694787760835937,-9.507071,0.752467,2.161818,0.83935,0.20151,0.3876
1694787760843750,-9.533071,0.746467,2.154818,0.92535,0.22951,0.4976
1694787760851562,-9.538071,0.746467,2.172818,0.88435,0.18751,0.3776
1694787760859375,-9.545071,0.753467,2.175818,0.93435,0.8651,0.5676
1694787760867187,-9.540071,0.746467,2.181818,0.96535,0.7051,0.2476
1694787760875000,-9.531071,0.746467,2.179818,0.91435,0.10951,0.6876
1694787760882812,-9.509071,0.761467,2.170818,0.91335,0.9251,0.476
1694787760890625,-9.493071,0.763467,2.175818,0.95935,0.10851,0.5824
1694787760898437,-9.480071,0.772467,2.184818,0.89735,0.9251,0.4324
1694787760906250,-9.469071,0.774467,2.195818,0.85535,0.12151,0.8676
1694787760914062,-9.480071,0.792467,2.184818,0.89935,0.2551,0.676
1694787760921875,-9.482071,0.790467,2.184818,0.82035,0.2451,0.2624
1694787760929687,-9.496071,0.779467,2.197818,0.74335,0.7451,0.5276
1694787760937500,-9.509071,0.775467,2.181818,0.71035,0.2451,0.2724
1694787760945312,-9.509071,0.761467,2.175818,0.69935,0.1149,0.5476
1694787760953125,-9.511071,0.764467,2.163818,0.74635,0.4449,0.3976
1694787760960937,-9.520071,0.753467,2.159818,0.77235,0.2249,0.2724
1694787760968750,-9.524071,0.746467,2.159818,0.70435,0.8151,0.6424
1694787760976562,-9.531071,0.740467,2.161818,0.70635,0.4951,0.1576
1694787760984375,-9.537071,0.735467,2.172818,0.70735,0.0,0.4876
1694787760992187,-9.533071,0.742467,2.177818,0.69235,0.1849,0.3376
1694787761000000,-9.517071,0.744467,2.170818,0.70735,0.249,0.3024
1694787761007812,-9.513071,0.762467,2.175818,0.72335,0.3749,0.6124
1694787761015625,-9.511071,0.753467,2.170818,0.78935,0.3849,0.2076
1694787761023437,-9.517071,0.746467,2.159818,0.81835,0.1451,0.3476
1694787761031250,-9.513071,0.755467,2.177818,0.67735,0.6351,0.4876
1694787761039062,-9.529071,0.760467,2.172818,0.78835,0.5249,0.1976
1694787761046875,-9.538071,0.760467,2.159818,0.76135,0.7549,0.3876
1694787761054687,-9.541071,0.775467,2.163818,0.73135,0.2849,0.8676
1694787761062500,-9.561071,0.778467,2.170818,0.70335,0.3149,0.12076
1694787761070312,-9.549071,0.789467,2.163818,0.69235,0.4751,0.1676
1694787761078125,-9.547071,0.787467,2.159818,0.69235,0.1651,0.8076
1694787761085937,-9.543071,0.795467,2.165818,0.70635,0.5151,0.6376
1694787761093750,-9.541071,0.786467,2.159818,0.69735,0.4151,0.10076
1694787761101562,-9.543071,0.795467,2.156818,0.70735,0.11451,0.6376
1694787761109375,-9.525071,0.779467,2.168818,0.68135,0.851,0.6876
1694787761117187,-9.529071,0.780467,2.183818,0.64535,0.4951,0.7976
1694787761125000,-9.531071,0.775467,2.184818,0.71035,0.2651,0.1976
1694787761132812,-9.520071,0.766467,2.174818,0.70935,0.6351,0.8076
1694787761140625,-9.522071,0.762467,2.166818,0.65235,0.949,0.8476
1694787761148437,-9.506071,0.761467,2.166818,0.68035,0.3849,0.3576
1694787761156250,-9.491071,0.763467,2.157818,0.71335,0.4249,0.2176
1694787761164062,-9.486071,0.772467,2.186818,0.63235,0.2049,0.9776
1694787761171875,-9.495071,0.775467,2.195818,0.68035,0.549,0.6776
1694787761179687,-9.500071,0.779467,2.195818,0.69635,0.3849,0.8376
1694787761187500,-9.514071,0.781467,2.188818,0.66735,0.2251,0.6876
1694787761195312,-9.541071,0.791467,2.174818,0.70835,0.4751,0.6576
1694787761203125,-9.543071,0.773467,2.181818,0.61635,0.6151,0.8076
1694787761210937,-9.540071,0.773467,2.168818,0.66435,0.549,0.5076
1694787761218750,-9.531071,0.768467,2.157818,0.60435,0.5949,0.5276
1694787761226562,-9.511071,0.761467,2.161818,0.69835,0.18549,0.11676
1694787761234375,-9.482071,0.754467,2.150818,0.58835,0.10649,0.9976
1694787761242187,-9.477071,0.759467,2.141818,0.60535,0.12449,0.5376
1694787761250000,-9.491071,0.752467,2.143818,0.69635,0.8749,0.6776
1694787761257812,-9.513071,0.762467,2.141818,0.63135,0.1849,0.9676
1694787761265625,-9.543071,0.762467,2.163818,0.68235,0.4049,0.8476
1694787761273437,-9.569071,0.758467,2.154818,0.67835,0.3449,0.9776
1694787761281250,-9.587071,0.763467,2.152818,0.70735,0.1649,0.6476
1694787761289062,-9.592071,0.774467,2.163818,0.66235,0.3449,0.6576
1694787761296875,-9.572071,0.765467,2.172818,0.66135,0.9849,0.8076
1694787761304687,-9.544071,0.762467,2.168818,0.70735,0.7949,0.6476
1694787761312500,-9.535071,0.755467,2.154818,0.69035,0.6149,0.7876
1694787761320312,-9.517071,0.755467,2.141818,0.70435,0.9249,0.7876
1694787761328125,-9.509071,0.757467,2.148818,0.69835,0.15549,0.6976
1694787761335937,-9.513071,0.750467,2.156818,0.71035,0.11649,0.8276
1694787761343750,-9.509071,0.761467,2.148818,0.69735,0.12249,0.5376
1694787761351562,-9.502071,0.764467,2.136818,0.69435,0.19649,0.9776
1694787761359375,-9.500071,0.768467,2.136818,0.69535,0.5249,0.6676
1694787761367187,-9.502071,0.770467,2.145818,0.70135,0.15949,0.8776
1694787761375000,-9.514071,0.777467,2.152818,0.70435,0.9949,0.5776
1694787761382812,-9.509071,0.781467,2.154818,0.69935,0.6149,0.3876
1694787761390625,-9.520071,0.777467,2.148818,0.69735,0.7349,0.5276
1694787761398437,-9.516071,0.775467,2.130818,0.69635,0.9049,0.2724
1694787761406250,-9.534071,0.768467,2.123818,0.69735,0.5949,0.2624
1694787761414062,-9.535071,0.762467,2.127818,0.68935,0.1249,0.6276
1694787761421875,-9.536071,0.755467,2.130818,0.69635,0.3849,0.8376
1694787761429687,-9.538071,0.762467,2.125818,0.71135,0.5449,0.5176
1694787761437500,-9.540071,0.755467,2.143818,0.69735,0.5649,0.6876
1694787761445312,-9.543071,0.762467,2.130818,0.71635,0.9549,0.4076
1694787761453125,-9.554071,0.769467,2.134818,0.70335,0.6449,0.8876
1694787761460937,-9.568071,0.769467,2.159818,0.71735,0.4649,0.7176
1694787761468750,-9.556071,0.780467,2.159818,0.68635,0.6249,0.7176
1694787761476562,-9.548071,0.791467,2.139818,0.66735,0.17349,0.676
1694787761484375,-9.536071,0.779467,2.145818,0.69935,0.15749,0.7076
1694787761492187,-9.520071,0.773467,2.152818,0.68335,0.12649,0.676
1694787761500000,-9.507071,0.794467,2.152818,0.70535,0.18149,0.7476
1694787761507812,-9.496071,0.790467,2.161818,0.71335,0.7549,0.1024
1694787761515625,-9.480071,0.789467,2.150818,0.68935,0.8549,0.4276
1694787761523437,-9.476071,0.781467,2.152818,0.70535,0.13449,0.5976
1694787761531250,-9.487071,0.776467,2.141818,0.71635,0.17549,0.3976
1694787761539062,-9.500071,0.774467,2.148818,0.70235,0.17949,0.624
1694787761546875,-9.514071,0.779467,2.141818,0.71435,0.17549,0.2424
1694787761554687,-9.516071,0.783467,2.134818,0.70335,0.21449,0.524
1694787761562500,-9.525071,0.781467,2.123818,0.69935,0.19249,0.824
1694787761570312,-9.532071,0.779467,2.114818,0.70035,0.22449,0.3976
1694787761578125,-9.539071,0.791467,2.112818,0.69935,0.20849,0.2424
1694787761585937,-9.545071,0.789467,2.114818,0.69535,0.18649,0.1124
1694787761593750,-9.556071,0.784467,2.114818,0.69835,0.20649,0.924
1694787761601562,-9.559071,0.784467,2.105818,0.70135,0.16349,0.5424
1694787761609375,-9.563071,0.782467,2.103818,0.70535,0.16949,0.324
1694787761617187,-9.572071,0.784467,2.89818,0.69935,0.21049,0.7124
1694787761625000,-9.574071,0.780467,2.105818,0.71635,0.16149,0.876
1694787761632812,-9.554071,0.777467,2.98818,0.70035,0.17549,0.2376
1694787761640625,-9.554071,0.795467,2.85818,0.71335,0.15549,0.3776
1694787761648437,-9.548071,0.797467,2.71818,0.69735,0.17149,0.3776
1694787761656250,-9.530071,0.797467,2.82818,0.71235,0.13949,0.1024
1694787761664062,-9.516071,0.815467,2.69818,0.66335,0.17249,0.12324
1694787761671875,-9.514071,0.821467,2.80818,0.65035,0.15949,0.10524
1694787761679687,-9.525071,0.835467,2.80818,0.64535,0.19849,0.6224
1694787761687500,-9.530071,0.828467,2.80818,0.72735,0.15749,0.10524
1694787761695312,-9.528071,0.833467,2.69818,0.68435,0.16149,0.3924
1694787761703125,-9.539071,0.831467,2.82818,0.66735,0.20849,0.5624
1694787761710937,-9.541071,0.819467,2.87818,0.55735,0.17649,0.7424
1694787761718750,-9.564071,0.809467,2.76818,0.43035,0.15849,0.7624
1694787761726562,-9.577071,0.800467,2.71818,0.49035,0.18649,0.9424
1694787761734375,-9.592071,0.785467,2.62818,0.55635,0.14149,0.2724
1694787761742187,-9.606071,0.787467,2.67818,0.54735,0.8549,0.724
1694787761750000,-9.611071,0.801467,2.80818,0.57135,0.4349,0.2824
1694787761757812,-9.602071,0.816467,2.84818,0.55035,0.2851,0.6324
1694787761765625,-9.593071,0.814467,2.87818,0.60135,0.2449,0.4424
1694787761773437,-9.588071,0.814467,2.73818,0.48935,0.4451,0.1576
1694787761781250,-9.577071,0.816467,2.62818,0.47935,0.6951,0.5176
1694787761789062,-9.572071,0.802467,2.40818,0.44635,0.2051,0.2824
1694787761796875,-9.561071,0.804467,2.44818,0.46535,0.6351,0.4224
1694787761804687,-9.545071,0.795467,2.49818,0.44735,0.3651,0.276
1694787761812500,-9.537071,0.795467,2.42818,0.51335,0.11251,0.2276
1694787761820312,-9.529071,0.782467,2.62818,0.66235,0.9251,0.3024
1694787761828125,-9.530071,0.786467,2.58818,0.62035,0.6951,0.2076
1694787761835937,-9.532071,0.777467,2.69818,0.59335,0.6351,0.7176
1694787761843750,-9.545071,0.773467,2.53818,0.65535,0.3151,0.876
1694787761851562,-9.536071,0.766467,2.60818,0.54435,0.251,0.6976
1694787761859375,-9.545071,0.762467,2.71818,0.59135,0.0,0.676
1694787761867187,-9.531071,0.744467,2.69818,0.63335,0.3849,0.5076
1694787761875000,-9.515071,0.746467,2.48818,0.66235,0.2049,0.1776
1694787761882812,-9.513071,0.757467,2.49818,0.70235,0.4849,0.4076
1694787761890625,-9.500071,0.761467,2.53818,0.59535,0.3649,0.5776
1694787761898437,-9.502071,0.763467,2.55818,0.68035,0.10449,0.5176
1694787761906250,-9.507071,0.774467,2.51818,0.71935,0.11649,0.4276
1694787761914062,-9.513071,0.773467,2.53818,0.64535,0.13149,0.1676
1694787761921875,-9.531071,0.766467,2.44818,0.69635,0.16949,0.5276
1694787761929687,-9.536071,0.757467,2.24818,0.70235,0.21049,0.5676
1694787761937500,-9.554071,0.751467,2.10818,0.71335,0.18849,0.2176
1694787761945312,-9.554071,0.744467,2.4818,0.69835,0.19049,0.2524
1694787761953125,-9.576071,0.742467,1.990818,0.71335,0.20649,0.2524
1694787761960937,-9.587071,0.745467,1.985818,0.69735,0.19049,0.5724
1694787761968750,-9.585071,0.754467,1.979818,0.71435,0.22049,0.7076
1694787761976562,-9.585071,0.760467,1.976818,0.68135,0.27049,0.1024
1694787761984375,-9.581071,0.760467,1.967818,0.68135,0.30349,0.2524
1694787761992187,-9.592071,0.751467,1.974818,0.65735,0.21449,0.2676
1694787762000000,-9.581071,0.756467,1.972818,0.67135,0.24349,0.5676
1694787762007812,-9.574071,0.751467,1.994818,0.61735,0.26649,0.5176
1694787762015625,-9.560071,0.751467,2.4818,0.53035,0.21049,0.10276
1694787762023437,-9.558071,0.751467,2.17818,0.45135,0.14549,0.8576
1694787762031250,-9.554071,0.757467,2.17818,0.47235,0.18549,0.8976
1694787762039062,-9.550071,0.762467,2.17818,0.45435,0.23149,0.7276
1694787762046875,-9.552071,0.762467,2.13818,0.45135,0.19449,0.6976
1694787762054687,-9.549071,0.760467,2.15818,0.46135,0.18449,0.9776
1694787762062500,-9.558071,0.749467,2.10818,0.45235,0.14749,0.5476
1694787762070312,-9.563071,0.744467,2.19818,0.50035,0.16349,0.8776
1694787762078125,-9.560071,0.742467,2.8818,0.60735,0.19449,0.2376
1694787762085937,-9.569071,0.735467,1.999818,0.56135,0.18049,0.2376
1694787762093750,-9.574071,0.738467,1.990818,0.59235,0.16349,0.2476
1694787762101562,-9.576071,0.729467,1.977818,0.68435,0.17849,0.5524
1694787762109375,-9.569071,0.744467,1.992818,0.58935,0.17649,0.924
1694787762117187,-9.578071,0.742467,1.985818,0.60435,0.15549,0.8476
1694787762125000,-9.587071,0.749467,1.974818,0.60335,0.17149,0.2076
1694787762132812,-9.587071,0.760467,1.985818,0.57235,0.15549,0.3576
1694787762140625,-9.592071,0.749467,1.992818,0.67035,0.12849,0.7176
1694787762148437,-9.576071,0.765467,1.997818,0.55435,0.3849,0.4976
1694787762156250,-9.572071,0.771467,1.997818,0.47735,0.5549,0.8176
1694787762164062,-9.572071,0.776467,2.13818,0.58835,0.1049,0.3676
1694787762171875,-9.563071,0.778467,2.10818,0.48935,0.449,0.1576
1694787762179687,-9.563071,0.777467,2.15818,0.56235,0.6549,0.11976
1694787762187500,-9.561071,0.771467,2.17818,0.57735,0.16149,0.8776
1694787762195312,-9.567071,0.780467,2.12818,0.49335,0.10449,0.8176
1694787762203125,-9.572071,0.775467,2.4818,0.60635,0.7749,0.6976
1694787762210937,-9.576071,0.769467,1.999818,0.57635,0.12649,0.11776
1694787762218750,-9.574071,0.773467,2.17818,0.51335,0.4649,0.6976
1694787762226562,-9.570071,0.767467,2.10818,0.57035,0.5749,0.376
1694787762234375,-9.560071,0.762467,2.3818,0.53835,0.3949,0.1776
1694787762242187,-9.558071,0.751467,2.6818,0.46235,0.2649,0.3476
1694787762250000,-9.558071,0.757467,1.999818,0.46635,0.4649,0.6876
1694787762257812,-9.574071,0.760467,2.4818,0.57435,0.4749,0.1024
1694787762265625,-9.572071,0.749467,2.10818,0.58635,0.9049,0.376
1694787762273437,-9.576071,0.751467,1.995818,0.56335,0.5249,0.4076
1694787762281250,-9.572071,0.755467,1.977818,0.57435,0.12949,0.5724
1694787762289062,-9.572071,0.758467,1.979818,0.57035,0.5749,0.4424
1694787762296875,-9.576071,0.760467,1.972818,0.49535,0.6349,0.5824
1694787762304687,-9.572071,0.762467,1.961818,0.56135,0.1849,0.776
1694787762312500,-9.567071,0.771467,1.961818,0.60535,0.6149,0.2176
1694787762320312,-9.578071,0.756467,1.956818,0.57335,0.7749,0.2624
1694787762328125,-9.592071,0.767467,1.961818,0.60635,0.1149,0.11776
1694787762335937,-9.585071,0.749467,1.952818,0.56235,0.10049,0.4076
1694787762343750,-9.581071,0.742467,1.941818,0.59135,0.4949,0.824
1694787762351562,-9.585071,0.736467,1.936818,0.59035,0.3249,0.5724
1694787762359375,-9.587071,0.738467,1.941818,0.59235,0.149,0.824
1694787762367187,-9.590071,0.747467,1.950818,0.57535,0.1649,0.924
1694787762375000,-9.581071,0.740467,1.961818,0.68535,0.4649,0.3976
1694787762382812,-9.578071,0.749467,1.963818,0.64835,0.10451,0.6024
1694787762390625,-9.563071,0.737467,1.977818,0.66935,0.9851,0.676
1694787762398437,-9.558071,0.724467,1.979818,0.67035,0.4951,0.7176
1694787762406250,-9.560071,0.722467,1.988818,0.69735,0.1249,0.5724
1694787762414062,-9.544071,0.726467,1.970818,0.69235,0.449,0.4524
1694787762421875,-9.538071,0.724467,1.974818,0.68235,0.1449,0.7324
1694787762429687,-9.542071,0.724467,1.988818,0.71035,0.5751,0.2824
1694787762437500,-9.542071,0.728467,1.977818,0.69935,0.1449,0.2424
1694787762445312,-9.562071,0.729467,1.972818,0.71635,0.5149,0.8624
1694787762453125,-9.565071,0.733467,1.979818,0.69735,0.3651,0.5824
1694787762460937,-9.572071,0.742467,1.974818,0.71935,0.2049,0.524
1694787762468750,-9.571071,0.729467,1.976818,0.69435,0.5749,0.9124
1694787762476562,-9.576071,0.738467,1.965818,0.63235,0.4149,0.6024
1694787762484375,-9.589071,0.738467,1.963818,0.69835,0.9649,0.7224
1694787762492187,-9.594071,0.725467,1.959818,0.73135,0.12849,0.3924
1694787762500000,-9.609071,0.727467,1.943818,0.71135,0.7349,0.4324
1694787762507812,-9.598071,0.725467,1.943818,0.72535,0.4051,0.7624
1694787762515625,-9.601071,0.731467,1.941818,0.69835,0.6751,0.5724
1694787762523437,-9.612071,0.714467,1.943818,0.69735,0.4549,0.7324
1694787762531250,-9.596071,0.721467,1.943818,0.65835,0.249,0.12724
1694787762539062,-9.585071,0.722467,1.952818,0.71635,0.9651,0.3924
1694787762546875,-9.578071,0.725467,1.965818,0.69335,0.2449,0.10724
1694787762554687,-9.571071,0.720467,1.974818,0.71635,0.3051,0.5524
1694787762562500,-9.573071,0.711467,1.965818,0.64935,0.12051,0.1224
1694787762570312,-9.580071,0.709467,1.963818,0.65135,0.6951,0.3776
1694787762578125,-9.573071,0.707467,1.956818,0.68535,0.8251,0.776
1694787762585937,-9.587071,0.707467,1.956818,0.69935,0.8451,0.676
1694787762593750,-9.589071,0.709467,1.954818,0.58735,0.13551,0.2824
1694787762601562,-9.591071,0.723467,1.961818,0.61835,0.5551,0.376
1694787762609375,-9.594071,0.725467,1.940818,0.68235,0.6951,0.2176
1694787762617187,-9.607071,0.729467,1.934818,0.69935,0.4951,0.5624
1694787762625000,-9.607071,0.725467,1.934818,0.71635,0.6551,0.2376
1694787762632812,-9.607071,0.732467,1.934818,0.62035,0.11651,0.2624
1694787762640625,-9.607071,0.725467,1.913818,0.63335,0.10251,0.5924
1694787762648437,-9.607071,0.723467,1.909818,0.70035,0.9651,0.3924
1694787762656250,-9.612071,0.714467,1.907818,0.68635,0.17651,0.876
1694787762664062,-9.614071,0.716467,1.925818,0.60635,0.14751,0.3876
1694787762671875,-9.593071,0.709467,1.938818,0.49335,0.21751,0.3476
1694787762679687,-9.585071,0.711467,1.934818,0.54335,0.19651,0.2076
1694787762687500,-9.578071,0.713467,1.952818,0.52635,0.24751,0.3576
1694787762695312,-9.580071,0.711467,1.965818,0.52735,0.21551,0.8376
1694787762703125,-9.571071,0.718467,1.954818,0.52935,0.14551,0.3876
1694787762710937,-9.574071,0.724467,1.959818,0.60935,0.9451,0.4076
1694787762718750,-9.569071,0.724467,1.963818,0.61835,0.5751,0.5076
1694787762726562,-9.562071,0.711467,1.936818,0.51635,0.5951,0.876
1694787762734375,-9.569071,0.706467,1.925818,0.60035,0.3751,0.7676
1694787762742187,-9.583071,0.698467,1.921818,0.58435,0.8651,0.10876
1694787762750000,-9.607071,0.689467,1.911818,0.66635,0.13751,0.6776
1694787762757812,-9.616071,0.705467,1.911818,0.62635,0.12951,0.15176
1694787762765625,-9.627071,0.708467,1.925818,0.61735,0.18851,0.4976
1694787762773437,-9.636071,0.717467,1.931818,0.69835,0.13551,0.2176
1694787762781250,-9.625071,0.716467,1.945818,0.71335,0.18651,0.10076
1694787762789062,-9.611071,0.703467,1.950818,0.54335,0.14951,0.6876
1694787762796875,-9.602071,0.685467,1.938818,0.51435,0.14551,0.5376
1694787762804687,-9.586071,0.689467,1.922818,0.56935,0.19051,0.9676
1694787762812500,-9.584071,0.673467,1.932818,0.65335,0.22951,0.5376
1694787762820312,-9.568071,0.664467,1.940818,0.66535,0.23551,0.5176
1694787762828125,-9.552071,0.655467,1.947818,0.69235,0.27251,0.176
1694787762835937,-9.552071,0.653467,1.961818,0.71235,0.29951,0.476
1694787762843750,-9.566071,0.651467,1.965818,0.73035,0.23151,0.5376
1694787762851562,-9.552071,0.662467,1.988818,0.69635,0.26851,0.3576
1694787762859375,-9.551071,0.686467,2.1818,0.74835,0.26051,0.5576
1694787762867187,-9.548071,0.688467,1.995818,0.71935,0.16051,0.4176
1694787762875000,-9.553071,0.702467,2.10818,0.72835,0.18651,0.5276
1694787762882812,-9.544071,0.709467,2.19818,0.75835,0.15651,0.3576
1694787762890625,-9.553071,0.698467,2.19818,0.77535,0.7251,0.576
1694787762898437,-9.548071,0.702467,2.24818,0.75735,0.7351,0.4324
1694787762906250,-9.553071,0.709467,2.10818,0.84035,0.10051,0.824
1694787762914062,-9.567071,0.706467,2.10818,0.71735,0.11351,0.2476
1694787762921875,-9.571071,0.720467,2.26818,0.71635,0.19451,0.776
1694787762929687,-9.574071,0.729467,2.24818,0.82835,0.9251,0.5224
1694787762937500,-9.571071,0.729467,2.31818,0.82535,0.14851,0.876
1694787762945312,-9.571071,0.722467,2.31818,0.79135,0.10251,0.924
1694787762953125,-9.571071,0.709467,2.35818,0.71135,0.7151,0.2724
1694787762960937,-9.573071,0.698467,2.35818,0.71635,0.3351,0.824
1694787762968750,-9.555071,0.691467,2.31818,0.70235,0.12951,0.5676
1694787762976562,-9.555071,0.689467,2.30818,0.71035,0.7351,0.4424
1694787762984375,-9.548071,0.689467,2.37818,0.71435,0.3751,0.2276
1694787762992187,-9.535071,0.693467,2.35818,0.68135,0.5551,0.476
1694787763000000,-9.535071,0.686467,2.49818,0.65335,0.4751,0.5524
1694787763007812,-9.515071,0.699467,2.51818,0.65135,0.6951,0.2176
1694787763015625,-9.508071,0.708467,2.46818,0.52335,0.1051,0.4976
1694787763023437,-9.504071,0.706467,2.42818,0.52735,0.4951,0.2624
1694787763031250,-9.517071,0.715467,2.60818,0.46035,0.2251,0.6124
1694787763039062,-9.529071,0.717467,2.69818,0.46735,0.5149,0.676
1694787763046875,-9.544071,0.717467,2.58818,0.48035,0.3049,0.476
1694787763054687,-9.553071,0.720467,2.49818,0.44935,0.4949,0.4224
1694787763062500,-9.565071,0.729467,2.40818,0.46435,0.11049,0.476
1694787763070312,-9.587071,0.720467,2.24818,0.44435,0.7249,0.1524
1694787763078125,-9.607071,0.712467,2.8818,0.46235,0.10849,0.1224
1694787763085937,-9.618071,0.701467,2.19818,0.47635,0.8549,0.9676
1694787763093750,-9.642071,0.690467,2.19818,0.44235,0.15951,0.4676
1694787763101562,-9.631071,0.679467,2.37818,0.48435,0.8051,0.11876
1694787763109375,-9.615071,0.665467,2.44818,0.56035,0.18051,0.8576
1694787763117187,-9.602071,0.665467,2.67818,0.51235,0.13551,0.13176
1694787763125000,-9.600071,0.669467,2.67818,0.46435,0.21751,0.13076
1694787763132812,-9.577071,0.682467,2.71818,0.47635,0.23751,0.8076
1694787763140625,-9.571071,0.698467,2.69818,0.59135,0.21551,0.13276
1694787763148437,-9.571071,0.709467,2.71818,0.51335,0.19951,0.14776
1694787763156250,-9.571071,0.709467,2.67818,0.54135,0.18451,0.6776
1694787763164062,-9.571071,0.707467,2.69818,0.50735,0.17451,0.7976
1694787763171875,-9.582071,0.707467,2.62818,0.49235,0.13951,0.8076
1694787763179687,-9.584071,0.709467,2.66818,0.48935,0.9651,0.7876
1694787763187500,-9.591071,0.705467,2.62818,0.60035,0.20651,0.6476
1694787763195312,-9.580071,0.696467,2.71818,0.57335,0.21751,0.8376
1694787763203125,-9.571071,0.689467,2.82818,0.53035,0.16451,0.16576
1694787763210937,-9.555071,0.689467,2.89818,0.49335,0.26851,0.11376
1694787763218750,-9.539071,0.689467,2.105818,0.51835,0.34451,0.12376
1694787763226562,-9.528071,0.693467,2.125818,0.52435,0.35251,0.14376
1694787763234375,-9.519071,0.691467,2.125818,0.56835,0.33851,0.6376
1694787763242187,-9.535071,0.702467,2.107818,0.62535,0.27751,0.18276
1694787763250000,-9.535071,0.695467,2.120818,0.71035,0.30751,0.17676
1694787763257812,-9.542071,0.702467,2.114818,0.69635,0.33451,0.5076
1694787763265625,-9.546071,0.702467,2.87818,0.70935,0.40351,0.9676
1694787763273437,-9.537071,0.700467,2.87818,0.72935,0.28551,0.11576
1694787763281250,-9.544071,0.691467,2.80818,0.71435,0.23651,0.13176
1694787763289062,-9.542071,0.700467,2.71818,0.72735,0.26851,0.3576
1694787763296875,-9.530071,0.702467,2.67818,0.69735,0.21951,0.9976
1694787763304687,-9.540071,0.708467,2.69818,0.69935,0.16651,0.5376
1694787763312500,-9.542071,0.715467,2.71818,0.68035,0.23751,0.8276
1694787763320312,-9.539071,0.709467,2.69818,0.67935,0.10851,0.6676
1694787763328125,-9.551071,0.709467,2.71818,0.68235,0.18651,0.8376
1694787763335937,-9.551071,0.706467,2.69818,0.68535,0.8451,0.8676
1694787763343750,-9.546071,0.709467,2.78818,0.71535,0.15251,0.13376
1694787763351562,-9.544071,0.693467,2.87818,0.69835,0.12151,0.10076
1694787763359375,-9.530071,0.688467,2.87818,0.71835,0.13151,0.10376
1694787763367187,-9.528071,0.702467,2.78818,0.69635,0.13951,0.8376
1694787763375000,-9.526071,0.695467,2.82818,0.69735,0.18651,0.8376
1694787763382812,-9.521071,0.695467,2.82818,0.71335,0.13551,0.576
1694787763390625,-9.515071,0.690467,2.78818,0.76135,0.8651,0.5476
1694787763398437,-9.542071,0.691467,2.73818,0.71835,0.6651,0.10376
1694787763406250,-9.548071,0.697467,2.96818,0.70135,0.11551,0.7176
1694787763414062,-9.546071,0.706467,2.87818,0.72835,0.13951,0.8376
1694787763421875,-9.549071,0.718467,2.107818,0.71335,0.15451,0.8476
1694787763429687,-9.553071,0.726467,2.127818,0.72935,0.12151,0.6876
1694787763437500,-9.546071,0.726467,2.118818,0.71135,0.10851,0.8276
1694787763445312,-9.544071,0.733467,2.132818,0.70035,0.8451,0.3876
1694787763453125,-9.529071,0.733467,2.141818,0.74435,0.10451,0.3676
1694787763460937,-9.520071,0.733467,2.157818,0.82535,0.8651,0.8776
1694787763468750,-9.513071,0.724467,2.150818,0.90035,0.9051,0.6976
1694787763476562,-9.520071,0.728467,2.139818,0.93735,0.9951,0.7476
1694787763484375,-9.520071,0.719467,2.134818,0.76635,0.9751,0.8976
1694787763492187,-9.529071,0.735467,2.141818,0.86035,0.9751,0.9076
1694787763500000,-9.529071,0.744467,2.139818,0.90135,0.15451,0.8676
1694787763507812,-9.524071,0.751467,2.141818,0.83635,0.20751,0.9976
1694787763515625,-9.538071,0.760467,2.127818,0.86935,0.17251,0.8476
1694787763523437,-9.536071,0.762467,2.139818,0.80735,0.15451,0.8576
1694787763531250,-9.538071,0.766467,2.148818,0.73135,0.10351,0.13376
1694787763539062,-9.540071,0.775467,2.152818,0.74235,0.15851,0.6676
1694787763546875,-9.558071,0.769467,2.145818,0.84035,0.7051,0.7176
1694787763554687,-9.563071,0.756467,2.139818,0.82235,0.12351,0.10076
1694787763562500,-9.554071,0.767467,2.148818,0.75835,0.15851,0.9876
1694787763570312,-9.550071,0.764467,2.146818,0.94035,0.12651,0.6076
1694787763578125,-9.549071,0.757467,2.150818,0.92035,0.13151,0.4176
1694787763585937,-9.563071,0.764467,2.125818,0.84235,0.18051,0.5676
1694787763593750,-9.563071,0.758467,2.127818,0.86735,0.20551,0.3676
1694787763601562,-9.574071,0.753467,2.141818,0.87035,0.8851,0.5476
1694787763609375,-9.565071,0.756467,2.143818,0.91635,0.17051,0.3876
1694787763617187,-9.563071,0.755467,2.139818,0.88535,0.20351,0.6976
1694787763625000,-9.554071,0.769467,2.141818,0.88135,0.22551,0.5076
1694787763632812,-9.547071,0.782467,2.143818,0.83535,0.23851,0.1976
1694787763640625,-9.539071,0.782467,2.141818,0.82435,0.24651,0.824
1694787763648437,-9.518071,0.777467,2.148818,0.82635,0.16451,0.7276
1694787763656250,-9.518071,0.768467,2.114818,0.78935,0.13951,0.476
1694787763664062,-9.511071,0.763467,2.105818,0.79235,0.18451,0.5376
1694787763671875,-9.502071,0.765467,2.114818,0.77935,0.17851,0.724
1694787763679687,-9.507071,0.775467,2.132818,0.85135,0.22151,0.1124
1694787763687500,-9.520071,0.759467,2.132818,0.81635,0.21351,0.9676
1694787763695312,-9.518071,0.759467,2.127818,0.87035,0.13751,0.7076
1694787763703125,-9.527071,0.768467,2.150818,0.88035,0.14551,0.6676
1694787763710937,-9.536071,0.779467,2.148818,0.80835,0.8651,0.5476
1694787763718750,-9.543071,0.766467,2.139818,0.78935,0.12551,0.8376
1694787763726562,-9.543071,0.762467,2.134818,0.70235,0.3151,0.2476
1694787763734375,-9.547071,0.766467,2.132818,0.70835,0.6151,0.3024
1694787763742187,-9.556071,0.744467,2.114818,0.69635,0.4151,0.3576
1694787763750000,-9.549071,0.753467,2.112818,0.69535,0.5951,0.5076
1694787763757812,-9.556071,0.760467,2.130818,0.71135,0.10851,0.8276
1694787763765625,-9.543071,0.768467,2.143818,0.70335,0.9651,0.7276
1694787763773437,-9.518071,0.773467,2.161818,0.74435,0.10451,0.3676
1694787763781250,-9.513071,0.768467,2.170818,0.74435,0.12151,0.5276
1694787763789062,-9.509071,0.775467,2.175818,0.70135,0.4951,0.3976
1694787763796875,-9.516071,0.766467,2.155818,0.71835,0.6651,0.8776
1694787763804687,-9.529071,0.741467,2.123818,0.70435,0.1751,0.15276
1694787763812500,-9.535071,0.726467,2.132818,0.71335,0.749,0.8476
1694787763820312,-9.535071,0.726467,2.125818,0.69535,0.14151,0.8276
1694787763828125,-9.548071,0.722467,2.120818,0.70935,0.6351,0.8076
1694787763835937,-9.542071,0.720467,2.125818,0.76135,0.7451,0.14876
1694787763843750,-9.533071,0.717467,2.114818,0.78035,0.5251,0.11976
1694787763851562,-9.538071,0.739467,2.132818,0.76935,0.4151,0.6076
1694787763859375,-9.540071,0.759467,2.143818,0.70235,0.1651,0.5676
1694787763867187,-9.536071,0.759467,2.148818,0.75635,0.8951,0.12576
1694787763875000,-9.534071,0.766467,2.161818,0.70635,0.9551,0.15376
1694787763882812,-9.527071,0.759467,2.175818,0.74435,0.15451,0.6876
1694787763890625,-9.513071,0.761467,2.191818,0.71635,0.10051,0.7076
1694787763898437,-9.498071,0.759467,2.195818,0.70535,0.9551,0.12176
1694787763906250,-9.487071,0.761467,2.209818,0.71835,0.8251,0.10376
1694787763914062,-9.478071,0.772467,2.209818,0.73735,0.4351,0.5976
1694787763921875,-9.462071,0.767467,2.209818,0.70135,0.6551,0.3976
1694787763929687,-9.460071,0.765467,2.211818,0.72035,0.2951,0.5876
1694787763937500,-9.464071,0.756467,2.200818,0.71835,0.1849,0.976
1694787763945312,-9.473071,0.760467,2.188818,0.70635,0.4049,0.1276
1694787763953125,-9.491071,0.759467,2.186818,0.71935,0.5049,0.5776
1694787763960937,-9.502071,0.759467,2.177818,0.66735,0.5351,0.3776
1694787763968750,-9.500071,0.770467,2.166818,0.71435,0.2051,0.3876
1694787763976562,-9.518071,0.768467,2.163818,0.65235,0.1249,0.2176
1694787763984375,-9.523071,0.766467,2.161818,0.65635,0.4551,0.624
1694787763992187,-9.538071,0.760467,2.172818,0.58735,0.2051,0.5924
1694787764000000,-9.527071,0.764467,2.186818,0.57435,0.1851,0.1024
1694787764007812,-9.522071,0.750467,2.195818,0.59435,0.2951,0.4076
1694787764015625,-9.513071,0.735467,2.186818,0.59135,0.3049,0.7076
1694787764023437,-9.500071,0.728467,2.197818,0.61535,0.2551,0.15576
1694787764031250,-9.499071,0.728467,2.197818,0.64035,0.6851,0.16676
1694787764039062,-9.500071,0.732467,2.188818,0.64635,0.2349,0.12376
1694787764046875,-9.509071,0.752467,2.191818,0.66135,0.5649,0.10876
1694787764054687,-9.518071,0.755467,2.213818,0.70735,0.5449,0.12376
1694787764062500,-9.540071,0.753467,2.208818,0.69835,0.2449,0.11676
1694787764070312,-9.572071,0.769467,2.188818,0.69935,0.949,0.11776
1694787764078125,-9.590071,0.760467,2.175818,0.70335,0.4551,0.2576
1694787764085937,-9.608071,0.751467,2.166818,0.70735,0.10751,0.9176
1694787764093750,-9.610071,0.752467,2.148818,0.69735,0.7451,0.8376
1694787764101562,-9.601071,0.765467,2.163818,0.69935,0.10251,0.10176
1694787764109375,-9.594071,0.758467,2.148818,0.69935,0.11951,0.6976
1694787764117187,-9.583071,0.762467,2.154818,0.69935,0.10251,0.6976
1694787764125000,-9.563071,0.764467,2.179818,0.71435,0.13551,0.6976
1694787764132812,-9.547071,0.757467,2.177818,0.70235,0.8051,0.2476
1694787764140625,-9.520071,0.759467,2.191818,0.65635,0.20951,0.4076
1694787764148437,-9.504071,0.757467,2.202818,0.66635,0.15451,0.8376
1694787764156250,-9.489071,0.763467,2.217818,0.69535,0.10851,0.5076
1694787764164062,-9.473071,0.761467,2.227818,0.71535,0.8651,0.10176
1694787764171875,-9.462071,0.756467,2.222818,0.71435,0.10551,0.10076
1694787764179687,-9.466071,0.758467,2.197818,0.69935,0.8851,0.11676
1694787764187500,-9.466071,0.754467,2.197818,0.68435,0.10251,0.10176
1694787764195312,-9.489071,0.752467,2.195818,0.71635,0.7051,0.13476
1694787764203125,-9.502071,0.739467,2.181818,0.70135,0.13351,0.15076
1694787764210937,-9.520071,0.728467,2.175818,0.62535,0.1451,0.8876
1694787764218750,-9.542071,0.740467,2.150818,0.69735,0.4049,0.8476
1694787764226562,-9.549071,0.729467,2.150818,0.71435,0.2649,0.5376
1694787764234375,-9.560071,0.744467,2.166818,0.69635,0.4049,0.3676
1694787764242187,-9.561071,0.753467,2.157818,0.70035,0.1349,0.2376
1694787764250000,-9.549071,0.746467,2.161818,0.69735,0.4151,0.8376
1694787764257812,-9.542071,0.760467,2.166818,0.69835,0.749,0.10076
1694787764265625,-9.527071,0.766467,2.172818,0.70035,0.2849,0.7076
1694787764273437,-9.522071,0.777467,2.179818,0.68935,0.1249,0.6276
1694787764281250,-9.504071,0.766467,2.177818,0.69135,0.6349,0.9576
1694787764289062,-9.500071,0.770467,2.179818,0.69035,0.2849,0.7876
1694787764296875,-9.504071,0.773467,2.190818,0.70935,0.5049,0.8176
1694787764304687,-9.520071,0.755467,2.186818,0.69835,0.8949,0.8476
1694787764312500,-9.508071,0.757467,2.186818,0.69035,0.3049,0.4776
1694787764320312,-9.511071,0.746467,2.179818,0.71535,0.12449,0.8676
1694787764328125,-9.511071,0.757467,2.175818,0.76235,0.15749,0.5576
1694787764335937,-9.514071,0.772467,2.159818,0.71735,0.10949,0.11976
1694787764343750,-9.504071,0.775467,2.179818,0.69535,0.10249,0.6776
1694787764351562,-9.502071,0.777467,2.163818,0.69835,0.20449,0.6976
1694787764359375,-9.494071,0.792467,2.179818,0.71435,0.10649,0.8576
1694787764367187,-9.498071,0.794467,2.170818,0.69835,0.7549,0.5376
1694787764375000,-9.503071,0.794467,2.177818,0.71835,0.12849,0.10476
1694787764382812,-9.500071,0.790467,2.186818,0.69935,0.12449,0.5476
1694787764390625,-9.500071,0.781467,2.186818,0.71435,0.7549,0.3776
1694787764398437,-9.504071,0.781467,2.177818,0.67935,0.5349,0.5076
1694787764406250,-9.520071,0.779467,2.188818,0.66635,0.8949,0.8476
1694787764414062,-9.518071,0.766467,2.193818,0.69835,0.14149,0.2276
1694787764421875,-9.534071,0.761467,2.184818,0.72335,0.15249,0.9276
1694787764429687,-9.534071,0.761467,2.175818,0.72135,0.18349,0.2776
1694787764437500,-9.534071,0.759467,2.161818,0.70235,0.14449,0.10476
1694787764445312,-9.538071,0.753467,2.163818,0.71735,0.4649,0.7176
1694787764453125,-9.541071,0.766467,2.159818,0.70335,0.6749,0.5776
1694787764460937,-9.536071,0.771467,2.161818,0.71635,0.3049,0.5576
1694787764468750,-9.536071,0.759467,2.163818,0.65335,0.7749,0.7076
1694787764476562,-9.536071,0.775467,2.152818,0.70335,0.8349,0.2576
1694787764484375,-9.525071,0.772467,2.155818,0.68735,0.3449,0.4176
1694787764492187,-9.523071,0.784467,2.163818,0.60235,0.2249,0.9876
1694787764500000,-9.514071,0.792467,2.152818,0.72435,0.10549,0.7776
1694787764507812,-9.503071,0.790467,2.157818,0.67735,0.8949,0.9276
1694787764515625,-9.509071,0.781467,2.146818,0.70435,0.6649,0.7376
1694787764523437,-9.505071,0.766467,2.154818,0.67035,0.6249,0.8776
1694787764531250,-9.518071,0.770467,2.163818,0.60235,0.7149,0.6676
1694787764539062,-9.516071,0.759467,2.150818,0.71835,0.7949,0.10476
1694787764546875,-9.527071,0.750467,2.152818,0.70435,0.6949,0.1076
1694787764554687,-9.527071,0.742467,2.161818,0.71235,0.7549,0.2624
1694787764562500,-9.543071,0.748467,2.157818,0.67535,0.3849,0.5976
1694787764570312,-9.547071,0.753467,2.161818,0.71535,0.4449,0.3876
1694787764578125,-9.538071,0.746467,2.157818,0.73435,0.11649,0.524
1694787764585937,-9.538071,0.750467,2.146818,0.70635,0.18549,0.1276
1694787764593750,-9.540071,0.746467,2.148818,0.72135,0.15349,0.324
1694787764601562,-9.554071,0.760467,2.148818,0.70435,0.18149,0.4276
1694787764609375,-9.548071,0.770467,2.130818,0.72235,0.12249,0.1376
1694787764617187,-9.534071,0.777467,2.121818,0.70935,0.13849,0.9376
1694787764625000,-9.532071,0.784467,2.125818,0.70435,0.17949,0.10576
1694787764632812,-9.527071,0.790467,2.123818,0.71635,0.14249,0.7176
1694787764640625,-9.518071,0.781467,2.125818,0.75235,0.16749,0.4376
1694787764648437,-9.507071,0.772467,2.127818,0.67035,0.17549,0.10376
1694787764656250,-9.502071,0.768467,2.143818,0.68735,0.8149,0.8876
1694787764664062,-9.516071,0.761467,2.136818,0.68435,0.12649,0.3876
1694787764671875,-9.520071,0.759467,2.148818,0.68635,0.21049,0.2476
1694787764679687,-9.520071,0.761467,2.161818,0.68435,0.11049,0.2276
1694787764687500,-9.511071,0.759467,2.168818,0.65735,0.20049,0.3724
1694787764695312,-9.500071,0.768467,2.172818,0.69835,0.20449,0.5376
1694787764703125,-9.500071,0.761467,2.159818,0.72135,0.20049,0.4376
1694787764710937,-9.500071,0.759467,2.166818,0.66735,0.20449,0.5376
1694787764718750,-9.507071,0.759467,2.148818,0.66835,0.19049,0.5476
1694787764726562,-9.518071,0.755467,2.145818,0.71735,0.21049,0.4076
1694787764734375,-9.525071,0.755467,2.150818,0.70235,0.19449,0.5676
1694787764742187,-9.545071,0.760467,2.148818,0.71535,0.17549,0.776
1694787764750000,-9.552071,0.766467,2.141818,0.69935,0.12649,0.2376
1694787764757812,-9.563071,0.764467,2.150818,0.69735,0.10649,0.2076
1694787764765625,-9.561071,0.769467,2.150818,0.70935,0.10449,0.6024
1694787764773437,-9.549071,0.773467,2.139818,0.69935,0.12449,0.5476
1694787764781250,-9.552071,0.766467,2.114818,0.72135,0.20049,0.2776
1694787764789062,-9.554071,0.775467,2.89818,0.68935,0.15149,0.2776
1694787764796875,-9.543071,0.753467,2.80818,0.70135,0.19649,0.2224
1694787764804687,-9.547071,0.762467,2.82818,0.71435,0.10849,0.5476
1694787764812500,-9.547071,0.753467,2.87818,0.70235,0.7949,0.10376
1694787764820312,-9.549071,0.740467,2.87818,0.71335,0.4049,0.6876
1694787764828125,-9.560071,0.751467,2.98818,0.69835,0.2449,0.10076
1694787764835937,-9.554071,0.746467,2.118818,0.71535,0.7749,0.5476
1694787764843750,-9.547071,0.753467,2.134818,0.69335,0.0,0.12876
1694787764851562,-9.545071,0.760467,2.136818,0.71535,0.4449,0.5476
1694787764859375,-9.531071,0.755467,2.134818,0.64635,0.449,0.1776
1694787764867187,-9.518071,0.753467,2.141818,0.68235,0.9149,0.3776
1694787764875000,-9.516071,0.755467,2.150818,0.71835,0.17949,0.4176
1694787764882812,-9.509071,0.761467,2.143818,0.69635,0.9049,0.1124
1694787764890625,-9.500071,0.759467,2.150818,0.72135,0.18349,0.5976
1694787764898437,-9.500071,0.770467,2.145818,0.69635,0.7349,0.1124
1694787764906250,-9.500071,0.772467,2.157818,0.69735,0.7549,0.576
1694787764914062,-9.500071,0.781467,2.150818,0.70135,0.19649,0.2224
1694787764921875,-9.505071,0.795467,2.152818,0.69735,0.25649,0.5724
1694787764929687,-9.521071,0.788467,2.134818,0.70235,0.24549,0.624
1694787764937500,-9.536071,0.791467,2.130818,0.69735,0.18849,0.1024
1694787764945312,-9.547071,0.784467,2.103818,0.71335,0.24149,0.10424
1694787764953125,-9.570071,0.776467,2.100818,0.69635,0.20449,0.4224
1694787764960937,-9.585071,0.765467,2.96818,0.71335,0.17349,0.924
1694787764968750,-9.588071,0.760467,2.89818,0.70235,0.21249,0.624
1694787764976562,-9.576071,0.760467,2.91818,0.71835,0.19649,0.4176
1694787764984375,-9.567071,0.744467,2.103818,0.65835,0.16749,0.4276
1694787764992187,-9.551071,0.746467,2.87818,0.68535,0.15949,0.8776
1694787765000000,-9.551071,0.749467,2.96818,0.71735,0.17349,0.15076
1694787765007812,-9.536071,0.753467,2.105818,0.70635,0.19749,0.15476
1694787765015625,-9.534071,0.750467,2.116818,0.72435,0.17149,0.9376
1694787765023437,-9.536071,0.755467,2.134818,0.70535,0.18149,0.7476
1694787765031250,-9.536071,0.753467,2.132818,0.71435,0.13849,0.10176
1694787765039062,-9.529071,0.757467,2.136818,0.70135,0.19249,0.7176
1694787765046875,-9.522071,0.762467,2.130818,0.66835,0.20449,0.11776
1694787765054687,-9.525071,0.761467,2.118818,0.65535,0.19449,0.7276
1694787765062500,-9.534071,0.759467,2.114818,0.70035,0.14249,0.5576
1694787765070312,-9.536071,0.762467,2.107818,0.71835,0.19349,0.7276
1694787765078125,-9.554071,0.760467,2.114818,0.70635,0.15049,0.9176
1694787765085937,-9.554071,0.764467,2.107818,0.70535,0.18149,0.9076
1694787765093750,-9.561071,0.758467,2.98818,0.70235,0.16149,0.8876
1694787765101562,-9.572071,0.764467,2.103818,0.70035,0.14249,0.5576
1694787765109375,-9.572071,0.758467,2.107818,0.70435,0.16349,0.10576
1694787765117187,-9.560071,0.749467,2.98818,0.70135,0.19149,0.8776
1694787765125000,-9.558071,0.742467,2.93818,0.69635,0.12049,0.3676
1694787765132812,-9.547071,0.746467,2.84818,0.69535,0.15349,0.476
1694787765140625,-9.549071,0.744467,2.91818,0.69735,0.8949,0.3676
1694787765148437,-9.540071,0.750467,2.101818,0.71935,0.8349,0.4176
1694787765156250,-9.538071,0.755467,2.103818,0.70235,0.17949,0.976
1694787765164062,-9.540071,0.759467,2.100818,0.71535,0.14549,0.3924
1694787765171875,-9.541071,0.759467,2.107818,0.70235,0.13249,0.5424
1694787765179687,-9.538071,0.764467,2.94818,0.72835,0.17149,0.1024
1694787765187500,-9.536071,0.755467,2.105818,0.76335,0.19249,0.2476
1694787765195312,-9.540071,0.753467,2.96818,0.69635,0.15349,0.2076
1694787765203125,-9.536071,0.746467,2.96818,0.68735,0.14649,0.5776
1694787765210937,-9.536071,0.750467,2.100818,0.70335,0.19649,0.7376
1694787765218750,-9.538071,0.742467,2.82818,0.71335,0.13649,0.10076
1694787765226562,-9.531071,0.740467,2.69818,0.69635,0.16949,0.5276
1694787765234375,-9.531071,0.744467,2.67818,0.72135,0.16549,0.10676
1694787765242187,-9.522071,0.741467,2.55818,0.69935,0.19049,0.7076
1694787765250000,-9.540071,0.733467,2.53818,0.71535,0.14049,0.8676
1694787765257812,-9.551071,0.735467,2.49818,0.70035,0.17549,0.5576
1694787765265625,-9.565071,0.738467,2.48818,0.71435,0.15549,0.6976
1694787765273437,-9.574071,0.736467,2.55818,0.74535,0.17149,0.8676
1694787765281250,-9.571071,0.738467,2.51818,0.72935,0.17149,0.5376
1694787765289062,-9.576071,0.736467,2.44818,0.69735,0.15549,0.2176
1694787765296875,-9.570071,0.749467,2.56818,0.72235,0.18349,0.9176
1694787765312500,-9.558071,0.755467,2.53818,0.71335,0.20249,0.6876
1694787765320312,-9.545071,0.744467,2.53818,0.73235,0.14249,0.7176
1694787765328125,-9.536071,0.742467,2.67818,0.70035,0.12649,0.7176
1694787765335937,-9.524071,0.733467,2.58818,0.71535,0.20649,0.5476
1694787765343750,-9.524071,0.737467,2.69818,0.70335,0.13049,0.7376
1694787765351562,-9.524071,0.744467,2.71818,0.71135,0.16749,0.5176
1694787765359375,-9.509071,0.741467,2.69818,0.70335,0.17949,0.5776
1694787765367187,-9.500071,0.755467,2.69818,0.69835,0.16949,0.14876
1694787765375000,-9.497071,0.748467,2.71818,0.69935,0.17149,0.10176
1694787765382812,-9.495071,0.754467,2.67818,0.70035,0.25549,0.7176
1694787765390625,-9.489071,0.756467,2.53818,0.72035,0.31049,0.9076
1694787765398437,-9.495071,0.754467,2.51818,0.69835,0.31649,0.10176
1694787765406250,-9.500071,0.752467,2.49818,0.71635,0.33549,0.13576
1694787765414062,-9.514071,0.761467,2.44818,0.70735,0.34349,0.18776
1694787765421875,-9.527071,0.762467,2.37818,0.68435,0.36349,0.19776
1694787765429687,-9.540071,0.760467,2.30818,0.70035,0.38249,0.16676
1694787765437500,-9.561071,0.769467,2.24818,0.64535,0.40849,0.20276
