time,Acceleration X (m/s^2),Acceleration Y (m/s^2),Acceleration Z (m/s^2),Angular Velocity X (rad/s),Angular Velocity Y (rad/s),Angular Velocity Z (rad/s)
1700753973359375,-9.304111,1.611019,-1.09622,-0.07235,,
1700753973367187,-9.336111,1.658019,-1.9622,-1.253478,0.114735,0.7085
1700753973375000,-9.408111,1.725019,-1.8722,-1.255478,0.117135,0.7045
1700753973382812,-9.461111,1.831019,-1.7322,-1.254378,0.113635,0.7225
1700753973390625,-9.489111,1.902019,-1.7122,-1.256178,0.113435,0.7555
1700753973398437,-9.517111,1.985019,-1.9122,-1.254978,0.106635,0.7405
1700753973414062,-9.539111,2.118019,-1.8722,-1.277178,0.103135,0.6325
1700753973421875,-9.518111,2.171019,-1.6922,-1.288978,0.104935,0.5035
1700753973429687,-9.455111,2.214019,-1.11122,-1.302378,0.107035,0.4225
1700753973437500,-9.408111,2.236019,-1.14322,-1.307678,0.111335,0.3605
1700753973460937,-9.431111,2.252019,-1.4622,-1.362778,0.130135,0.2335
1700753973468750,-9.486111,2.268019,-1.8422,-1.357978,0.121835,0.1525
1700753973476562,-9.543111,2.249019,-1.6922,-1.366978,0.113035,0.2225
1700753973484375,-9.595111,2.227019,-1.2122,-1.394278,0.118935,0.3985
1700753973492187,-9.618111,2.230019,-1.2122,-1.405478,0.120435,0.3995
1700753973500000,-9.641111,2.270019,0.98522,-1.419678,0.118835,0.4175
1700753973507812,-9.637111,2.297019,0.97822,-1.449578,0.115435,0.4055
1700753973515625,-9.567111,2.325019,0.92922,-1.460778,0.123535,0.4395
1700753973523437,-9.503111,2.375019,0.90422,-1.478378,0.120035,0.4105
1700753973531250,-9.447111,2.394019,0.90422,-1.496878,0.120135,0.3635
1700753973539062,-9.377111,2.380019,0.87022,-1.523278,0.118635,0.3015
1700753973546875,-9.336111,2.375019,0.85222,-1.531078,0.123635,0.3025
1700753973554687,-9.342111,2.328019,0.91322,-1.548478,0.134835,0.2565
1700753973562500,-9.364111,2.293019,-1.2122,-1.554178,0.126135,0.3085
1700753973570312,-9.359111,2.253019,-1.7522,-1.546478,0.135435,0.4145
1700753973578125,-9.389111,2.265019,-1.3922,-1.531878,0.136335,0.4485
1700753973585937,-9.411111,2.236019,-1.322,-1.523778,0.129935,0.4155
1700753973593750,-9.408111,2.236019,0.98522,-1.534778,0.131735,0.5285
1700753973601562,-9.424111,2.252019,0.94922,-1.551678,0.122035,0.4335
1700753973609375,-9.510111,2.233019,0.97822,-1.573378,0.120535,0.3875
1700753973617187,-9.546111,2.262019,0.97822,-1.581178,0.127135,0.3875
1700753973625000,-9.537111,2.262019,0.98122,-1.578878,0.145535,0.3845
1700753973632812,-9.546111,2.276019,0.94522,-1.579878,0.144935,0.3875
1700753973640625,-9.605111,2.284019,0.89122,-1.575578,0.146235,0.4205
1700753973648437,-9.652111,2.287019,0.86422,-1.550578,0.139635,0.4345
1700753973656250,-9.643111,2.269019,0.91622,-1.527478,0.131335,0.4975
1700753973664062,-9.675111,2.298019,0.99922,-1.511578,0.121735,0.5275
1700753973671875,-9.661111,2.271019,-1.2622,-1.495978,0.118635,0.6865
1700753973679687,-9.656111,2.269019,0.96322,-1.481278,0.113235,0.7355
1700753973687500,-9.670111,2.289019,0.88622,-1.482678,0.97135,0.8005
1700753973695312,-9.666111,2.305019,0.79622,-1.483178,0.95235,0.8335
1700753973703125,-9.698111,2.347019,0.78722,-1.480978,0.92335,0.8155
1700753973710937,-9.732111,2.412019,0.73122,-1.499978,0.77435,0.7875
1700753973718750,-9.766111,2.395019,0.64322,-1.507578,0.71035,0.7395
1700753973726562,-9.836111,2.440019,0.57522,-1.505978,0.57735,0.5645
1700753973734375,-9.924111,2.417019,0.62022,-1.505378,0.48335,0.5145
1700753973742187,-9.933111,2.266019,0.77122,-1.515078,0.38335,0.5335
1700753973750000,-9.908111,2.250019,0.83022,-1.507278,0.26835,0.5165
1700753973757812,-9.788111,2.213019,0.68422,-1.506578,0.5435,0.7135
1700753973765625,-9.710111,2.248019,0.55522,-1.508478,0.2965,0.7305
1700753973773437,-9.735111,2.425019,0.56922,-1.503278,0.17265,0.7135
1700753973781250,-9.648111,2.460019,0.54422,-1.497078,0.20865,0.5685
1700753973789062,-9.715111,2.592019,0.53322,-1.503378,0.32565,0.4265
1700753973796875,-9.674111,2.566019,0.53222,-1.503878,0.35465,0.2155
1700753973804687,-9.524111,2.420019,0.59622,-1.507078,0.31065,0.245
1700753973812500,-9.438111,2.263019,0.57322,-1.504878,0.27765,0.2355
1700753973820312,-9.415111,2.265019,0.54822,-1.487678,0.13165,0.2855
1700753973828125,-9.399111,2.207019,0.48522,-1.444278,0.5135,0.4555
1700753973835937,-9.463111,2.246019,0.47822,-1.421878,0.6935,0.4915
1700753973843750,-9.396111,2.167019,0.53722,-1.386378,0.16135,0.5735
1700753973851562,-9.403111,2.28019,0.54622,-1.354678,0.34235,0.5795
1700753973859375,-9.351111,2.127019,0.56622,-1.357978,0.24435,0.5465
1700753973867187,-9.394111,2.307019,0.55122,-1.334578,0.33935,0.6125
1700753973875000,-9.237111,2.187019,0.60522,-1.303178,0.43835,0.5375
1700753973882812,-9.273111,2.358019,0.47622,-1.276178,0.50535,0.6055
1700753973890625,-9.206111,2.402019,0.29222,-1.253078,0.63135,0.6395
1700753973898437,-9.138111,2.600019,0.40822,-1.246878,0.74035,0.5655
1700753973906250,-9.13111,2.539019,0.43422,-1.242178,0.76235,0.5285
1700753973914062,-9.15111,2.645019,0.33222,-1.211878,0.91235,0.5505
1700753973921875,-8.999111,2.823019,0.27822,-1.201578,0.103935,0.4705
1700753973929687,-8.787111,2.345019,0.37522,-1.204778,0.123635,0.3745
1700753973937500,-8.891111,2.350019,0.30122,-1.200478,0.142335,0.4125
1700753973945312,-9.72111,2.586019,0.25122,-1.199978,0.142535,0.4785
1700753973953125,-9.187111,2.572019,0.29422,-1.187278,0.144135,0.5275
1700753973960937,-9.265111,2.531019,0.31422,-1.199178,0.138735,0.4755
1700753973968750,-9.229111,2.526019,0.34822,-1.199878,0.142535,0.5425
1700753973976562,-9.286111,2.600019,0.34122,-1.190478,0.153835,0.5595
1700753973984375,-9.232111,2.471019,0.33722,-1.179578,0.160335,0.5295
1700753973992187,-9.175111,2.242019,0.28322,-1.167178,0.163435,0.5465
1700753974000000,-9.358111,2.311019,0.20622,-1.164878,0.170435,0.5815
1700753974007812,-9.522111,2.437019,0.37522,-1.153978,0.176835,0.6145
1700753974015625,-9.622111,2.260019,0.35222,-1.141878,0.176535,0.6145
1700753974023437,-9.616111,2.135019,0.27422,-1.113878,0.174535,0.6805
1700753974031250,-9.685111,2.119019,0.32822,-1.95078,0.176135,0.6835
1700753974039062,-9.704111,2.339019,0.35522,-1.97378,0.147835,0.7105
1700753974046875,-9.624111,2.519019,0.43822,-1.98778,0.148035,0.6635
1700753974054687,-9.544111,2.427019,0.37022,-1.49578,0.171335,0.6245
1700753974062500,-9.495111,2.430019,0.19022,-1.27178,0.152035,0.6275
1700753974070312,-9.591111,2.574019,0.15022,-1.2378,0.156635,0.6615
1700753974078125,-9.542111,2.562019,0.24222,0.966578,0.166235,0.6165
1700753974085937,-9.678111,2.773019,0.20122,0.942678,0.163535,0.4125
1700753974093750,-9.398111,2.316019,0.29622,0.894778,0.169635,0.3525
1700753974101562,-9.418111,2.145019,0.43122,0.863878,0.183035,0.5515
1700753974109375,-9.457111,2.1019,0.44522,0.814578,0.176735,0.6555
1700753974117187,-9.481111,2.144019,0.40922,0.788778,0.153335,0.6065
1700753974125000,-9.261111,2.19019,0.32122,0.734378,0.157935,0.5315
1700753974132812,-9.269111,2.54019,0.17222,0.717978,0.153335,0.5995
1700753974140625,-9.139111,1.937019,0.34622,0.684078,0.159435,0.6175
1700753974148437,-9.268111,2.272019,0.17922,0.637078,0.159335,0.5905
1700753974156250,-9.303111,2.93019,0.3022,0.600278,0.150935,0.3995
1700753974164062,-9.252111,2.165019,0.4622,0.555078,0.160535,0.3405
1700753974171875,-9.213111,2.116019,0.12322,0.539678,0.157135,0.3245
1700753974179687,-9.414111,2.186019,0.8722,0.506578,0.134435,0.2795
1700753974187500,-9.484111,2.213019,0.12522,0.466178,0.145735,0.1715
1700753974195312,-9.479111,2.133019,0.19522,0.444078,0.137835,0.945
1700753974203125,-9.373111,1.956019,0.24522,0.408978,0.104835,0.825
1700753974210937,-9.264111,2.39019,0.18122,0.376178,0.99835,0.1275
1700753974218750,-9.283111,2.122019,0.13022,0.364178,0.78435,0.2255
1700753974226562,-9.244111,2.234019,0.19522,0.340778,0.84935,0.3345
1700753974234375,-9.312111,2.272019,0.18122,0.310378,0.87135,0.4095
1700753974242187,-9.303111,2.106019,0.28122,0.289178,0.94935,0.5045
1700753974250000,-9.372111,2.61019,0.28722,0.256278,0.86535,0.4055
1700753974257812,-9.521111,2.89019,0.31422,0.228378,0.67735,0.3995
1700753974265625,-9.444111,2.39019,0.33422,0.223878,0.69235,0.3835
1700753974273437,-9.455111,1.915019,0.34822,0.208578,0.75435,0.3985
1700753974281250,-9.535111,1.981019,0.34822,0.183878,0.67135,0.4775
1700753974289062,-9.614111,2.161019,0.26222,0.169078,0.67635,0.5215
1700753974296875,-9.741111,2.230019,0.33022,0.154478,0.73535,0.6035
1700753974304687,-9.982111,2.423019,0.33922,0.148078,0.68935,0.7145
1700753974312500,-9.989111,2.410019,0.33222,0.129978,0.49035,0.7795
1700753974320312,-9.918111,2.322019,0.46022,0.101478,0.39435,0.8075
1700753974328125,-9.877111,2.297019,0.29822,0.99478,0.12535,0.8285
1700753974335937,-9.843111,2.290019,0.23122,0.98178,0.20065,0.9115
1700753974343750,-9.722111,2.456019,0.19922,0.75878,0.3135,0.10025
1700753974351562,-9.519111,2.402019,0.322,0.88278,0.1835,0.11155
1700753974359375,-9.392111,2.338019,0.1022,0.126278,0.4965,0.11055
1700753974367187,-9.305111,2.379019,0.5322,0.142978,0.18435,0.11845
1700753974375000,-9.449111,2.346019,0.6878,0.171278,0.10335,0.12035
1700753974382812,-9.498111,2.362019,0.822,0.196578,0.6935,0.12395
1700753974390625,-9.522111,2.564019,0.10722,0.212278,0.15235,0.12735
1700753974398437,-9.571111,2.565019,0.9822,0.256778,0.11735,0.13605
1700753974406250,-9.486111,2.568019,0.15222,0.279378,0.18835,0.12955
1700753974414062,-9.564111,2.684019,0.17222,0.299278,0.30335,0.11035
1700753974421875,-9.591111,2.660019,0.6822,0.346478,0.5635,0.10465
1700753974429687,-9.496111,2.526019,0.16322,0.363278,0.4335,0.9835
1700753974437500,-9.518111,2.513019,0.19222,0.385578,0.15235,0.8425
1700753974445312,-9.530111,2.515019,0.26922,0.411378,0.9235,0.7465
1700753974453125,-9.540111,2.433019,0.29122,0.425478,0.9035,0.6685
1700753974460937,-9.623111,2.439019,0.20122,0.439378,0.12335,0.5885
1700753974468750,-9.644111,2.459019,0.19022,0.483278,0.13935,0.4975
1700753974476562,-9.761111,2.492019,0.21722,0.503378,0.15635,0.4505
1700753974484375,-9.747111,2.332019,0.32122,0.478378,0.15535,0.4165
1700753974492187,-9.679111,2.289019,0.33422,0.453978,0.1935,0.4005
1700753974500000,-9.657111,2.331019,0.31022,0.444478,0.7965,0.3355
1700753974507812,-9.593111,2.244019,0.23622,0.462678,0.13365,0.4055
1700753974515625,-9.555111,2.133019,0.9822,0.453178,0.1865,0.4035
1700753974523437,-9.533111,1.994019,0.22922,0.431578,0.10335,0.4125
1700753974531250,-9.473111,1.876019,0.36622,0.387878,0.8535,0.3925
1700753974539062,-9.399111,1.901019,0.36422,0.376978,0.7035,0.5195
1700753974546875,-9.473111,1.780019,0.48622,0.366378,0.11835,0.6305
1700753974554687,-9.567111,1.762019,0.58222,0.294578,0.8335,0.6725
1700753974562500,-9.657111,1.735019,0.51022,0.240478,0.16035,0.7965
1700753974570312,-9.720111,1.605019,0.47422,0.205778,0.0,0.9045
1700753974578125,-9.844111,1.480019,0.50422,0.169778,0.14465,0.10615
1700753974585937,-9.905111,1.523019,0.45222,0.109378,0.24765,0.11215
1700753974593750,-9.984111,1.635019,0.39122,0.62078,0.34365,0.11315
1700753974601562,-10.3111,1.731019,0.28522,0.17378,0.54165,0.13385
1700753974609375,-9.873111,1.760019,0.17022,0.22922,0.47565,0.15905
1700753974617187,-9.803111,1.748019,0.9422,0.46522,0.44165,0.16515
1700753974625000,-9.618111,1.670019,0.4622,0.66322,0.47565,0.18275
1700753974632812,-9.430111,1.620019,0.11622,0.96222,0.32765,0.19195
1700753974640625,-9.262111,1.462019,0.8922,0.110822,0.42365,0.18365
1700753974648437,-9.276111,1.677019,0.7478,0.126722,0.61865,0.17875
1700753974656250,-9.344111,1.865019,0.21478,0.113722,0.80365,0.16465
1700753974664062,-9.317111,1.856019,0.25478,0.101422,0.75465,0.15515
1700753974671875,-9.297111,1.864019,0.978,0.87722,0.63865,0.14865
1700753974679687,-9.347111,2.18019,0.7322,0.62822,0.62365,0.13135
1700753974687500,-9.408111,2.59019,0.2122,0.25522,0.98265,0.11425
1700753974695312,-9.452111,2.150019,0.2078,0.2422,0.94865,0.10145
1700753974703125,-9.404111,2.192019,0.3478,0.11078,0.97865,0.8865
1700753974710937,-9.374111,2.154019,0.9578,0.44578,0.113165,0.7485
1700753974718750,-9.374111,2.151019,0.7978,0.70478,0.125865,0.6385
1700753974726562,-9.286111,2.151019,0.7078,0.94878,0.126665,0.4995
1700753974734375,-9.245111,2.159019,0.5278,0.103378,0.119765,0.3535
1700753974742187,-9.301111,2.111019,0.5278,0.109278,0.97065,0.1755
1700753974750000,-9.380111,2.114019,0.12478,0.139878,0.86765,0.1285
1700753974757812,-9.430111,2.134019,0.6178,0.156778,0.68565,0.1115
1700753974765625,-9.461111,2.157019,0.5278,0.158278,0.54065,0.15
1700753974773437,-9.456111,2.147019,0.1922,0.152878,0.39965,0.0
1700753974781250,-9.373111,2.147019,0.8222,0.150478,0.13565,0.995
1700753974789062,-9.340111,2.162019,0.5978,0.148778,0.13365,0.845
1700753974796875,-9.333111,2.138019,0.10178,0.131878,0.8765,0.1015
1700753974804687,-9.287111,2.86019,0.7478,0.125278,0.14435,0.85
1700753974812500,-9.326111,2.20019,0.2822,0.123978,0.43635,0.545
1700753974820312,-9.363111,2.63019,0.13922,0.108378,0.42035,0.695
1700753974828125,-9.338111,2.60019,0.14122,0.102078,0.45435,0.1645
1700753974835937,-9.384111,2.96019,0.8022,0.88878,0.65335,0.1115
1700753974843750,-9.448111,2.162019,0.1178,0.87478,0.63535,0.645
1700753974851562,-9.519111,2.127019,0.10878,0.93878,0.53735,0.1135
1700753974859375,-9.615111,2.82019,0.278,0.107578,0.60635,0.1135
1700753974867187,-9.808111,2.38019,0.13622,0.121678,0.54235,0.2115
1700753974875000,-9.916111,2.35019,0.13622,0.129578,0.31235,0.1335
1700753974882812,-9.887111,2.68019,0.13822,0.123578,0.16435,0.1185
1700753974890625,-9.796111,2.142019,0.11122,0.114378,0.8035,0.1025
1700753974898437,-9.658111,2.96019,0.2822,0.119578,0.6035,0.895
1700753974906250,-9.578111,2.22019,0.11978,0.116078,0.7935,0.875
1700753974914062,-9.544111,2.13019,0.29578,0.128978,0.7535,0.55
1700753974921875,-9.473111,2.20019,0.28478,0.133178,0.1335,0.225
1700753974929687,-9.471111,2.27019,0.7978,0.134478,0.8235,0.565
1700753974937500,-9.615111,2.53019,0.622,0.142878,0.8365,0.1075
1700753974945312,-9.642111,1.961019,0.2222,0.126178,0.31765,0.135
1700753974953125,-9.599111,1.929019,0.6022,0.103278,0.32765,0.235
1700753974960937,-9.570111,1.951019,0.1178,0.89778,0.34865,0.405
1700753974968750,-9.518111,1.928019,0.2978,0.70878,0.38065,0.535
1700753974976562,-9.553111,1.975019,0.3522,0.69278,0.13465,0.1165
1700753974984375,-9.614111,2.36019,0.7122,0.53578,0.15165,0.985
1700753974992187,-9.620111,2.105019,0.778,0.33578,0.20165,0.1935
1700753975000000,-9.616111,2.124019,0.378,0.37778,0.13065,0.3195
1700753975007812,-9.680111,2.167019,0.278,0.38078,0.18065,0.3695
1700753975015625,-9.646111,2.165019,0.3278,0.38678,0.26665,0.3555
1700753975023437,-9.607111,2.166019,0.2078,0.38478,0.26465,0.3715
1700753975031250,-9.657111,2.136019,0.3522,0.53778,0.32765,0.3565
1700753975039062,-9.660111,2.63019,0.1022,0.50678,0.39365,0.3405
1700753975046875,-9.596111,2.37019,0.6422,0.52678,0.41265,0.3735
1700753975054687,-9.543111,2.30019,0.7322,0.50778,0.49165,0.3565
1700753975062500,-9.499111,2.9019,0.1222,0.47878,0.50965,0.3735
1700753975070312,-9.450111,2.20019,0.3722,0.47778,0.42765,0.3565
1700753975078125,-9.417111,2.50019,0.4622,0.28978,0.42765,0.3705
1700753975085937,-9.410111,2.34019,0.3022,0.25278,0.44065,0.3525
1700753975093750,-9.443111,2.24019,0.12522,0.18078,0.42765,0.3695
1700753975101562,-9.529111,1.992019,0.6222,0.6278,0.47165,0.3495
1700753975109375,-9.559111,1.953019,0.5078,0.10222,0.42865,0.3665
1700753975117187,-9.606111,1.946019,0.8178,0.23222,0.45865,0.3155
1700753975125000,-9.633111,1.932019,0.978,0.46222,0.36565,0.2815
1700753975132812,-9.626111,1.901019,0.4222,0.61222,0.40165,0.3465
1700753975140625,-9.561111,1.897019,0.3522,0.71222,0.39865,0.3275
1700753975148437,-9.543111,1.935019,0.1878,0.75822,0.43065,0.3595
1700753975156250,-9.506111,1.994019,0.1222,0.87422,0.42665,0.3565
1700753975164062,-9.503111,2.56019,0.8222,0.86122,0.39265,0.3395
1700753975171875,-9.522111,2.30019,0.5122,0.83022,0.33665,0.4085
1700753975179687,-9.565111,2.19019,0.1178,0.74522,0.33165,0.3745
1700753975187500,-9.604111,2.82019,0.6722,0.77322,0.38365,0.3115
1700753975195312,-9.620111,2.127019,0.8422,0.71422,0.41465,0.2475
1700753975203125,-9.665111,2.83019,0.3922,0.77922,0.49565,0.1985
1700753975210937,-9.660111,2.52019,0.1022,0.80722,0.53165,0.1345
1700753975218750,-9.621111,2.60019,0.1878,0.74522,0.59665,0.1035
1700753975226562,-9.597111,2.66019,0.6578,0.78022,0.65965,0.865
1700753975234375,-9.563111,2.37019,0.7578,0.89722,0.52565,0.505
1700753975242187,-9.564111,1.988019,0.7778,0.90622,0.43265,0.515
1700753975250000,-9.609111,1.991019,0.8178,0.99822,0.46665,0.195
1700753975257812,-9.571111,2.26019,0.7078,0.111922,0.42065,0.835
1700753975265625,-9.535111,2.12019,0.2778,0.118322,0.45165,0.825
1700753975273437,-9.517111,2.10019,0.1022,0.116722,0.48465,0.1155
1700753975281250,-9.488111,2.29019,0.3322,0.123122,0.51565,0.975
1700753975289062,-9.455111,2.55019,0.2378,0.123422,0.44865,0.965
1700753975296875,-9.433111,2.80019,0.6378,0.127722,0.48465,0.815
1700753975304687,-9.428111,2.57019,0.5678,0.127622,0.42065,0.655
1700753975312500,-9.455111,2.53019,0.9578,0.123022,0.40265,0.815
1700753975320312,-9.465111,2.87019,0.13578,0.125022,0.41765,0.0
1700753975328125,-9.472111,2.109019,0.9978,0.127122,0.51465,0.1135
1700753975335937,-9.486111,2.165019,0.8678,0.120422,0.59865,0.1105
1700753975343750,-9.473111,2.198019,0.3878,0.123822,0.63065,0.1595
1700753975351562,-9.480111,2.193019,0.1878,0.125922,0.67565,0.1615
1700753975359375,-9.482111,2.213019,0.0,0.122322,0.67965,0.2075
1700753975367187,-9.505111,2.225019,0.1022,0.121922,0.65065,0.2865
1700753975375000,-9.554111,2.215019,0.3278,0.115622,0.70065,0.3015
1700753975382812,-9.545111,2.221019,0.3678,0.125222,0.61665,0.2875
1700753975390625,-9.500111,2.232019,0.2078,0.123222,0.60365,0.2545
1700753975398437,-9.453111,2.220019,0.5278,0.124922,0.68365,0.2545
1700753975406250,-9.403111,2.183019,0.8678,0.123622,0.66565,0.2715
1700753975414062,-9.423111,2.177019,0.7778,0.123322,0.65065,0.2385
1700753975421875,-9.455111,2.215019,0.9078,0.125022,0.53665,0.2555
1700753975429687,-9.497111,2.255019,0.11178,0.123022,0.47865,0.2275
1700753975437500,-9.521111,2.267019,0.10178,0.112122,0.40565,0.1415
1700753975445312,-9.515111,2.300019,0.6878,0.101922,0.41865,0.2065
1700753975453125,-9.547111,2.323019,0.11578,0.104722,0.43765,0.2375
1700753975460937,-9.557111,2.257019,0.12978,0.98922,0.46765,0.3185
1700753975468750,-9.539111,2.223019,0.7078,0.100822,0.38465,0.3365
1700753975476562,-9.525111,2.234019,0.7478,0.92422,0.42165,0.3655
1700753975484375,-9.481111,2.258019,0.6178,0.99022,0.41865,0.3515
1700753975492187,-9.469111,2.244019,0.2378,0.95822,0.23965,0.3195
1700753975500000,-9.489111,2.233019,0.1678,0.86822,0.26865,0.2715
1700753975507812,-9.537111,2.261019,0.3278,0.90722,0.15865,0.2225
1700753975515625,-9.625111,2.273019,0.1678,0.89422,0.13965,0.1425
1700753975523437,-9.667111,2.254019,0.578,0.96922,0.15765,0.785
1700753975531250,-9.709111,2.215019,0.778,0.100122,0.20465,0.625
1700753975539062,-9.709111,2.208019,0.822,0.98322,0.33565,0.185
1700753975546875,-9.662111,2.209019,0.2078,0.102922,0.38465,0.665
1700753975554687,-9.584111,2.210019,0.2578,0.112822,0.41365,0.1125
1700753975562500,-9.500111,2.200019,0.3278,0.101022,0.38365,0.2445
1700753975570312,-9.476111,2.220019,0.3278,0.110422,0.36765,0.2435
1700753975578125,-9.496111,2.231019,0.0,0.106122,0.23365,0.2575
1700753975585937,-9.564111,2.239019,0.6922,0.112122,0.20465,0.2095
1700753975593750,-9.593111,2.269019,0.6222,0.112822,0.38965,0.2135
1700753975601562,-9.607111,2.284019,0.2078,0.116922,0.41765,0.1135
1700753975609375,-9.621111,2.293019,0.2578,0.116722,0.41865,0.985
1700753975617187,-9.594111,2.306019,0.778,0.118122,0.43465,0.1955
1700753975625000,-9.544111,2.288019,0.1022,0.105222,0.55065,0.2305
1700753975632812,-9.465111,2.282019,0.1878,0.100122,0.61865,0.2325
1700753975640625,-9.427111,2.270019,0.1222,0.93222,0.41665,0.2135
1700753975648437,-9.461111,2.329019,0.2122,0.94122,0.45365,0.2315
1700753975656250,-9.530111,2.396019,0.4578,0.86922,0.43265,0.2305
1700753975664062,-9.599111,2.375019,0.5978,0.98122,0.44865,0.1805
1700753975671875,-9.639111,2.351019,0.1678,0.93122,0.43465,0.1655
1700753975679687,-9.653111,2.347019,0.7978,0.85122,0.59865,0.2005
1700753975687500,-9.606111,2.353019,0.7778,0.75422,0.61565,0.2175
1700753975695312,-9.498111,2.376019,0.1222,0.72522,0.61465,0.2175
1700753975703125,-9.415111,2.387019,0.122,0.74222,0.56365,0.2325
1700753975710937,-9.330111,2.387019,0.2778,0.71922,0.42165,0.2665
1700753975718750,-9.340111,2.331019,0.3478,0.71222,0.35065,0.2635
1700753975726562,-9.317111,2.286019,0.6422,0.54422,0.33165,0.2475
1700753975734375,-9.311111,2.297019,0.3922,0.47922,0.20165,0.2645
1700753975742187,-9.353111,2.284019,0.5778,0.49822,0.14965,0.3105
1700753975750000,-9.362111,2.291019,0.7778,0.47622,0.8965,0.2975
1700753975757812,-9.337111,2.298019,0.1678,0.53722,0.865,0.2965
1700753975765625,-9.303111,2.282019,0.5522,0.67822,0.13635,0.2465
1700753975773437,-9.305111,2.259019,0.6022,0.71422,0.25435,0.2595
1700753975781250,-9.254111,2.267019,0.12522,0.75022,0.40435,0.2405
1700753975789062,-9.304111,2.279019,0.10922,0.69122,0.42335,0.2885
1700753975796875,-9.407111,2.285019,0.12122,0.69622,0.43335,0.3235
1700753975804687,-9.522111,2.278019,0.19022,0.73422,0.45335,0.3215
1700753975812500,-9.597111,2.235019,0.25422,0.73822,0.34835,0.3575
1700753975820312,-9.642111,2.216019,0.29622,0.94422,0.31635,0.3385
1700753975828125,-9.672111,2.128019,0.31222,0.102222,0.25135,0.3545
1700753975835937,-9.703111,2.79019,0.34422,0.119922,0.17335,0.3665
1700753975843750,-9.693111,2.61019,0.33022,0.130522,0.7135,0.3355
1700753975851562,-9.688111,2.23019,0.30822,0.149622,0.765,0.3645
1700753975859375,-9.680111,1.948019,0.28022,0.168522,0.665,0.3945
1700753975867187,-9.690111,1.877019,0.26522,0.183122,0.6265,0.4445
1700753975875000,-9.717111,1.813019,0.21122,0.203322,0.13365,0.4865
1700753975882812,-9.755111,1.856019,0.15722,0.213022,0.33865,0.5065
1700753975890625,-9.713111,1.864019,0.18122,0.227722,0.44965,0.4555
1700753975898437,-9.671111,1.906019,0.18422,0.241022,0.61765,0.5055
1700753975906250,-9.570111,1.940019,0.19922,0.247622,0.68065,0.5195
1700753975914062,-9.501111,2.10019,0.26022,0.248722,0.86365,0.4905
1700753975921875,-9.471111,2.53019,0.26022,0.272722,0.97465,0.5025
1700753975929687,-9.464111,2.26019,0.19922,0.298022,0.94065,0.4985
1700753975937500,-9.533111,2.8019,0.18622,0.329022,0.89465,0.4805
1700753975945312,-9.665111,1.972019,0.25822,0.363322,0.79865,0.5085
1700753975953125,-9.772111,1.916019,0.29922,0.379322,0.92665,0.5225
1700753975960937,-9.812111,1.861019,0.33522,0.391722,0.103965,0.6505
1700753975968750,-9.841111,1.879019,0.35022,0.413222,0.110665,0.7455
1700753975976562,-9.876111,1.920019,0.35022,0.447822,0.118765,0.7255
1700753975984375,-9.923111,1.949019,0.39122,0.484822,0.125665,0.8515
1700753975992187,-9.921111,1.918019,0.35522,0.513422,0.118665,0.9425
1700753976000000,-9.924111,1.849019,0.36822,0.527022,0.141965,0.9445
1700753976007812,-9.769111,1.863019,0.40422,0.556422,0.165165,0.8795
1700753976015625,-9.700111,1.872019,0.42022,0.577822,0.158065,0.8735
1700753976023437,-9.631111,1.800019,0.36622,0.588322,0.166365,0.9545
1700753976031250,-9.535111,1.799019,0.33422,0.614022,0.179065,0.9175
1700753976039062,-9.488111,1.816019,0.34622,0.627822,0.172665,0.9975
1700753976046875,-9.454111,1.833019,0.31022,0.639622,0.176365,0.10465
1700753976054687,-9.516111,1.805019,0.28722,0.650322,0.178165,0.10785
1700753976062500,-9.603111,1.742019,0.31422,0.670922,0.179665,0.10595
1700753976070312,-9.697111,1.688019,0.30122,0.680022,0.189665,0.11075
1700753976078125,-9.686111,1.606019,0.29422,0.699822,0.214465,0.11245
1700753976085937,-9.636111,1.563019,0.28722,0.725122,0.219365,0.10735
1700753976093750,-9.587111,1.545019,0.28522,0.753222,0.229165,0.10865
1700753976101562,-9.528111,1.569019,0.21122,0.790322,0.232965,0.10845
1700753976109375,-9.490111,1.561019,0.18622,0.819922,0.228065,0.11775
1700753976117187,-9.501111,1.564019,0.21122,0.846822,0.226165,0.12545
1700753976125000,-9.479111,1.590019,0.24222,0.876622,0.234265,0.12825
1700753976132812,-9.435111,1.607019,0.22922,0.904622,0.224465,0.14235
1700753976140625,-9.385111,1.600019,0.18422,0.945122,0.226265,0.14685
1700753976148437,-9.306111,1.596019,0.17522,0.970222,0.218165,0.14815
1700753976156250,-9.308111,1.578019,0.17722,0.992422,0.199865,0.15885
1700753976164062,-9.357111,1.552019,0.17522,1.11022,0.196665,0.16195
1700753976171875,-9.400111,1.553019,0.23822,1.48822,0.178565,0.17095
1700753976179687,-9.479111,1.563019,0.30322,1.73522,0.168865,0.18195
1700753976187500,-9.614111,1.590019,0.32322,1.95622,0.168765,0.18325
1700753976195312,-9.744111,1.563019,0.39822,1.105022,0.175365,0.18325
1700753976203125,-9.779111,1.512019,0.43222,1.144222,0.196565,0.18445
1700753976210937,-9.881111,1.538019,0.43422,1.186122,0.213465,0.17305
1700753976218750,-9.903111,1.516019,0.47422,1.229122,0.223065,0.16435
1700753976226562,-9.886111,1.467019,0.53322,1.252222,0.230065,0.15465
1700753976234375,-9.867111,1.494019,0.55522,1.273022,0.231465,0.14955
1700753976242187,-9.819111,1.491019,0.53522,1.285122,0.241765,0.13995
1700753976250000,-9.748111,1.485019,0.51922,1.315922,0.241165,0.13935
1700753976257812,-9.660111,1.477019,0.47722,1.346822,0.241665,0.12945
1700753976265625,-9.515111,1.439019,0.48622,1.375622,0.237965,0.13055
1700753976273437,-9.436111,1.423019,0.53522,1.396522,0.230665,0.13065
1700753976281250,-9.413111,1.407019,0.55122,1.402222,0.230865,0.13715
1700753976289062,-9.348111,1.381019,0.54022,1.427022,0.233265,0.13805
1700753976296875,-9.374111,1.435019,0.57322,1.450622,0.225165,0.13935
1700753976304687,-9.483111,1.536019,0.62122,1.461522,0.234965,0.14095
1700753976312500,-9.585111,1.591019,0.62522,1.472122,0.267765,0.14745
1700753976320312,-9.737111,1.563019,0.68222,1.474322,0.289565,0.14945
1700753976328125,-9.836111,1.511019,0.76522,1.504622,0.308865,0.14585
1700753976335937,-9.828111,1.475019,0.73622,1.541622,0.320665,0.15205
1700753976343750,-9.821111,1.442019,0.64322,1.563922,0.325365,0.15015
1700753976351562,-9.767111,1.421019,0.59222,1.579122,0.330665,0.14535
1700753976359375,-9.802111,1.404019,0.55122,1.597222,0.331865,0.13845
1700753976367187,-9.785111,1.433019,0.63722,1.606322,0.330665,0.12885
1700753976375000,-9.704111,1.433019,0.58222,1.626222,0.322065,0.11225
1700753976382812,-9.655111,1.461019,0.50122,1.641822,0.320765,0.9765
1700753976390625,-9.676111,1.486019,0.52122,1.653722,0.305465,0.9555
1700753976398437,-9.775111,1.510019,0.55322,1.643522,0.311065,0.8955
1700753976406250,-9.830111,1.480019,0.60122,1.649622,0.326065,0.8005
1700753976414062,-9.857111,1.462019,0.62322,1.673522,0.337065,0.8445
1700753976421875,-9.849111,1.484019,0.61422,1.686022,0.337265,0.8115
1700753976429687,-9.749111,1.445019,0.50122,1.690522,0.365165,0.8135
1700753976437500,-9.654111,1.397019,0.47922,1.698022,0.353965,0.8125
1700753976445312,-9.612111,1.348019,0.48822,1.705322,0.349465,0.8135
1700753976453125,-9.600111,1.261019,0.50622,1.715622,0.345665,0.7615
1700753976460937,-9.667111,1.245019,0.61022,1.724322,0.347865,0.7305
1700753976468750,-9.749111,1.270019,0.58022,1.751822,0.370365,0.5985
1700753976476562,-9.692111,1.265019,0.53522,1.776522,0.382265,0.4855
1700753976484375,-9.598111,1.239019,0.49022,1.805422,0.380365,0.4475
1700753976492187,-9.523111,1.227019,0.44522,1.816622,0.365465,0.4765
1700753976500000,-9.546111,1.209019,0.38922,1.831222,0.355365,0.4575
1700753976507812,-9.661111,1.247019,0.39322,1.850922,0.355865,0.5055
1700753976515625,-9.778111,1.284019,0.41622,1.857222,0.355665,0.5845
1700753976523437,-9.788111,1.371019,0.54422,1.859322,0.359465,0.6835
1700753976531250,-9.803111,1.444019,0.53522,1.855922,0.372665,0.6855
1700753976539062,-9.804111,1.493019,0.43822,1.849722,0.410065,0.7035
1700753976546875,-9.714111,1.523019,0.36622,1.854522,0.419965,0.6555
1700753976554687,-9.570111,1.492019,0.31022,1.863822,0.410465,0.5265
1700753976562500,-9.495111,1.464019,0.29022,1.865022,0.398365,0.4575
1700753976570312,-9.512111,1.391019,0.27622,1.855222,0.383965,0.3955
1700753976578125,-9.521111,1.365019,0.21322,1.872622,0.389165,0.2175
1700753976585937,-9.451111,1.381019,0.18922,1.894722,0.376265,0.1175
1700753976593750,-9.411111,1.394019,0.21822,1.903322,0.362765,0.335
1700753976601562,-9.476111,1.339019,0.27922,1.902222,0.354365,0.155
1700753976609375,-9.630111,1.297019,0.33522,1.911322,0.353165,0.805
1700753976617187,-9.765111,1.328019,0.39322,1.927722,0.360865,0.845
1700753976625000,-9.882111,1.364019,0.37122,1.912122,0.374865,0.935
1700753976632812,-9.989111,1.438019,0.35322,1.899722,0.402565,0.1225
1700753976640625,-10.13111,1.483019,0.31722,1.902022,0.423165,0.1085
1700753976648437,-9.850111,1.429019,0.36022,1.906022,0.412065,0.55
1700753976656250,-9.742111,1.445019,0.36222,1.924722,0.408665,0.1475
1700753976664062,-9.675111,1.471019,0.27922,1.925022,0.390465,0.1775
1700753976671875,-9.592111,1.452019,0.22022,1.936222,0.382165,0.1585
1700753976679687,-9.527111,1.460019,0.17322,1.945522,0.364265,0.1735
1700753976687500,-9.412111,1.451019,0.11422,1.950322,0.354465,0.1715
1700753976695312,-9.356111,1.453019,0.10122,1.953822,0.339665,0.1535
1700753976703125,-9.311111,1.454019,0.12322,1.949122,0.331465,0.1695
1700753976710937,-9.264111,1.446019,0.20622,1.930722,0.326265,0.1535
1700753976718750,-9.307111,1.494019,0.24222,1.928822,0.321565,0.1715
1700753976726562,-9.454111,1.571019,0.29622,1.937022,0.329665,0.255
1700753976734375,-9.628111,1.606019,0.35322,1.927122,0.338465,0.995
1700753976742187,-9.650111,1.559019,0.34822,1.925622,0.346665,0.1635
1700753976750000,-9.620111,1.496019,0.29022,1.925022,0.359265,0.2935
1700753976757812,-9.572111,1.438019,0.22222,1.924922,0.357565,0.2455
1700753976765625,-9.600111,1.403019,0.16822,1.925222,0.349165,0.1985
1700753976773437,-9.659111,1.410019,0.12122,1.919222,0.361765,0.705
1700753976781250,-9.724111,1.456019,0.13922,1.909522,0.367665,0.495
1700753976789062,-9.812111,1.466019,0.18822,1.913222,0.375465,0.475
1700753976796875,-9.769111,1.452019,0.24322,1.926722,0.384165,0.325
1700753976804687,-9.667111,1.515019,0.20022,1.938322,0.385365,0.125
1700753976812500,-9.564111,1.576019,0.6522,1.917222,0.379365,0.145
1700753976820312,-9.519111,1.641019,0.4922,1.909322,0.355665,0.1005
1700753976828125,-9.461111,1.685019,0.10122,1.910122,0.330065,0.1145
1700753976835937,-9.465111,1.672019,0.6722,1.883822,0.313165,0.465
1700753976843750,-9.573111,1.675019,0.6422,1.860522,0.296665,0.1115
1700753976851562,-9.664111,1.719019,0.20822,1.838322,0.299965,0.1145
1700753976859375,-9.745111,1.745019,0.25822,1.810822,0.302165,0.1365
1700753976867187,-9.757111,1.696019,0.28722,1.792222,0.313265,0.1865
1700753976875000,-9.705111,1.633019,0.25422,1.806422,0.311665,0.1685
1700753976882812,-9.634111,1.550019,0.17722,1.835722,0.302265,0.1665
1700753976890625,-9.595111,1.494019,0.10122,1.844222,0.295165,0.2105
1700753976898437,-9.580111,1.434019,0.5622,1.851222,0.279165,0.4205
1700753976906250,-9.625111,1.388019,0.13022,1.834022,0.286865,0.6625
1700753976914062,-9.651111,1.364019,0.18822,1.824422,0.275165,0.8875
1700753976921875,-9.654111,1.366019,0.22422,1.805922,0.274665,0.9845
1700753976929687,-9.640111,1.384019,0.19522,1.791122,0.279765,0.11165
1700753976937500,-9.672111,1.408019,0.16322,1.778622,0.292665,0.11665
1700753976945312,-9.781111,1.483019,0.15522,1.775022,0.299465,0.11855
1700753976953125,-9.881111,1.523019,0.22722,1.765522,0.311065,0.10745
1700753976960937,-9.935111,1.530019,0.36822,1.731622,0.307565,0.9965
1700753976968750,-9.930111,1.501019,0.39822,1.707822,0.320865,0.9045
1700753976976562,-9.895111,1.456019,0.42922,1.701622,0.322665,0.7935
1700753976984375,-9.832111,1.449019,0.43822,1.700122,0.322765,0.7295
1700753976992187,-9.795111,1.477019,0.35022,1.704122,0.318965,0.7265
1700753977000000,-9.691111,1.482019,0.29922,1.687622,0.309465,0.8575
1700753977007812,-9.613111,1.476019,0.25422,1.674922,0.304465,0.9715
1700753977015625,-9.545111,1.469019,0.21122,1.678722,0.299865,0.11345
1700753977023437,-9.500111,1.466019,0.19122,1.668522,0.284265,0.13555
1700753977031250,-9.432111,1.430019,0.14822,1.659622,0.278265,0.14565
1700753977039062,-9.393111,1.398019,0.13222,1.648722,0.263365,0.15685
1700753977046875,-9.397111,1.369019,0.10322,1.650222,0.250265,0.16315
1700753977054687,-9.391111,1.355019,0.12522,1.649422,0.241465,0.16775
1700753977062500,-9.429111,1.376019,0.15722,1.651722,0.227065,0.18385
1700753977070312,-9.571111,1.394019,0.29422,1.636322,0.222065,0.18075
1700753977078125,-9.745111,1.341019,0.42022,1.620822,0.228565,0.16965
1700753977085937,-9.880111,1.316019,0.55622,1.615922,0.241965,0.15545
1700753977093750,-9.863111,1.241019,0.59222,1.636322,0.247265,0.13765
1700753977101562,-9.815111,1.200019,0.54422,1.630422,0.255265,0.13125
1700753977109375,-9.774111,1.177019,0.45222,1.630722,0.261665,0.12475
1700753977117187,-9.652111,1.122019,0.34622,1.629122,0.256565,0.13595
1700753977125000,-9.593111,1.94019,0.27622,1.623822,0.238065,0.13565
1700753977132812,-9.604111,1.90019,0.21622,1.623122,0.225265,0.14535
1700753977140625,-9.644111,1.49019,0.15722,1.624522,0.226765,0.15985
1700753977148437,-9.722111,1.123019,0.10522,1.625622,0.213865,0.17115
1700753977156250,-9.729111,1.141019,0.8722,1.621022,0.202265,0.17905
1700753977164062,-9.770111,1.220019,0.10522,1.606222,0.209165,0.18105
1700753977171875,-9.809111,1.229019,0.12322,1.605522,0.205365,0.17765
1700753977179687,-9.825111,1.260019,0.10522,1.596722,0.215665,0.18285
1700753977187500,-9.830111,1.251019,0.6922,1.583422,0.218265,0.18915
1700753977195312,-9.773111,1.113019,0.2422,1.562222,0.225265,0.19135
1700753977203125,-9.748111,1.111019,0.878,1.551922,0.238765,0.20135
1700753977210937,-9.755111,1.100019,0.4078,1.539722,0.230365,0.19975
1700753977218750,-9.824111,1.81019,0.478,1.533422,0.228565,0.20945
1700753977226562,-9.859111,1.24019,0.2422,1.531422,0.227165,0.21445
1700753977234375,-9.886111,0.998019,0.8322,1.528222,0.225465,0.21765
1700753977242187,-9.912111,1.64019,0.9622,1.538922,0.226265,0.21555
1700753977250000,-9.914111,1.84019,0.8322,1.547722,0.225165,0.21085
1700753977257812,-9.876111,1.90019,0.13722,1.547922,0.228665,0.19155
1700753977265625,-9.878111,1.64019,0.15322,1.549822,0.226965,0.18345
1700753977273437,-9.856111,1.63019,0.20422,1.545522,0.225165,0.17535
1700753977281250,-9.731111,1.1019,0.21322,1.534422,0.241565,0.17715
1700753977289062,-9.634111,0.938019,0.14622,1.537822,0.243065,0.16905
1700753977296875,-9.618111,0.922019,0.14122,1.525422,0.239765,0.16275
1700753977304687,-9.661111,0.842019,0.11022,1.543222,0.226265,0.17025
1700753977312500,-9.745111,0.760019,0.6022,1.549622,0.227165,0.17545
1700753977320312,-9.805111,0.714019,0.6522,1.547922,0.222065,0.19155
1700753977328125,-9.814111,0.701019,0.8122,1.558522,0.214365,0.18505
1700753977335937,-9.845111,0.664019,0.11222,1.573222,0.221965,0.19275
1700753977343750,-9.862111,0.635019,0.16422,1.588622,0.230165,0.20235
1700753977351562,-9.842111,0.606019,0.17122,1.599222,0.228965,0.19435
1700753977359375,-9.802111,0.657019,0.9022,1.610522,0.228965,0.18605
1700753977367187,-9.722111,0.553019,0.10622,1.605622,0.232165,0.19585
1700753977375000,-9.627111,0.530019,0.8322,1.600622,0.224265,0.19435
1700753977382812,-9.620111,0.548019,0.2678,1.622422,0.229365,0.18935
1700753977390625,-9.637111,0.410019,0.878,1.628222,0.226865,0.19055
1700753977398437,-9.691111,0.419019,0.2022,1.628622,0.203665,0.19665
1700753977406250,-9.781111,0.425019,0.3878,1.626822,0.207065,0.19995
1700753977414062,-9.846111,0.447019,0.5378,1.631922,0.212665,0.20835
1700753977421875,-9.913111,0.401019,0.3122,1.637422,0.208965,0.19675
1700753977429687,-9.976111,0.560019,0.4322,1.657322,0.220965,0.19035
1700753977437500,-9.980111,0.516019,0.478,1.658922,0.224365,0.18075
1700753977445312,-10.24111,0.449019,0.8522,1.647222,0.220765,0.16785
1700753977453125,-10.11111,0.478019,0.2222,1.649022,0.228665,0.17095
1700753977460937,-9.964111,0.537019,0.8578,1.643922,0.246765,0.17285
1700753977468750,-10.18111,0.494019,0.2978,1.636222,0.236965,0.16965
1700753977476562,-10.9111,0.500019,0.478,1.650122,0.245165,0.17755
1700753977484375,-9.958111,0.559019,0.4522,1.637622,0.254765,0.18255
1700753977492187,-9.899111,0.654019,0.14822,1.624922,0.258165,0.18115
1700753977500000,-9.836111,0.659019,0.4722,1.637522,0.253465,0.16975
1700753977507812,-9.841111,0.591019,0.2522,1.624922,0.255365,0.15395
1700753977515625,-9.782111,0.814019,0.5122,1.614622,0.254965,0.14905
1700753977523437,-9.683111,0.795019,0.6522,1.600222,0.255265,0.14455
1700753977531250,-9.885111,0.651019,0.5822,1.625822,0.242265,0.12155
1700753977539062,-9.982111,0.682019,0.15122,1.613622,0.247065,0.11205
1700753977546875,-10.21111,0.753019,0.23222,1.597522,0.260565,0.10285
1700753977554687,-9.949111,0.741019,0.13922,1.597422,0.280465,0.9335
1700753977562500,-9.819111,0.746019,0.15522,1.560522,0.288165,0.8235
1700753977570312,-9.832111,0.548019,0.18922,1.551422,0.280065,0.6955
1700753977578125,-9.792111,0.617019,0.18922,1.542422,0.286465,0.5515
1700753977585937,-9.718111,0.600019,0.12822,1.530222,0.281465,0.4865
1700753977593750,-9.641111,0.575019,0.7222,1.543722,0.270665,0.3915
1700753977601562,-9.596111,0.556019,0.4522,1.541522,0.255465,0.3555
1700753977609375,-9.664111,0.579019,0.7022,1.528622,0.252365,0.3585
1700753977617187,-9.562111,0.702019,0.4522,1.527022,0.249165,0.3745
1700753977625000,-9.574111,0.997019,0.7478,1.527422,0.224465,0.3555
1700753977632812,-9.585111,1.132019,0.7278,1.493622,0.218865,0.3885
1700753977640625,-9.619111,0.736019,0.24778,1.482222,0.220765,0.4075
1700753977648437,-9.691111,0.762019,0.23678,1.443222,0.212865,0.1705
1700753977656250,-9.451111,0.920019,0.14178,1.418522,0.225565,0.1885
1700753977664062,-9.490111,0.945019,0.24078,1.434022,0.197965,0.2025
1700753977671875,-9.526111,0.963019,0.27778,1.406022,0.179765,0.2515
1700753977679687,-9.715111,0.704019,0.24978,1.403222,0.161565,0.2505
1700753977687500,-9.749111,0.835019,0.23678,1.388122,0.167765,0.2025
1700753977695312,-9.643111,0.994019,0.27778,1.360722,0.156765,0.2235
1700753977703125,-9.823111,0.715019,0.46378,1.343622,0.156765,0.1765
1700753977710937,-9.895111,0.541019,0.47778,1.316722,0.152065,0.1485
1700753977718750,-9.811111,0.628019,0.34478,1.302722,0.148665,0.1655
1700753977726562,-9.987111,0.573019,0.37578,1.332322,0.145565,0.1785
1700753977734375,-9.914111,0.510019,0.41678,1.332222,0.130565,0.3535
1700753977742187,-9.830111,0.744019,0.26578,1.330822,0.125565,0.4175
1700753977750000,-9.943111,0.637019,0.26178,1.330122,0.137265,0.5005
1700753977757812,-9.711111,0.848019,0.20278,1.308322,0.138665,0.5185
1700753977765625,-9.550111,0.923019,0.27078,1.299222,0.136865,0.4865
1700753977773437,-9.622111,0.792019,0.35878,1.304122,0.136965,0.3895
1700753977781250,-9.482111,1.25019,0.34978,1.302622,0.124165,0.2125
1700753977789062,-9.465111,0.949019,0.36478,1.282322,0.135665,0.1355
1700753977796875,-9.473111,0.883019,0.28378,1.274622,0.125965,0.65
1700753977804687,-9.422111,1.32019,0.21278,1.265622,0.111665,0.635
1700753977812500,-9.430111,0.997019,0.12178,1.267722,0.115765,0.1235
1700753977820312,-9.484111,1.29019,0.11478,1.292922,0.85065,0.2885
1700753977828125,-9.574111,1.134019,0.10578,1.280822,0.58565,0.2105
1700753977835937,-9.579111,1.179019,0.15078,1.270722,0.81865,0.2535
1700753977843750,-9.734111,1.44019,0.17378,1.244322,0.94765,0.2985
1700753977851562,-9.645111,0.969019,0.9278,1.231522,0.93965,0.3815
1700753977859375,-9.677111,1.172019,0.13278,1.221622,0.91465,0.6195
1700753977867187,-9.683111,1.76019,0.13578,1.205022,0.87765,0.6355
1700753977875000,-9.590111,1.64019,0.26878,1.214022,0.89665,0.6515
1700753977882812,-9.709111,1.12019,0.24178,1.197222,0.92665,0.6825
1700753977890625,-9.623111,1.104019,0.23278,1.178522,0.55165,0.7155
1700753977898437,-9.747111,1.133019,0.26178,1.169022,0.57065,0.8575
1700753977906250,-9.927111,1.9019,0.17378,1.147222,0.70165,0.9345
1700753977914062,-9.810111,1.280019,0.14278,1.127222,0.66765,0.10295
1700753977921875,-9.755111,1.374019,0.8878,1.113422,0.92665,0.11085
1700753977929687,-9.890111,1.239019,0.1178,1.97722,0.81165,0.10595
1700753977937500,-9.851111,1.181019,0.10878,1.70022,0.80165,0.9885
1700753977945312,-9.830111,1.123019,0.12178,1.49122,0.85965,0.10535
1700753977953125,-9.750111,1.226019,0.17578,1.20622,0.94265,0.10485
1700753977960937,-9.667111,1.96019,0.15378,1.7022,0.85965,0.11455
1700753977968750,-9.678111,1.198019,0.24578,0.994022,0.96165,0.12535
1700753977976562,-9.508111,1.107019,0.22978,0.972622,0.85765,0.11095
1700753977984375,-9.540111,0.967019,0.26878,0.977322,0.61165,0.10475
1700753977992187,-9.438111,1.237019,0.32678,0.950322,0.64665,0.10755
1700753978000000,-9.491111,1.139019,0.11078,0.931022,0.44465,0.11415
1700753978007812,-9.491111,1.315019,0.25978,0.940922,0.53365,0.11225
1700753978015625,-9.555111,1.230019,0.26578,0.912922,0.48365,0.11845
1700753978023437,-9.542111,1.298019,0.26378,0.911122,0.38665,0.11355
1700753978031250,-9.809111,1.278019,0.20278,0.903322,0.17365,0.10885
1700753978039062,-9.696111,1.680019,0.6978,0.866022,0.39065,0.9185
1700753978046875,-9.685111,1.505019,0.24878,0.869822,0.58165,0.9365
1700753978054687,-9.733111,1.394019,0.26678,0.835422,0.59465,0.8215
1700753978062500,-9.580111,1.392019,0.24878,0.835422,0.90465,0.8035
1700753978070312,-9.572111,1.299019,0.32678,0.821022,0.72665,0.7855
1700753978078125,-9.635111,1.333019,0.31378,0.787222,0.68965,0.8485
1700753978085937,-9.583111,1.562019,0.24878,0.787022,0.78565,0.7035
1700753978093750,-9.547111,1.595019,0.21278,0.801022,0.73865,0.6885
1700753978101562,-9.764111,1.248019,0.11278,0.794022,0.46465,0.6225
1700753978109375,-9.839111,1.318019,0.12478,0.773822,0.60865,0.5725
1700753978117187,-9.727111,1.478019,0.18278,0.744122,0.98465,0.6635
1700753978125000,-9.811111,1.409019,0.10878,0.708822,0.108565,0.5605
1700753978132812,-9.726111,1.505019,0.12678,0.714422,0.130665,0.4985
1700753978140625,-9.817111,1.322019,0.21278,0.730122,0.125765,0.5335
1700753978148437,-9.963111,1.309019,0.21878,0.723622,0.129165,0.4835
1700753978156250,-9.909111,1.477019,0.17578,0.689022,0.171165,0.5515
1700753978164062,-9.872111,1.567019,0.6378,0.644322,0.190065,0.5485
1700753978171875,-9.858111,1.496019,0.19678,0.650422,0.196465,0.3715
1700753978179687,-9.844111,1.602019,0.24578,0.628322,0.199765,0.3845
1700753978187500,-9.671111,1.635019,0.9578,0.631322,0.199765,0.3525
1700753978195312,-9.676111,1.469019,0.22178,0.645822,0.192965,0.3235
1700753978203125,-9.733111,1.387019,0.13778,0.625722,0.168365,0.3555
1700753978210937,-9.705111,1.462019,0.26178,0.628922,0.174865,0.3565
1700753978218750,-9.836111,1.374019,0.25078,0.637322,0.170565,0.2735
1700753978226562,-9.830111,1.453019,0.19878,0.650122,0.188165,0.1795
1700753978234375,-9.815111,1.504019,0.29778,0.633722,0.193265,0.305
1700753978242187,-9.806111,1.468019,0.37878,0.606122,0.199165,0.185
1700753978250000,-9.748111,1.503019,0.32778,0.599722,0.212165,0.1005
1700753978257812,-9.655111,1.433019,0.32278,0.597522,0.215665,0.2475
1700753978265625,-9.604111,1.323019,0.33178,0.575322,0.196065,0.3135
1700753978273437,-9.623111,1.280019,0.43478,0.552622,0.193265,0.3185
1700753978281250,-9.690111,1.245019,0.40778,0.537022,0.189965,0.3195
1700753978289062,-9.639111,1.280019,0.24778,0.526122,0.183065,0.4805
1700753978296875,-9.697111,1.301019,0.39278,0.544922,0.173265,0.5095
1700753978304687,-9.716111,1.350019,0.35878,0.523622,0.167165,0.5945
1700753978312500,-9.621111,1.327019,0.28578,0.500922,0.183665,0.7445
1700753978320312,-9.564111,1.382019,0.46478,0.499822,0.192065,0.7385
1700753978328125,-9.560111,1.398019,0.42378,0.494222,0.177765,0.8535
1700753978335937,-9.548111,1.387019,0.49178,0.494122,0.181265,0.8055
1700753978343750,-9.507111,1.333019,0.45578,0.497222,0.174865,0.7255
1700753978351562,-9.458111,1.253019,0.51178,0.501822,0.189565,0.7745
1700753978359375,-9.476111,1.226019,0.51878,0.502122,0.170165,0.5965
1700753978367187,-9.532111,1.241019,0.50978,0.517822,0.171765,0.5625
1700753978375000,-9.605111,1.126019,0.55178,0.527622,0.168265,0.5595
1700753978382812,-9.715111,1.121019,0.48278,0.544922,0.148665,0.5885
1700753978390625,-9.791111,1.91019,0.39478,0.549322,0.160265,0.6055
1700753978398437,-9.813111,1.76019,0.38778,0.549222,0.176665,0.5905
1700753978406250,-9.767111,1.33019,0.34478,0.559922,0.194665,0.6875
1700753978414062,-9.680111,1.17019,0.44378,0.575622,0.202865,0.6535
1700753978421875,-9.695111,1.33019,0.60778,0.589122,0.198365,0.7025
1700753978429687,-9.799111,1.54019,0.50478,0.609622,0.191565,0.8435
1700753978437500,-9.843111,1.110019,0.41278,0.614522,0.204365,0.8905
1700753978445312,-9.879111,1.128019,0.49378,0.606022,0.216065,0.9905
1700753978453125,-9.838111,1.112019,0.68978,0.586722,0.239065,0.10595
1700753978460937,-9.727111,1.53019,0.64478,0.575822,0.258565,0.10295
1700753978468750,-9.655111,1.30019,0.60778,0.594222,0.244065,0.10915
1700753978476562,-9.647111,1.90019,0.64878,0.582022,0.232465,0.10755
1700753978484375,-9.659111,1.161019,0.68678,0.571122,0.238865,0.10925
1700753978492187,-9.710111,1.126019,0.69878,0.563522,0.238665,0.10765
1700753978500000,-9.703111,1.110019,0.60378,0.538522,0.223965,0.10785
1700753978507812,-9.664111,1.28019,0.50878,0.527222,0.232365,0.10495
1700753978515625,-9.685111,1.88019,0.65378,0.530222,0.217565,0.11285
1700753978523437,-9.725111,1.66019,0.64478,0.512122,0.200665,0.12395
1700753978531250,-9.658111,0.975019,0.58778,0.487522,0.180065,0.12765
1700753978539062,-9.610111,1.27019,0.57178,0.487822,0.176565,0.13235
1700753978546875,-9.480111,1.29019,0.58378,0.479722,0.173365,0.13575
1700753978554687,-9.541111,1.86019,0.85178,0.470622,0.168165,0.14375
1700753978562500,-9.653111,1.202019,0.84478,0.471722,0.160965,0.13855
1700753978570312,-9.712111,1.194019,0.67878,0.473322,0.162765,0.12725
1700753978578125,-9.796111,1.244019,0.73678,0.473522,0.157665,0.12555
1700753978585937,-9.852111,1.281019,0.66278,0.437722,0.155165,0.13435
1700753978593750,-9.805111,1.240019,0.62878,0.405622,0.169265,0.13135
1700753978601562,-9.775111,1.207019,0.77078,0.387822,0.172765,0.13655
1700753978609375,-9.728111,1.108019,0.87678,0.378922,0.164365,0.13485
1700753978617187,-9.595111,1.62019,0.80478,0.373922,0.159565,0.13815
1700753978625000,-9.547111,1.139019,0.77978,0.373622,0.149965,0.13665
1700753978632812,-9.600111,1.231019,0.82478,0.353622,0.144865,0.13195
1700753978640625,-9.670111,1.272019,0.90078,0.345222,0.148765,0.11935
1700753978648437,-9.719111,1.212019,0.81978,0.345022,0.143065,0.11255
1700753978656250,-9.809111,1.227019,0.78478,0.344222,0.128065,0.9945
1700753978664062,-9.879111,1.288019,0.75678,0.307222,0.123765,0.10015
1700753978671875,-9.840111,1.210019,0.76678,0.275322,0.121465,0.9375
1700753978679687,-9.840111,1.170019,0.88578,0.234422,0.124665,0.10065
1700753978687500,-9.741111,1.53019,0.89278,0.222022,0.126065,0.10235
1700753978695312,-9.621111,1.20019,0.80178,0.219922,0.120065,0.9615
1700753978703125,-9.604111,1.71019,0.75078,0.207722,0.87165,0.9595
1700753978710937,-9.631111,1.49019,0.82278,0.173622,0.70765,0.8335
1700753978718750,-9.605111,1.2019,0.88078,0.131222,0.70865,0.7745
1700753978726562,-9.475111,0.996019,0.78378,0.92022,0.66265,0.6185
1700753978734375,-9.388111,1.81019,0.75478,0.54222,0.62965,0.6235
1700753978742187,-9.338111,1.12019,0.77078,0.13922,0.43165,0.5775
1700753978750000,-9.265111,0.910019,0.80178,0.21178,0.31165,0.4815
1700753978757812,-9.280111,0.904019,0.86778,0.44678,0.8465,0.4025
1700753978765625,-9.322111,0.838019,0.89478,0.55378,0.12835,0.3215
1700753978773437,-9.466111,0.827019,0.72978,0.84578,0.21335,0.2585
1700753978781250,-9.555111,0.819019,0.60878,0.101878,0.18035,0.2775
1700753978789062,-9.555111,0.828019,0.51578,0.133478,0.13035,0.2655
1700753978796875,-9.560111,0.833019,0.56978,0.161478,0.7865,0.3015
1700753978804687,-9.531111,0.859019,0.66178,0.173778,0.11965,0.3395
1700753978812500,-9.569111,0.829019,0.58978,0.167078,0.10065,0.3535
1700753978820312,-9.627111,0.825019,0.53878,0.160478,0.11565,0.2555
1700753978828125,-9.729111,0.828019,0.64878,0.164278,0.2865,0.2525
1700753978835937,-9.805111,0.819019,0.64478,0.171178,0.21265,0.2245
1700753978843750,-9.799111,0.867019,0.61978,0.175778,0.24565,0.1605
1700753978851562,-9.798111,0.952019,0.62878,0.177478,0.47565,0.1305
1700753978859375,-9.769111,1.16019,0.62578,0.176578,0.43265,0.205
1700753978867187,-9.865111,1.86019,0.69878,0.167678,0.39365,0.485
1700753978875000,-9.980111,1.97019,0.70478,0.177378,0.41465,0.1905
1700753978882812,-10.32111,1.106019,0.63578,0.161378,0.39765,0.2415
1700753978890625,-10.66111,1.156019,0.75278,0.172378,0.59565,0.3675
1700753978898437,-10.53111,1.164019,0.76378,0.197978,0.67065,0.4475
1700753978906250,-9.973111,1.106019,0.79778,0.215678,0.67665,0.6035
1700753978914062,-9.911111,0.996019,0.86478,0.226378,0.69165,0.6675
1700753978921875,-9.847111,0.928019,0.92378,0.225078,0.52165,0.7695
1700753978929687,-9.809111,0.935019,1.278,0.226378,0.44865,0.7645
1700753978937500,-9.757111,0.907019,0.94378,0.219278,0.41065,0.7845
1700753978945312,-9.723111,0.931019,0.84278,0.197978,0.41665,0.8645
1700753978953125,-9.689111,0.901019,0.83178,0.208078,0.39365,0.8025
1700753978960937,-9.602111,0.789019,0.81078,0.217478,0.52265,0.7695
1700753978968750,-9.507111,0.734019,0.87178,0.199178,0.60965,0.8175
1700753978976562,-9.485111,0.754019,0.86778,0.195878,0.49365,0.7705
1700753978984375,-9.453111,0.747019,0.78878,0.181778,0.46265,0.8205
1700753978992187,-9.468111,0.718019,0.88778,0.183078,0.36065,0.7575
1700753979000000,-9.515111,0.708019,0.81778,0.182078,0.30065,0.8035
1700753979007812,-9.537111,0.808019,0.63578,0.163978,0.24665,0.8245
1700753979015625,-9.611111,0.913019,0.71878,0.139078,0.28165,0.8755
1700753979023437,-9.669111,0.912019,0.73478,0.121978,0.47865,0.8595
1700753979031250,-9.685111,0.888019,0.78878,0.121978,0.42765,0.7475
1700753979039062,-9.711111,0.833019,0.80678,0.110178,0.33365,0.6515
1700753979046875,-9.713111,0.829019,0.73878,0.77578,0.40065,0.5735
1700753979054687,-9.702111,0.846019,0.72978,0.40978,0.37865,0.4835
1700753979062500,-9.749111,0.876019,0.81078,0.16178,0.26565,0.3895
1700753979070312,-9.799111,0.906019,0.87178,0.1578,0.35265,0.2755
1700753979078125,-9.750111,0.927019,0.75678,0.28322,0.44865,0.1665
1700753979085937,-9.755111,0.965019,0.79478,0.33822,0.41765,0.275
1700753979093750,-9.791111,0.972019,0.85578,0.32922,0.41265,0.735
1700753979101562,-9.710111,0.955019,0.93478,0.32422,0.59465,0.755
1700753979109375,-9.665111,0.957019,0.96878,0.35822,0.44665,0.1055
1700753979117187,-9.671111,1.41019,0.94678,0.46822,0.41365,0.885
1700753979125000,-9.659111,1.136019,0.99778,0.45522,0.52565,0.1045
1700753979132812,-9.650111,1.156019,0.97378,0.48122,0.52965,0.895
1700753979140625,-9.639111,1.147019,0.90778,0.39422,0.58365,0.1095
1700753979148437,-9.598111,1.102019,0.80478,0.48522,0.52665,0.885
1700753979156250,-9.625111,1.100019,0.90778,0.46122,0.41765,0.1545
1700753979164062,-9.627111,1.78019,0.90078,0.48122,0.42965,0.2005
1700753979171875,-9.560111,1.115019,0.97078,0.57922,0.37965,0.1025
1700753979179687,-9.575111,1.197019,1.78,0.70222,0.15365,0.1165
1700753979187500,-9.659111,1.291019,0.96478,0.80022,0.14865,0.2265
1700753979195312,-9.713111,1.312019,0.97578,0.60822,0.20265,0.1015
1700753979203125,-9.678111,1.210019,0.91078,0.45322,0.15165,0.1185
1700753979210937,-9.670111,1.139019,0.86778,0.33822,0.18765,0.1065
1700753979218750,-9.680111,1.174019,0.93978,0.19722,0.20465,0.915
1700753979226562,-9.668111,1.134019,0.94678,0.9722,0.19765,0.895
1700753979234375,-9.592111,1.139019,0.78178,0.26278,0.11665,0.35
1700753979242187,-9.521111,1.164019,0.80078,0.24978,0.9265,0.715
1700753979250000,-9.554111,1.179019,0.86578,0.44878,0.6235,0.1305
1700753979257812,-9.563111,1.194019,0.77778,0.68178,0.6335,0.1605
1700753979265625,-9.590111,1.195019,0.71678,0.75578,0.3735,0.2515
1700753979273437,-9.631111,1.220019,0.71378,0.90978,0.10435,0.2995
1700753979281250,-9.600111,1.228019,0.73278,0.94278,0.7935,0.3995
1700753979289062,-9.602111,1.220019,0.76178,0.91078,0.11835,0.4105
1700753979296875,-9.615111,1.233019,0.68978,0.103178,0.10635,0.3795
1700753979304687,-9.604111,1.224019,0.67178,0.100178,0.7135,0.3945
1700753979312500,-9.593111,1.211019,0.61278,0.109178,0.7265,0.4585
1700753979320312,-9.584111,1.233019,0.61278,0.85578,0.7365,0.5255
1700753979328125,-9.676111,1.214019,0.70478,0.82478,0.4265,0.5575
1700753979335937,-9.698111,1.203019,0.65578,0.116878,0.5835,0.5065
1700753979343750,-9.694111,1.198019,0.62678,0.127078,0.13365,0.5555
1700753979351562,-9.667111,1.229019,0.70278,0.113378,0.11965,0.5395
1700753979359375,-9.749111,1.277019,0.77078,0.115678,0.9765,0.5425
1700753979367187,-9.758111,1.299019,0.63078,0.116678,0.10265,0.4585
1700753979375000,-9.770111,1.304019,0.59778,0.102178,0.14965,0.4615
1700753979382812,-9.819111,1.264019,0.62878,0.106478,0.11265,0.3825
1700753979390625,-9.827111,1.234019,0.61278,0.116578,0.14865,0.3305
1700753979398437,-9.802111,1.205019,0.63078,0.125178,0.34765,0.2145
1700753979406250,-9.754111,1.171019,0.63778,0.109578,0.38065,0.1515
1700753979414062,-9.724111,1.150019,0.66478,0.101478,0.33065,0.1695
1700753979421875,-9.670111,1.117019,0.69378,0.100978,0.18865,0.705
1700753979429687,-9.586111,1.97019,0.74578,0.104978,0.19965,0.725
1700753979437500,-9.485111,1.76019,0.80878,0.104578,0.9865,0.425
1700753979445312,-9.456111,1.84019,0.78178,0.100178,0.3665,0.745
1700753979453125,-9.513111,1.114019,0.77278,0.96878,0.3665,0.1235
1700753979460937,-9.580111,1.101019,0.70978,0.96378,0.4735,0.1735
1700753979468750,-9.620111,1.113019,0.67178,0.115378,0.5165,0.2185
1700753979476562,-9.678111,1.30019,0.72078,0.122778,0.1635,0.2195
1700753979484375,-9.675111,1.14019,0.69878,0.120778,0.13435,0.2055
1700753979492187,-9.733111,1.84019,0.71478,0.98978,0.11535,0.2235
1700753979500000,-9.765111,1.126019,0.62878,0.99078,0.14835,0.1595
1700753979507812,-9.772111,1.191019,0.59478,0.89778,0.13035,0.2235
1700753979515625,-9.773111,1.202019,0.55478,0.85178,0.4835,0.1915
1700753979523437,-9.793111,1.206019,0.65378,0.73978,0.1365,0.1455
1700753979531250,-9.839111,1.256019,0.64678,0.87078,0.11665,0.1895
1700753979539062,-9.791111,1.238019,0.62478,0.82278,0.37865,0.3175
1700753979546875,-9.768111,1.209019,0.70278,0.87278,0.41265,0.2835
1700753979554687,-9.775111,1.236019,0.70278,0.76578,0.39965,0.3315
1700753979562500,-9.816111,1.262019,0.62678,0.75978,0.47765,0.3495
1700753979570312,-9.827111,1.247019,0.55878,0.67078,0.62965,0.4435
1700753979578125,-9.855111,1.159019,0.58578,0.52278,0.69165,0.5115
1700753979585937,-9.940111,1.102019,0.63978,0.45978,0.60765,0.4325
1700753979593750,-9.951111,1.105019,0.66078,0.33878,0.70865,0.4165
1700753979601562,-9.890111,1.64019,0.61578,0.25478,0.75265,0.3065
1700753979609375,-9.840111,1.61019,0.65378,0.178,0.71865,0.3105
1700753979617187,-9.784111,1.111019,0.67878,0.14022,0.79265,0.1785
1700753979625000,-9.715111,1.146019,0.70278,0.24022,0.91265,0.1275
1700753979632812,-9.645111,1.127019,0.74178,0.27622,0.90765,0.815
1700753979640625,-9.603111,1.135019,0.82678,0.28022,0.85765,0.1475
1700753979648437,-9.589111,1.120019,0.78878,0.41722,0.82765,0.1635
1700753979656250,-9.578111,1.128019,0.66478,0.50122,0.87365,0.1505
1700753979664062,-9.593111,1.122019,0.72978,0.50922,0.89465,0.1635
1700753979671875,-9.593111,1.71019,0.73178,0.48122,0.71365,0.1655
1700753979679687,-9.593111,1.73019,0.73878,0.49522,0.66565,0.1495
1700753979687500,-9.625111,1.124019,0.74178,0.51822,0.60965,0.405
1700753979695312,-9.657111,1.174019,0.74578,0.54522,0.67765,0.65
1700753979703125,-9.656111,1.202019,0.78878,0.58022,0.64265,0.75
1700753979710937,-9.667111,1.205019,0.74578,0.53522,0.65765,0.85
1700753979718750,-9.640111,1.211019,0.70078,0.58322,0.65565,0.385
1700753979726562,-9.624111,1.217019,0.75478,0.70222,0.75665,0.1035
1700753979734375,-9.592111,1.177019,0.74578,0.69522,0.76165,0.905
1700753979742187,-9.547111,1.150019,0.78178,0.70522,0.83765,0.555
1700753979750000,-9.531111,1.152019,0.84278,0.75422,0.73765,0.695
1700753979757812,-9.517111,1.150019,0.79078,0.72722,0.71265,0.895
1700753979765625,-9.493111,1.169019,0.73278,0.80922,0.61165,0.1345
1700753979773437,-9.517111,1.225019,0.70278,0.100122,0.44565,0.1465
1700753979781250,-9.558111,1.276019,0.72378,0.95122,0.46365,0.1955
1700753979789062,-9.594111,1.277019,0.69678,0.97622,0.39265,0.1445
1700753979796875,-9.577111,1.310019,0.64978,0.86522,0.32865,0.1615
1700753979804687,-9.608111,1.330019,0.66778,0.75522,0.18065,0.2265
1700753979812500,-9.620111,1.395019,0.71478,0.94122,0.24765,0.1775
1700753979820312,-9.635111,1.437019,0.73478,0.79722,0.29765,0.2445
1700753979828125,-9.681111,1.398019,0.81578,0.56922,0.17865,0.2115
1700753979835937,-9.663111,1.364019,0.84078,0.48722,0.16465,0.2135
1700753979843750,-9.634111,1.366019,0.76678,0.68122,0.14465,0.1775
1700753979851562,-9.636111,1.384019,0.74578,0.76722,0.11965,0.1145
1700753979859375,-9.665111,1.385019,0.78678,0.67522,0.465,0.505
1700753979867187,-9.676111,1.363019,0.82278,0.51622,0.2065,0.1495
1700753979875000,-9.669111,1.347019,0.82678,0.31222,0.6235,0.1995
1700753979882812,-9.647111,1.384019,0.83178,0.20922,0.11635,0.2455
1700753979890625,-9.616111,1.395019,0.85678,0.9022,0.11035,0.2665
1700753979898437,-9.631111,1.384019,0.86078,0.17278,0.19435,0.2195
1700753979906250,-9.585111,1.432019,0.78678,0.25978,0.18335,0.2185
1700753979914062,-9.598111,1.423019,0.76378,0.18378,0.11635,0.2185
1700753979921875,-9.635111,1.464019,0.72178,0.23378,0.8035,0.1565
1700753979929687,-9.662111,1.482019,0.72178,0.27978,0.8035,0.1085
1700753979937500,-9.686111,1.515019,0.71078,0.42578,0.10335,0.905
1700753979945312,-9.705111,1.514019,0.68278,0.52878,0.1665,0.1115
1700753979953125,-9.750111,1.492019,0.65878,0.49878,0.4865,0.1275
1700753979960937,-9.760111,1.439019,0.63078,0.64078,0.13165,0.985
1700753979968750,-9.749111,1.428019,0.66978,0.70578,0.13365,0.995
1700753979976562,-9.743111,1.446019,0.68478,0.75178,0.16665,0.195
1700753979984375,-9.723111,1.472019,0.68278,0.75978,0.16965,0.1185
1700753979992187,-9.710111,1.509019,0.72778,0.78278,0.13165,0.1155
1700753980000000,-9.689111,1.514019,0.71678,0.93378,0.5565,0.1685
1700753980007812,-9.678111,1.514019,0.71478,0.98178,0.5765,0.1375
1700753980015625,-9.676111,1.502019,0.68078,0.117378,0.0,0.1355
1700753980023437,-9.682111,1.442019,0.67878,0.125778,0.10065,0.1545
1700753980031250,-9.685111,1.385019,0.67378,0.145378,0.8765,0.2715
1700753980039062,-9.694111,1.365019,0.69378,0.157778,0.7065,0.2245
1700753980046875,-9.693111,1.332019,0.73278,0.183978,0.13165,0.2415
1700753980054687,-9.639111,1.291019,0.71478,0.201278,0.9865,0.3235
1700753980062500,-9.639111,1.318019,0.76878,0.203178,0.3135,0.3885
1700753980070312,-9.654111,1.391019,0.73478,0.205778,0.9935,0.3705
1700753980078125,-9.655111,1.453019,0.75778,0.221378,0.10135,0.4045
1700753980085937,-9.671111,1.507019,0.78678,0.237678,0.13235,0.5355
1700753980093750,-9.670111,1.551019,0.76178,0.265678,0.11635,0.4585
1700753980101562,-9.647111,1.540019,0.80478,0.273778,0.8335,0.5405
1700753980109375,-9.642111,1.504019,0.79978,0.280778,0.17135,0.5535
1700753980117187,-9.644111,1.504019,0.80478,0.306978,0.22935,0.5445
1700753980125000,-9.584111,1.492019,0.66678,0.303678,0.14835,0.5275
1700753980132812,-9.562111,1.518019,0.70778,0.301678,0.15035,0.5105
1700753980140625,-9.566111,1.492019,0.77778,0.325078,0.34735,0.5115
1700753980148437,-9.563111,1.474019,0.70278,0.358778,0.32635,0.5015
1700753980156250,-9.509111,1.487019,0.70578,0.380478,0.31235,0.5035
1700753980164062,-9.491111,1.466019,0.69878,0.402078,0.33135,0.5205
1700753980171875,-9.479111,1.410019,0.67578,0.444078,0.38435,0.5555
1700753980179687,-9.484111,1.424019,0.72378,0.479778,0.54935,0.5425
1700753980187500,-9.513111,1.464019,0.80878,0.518078,0.69235,0.5315
1700753980195312,-9.581111,1.477019,0.88078,0.539078,0.90035,0.5195
1700753980203125,-9.653111,1.482019,0.84778,0.567078,0.97635,0.4195
1700753980210937,-9.709111,1.497019,0.78678,0.588478,0.111635,0.4085
1700753980218750,-9.802111,1.535019,0.75278,0.614678,0.120135,0.4265
1700753980226562,-9.843111,1.547019,0.67878,0.636778,0.120035,0.4135
1700753980234375,-9.804111,1.491019,0.66478,0.661578,0.112135,0.4315
1700753980242187,-9.738111,1.441019,0.68278,0.678678,0.118735,0.3525
1700753980250000,-9.722111,1.423019,0.69378,0.694178,0.134935,0.2405
1700753980257812,-9.701111,1.383019,0.77078,0.730278,0.120135,0.1335
1700753980265625,-9.693111,1.330019,0.80178,0.778678,0.118635,0.1065
