time,Acceleration X (m/s^2),Acceleration Y (m/s^2),Acceleration Z (m/s^2),Angular Velocity X (rad/s),Angular Velocity Y (rad/s),Angular Velocity Z (rad/s)
1702332174078125,-9.816915,1.830599,2.51614,-0.041202,,
1702332174085937,-9.989915,1.828599,2.62614,0.42702,0.40098,0.295626
1702332174093750,-10.89915,1.829599,2.62714,0.47402,0.27598,0.292426
1702332174101562,-10.189915,1.832599,2.71714,0.37302,0.14598,0.290126
1702332174109375,-10.281915,1.810599,2.77114,0.31402,0.2098,0.285826
1702332174117187,-10.340915,1.804599,2.81614,0.38602,0.18902,0.276526
1702332174132812,-10.267915,1.782599,2.95414,0.26302,0.45402,0.263326
1702332174140625,-10.127915,1.770599,3.6714,0.27202,0.50702,0.253926
1702332174148437,-9.949915,1.732599,3.12814,0.40002,0.63602,0.234626
1702332174156250,-9.805915,1.683599,3.15514,0.34702,0.75502,0.228426
1702332174179687,-9.926915,1.672599,3.7614,0.12298,0.152302,0.226726
1702332174187500,-9.928915,1.715599,2.99714,0.11898,0.181302,0.226526
1702332174195312,-9.822915,1.779599,2.94014,0.9298,0.213302,0.228326
1702332174203125,-9.654915,1.790599,2.90914,0.1902,0.244902,0.217026
1702332174210937,-9.515915,1.764599,2.87214,0.13002,0.258902,0.210626
1702332174218750,-9.366915,1.744599,2.88614,0.9502,0.280802,0.201026
1702332174226562,-9.228915,1.710599,2.89914,0.18602,0.288102,0.183626
1702332174234375,-9.100915,1.692599,2.90414,0.29402,0.298402,0.177426
1702332174242187,-8.945915,1.692599,2.95814,0.32402,0.290802,0.154926
1702332174250000,-8.830915,1.694599,2.87214,0.58802,0.284802,0.120826
1702332174257812,-8.746915,1.723599,2.81314,0.59502,0.299602,0.103526
1702332174265625,-8.696915,1.768599,2.82714,0.37702,0.312702,0.87726
1702332174273437,-8.758915,1.810599,2.80614,0.31702,0.311002,0.61726
1702332174281250,-8.855915,1.842599,2.75414,0.36102,0.304702,0.32926
1702332174289062,-8.930915,1.876599,2.71814,0.31002,0.295102,0.23426
1702332174296875,-8.913915,1.909599,2.80614,0.21002,0.293302,0.10726
1702332174304687,-8.880915,1.946599,2.90114,0.9802,0.289002,0.7426
1702332174312500,-8.887915,1.979599,3.1414,0.7802,0.288402,0.4326
1702332174320312,-8.943915,2.19599,3.5914,0.4202,0.273102,0.626
1702332174328125,-9.22915,2.24599,3.7114,0.7598,0.276802,0.8926
1702332174335937,-9.95915,2.1599,3.9614,0.16898,0.284702,0.28026
1702332174343750,-9.123915,1.937599,3.13414,0.31298,0.285002,0.27926
1702332174351562,-9.123915,1.888599,3.16814,0.39598,0.287802,0.23226
1702332174359375,-9.122915,1.850599,3.20214,0.49398,0.301802,0.21626
1702332174367187,-9.112915,1.795599,3.25214,0.63898,0.301802,0.23226
1702332174375000,-9.118915,1.753599,3.27614,0.71898,0.306402,0.34526
1702332174382812,-9.108915,1.743599,3.31314,0.79198,0.316002,0.33326
1702332174390625,-9.123915,1.722599,3.36214,0.90198,0.316702,0.29926
1702332174398437,-9.156915,1.727599,3.44614,0.96598,0.331002,0.26626
1702332174406250,-9.182915,1.745599,3.49314,0.114698,0.332302,0.12326
1702332174414062,-9.99915,1.763599,3.48914,0.121298,0.318402,0.6974
1702332174421875,-8.931915,1.776599,3.46114,0.119898,0.302702,0.21274
1702332174429687,-8.821915,1.737599,3.50214,0.128398,0.293102,0.42074
1702332174437500,-8.771915,1.696599,3.55614,0.134798,0.283102,0.75974
1702332174445312,-8.764915,1.684599,3.46114,0.132998,0.260602,0.106574
1702332174453125,-8.692915,1.693599,3.35314,0.141298,0.226202,0.130574
1702332174460937,-8.560915,1.667599,3.28514,0.130498,0.199702,0.165874
1702332174468750,-8.479915,1.652599,3.26514,0.121098,0.178202,0.204374
1702332174476562,-8.473915,1.647599,3.15414,0.121798,0.143202,0.236174
1702332174484375,-8.541915,1.611599,3.2114,0.110398,0.123902,0.270074
1702332174492187,-8.741915,1.546599,2.93714,0.108298,0.108202,0.302474
1702332174500000,-9.32915,1.481599,2.93314,0.85598,0.104702,0.321074
1702332174507812,-9.337915,1.407599,2.98314,0.68598,0.100502,0.345674
1702332174515625,-9.623915,1.367599,3.4914,0.57498,0.78602,0.363274
1702332174523437,-9.887915,1.311599,3.12614,0.46198,0.71202,0.379374
1702332174531250,-10.75915,1.269599,3.24814,0.30398,0.69102,0.379274
1702332174539062,-10.133915,1.257599,3.33114,0.102,0.67702,0.392074
1702332174546875,-10.107915,1.237599,3.43114,0.21302,0.90102,0.393874
1702332174554687,-10.65915,1.243599,3.53914,0.35402,0.124102,0.395274
1702332174562500,-9.969915,1.230599,3.58014,0.46202,0.164302,0.398374
1702332174570312,-9.834915,1.191599,3.53414,0.56102,0.205402,0.396874
1702332174578125,-9.667915,1.141599,3.52114,0.57102,0.246702,0.390274
1702332174585937,-9.476915,1.70599,3.55514,0.50302,0.298002,0.386974
1702332174593750,-9.276915,1.16599,3.60214,0.31302,0.343602,0.366274
1702332174601562,-9.165915,0.924599,3.75114,0.4598,0.380102,0.345174
1702332174609375,-9.72915,0.838599,3.88214,0.43498,0.391702,0.317674
1702332174617187,-9.10915,0.729599,3.81814,0.61998,0.384702,0.297174
1702332174625000,-9.134915,0.631599,3.78214,0.96198,0.382002,0.272874
1702332174632812,-9.541915,0.579599,4.914,0.162198,0.389502,0.250374
1702332174640625,-9.417915,0.544599,4.25914,0.205098,0.347202,0.219974
1702332174648437,-8.720915,0.496599,4.34214,0.187198,0.286202,0.226374
1702332174656250,-8.228915,0.506599,4.36714,0.173998,0.245102,0.257074
1702332174664062,-8.387915,0.502599,4.26314,0.200598,0.211702,0.292074
1702332174671875,-9.186915,0.523599,3.81614,0.235598,0.206802,0.316474
1702332174679687,-9.632915,0.561599,3.49414,0.267798,0.202002,0.306874
1702332174687500,-9.491915,0.621599,3.50514,0.242998,0.177802,0.308674
1702332174695312,-9.51915,0.708599,3.65614,0.205598,0.148602,0.313674
1702332174703125,-8.630915,0.769599,3.77514,0.173598,0.85602,0.331074
1702332174710937,-8.486915,0.762599,3.68914,0.159198,0.16702,0.348574
1702332174718750,-8.488915,0.748599,3.46114,0.138898,0.37998,0.361874
1702332174726562,-8.564915,0.749599,3.24714,0.120898,0.76898,0.365174
1702332174734375,-8.611915,0.758599,3.11614,0.98198,0.84998,0.345874
1702332174742187,-8.665915,0.788599,3.6214,0.67098,0.110098,0.321774
1702332174750000,-8.724915,0.815599,3.4614,0.49798,0.119198,0.302274
1702332174757812,-8.834915,0.821599,3.6614,0.46198,0.134898,0.274974
1702332174765625,-8.917915,0.813599,3.10514,0.42398,0.139498,0.246274
1702332174773437,-8.978915,0.766599,3.12714,0.43198,0.149898,0.222374
1702332174781250,-9.24915,0.719599,3.12714,0.40698,0.146098,0.187374
1702332174789062,-9.23915,0.677599,3.15014,0.39898,0.154998,0.160374
1702332174796875,-9.42915,0.639599,3.18214,0.42098,0.147498,0.122974
1702332174804687,-9.97915,0.646599,3.17514,0.39698,0.145598,0.89474
1702332174812500,-9.235915,0.670599,3.17314,0.41598,0.141998,0.60374
1702332174820312,-9.380915,0.691599,3.17714,0.35998,0.127198,0.38174
1702332174828125,-9.524915,0.719599,3.13014,0.34398,0.107498,0.14074
1702332174835937,-9.671915,0.751599,3.9214,0.32298,0.73298,0.3874
1702332174843750,-9.808915,0.793599,3.8714,0.18998,0.44698,0.8726
1702332174851562,-9.895915,0.789599,3.16414,0.11998,0.17398,0.19726
1702332174859375,-9.933915,0.791599,3.17114,0.5302,0.11902,0.10226
1702332174867187,-9.973915,0.773599,3.16414,0.19802,0.42202,0.2774
1702332174875000,-10.8915,0.739599,3.19814,0.28702,0.86902,0.15274
1702332174882812,-9.972915,0.677599,3.18914,0.62202,0.102202,0.24774
1702332174890625,-9.892915,0.610599,3.20014,0.80002,0.123202,0.36174
1702332174898437,-9.795915,0.557599,3.29114,0.80902,0.164702,0.45574
1702332174906250,-9.709915,0.495599,3.33814,0.72402,0.178402,0.55074
1702332174914062,-9.607915,0.404599,3.41914,0.95102,0.201402,0.84174
1702332174921875,-9.524915,0.385599,3.41514,0.110802,0.212102,0.103374
1702332174929687,-9.383915,0.401599,3.32414,0.117302,0.225302,0.122774
1702332174937500,-9.278915,0.378599,3.29214,0.117702,0.238302,0.151174
1702332174945312,-9.174915,0.340599,3.23114,0.129002,0.240702,0.185074
1702332174953125,-8.962915,0.290599,3.20214,0.138802,0.253902,0.196474
1702332174960937,-8.754915,0.240599,3.17514,0.150802,0.245002,0.213774
1702332174968750,-8.579915,0.246599,3.13214,0.154202,0.237602,0.225074
1702332174976562,-8.458915,0.222599,3.7114,0.165602,0.214302,0.223474
1702332174984375,-8.489915,0.236599,3.514,0.170702,0.204902,0.212274
1702332174992187,-8.607915,0.241599,2.99214,0.163302,0.189802,0.193274
1702332175000000,-8.727915,0.296599,3.5914,0.162302,0.168202,0.172574
1702332175007812,-8.805915,0.365599,3.14814,0.162302,0.142102,0.133774
1702332175015625,-8.866915,0.437599,3.22214,0.139002,0.103202,0.97074
1702332175023437,-8.861915,0.503599,3.27914,0.134602,0.68402,0.60174
1702332175031250,-8.816915,0.545599,3.24214,0.127602,0.31402,0.23474
1702332175039062,-8.817915,0.573599,3.16314,0.134502,0.802,0.26326
1702332175046875,-8.845915,0.551599,3.5014,0.141702,0.36798,0.69526
1702332175054687,-8.902915,0.500599,2.93514,0.146002,0.76898,0.101426
1702332175062500,-8.978915,0.472599,2.82514,0.155202,0.112398,0.149226
1702332175070312,-9.76915,0.411599,2.72114,0.169802,0.131798,0.175026
1702332175078125,-9.159915,0.309599,2.69414,0.168902,0.158098,0.202226
1702332175085937,-9.225915,0.219599,2.73214,0.173802,0.167898,0.219926
1702332175093750,-9.361915,0.137599,2.82114,0.169002,0.159098,0.247226
1702332175101562,-9.507915,0.67599,2.99514,0.147002,0.148898,0.253426
1702332175109375,-9.627915,0.15401,3.13714,0.131202,0.131698,0.277326
1702332175117187,-9.725915,0.55401,3.27014,0.118202,0.116498,0.291926
1702332175125000,-9.772915,0.59401,3.37014,0.99902,0.96898,0.292126
1702332175132812,-9.799915,0.30401,3.42214,0.92002,0.68298,0.292026
1702332175140625,-9.744915,0.5599,3.43314,0.91402,0.64598,0.292326
1702332175148437,-9.682915,0.46599,3.37414,0.97602,0.45798,0.279526
1702332175156250,-9.600915,0.83599,3.29314,0.94402,0.17498,0.282626
1702332175164062,-9.524915,0.115599,3.22314,0.89202,0.18098,0.281226
1702332175171875,-9.471915,0.151599,3.17714,0.82702,0.13498,0.278026
1702332175179687,-9.430915,0.196599,3.11014,0.80502,0.16598,0.283926
1702332175187500,-9.353915,0.229599,3.7114,0.65002,0.28998,0.278026
1702332175195312,-9.310915,0.270599,3.7314,0.66102,0.40898,0.279926
1702332175203125,-9.224915,0.285599,3.5514,0.47502,0.50498,0.273126
1702332175210937,-9.161915,0.357599,3.5314,0.37402,0.51098,0.270026
1702332175218750,-9.118915,0.482599,2.99914,0.42402,0.38398,0.276426
1702332175226562,-9.56915,0.544599,2.92614,0.52202,0.31798,0.273126
1702332175234375,-9.60915,0.696599,2.89514,0.42602,0.14798,0.284326
1702332175242187,-9.112915,0.735599,2.88414,0.28202,0.8702,0.298726
1702332175250000,-9.231915,0.760599,3.8914,0.12802,0.26602,0.320926
1702332175257812,-9.322915,0.836599,2.98814,0.12902,0.19502,0.354726
1702332175265625,-9.465915,0.869599,2.80914,0.31002,0.10002,0.380326
1702332175273437,-9.535915,0.933599,2.89514,0.61102,0.37902,0.400726
1702332175281250,-9.560915,1.58599,3.2214,0.66702,0.62702,0.422126
1702332175289062,-9.523915,1.115599,3.4614,0.66602,0.78302,0.422126
1702332175296875,-9.482915,1.183599,3.11214,0.61802,0.64202,0.423726
1702332175304687,-9.390915,1.197599,3.10714,0.66702,0.59602,0.420526
1702332175312500,-9.271915,1.160599,3.8714,0.67902,0.61002,0.404526
1702332175320312,-9.183915,1.123599,3.1214,0.70802,0.67402,0.378926
1702332175328125,-9.95915,1.64599,2.95814,0.49302,0.73402,0.356626
1702332175335937,-9.31915,1.1599,2.95314,0.58902,0.64602,0.329226
1702332175343750,-8.978915,0.937599,2.99414,0.94902,0.64102,0.319326
1702332175351562,-9.30915,0.942599,3.2814,0.112202,0.62002,0.309826
1702332175359375,-9.122915,0.965599,3.3714,0.118302,0.60202,0.298726
1702332175367187,-9.282915,1.35599,3.4614,0.135102,0.44102,0.292026
1702332175375000,-9.393915,1.100599,3.11914,0.152202,0.37002,0.287526
1702332175382812,-9.476915,1.224599,3.18414,0.164502,0.15602,0.284626
1702332175390625,-9.509915,1.360599,3.20214,0.173202,0.6798,0.276326
1702332175398437,-9.526915,1.438599,3.22214,0.168502,0.21998,0.268126
1702332175406250,-9.526915,1.465599,3.17114,0.170302,0.37098,0.252026
1702332175414062,-9.501915,1.481599,3.15514,0.165902,0.34598,0.248526
1702332175421875,-9.526915,1.472599,3.11414,0.144702,0.22098,0.232526
1702332175429687,-9.501915,1.396599,3.6714,0.142202,0.10898,0.232926
1702332175437500,-9.490915,1.341599,3.4614,0.143002,0.3098,0.226026
1702332175445312,-9.449915,1.318599,3.6214,0.118402,0.7602,0.214926
1702332175453125,-9.353915,1.315599,3.3514,0.119902,0.4102,0.216626
1702332175460937,-9.326915,1.269599,3.314,0.117402,0.3002,0.202626
1702332175468750,-9.279915,1.256599,3.3014,0.119302,0.19602,0.187926
1702332175476562,-9.196915,1.209599,2.98714,0.124802,0.13802,0.169026
1702332175484375,-9.84915,1.223599,2.96914,0.126102,0.20602,0.132026
1702332175492187,-9.25915,1.247599,2.85414,0.143802,0.12202,0.91826
1702332175500000,-9.74915,0.961599,2.83414,0.131002,0.32002,0.62626
1702332175507812,-9.5915,0.856599,2.92914,0.117702,0.54302,0.27326
1702332175515625,-8.847915,0.884599,2.92614,0.112002,0.41202,0.7674
1702332175523437,-8.762915,0.894599,2.90814,0.102302,0.5902,0.43074
1702332175531250,-8.780915,0.825599,2.90614,0.103102,0.3698,0.84574
1702332175539062,-8.787915,0.798599,2.95614,0.95602,0.9898,0.117074
1702332175546875,-8.898915,0.816599,2.79814,0.102602,0.33998,0.156874
1702332175554687,-8.990915,0.866599,2.74314,0.99002,0.15198,0.177674
1702332175562500,-9.68915,0.961599,2.84114,0.73102,0.6998,0.200174
1702332175570312,-9.247915,0.995599,2.95414,0.58602,0.19098,0.216274
1702332175578125,-9.420915,1.110599,2.95114,0.61602,0.32098,0.217774
1702332175585937,-9.499915,1.180599,2.99914,0.57102,0.46998,0.229174
1702332175593750,-9.558915,1.274599,3.11014,0.62202,0.57598,0.227674
1702332175601562,-9.581915,1.283599,3.17114,0.60302,0.62898,0.219474
1702332175609375,-9.649915,1.265599,3.16414,0.61302,0.71998,0.211074
1702332175617187,-9.712915,1.237599,3.17114,0.64402,0.66998,0.194074
1702332175625000,-9.734915,1.228599,3.12814,0.79202,0.67098,0.171674
1702332175632812,-9.655915,1.212599,3.6214,0.99302,0.59098,0.139674
1702332175640625,-9.548915,1.203599,3.3114,0.121402,0.55398,0.120174
1702332175648437,-9.472915,1.177599,3.614,0.123202,0.55598,0.99374
1702332175656250,-9.359915,1.105599,2.96714,0.134802,0.55298,0.89774
1702332175664062,-9.254915,1.17599,2.95614,0.141602,0.55498,0.62574
1702332175671875,-9.174915,0.906599,2.98514,0.140602,0.58398,0.40274
1702332175679687,-9.121915,0.788599,3.4414,0.129402,0.52398,0.24174
1702332175687500,-9.85915,0.684599,3.10314,0.108802,0.53798,0.13074
1702332175695312,-9.94915,0.596599,3.15514,0.103302,0.56298,0.6374
1702332175703125,-9.133915,0.526599,3.22214,0.94402,0.68398,0.20726
1702332175710937,-9.196915,0.500599,3.28614,0.87602,0.83298,0.32126
1702332175718750,-9.266915,0.478599,3.32014,0.65902,0.79298,0.43126
1702332175726562,-9.351915,0.468599,3.37214,0.64102,0.81098,0.43126
1702332175734375,-9.454915,0.465599,3.42814,0.59102,0.92198,0.40026
1702332175742187,-9.524915,0.473599,3.46914,0.41602,0.98198,0.43126
1702332175750000,-9.581915,0.497599,3.52814,0.32902,0.94398,0.37026
1702332175757812,-9.608915,0.530599,3.53414,0.32402,0.88298,0.19426
1702332175765625,-9.599915,0.562599,3.51214,0.35902,0.82498,0.4874
1702332175773437,-9.538915,0.607599,3.51214,0.56202,0.78698,0.14174
1702332175781250,-9.476915,0.650599,3.50514,0.64202,0.66198,0.14174
1702332175789062,-9.434915,0.676599,3.50314,0.63902,0.55598,0.18874
1702332175796875,-9.387915,0.711599,3.46914,0.76902,0.38198,0.14174
1702332175804687,-9.318915,0.743599,3.45314,0.83302,0.36598,0.15774
1702332175812500,-9.256915,0.764599,3.44814,0.83602,0.27098,0.4674
1702332175820312,-9.150915,0.756599,3.41414,0.78902,0.27098,0.5026
1702332175828125,-9.70915,0.759599,3.34014,0.83902,0.31898,0.19426
1702332175835937,-9.7915,0.736599,3.30414,0.86902,0.31098,0.35626
1702332175843750,-8.966915,0.736599,3.21514,0.74402,0.27398,0.40226
1702332175851562,-8.972915,0.714599,3.5714,0.65102,0.22498,0.54626
1702332175859375,-9.52915,0.698599,2.94414,0.65402,0.9898,0.68926
1702332175867187,-9.104915,0.709599,2.88614,0.49202,0.7198,0.85126
1702332175875000,-9.137915,0.704599,2.86114,0.27202,0.2702,0.96126
1702332175882812,-9.176915,0.704599,2.95414,0.13902,0.14702,0.101026
1702332175890625,-9.203915,0.684599,2.92914,0.9098,0.13702,0.115726
1702332175898437,-9.283915,0.652599,2.69214,0.9198,0.21502,0.112626
1702332175906250,-9.405915,0.643599,2.72314,0.11998,0.69302,0.112326
1702332175914062,-9.533915,0.622599,2.85214,0.38798,0.108602,0.109526
1702332175921875,-9.620915,0.581599,2.88814,0.47498,0.134802,0.95226
1702332175929687,-9.624915,0.533599,2.98114,0.68498,0.168202,0.80626
1702332175937500,-9.618915,0.503599,3.5114,0.87498,0.169202,0.57926
1702332175945312,-9.545915,0.496599,3.15314,0.112898,0.194502,0.39126
1702332175953125,-9.470915,0.582599,3.16814,0.117798,0.206302,0.6826
1702332175960937,-9.420915,0.701599,3.16614,0.124298,0.208302,0.12474
1702332175968750,-9.419915,0.780599,3.16414,0.126698,0.232602,0.26674
1702332175976562,-9.420915,0.846599,3.20214,0.122198,0.241702,0.34574
1702332175984375,-9.392915,0.917599,3.27714,0.119098,0.241902,0.50674
1702332175992187,-9.380915,0.956599,3.30814,0.117398,0.240302,0.44274
1702332176000000,-9.390915,1.18599,3.34214,0.109998,0.230102,0.56774
1702332176007812,-9.422915,1.92599,3.36914,0.96598,0.217102,0.71474
1702332176015625,-9.425915,1.147599,3.33514,0.83498,0.206202,0.66674
1702332176023437,-9.431915,1.186599,3.26814,0.63398,0.196602,0.71874
1702332176031250,-9.367915,1.162599,3.22914,0.45998,0.188302,0.78174
1702332176039062,-9.320915,1.69599,3.17314,0.24998,0.182102,0.73374
1702332176046875,-9.306915,0.982599,3.11214,0.5798,0.184502,0.57174
1702332176054687,-9.272915,0.898599,3.6714,0.12902,0.181702,0.48774
1702332176062500,-9.208915,0.881599,3.814,0.43102,0.172302,0.39674
1702332176070312,-9.150915,0.888599,2.95814,0.62202,0.171702,0.31474
1702332176078125,-9.94915,0.912599,2.92414,0.78502,0.179402,0.16974
1702332176085937,-9.77915,0.920599,2.88614,0.86402,0.177102,0.774
1702332176093750,-9.90915,0.917599,2.82914,0.87302,0.165402,0.21326
1702332176101562,-9.114915,0.904599,2.78014,0.84402,0.163702,0.47026
1702332176109375,-9.128915,0.899599,2.79814,0.73302,0.147602,0.71126
1702332176117187,-9.130915,0.897599,2.82914,0.62702,0.124802,0.85326
1702332176125000,-9.139915,0.908599,2.85414,0.59402,0.96102,0.96726
1702332176132812,-9.157915,0.918599,2.90214,0.43702,0.82202,0.114226
1702332176140625,-9.202915,0.907599,2.90814,0.35702,0.55002,0.132026
1702332176148437,-9.301915,0.897599,2.90414,0.18002,0.43602,0.152926
1702332176156250,-9.428915,0.888599,2.95614,0.13798,0.40602,0.173726
1702332176164062,-9.531915,0.881599,3.4914,0.18198,0.45502,0.194426
1702332176171875,-9.616915,0.895599,3.13514,0.28098,0.51302,0.202626
1702332176179687,-9.613915,0.926599,3.23214,0.26798,0.50602,0.209226
1702332176187500,-9.594915,0.953599,3.18614,0.3402,0.44402,0.216726
1702332176195312,-9.506915,0.995599,3.18414,0.2602,0.63802,0.207426
1702332176203125,-9.419915,1.23599,3.22714,0.12298,0.96502,0.193026
1702332176210937,-9.348915,0.962599,3.16814,0.25198,0.108202,0.170426
1702332176218750,-9.302915,0.880599,3.5514,0.19298,0.119002,0.144826
1702332176226562,-9.230915,0.812599,3.4614,0.22998,0.115702,0.124126
1702332176234375,-9.97915,0.743599,3.3914,0.21898,0.114002,0.95326
1702332176242187,-8.993915,0.698599,3.1414,0.36598,0.115702,0.77726
1702332176250000,-8.907915,0.661599,2.99214,0.31998,0.117302,0.61726
1702332176257812,-8.875915,0.641599,2.96714,0.15498,0.121502,0.43726
1702332176265625,-8.929915,0.651599,2.92214,0.31498,0.111002,0.34026
1702332176273437,-9.30915,0.693599,2.91314,0.24898,0.103602,0.24326
1702332176281250,-9.123915,0.767599,2.90414,0.41298,0.93602,0.32526
1702332176289062,-9.199915,0.876599,2.92014,0.46298,0.88602,0.34226
1702332176296875,-9.277915,0.986599,2.95414,0.58998,0.77602,0.39026
1702332176304687,-9.346915,1.88599,2.98314,0.68598,0.66702,0.40626
1702332176312500,-9.399915,1.157599,2.96014,0.91498,0.59802,0.45626
1702332176320312,-9.413915,1.242599,2.97614,0.116898,0.44802,0.47026
1702332176328125,-9.391915,1.279599,2.99714,0.118598,0.49102,0.53526
1702332176335937,-9.345915,1.320599,2.99414,0.120398,0.58002,0.63226
1702332176343750,-9.328915,1.353599,2.96914,0.117398,0.60502,0.71426
1702332176351562,-9.314915,1.391599,2.98714,0.114898,0.71002,0.87126
1702332176359375,-9.315915,1.412599,3.1514,0.110498,0.77702,0.103426
1702332176367187,-9.318915,1.453599,3.8014,0.111698,0.82502,0.127426
1702332176375000,-9.313915,1.462599,3.8214,0.100098,0.94002,0.128826
1702332176382812,-9.315915,1.426599,3.10914,0.80598,0.90902,0.138426
1702332176390625,-9.297915,1.417599,3.16414,0.75998,0.91702,0.151426
1702332176398437,-9.330915,1.391599,3.15914,0.60998,0.90802,0.152826
1702332176406250,-9.325915,1.379599,3.18414,0.47398,0.96702,0.152426
1702332176414062,-9.299915,1.408599,3.16814,0.37198,0.84102,0.145026
1702332176421875,-9.301915,1.379599,3.15014,0.19598,0.81102,0.128926
1702332176429687,-9.257915,1.391599,3.14814,0.13698,0.88302,0.117926
1702332176437500,-9.268915,1.425599,3.5714,0.13698,0.87202,0.101826
1702332176445312,-9.232915,1.385599,3.6614,0.7102,0.106402,0.79326
1702332176453125,-9.219915,1.310599,3.15014,0.8298,0.89002,0.70926
1702332176460937,-9.168915,1.315599,3.10914,0.10898,0.83202,0.50426
1702332176468750,-9.74915,1.309599,3.6914,0.302,0.80202,0.37626
1702332176476562,-9.22915,1.300599,3.3514,0.8202,0.80702,0.10226
1702332176484375,-9.1915,1.265599,3.314,0.1498,0.76502,0.9074
1702332176492187,-8.996915,1.228599,2.99214,0.502,0.83702,0.22174
1702332176500000,-9.36915,1.181599,2.96014,0.5902,0.79202,0.37774
1702332176507812,-9.98915,1.149599,2.96514,0.18702,0.87402,0.52274
1702332176515625,-9.167915,1.116599,3.1014,0.31202,0.90002,0.60074
1702332176523437,-9.239915,1.108599,3.8714,0.37602,0.88502,0.63274
1702332176531250,-9.337915,1.142599,3.21314,0.43102,0.91302,0.66874
1702332176539062,-9.423915,1.173599,3.32414,0.36302,0.84402,0.69874
1702332176546875,-9.506915,1.177599,3.12514,0.54702,0.68302,0.78274
1702332176554687,-9.612915,1.225599,3.11914,0.62502,0.66502,0.78174
1702332176562500,-9.638915,1.302599,3.36314,0.63502,0.84202,0.77874
1702332176570312,-9.607915,1.369599,3.45714,0.64102,0.90202,0.87874
1702332176578125,-9.538915,1.390599,3.28614,0.76802,0.83702,0.89374
1702332176585937,-9.447915,1.415599,3.18914,0.97002,0.95402,0.101874
1702332176593750,-9.338915,1.411599,3.26514,0.101902,0.93802,0.101874
1702332176601562,-9.254915,1.388599,3.22514,0.97602,0.94702,0.102174
1702332176609375,-9.171915,1.368599,3.24314,0.93902,0.98402,0.93874
1702332176617187,-9.98915,1.300599,3.26514,0.102802,0.93402,0.86274
1702332176625000,-9.54915,1.197599,3.26714,0.110802,0.85302,0.79774
1702332176632812,-9.44915,1.124599,3.26714,0.112902,0.68402,0.65474
1702332176640625,-9.47915,1.51599,3.29014,0.114502,0.66402,0.50874
1702332176648437,-9.76915,1.9599,3.27014,0.109702,0.58202,0.39574
1702332176656250,-9.129915,0.979599,3.27614,0.103702,0.41702,0.38174
1702332176664062,-9.202915,0.954599,3.24014,0.110302,0.40102,0.31774
1702332176671875,-9.252915,0.916599,3.18814,0.96902,0.40702,0.23474
1702332176679687,-9.293915,0.846599,3.17514,0.99902,0.38802,0.28174
1702332176687500,-9.325915,0.779599,3.15514,0.94202,0.41602,0.25374
1702332176695312,-9.320915,0.709599,3.13014,0.90202,0.43502,0.26574
1702332176703125,-9.322915,0.653599,3.11214,0.86202,0.37602,0.27874
1702332176710937,-9.296915,0.609599,3.13414,0.88402,0.49702,0.32974
1702332176718750,-9.262915,0.576599,3.17314,0.83602,0.50102,0.49174
1702332176726562,-9.255915,0.572599,3.17714,0.64402,0.53902,0.63774
1702332176734375,-9.267915,0.607599,3.17714,0.62302,0.53402,0.76374
1702332176742187,-9.269915,0.632599,3.19314,0.38302,0.54002,0.84574
1702332176750000,-9.274915,0.675599,3.22014,0.14702,0.66102,0.91274
1702332176757812,-9.287915,0.715599,3.23414,0.8302,0.68402,0.96974
1702332176765625,-9.269915,0.749599,3.23614,0.10202,0.78802,0.110074
1702332176773437,-9.245915,0.773599,3.27714,0.1098,0.81902,0.110074
1702332176781250,-9.218915,0.803599,3.31514,0.14098,0.91202,0.111674
1702332176789062,-9.185915,0.818599,3.31714,0.12598,0.87802,0.109974
1702332176796875,-9.188915,0.833599,3.30614,0.25698,0.95202,0.105074
1702332176804687,-9.197915,0.849599,3.30814,0.27398,0.101402,0.106674
1702332176812500,-9.218915,0.866599,3.28314,0.21198,0.103802,0.96874
1702332176820312,-9.242915,0.879599,3.29214,0.22198,0.112502,0.84274
1702332176828125,-9.239915,0.852599,3.32214,0.12098,0.114602,0.82874
1702332176835937,-9.228915,0.850599,3.35314,0.10798,0.107802,0.81074
1702332176843750,-9.226915,0.839599,3.32214,0.5702,0.89402,0.79574
1702332176851562,-9.228915,0.859599,3.29714,0.7602,0.93202,0.79774
1702332176859375,-9.253915,0.910599,3.41014,0.5598,0.106902,0.81274
1702332176867187,-9.295915,0.926599,3.38314,0.11702,0.99702,0.79374
1702332176875000,-9.310915,0.928599,3.31314,0.10302,0.92302,0.82774
1702332176882812,-9.289915,0.920599,3.31714,0.20402,0.91302,0.81274
1702332176890625,-9.236915,0.903599,3.35614,0.33002,0.95702,0.82774
1702332176898437,-9.179915,0.860599,3.39614,0.41202,0.91002,0.77974
1702332176906250,-9.147915,0.835599,3.38714,0.46202,0.86302,0.71574
1702332176914062,-9.138915,0.813599,3.35614,0.51102,0.80102,0.68374
1702332176921875,-9.129915,0.793599,3.31314,0.57402,0.81302,0.58674
1702332176929687,-9.102915,0.754599,3.28114,0.66902,0.88402,0.45674
1702332176937500,-9.63915,0.741599,3.26714,0.82202,0.69002,0.36374
1702332176945312,-9.34915,0.723599,3.22414,0.88502,0.76502,0.29874
1702332176953125,-9.18915,0.702599,3.20614,0.86702,0.68002,0.16874
1702332176960937,-8.999915,0.680599,3.19514,0.88902,0.68902,0.12374
1702332176968750,-9.34915,0.651599,3.18614,0.87902,0.60802,0.5374
1702332176976562,-9.69915,0.607599,3.20014,0.86702,0.40802,0.3874
1702332176984375,-9.154915,0.592599,3.22014,0.78302,0.45602,0.14826
1702332176992187,-9.219915,0.571599,3.24314,0.73702,0.45502,0.30826
1702332177000000,-9.302915,0.577599,3.22714,0.64302,0.45702,0.41926
1702332177007812,-9.365915,0.582599,3.24314,0.64002,0.37302,0.48526
1702332177015625,-9.401915,0.583599,3.27214,0.62702,0.43802,0.56526
1702332177023437,-9.407915,0.572599,3.31714,0.65902,0.43802,0.54926
1702332177031250,-9.379915,0.569599,3.34914,0.65402,0.38502,0.47026
1702332177039062,-9.354915,0.566599,3.38514,0.67102,0.40102,0.48626
1702332177046875,-9.331915,0.557599,3.41014,0.68902,0.41902,0.53326
1702332177054687,-9.305915,0.547599,3.41214,0.66702,0.37902,0.45626
1702332177062500,-9.277915,0.565599,3.36714,0.73802,0.48502,0.45226
1702332177070312,-9.246915,0.571599,3.32014,0.62202,0.51402,0.38926
1702332177078125,-9.192915,0.589599,3.30114,0.65702,0.61402,0.33926
1702332177085937,-9.152915,0.601599,3.27214,0.56102,0.63302,0.22626
1702332177093750,-9.118915,0.608599,3.24914,0.54702,0.65402,0.19326
1702332177101562,-9.99915,0.638599,3.21614,0.52202,0.65502,0.21326
1702332177109375,-9.86915,0.649599,3.21614,0.43002,0.70702,0.29126
1702332177117187,-9.89915,0.673599,3.21614,0.41002,0.67002,0.29326
1702332177125000,-9.109915,0.673599,3.25414,0.34702,0.64202,0.26026
1702332177132812,-9.138915,0.678599,3.25814,0.34802,0.53302,0.26026
1702332177140625,-9.153915,0.663599,3.25214,0.28602,0.56602,0.33926
1702332177148437,-9.185915,0.670599,3.27714,0.24902,0.60702,0.29326
1702332177156250,-9.206915,0.676599,3.31514,0.11602,0.58502,0.27926
1702332177164062,-9.208915,0.676599,3.34714,0.6602,0.56602,0.31226
1702332177171875,-9.239915,0.684599,3.43514,0.8802,0.62202,0.30926
1702332177179687,-9.265915,0.660599,3.44414,0.12402,0.45302,0.40426
1702332177187500,-9.307915,0.626599,3.25214,0.14102,0.23602,0.37226
1702332177195312,-9.341915,0.641599,3.31314,0.15602,0.40702,0.35626
1702332177203125,-9.349915,0.638599,3.44814,0.16402,0.55102,0.34426
1702332177210937,-9.384915,0.641599,3.40514,0.8402,0.57002,0.24726
1702332177218750,-9.362915,0.677599,3.44614,0.1198,0.66602,0.24626
1702332177226562,-9.333915,0.710599,3.43714,0.9002,0.61802,0.5026
1702332177234375,-9.305915,0.702599,3.40314,0.11102,0.58402,0.774
1702332177242187,-9.265915,0.724599,3.38514,0.8002,0.64902,0.2474
1702332177250000,-9.215915,0.754599,3.39914,0.3098,0.59402,0.15574
1702332177257812,-9.202915,0.750599,3.38714,0.3202,0.65302,0.12174
1702332177265625,-9.208915,0.728599,3.41914,0.15302,0.63502,0.14174
1702332177273437,-9.182915,0.732599,3.44614,0.32302,0.63802,0.12274
1702332177281250,-9.157915,0.715599,3.42614,0.27102,0.55402,0.15274
1702332177289062,-9.161915,0.734599,3.43214,0.34302,0.45802,0.22074
1702332177296875,-9.160915,0.740599,3.40814,0.36702,0.52402,0.24874
1702332177304687,-9.177915,0.736599,3.36214,0.41802,0.43402,0.24974
1702332177312500,-9.188915,0.730599,3.34414,0.45302,0.48702,0.26774
1702332177320312,-9.202915,0.712599,3.31714,0.46802,0.43702,0.26674
1702332177328125,-9.221915,0.706599,3.32614,0.48802,0.49002,0.25274
1702332177335937,-9.248915,0.689599,3.29014,0.52002,0.49002,0.26874
1702332177343750,-9.238915,0.667599,3.29014,0.61802,0.61802,0.25374
1702332177351562,-9.243915,0.656599,3.29714,0.60002,0.56802,0.26874
1702332177359375,-9.241915,0.644599,3.29514,0.53202,0.59302,0.23474
1702332177367187,-9.229915,0.622599,3.29714,0.48702,0.64502,0.20474
1702332177375000,-9.229915,0.617599,3.28814,0.48302,0.65502,0.21874
1702332177382812,-9.227915,0.602599,3.29214,0.42002,0.63802,0.12274
1702332177390625,-9.235915,0.607599,3.29014,0.39102,0.66002,0.13974
1702332177398437,-9.249915,0.616599,3.29214,0.34302,0.66002,0.12374
1702332177406250,-9.292915,0.620599,3.31314,0.27402,0.63802,0.15474
1702332177414062,-9.303915,0.629599,3.30614,0.30402,0.65102,0.15374
1702332177421875,-9.296915,0.623599,3.31114,0.37302,0.64102,0.15574
1702332177429687,-9.299915,0.627599,3.30814,0.37302,0.65702,0.15574
1702332177437500,-9.289915,0.618599,3.29014,0.38702,0.67402,0.28374
1702332177445312,-9.280915,0.607599,3.30814,0.35702,0.64502,0.28474
1702332177453125,-9.262915,0.598599,3.31714,0.37102,0.70502,0.29974
1702332177460937,-9.258915,0.598599,3.29714,0.41602,0.79502,0.34674
1702332177468750,-9.218915,0.588599,3.28314,0.34902,0.79202,0.36174
1702332177476562,-9.172915,0.563599,3.29514,0.48402,0.64302,0.33174
1702332177484375,-9.156915,0.525599,3.17714,0.61002,0.38802,0.37774
1702332177492187,-9.91915,0.563599,3.15514,0.55602,0.49602,0.28674
1702332177500000,-9.85915,0.575599,3.22914,0.35502,0.46802,0.25074
1702332177507812,-9.102915,0.545599,3.18814,0.40902,0.41502,0.25374
1702332177515625,-9.102915,0.550599,3.14614,0.41102,0.30502,0.17374
1702332177523437,-9.93915,0.539599,3.19514,0.39702,0.21502,0.15874
1702332177531250,-9.80915,0.530599,3.20914,0.37602,0.22802,0.16274
1702332177539062,-9.67915,0.515599,3.21314,0.24202,0.14302,0.9674
1702332177546875,-9.95915,0.494599,3.19514,0.15702,0.3798,0.2974
1702332177554687,-9.144915,0.473599,3.19814,0.10702,0.4198,0.6726
1702332177562500,-9.209915,0.456599,3.20414,0.6998,0.9398,0.26026
1702332177570312,-9.284915,0.451599,3.21814,0.9698,0.5698,0.35526
1702332177578125,-9.336915,0.455599,3.23614,0.10198,0.6698,0.43826
1702332177585937,-9.413915,0.474599,3.25214,0.16498,0.4502,0.48526
1702332177593750,-9.462915,0.490599,3.26514,0.13498,0.15102,0.48626
1702332177601562,-9.465915,0.513599,3.27914,0.18198,0.20102,0.45326
1702332177609375,-9.465915,0.544599,3.28614,0.18298,0.30902,0.46926
1702332177617187,-9.452915,0.572599,3.27014,0.13398,0.42202,0.35626
1702332177625000,-9.423915,0.568599,3.27414,0.14998,0.50402,0.27526
1702332177632812,-9.391915,0.579599,3.27014,0.12698,0.46702,0.22426
1702332177640625,-9.359915,0.572599,3.28114,0.14598,0.60502,0.27326
1702332177648437,-9.324915,0.585599,3.30614,0.12998,0.59002,0.20926
1702332177656250,-9.288915,0.602599,3.32914,0.8298,0.60402,0.20926
1702332177664062,-9.251915,0.608599,3.30614,0.3598,0.60502,0.8126
1702332177671875,-9.228915,0.623599,3.29014,0.3498,0.54602,0.1574
1702332177679687,-9.227915,0.631599,3.28314,0.3802,0.58102,0.2026
1702332177687500,-9.227915,0.635599,3.26814,0.3702,0.43702,0.526
1702332177695312,-9.223915,0.633599,3.25914,0.6902,0.45302,0.2674
1702332177703125,-9.225915,0.635599,3.26514,0.11402,0.54402,0.9074
1702332177710937,-9.243915,0.651599,3.29514,0.8302,0.61002,0.13974
1702332177718750,-9.252915,0.666599,3.31014,0.3202,0.60602,0.12274
1702332177726562,-9.260915,0.697599,3.31314,0.8002,0.59102,0.17074
1702332177734375,-9.280915,0.709599,3.31014,0.9502,0.65402,0.28274
1702332177742187,-9.280915,0.711599,3.31314,0.9902,0.70702,0.23674
1702332177750000,-9.280915,0.708599,3.31514,0.10902,0.63602,0.28174
1702332177757812,-9.268915,0.702599,3.31014,0.17902,0.69202,0.30074
1702332177765625,-9.266915,0.684599,3.31714,0.27202,0.68602,0.28274
1702332177773437,-9.263915,0.656599,3.33814,0.43502,0.64302,0.33174
1702332177781250,-9.246915,0.657599,3.34914,0.51202,0.62102,0.32974
1702332177789062,-9.216915,0.644599,3.35114,0.45302,0.51802,0.28374
1702332177796875,-9.218915,0.629599,3.33514,0.55402,0.47802,0.28574
1702332177804687,-9.224915,0.618599,3.31514,0.56902,0.54002,0.31774
1702332177812500,-9.254915,0.604599,3.30614,0.49902,0.59302,0.29874
1702332177820312,-9.264915,0.610599,3.32014,0.52002,0.66402,0.28574
1702332177828125,-9.276915,0.610599,3.35614,0.46902,0.70802,0.30074
1702332177835937,-9.254915,0.597599,3.43514,0.52702,0.68002,0.29674
1702332177843750,-9.233915,0.537599,3.24514,0.66802,0.43802,0.27774
1702332177851562,-9.233915,0.505599,3.20914,0.79502,0.43502,0.30974
1702332177859375,-9.219915,0.500599,3.40114,0.69002,0.62202,0.36174
1702332177867187,-9.184915,0.495599,3.38514,0.61402,0.58402,0.39674
1702332177875000,-9.169915,0.474599,3.33114,0.57302,0.50702,0.37574
1702332177882812,-9.162915,0.455599,3.24714,0.66102,0.47302,0.44374
1702332177890625,-9.153915,0.479599,3.30814,0.62702,0.43802,0.42674
1702332177898437,-9.146915,0.455599,3.24514,0.56602,0.42902,0.47674
1702332177906250,-9.166915,0.435599,3.17914,0.56402,0.39502,0.52474
1702332177914062,-9.176915,0.400599,3.22514,0.54902,0.39902,0.55774
1702332177921875,-9.226915,0.367599,3.24714,0.57602,0.40502,0.50674
1702332177929687,-9.263915,0.355599,3.24514,0.59702,0.33302,0.50874
1702332177937500,-9.263915,0.350599,3.28814,0.62502,0.24902,0.55474
1702332177945312,-9.283915,0.373599,3.30814,0.61902,0.20302,0.55974
1702332177953125,-9.299915,0.391599,3.26814,0.63202,0.15402,0.67074
1702332177960937,-9.298915,0.408599,3.20914,0.60802,0.33202,0.76374
1702332177968750,-9.293915,0.399599,3.16414,0.62602,0.21102,0.81274
1702332177976562,-9.266915,0.386599,3.11414,0.70702,0.18002,0.79674
1702332177984375,-9.241915,0.363599,3.8714,0.60602,0.23602,0.84374
1702332177992187,-9.221915,0.354599,3.8914,0.62202,0.17402,0.84374
1702332178000000,-9.195915,0.334599,3.8014,0.61502,0.18502,0.75074
1702332178007812,-9.182915,0.327599,3.6214,0.56502,0.10402,0.73374
1702332178015625,-9.171915,0.315599,3.5814,0.46602,0.6602,0.65174
1702332178023437,-9.184915,0.280599,3.6414,0.54402,0.2802,0.56974
1702332178031250,-9.201915,0.238599,3.6914,0.41902,0.1902,0.53974
1702332178039062,-9.250915,0.213599,3.4414,0.40502,0.602,0.52474
1702332178046875,-9.272915,0.198599,3.5514,0.29402,0.5502,0.47774
1702332178054687,-9.321915,0.198599,3.8914,0.20902,0.14202,0.45974
1702332178062500,-9.341915,0.195599,3.12814,0.21502,0.18202,0.41374
1702332178070312,-9.353915,0.194599,3.14814,0.32402,0.17302,0.31574
1702332178078125,-9.352915,0.198599,3.15914,0.28702,0.20502,0.25674
1702332178085937,-9.354915,0.193599,3.17514,0.28402,0.18402,0.20674
1702332178093750,-9.359915,0.197599,3.16214,0.39602,0.21202,0.14174
1702332178101562,-9.357915,0.208599,3.18914,0.36002,0.14302,0.12374
1702332178109375,-9.368915,0.208599,3.19314,0.39202,0.23702,0.13974
1702332178117187,-9.364915,0.199599,3.20714,0.35802,0.38902,0.5874
1702332178125000,-9.387915,0.208599,3.22014,0.38902,0.38502,0.626
1702332178132812,-9.411915,0.206599,3.25214,0.36002,0.46502,0.19826
1702332178140625,-9.400915,0.195599,3.32914,0.35802,0.58602,0.21526
1702332178148437,-9.377915,0.166599,3.33514,0.42702,0.26202,0.31026
1702332178156250,-9.381915,0.148599,3.20714,0.45702,0.27402,0.29526
1702332178164062,-9.357915,0.181599,3.21314,0.20002,0.43302,0.31026
1702332178171875,-9.365915,0.166599,3.26514,0.10802,0.34502,0.32426
1702332178179687,-9.335915,0.111599,3.18914,0.12602,0.45702,0.35526
1702332178187500,-9.344915,0.115599,3.14814,0.698,0.55902,0.43826
1702332178195312,-9.352915,0.162599,3.18214,0.2198,0.65502,0.43726
1702332178203125,-9.350915,0.194599,3.20014,0.2398,0.63702,0.40626
1702332178210937,-9.364915,0.238599,3.22714,0.14498,0.71002,0.53026
1702332178218750,-9.345915,0.285599,3.21814,0.12298,0.78902,0.45526
1702332178226562,-9.318915,0.323599,3.22714,0.13298,0.84402,0.51626
1702332178234375,-9.321915,0.343599,3.26114,0.19798,0.92202,0.53226
1702332178242187,-9.314915,0.345599,3.25614,0.19498,0.94402,0.54626
1702332178250000,-9.321915,0.331599,3.27414,0.26698,0.91602,0.55026
1702332178257812,-9.323915,0.302599,3.28314,0.34898,0.91202,0.56726
1702332178265625,-9.308915,0.285599,3.30414,0.33898,0.97402,0.62726
1702332178273437,-9.305915,0.264599,3.32014,0.33198,0.91202,0.64726
1702332178281250,-9.300915,0.253599,3.31514,0.33398,0.87802,0.61626
1702332178289062,-9.296915,0.260599,3.31714,0.39898,0.86202,0.60026
1702332178296875,-9.293915,0.273599,3.30614,0.34798,0.85402,0.47026
1702332178304687,-9.286915,0.287599,3.31114,0.38798,0.89702,0.51426
1702332178312500,-9.266915,0.307599,3.31314,0.37198,0.89902,0.45026
1702332178320312,-9.242915,0.335599,3.29014,0.33198,0.95102,0.37326
1702332178328125,-9.218915,0.359599,3.30614,0.37498,0.94502,0.29026
1702332178335937,-9.166915,0.394599,3.28814,0.24598,0.99602,0.12926
1702332178343750,-9.136915,0.424599,3.29914,0.20298,0.106802,0.9926
1702332178351562,-9.96915,0.466599,3.31914,0.30098,0.108402,0.326
1702332178359375,-9.88915,0.499599,3.31914,0.23198,0.96202,0.8226
1702332178367187,-9.108915,0.521599,3.31514,0.13598,0.85002,0.16326
1702332178375000,-9.136915,0.559599,3.31314,0.8798,0.81502,0.22826
1702332178382812,-9.158915,0.571599,3.31514,0.9898,0.71202,0.33826
1702332178390625,-9.161915,0.564599,3.32914,0.2702,0.70602,0.32426
1702332178398437,-9.163915,0.559599,3.31914,0.498,0.59702,0.34026
1702332178406250,-9.183915,0.546599,3.30614,0.5802,0.59002,0.48626
1702332178414062,-9.199915,0.506599,3.28614,0.8302,0.61202,0.40826
1702332178421875,-9.220915,0.478599,3.23814,0.15702,0.57702,0.48526
1702332178429687,-9.253915,0.434599,3.21614,0.22102,0.65102,0.63026
1702332178437500,-9.255915,0.421599,3.20714,0.23702,0.66702,0.67826
1702332178445312,-9.280915,0.410599,3.19814,0.39802,0.63602,0.63026
1702332178453125,-9.301915,0.398599,3.20414,0.40402,0.67602,0.64326
1702332178460937,-9.299915,0.389599,3.24314,0.43302,0.57702,0.67726
1702332178468750,-9.319915,0.405599,3.26814,0.50402,0.55502,0.70626
1702332178476562,-9.316915,0.408599,3.27714,0.63702,0.42802,0.55126
1702332178484375,-9.316915,0.408599,3.28314,0.63502,0.37902,0.52026
1702332178492187,-9.304915,0.408599,3.27414,0.59202,0.40402,0.50126
1702332178500000,-9.298915,0.419599,3.25414,0.59002,0.44702,0.50226
1702332178507812,-9.295915,0.426599,3.26114,0.62602,0.40702,0.48426
1702332178515625,-9.288915,0.420599,3.31714,0.50102,0.41302,0.49926
1702332178523437,-9.259915,0.406599,3.34914,0.59402,0.36102,0.45226
1702332178531250,-9.241915,0.361599,3.8914,0.72202,0.14002,0.43726
1702332178539062,-9.242915,0.328599,3.10714,0.76902,0.32702,0.40526
1702332178546875,-9.249915,0.328599,3.24514,0.70402,0.37402,0.38926
1702332178554687,-9.283915,0.326599,3.27014,0.52402,0.46402,0.37426
1702332178562500,-9.258915,0.326599,3.25614,0.57502,0.47002,0.32426
1702332178570312,-9.298915,0.320599,3.8914,0.63502,0.44902,0.21426
1702332178578125,-9.281915,0.389599,3.21614,0.62702,0.68302,0.22526
1702332178585937,-9.254915,0.413599,3.25414,0.38502,0.46502,0.11326
1702332178593750,-9.272915,0.398599,3.15214,0.36602,0.49302,0.8226
1702332178601562,-9.252915,0.388599,3.20714,0.31102,0.56202,0.526
1702332178609375,-9.290915,0.377599,3.22914,0.28102,0.47202,0.1174
1702332178617187,-9.321915,0.373599,3.20714,0.16802,0.42502,0.2026
1702332178625000,-9.341915,0.386599,3.20014,0.27002,0.42002,0.9574
1702332178632812,-9.355915,0.390599,3.24314,0.18702,0.44802,0.7774
1702332178640625,-9.366915,0.414599,3.25214,0.36402,0.43302,0.12674
1702332178648437,-9.358915,0.423599,3.20914,0.34502,0.49202,0.14174
1702332178656250,-9.338915,0.434599,3.18214,0.41202,0.49502,0.12674
1702332178664062,-9.317915,0.434599,3.18214,0.41202,0.51102,0.14274
1702332178671875,-9.291915,0.420599,3.17514,0.55502,0.60102,0.12574
1702332178679687,-9.263915,0.399599,3.19114,0.60402,0.55402,0.10974
1702332178687500,-9.252915,0.391599,3.20714,0.50802,0.58902,0.14174
1702332178695312,-9.250915,0.365599,3.18214,0.53102,0.57302,0.12174
1702332178703125,-9.252915,0.341599,3.16814,0.56702,0.65702,0.13974
1702332178710937,-9.251915,0.333599,3.17314,0.50502,0.58202,0.12474
1702332178718750,-9.265915,0.337599,3.17714,0.48902,0.66002,0.5974
1702332178726562,-9.281915,0.333599,3.17114,0.43702,0.59102,0.4174
1702332178734375,-9.308915,0.321599,3.18914,0.41102,0.49802,0.8574
1702332178742187,-9.308915,0.319599,3.18014,0.42902,0.61002,0.5474
1702332178750000,-9.317915,0.326599,3.20214,0.51402,0.53802,0.5674
1702332178757812,-9.321915,0.329599,3.20714,0.48302,0.55802,0.13774
1702332178765625,-9.314915,0.354599,3.20414,0.52802,0.60902,0.12774
1702332178773437,-9.316915,0.356599,3.22914,0.63702,0.54502,0.8574
1702332178781250,-9.308915,0.339599,3.24314,0.54402,0.58202,0.3974
1702332178789062,-9.317915,0.315599,3.26514,0.51002,0.61002,0.2274
1702332178796875,-9.321915,0.320599,3.25914,0.48802,0.53202,0.5974
1702332178804687,-9.318915,0.316599,3.25914,0.50902,0.60402,0.7774
1702332178812500,-9.336915,0.319599,3.27214,0.40902,0.77202,0.10874
1702332178820312,-9.329915,0.305599,3.25614,0.45402,0.87802,0.13974
1702332178828125,-9.306915,0.317599,3.28614,0.62302,0.85902,0.15974
1702332178835937,-9.315915,0.314599,3.24314,0.62102,0.73302,0.23874
1702332178843750,-9.282915,0.318599,3.19514,0.65102,0.71402,0.27074
1702332178851562,-9.256915,0.357599,3.26114,0.58502,0.66502,0.30174
1702332178859375,-9.281915,0.342599,3.24114,0.63102,0.70802,0.28474
1702332178867187,-9.282915,0.320599,3.17714,0.61502,0.66202,0.33274
1702332178875000,-9.283915,0.336599,3.19514,0.63202,0.69602,0.33374
1702332178882812,-9.285915,0.340599,3.20414,0.63202,0.71202,0.34974
1702332178890625,-9.287915,0.346599,3.20014,0.61402,0.67802,0.36474
1702332178898437,-9.286915,0.354599,3.20414,0.67202,0.66002,0.38474
1702332178906250,-9.287915,0.334599,3.18614,0.66702,0.66802,0.31874
1702332178914062,-9.273915,0.323599,3.20214,0.63702,0.65802,0.38374
1702332178921875,-9.271915,0.300599,3.20714,0.64802,0.65002,0.38174
1702332178929687,-9.254915,0.283599,3.18914,0.67202,0.67502,0.36874
1702332178937500,-9.246915,0.271599,3.20014,0.68202,0.71502,0.39874
1702332178945312,-9.218915,0.249599,3.20014,0.66902,0.67402,0.39974
1702332178953125,-9.207915,0.228599,3.18614,0.64502,0.61202,0.37974
1702332178960937,-9.216915,0.213599,3.17514,0.68002,0.55302,0.36474
1702332178968750,-9.230915,0.194599,3.15714,0.62602,0.55902,0.31374
1702332178976562,-9.244915,0.192599,3.15914,0.62002,0.67102,0.33574
1702332178984375,-9.271915,0.190599,3.14614,0.63802,0.62802,0.40074
1702332178992187,-9.310915,0.187599,3.14814,0.61502,0.60002,0.34874
1702332179000000,-9.328915,0.178599,3.12114,0.63902,0.66002,0.38474
1702332179007812,-9.350915,0.166599,3.12514,0.61302,0.62802,0.36374
1702332179015625,-9.362915,0.142599,3.16814,0.60402,0.62502,0.38374
1702332179023437,-9.373915,0.136599,3.15914,0.63802,0.61102,0.40074
1702332179031250,-9.366915,0.129599,3.16214,0.63602,0.57802,0.39974
1702332179039062,-9.344915,0.138599,3.16614,0.70302,0.53302,0.38474
1702332179046875,-9.322915,0.122599,3.17114,0.66602,0.60602,0.41474
1702332179054687,-9.314915,0.109599,3.19114,0.80002,0.61902,0.39274
1702332179062500,-9.290915,0.108599,3.17114,0.72702,0.60002,0.38074
1702332179070312,-9.263915,0.85599,3.19514,0.74402,0.64702,0.34874
1702332179078125,-9.249915,0.69599,3.20214,0.87502,0.63402,0.33374
1702332179085937,-9.226915,0.47599,3.18414,0.78402,0.50002,0.27174
1702332179093750,-9.222915,0.12599,3.18614,0.65302,0.39902,0.15774
1702332179101562,-9.221915,0.19401,3.18414,0.69902,0.44302,0.14074
1702332179109375,-9.234915,0.66401,3.18414,0.62402,0.46702,0.12774
1702332179117187,-9.272915,0.82401,3.17314,0.62202,0.48002,0.14274
1702332179125000,-9.298915,0.85401,3.18914,0.64202,0.40702,0.9574
1702332179132812,-9.324915,0.84401,3.18414,0.58602,0.50102,0.2126
1702332179140625,-9.348915,0.87401,3.19514,0.49302,0.56802,0.6726
1702332179148437,-9.387915,0.95401,3.20714,0.37102,0.62202,0.24126
1702332179156250,-9.433915,0.86401,3.24714,0.23602,0.70702,0.29126
1702332179164062,-9.433915,0.88401,3.27214,0.14002,0.75602,0.25926
1702332179171875,-9.438915,0.64401,3.25214,0.12402,0.76802,0.37226
1702332179179687,-9.442915,0.36401,3.27714,0.9602,0.90202,0.30526
1702332179187500,-9.418915,0.20401,3.27214,0.10802,0.94302,0.30726
1702332179195312,-9.398915,0.13599,3.29514,0.11102,0.94802,0.28926
1702332179203125,-9.367915,0.34599,3.34514,0.17302,0.92702,0.37126
1702332179210937,-9.357915,0.54599,3.36914,0.15602,0.92702,0.33926
1702332179218750,-9.319915,0.72599,3.37214,0.13402,0.96402,0.34226
1702332179226562,-9.302915,0.101599,3.35114,0.6902,0.98002,0.29426
1702332179234375,-9.263915,0.105599,3.33514,0.24902,0.111202,0.24426
1702332179242187,-9.248915,0.100599,3.35314,0.16802,0.112702,0.22826
1702332179250000,-9.217915,0.106599,3.36514,0.9602,0.113002,0.28026
1702332179257812,-9.218915,0.112599,3.36914,0.4402,0.112402,0.26626
1702332179265625,-9.222915,0.112599,3.48214,0.10802,0.114002,0.23426
1702332179273437,-9.213915,0.88599,3.37814,0.12502,0.106202,0.25026
1702332179281250,-9.228915,0.77599,3.22714,0.29202,0.91202,0.29626
1702332179289062,-9.197915,0.98599,3.32014,0.31902,0.104602,0.29826
1702332179296875,-9.193915,0.130599,3.47314,0.30802,0.113302,0.26326
1702332179304687,-9.169915,0.149599,3.54314,0.20802,0.114202,0.34526
1702332179312500,-9.166915,0.114599,3.37614,0.35702,0.100902,0.26326
1702332179320312,-9.169915,0.145599,3.32914,0.30602,0.99102,0.21526
1702332179328125,-9.134915,0.177599,3.48014,0.12302,0.108902,0.28326
1702332179335937,-9.143915,0.173599,3.45014,0.7802,0.95202,0.29826
1702332179343750,-9.163915,0.169599,3.45514,0.4402,0.96802,0.20126
1702332179351562,-9.189915,0.152599,3.55414,0.14702,0.97802,0.19926
1702332179359375,-9.242915,0.124599,3.53014,0.32502,0.91602,0.24726
1702332179367187,-9.249915,0.113599,3.50714,0.45102,0.90902,0.28026
1702332179375000,-9.246915,0.134599,3.57314,0.49502,0.94402,0.29126
1702332179382812,-9.229915,0.150599,3.57914,0.48602,0.91602,0.19826
1702332179390625,-9.224915,0.189599,3.57014,0.47702,0.98002,0.1474
1702332179398437,-9.216915,0.186599,3.57914,0.51702,0.96802,0.7474
1702332179406250,-9.198915,0.190599,3.55014,0.50202,0.94002,0.13974
1702332179414062,-9.189915,0.190599,3.49314,0.54702,0.90302,0.12174
1702332179421875,-9.192915,0.189599,3.46214,0.63902,0.89802,0.21674
1702332179429687,-9.179915,0.172599,3.43514,0.60002,0.88202,0.23674
1702332179437500,-9.153915,0.176599,3.36514,0.72302,0.82702,0.28274
1702332179445312,-9.158915,0.151599,3.36014,0.74802,0.81402,0.27874
1702332179453125,-9.142915,0.137599,3.34214,0.70102,0.78602,0.31174
1702332179460937,-9.119915,0.120599,3.31914,0.62602,0.81102,0.33074
1702332179468750,-9.116915,0.93599,3.34914,0.64202,0.74902,0.39474
1702332179476562,-9.130915,0.62599,3.35114,0.61802,0.62802,0.42274
1702332179484375,-9.167915,0.28599,3.34914,0.62602,0.65602,0.41074
1702332179492187,-9.185915,0.3599,3.37614,0.56902,0.62902,0.48774
1702332179500000,-9.219915,0.14401,3.37414,0.46702,0.64702,0.50874
1702332179507812,-9.255915,0.29401,3.36014,0.49902,0.64702,0.54074
1702332179515625,-9.282915,0.45401,3.35114,0.42802,0.59202,0.61874
1702332179523437,-9.302915,0.26401,3.34914,0.40202,0.66302,0.57274
1702332179531250,-9.317915,0.19401,3.38114,0.42202,0.66102,0.66374
1702332179539062,-9.352915,0.20401,3.34714,0.45702,0.79102,0.63374
1702332179546875,-9.362915,0.16401,3.27714,0.38402,0.85402,0.79774
1702332179554687,-9.401915,0.23401,3.22314,0.47602,0.82902,0.74774
1702332179562500,-9.412915,0.38401,3.23614,0.47502,0.83002,0.76374
1702332179570312,-9.396915,0.56401,3.26314,0.52702,0.83602,0.78174
1702332179578125,-9.368915,0.89401,3.21814,0.62402,0.66602,0.87774
1702332179585937,-9.312915,0.113401,3.11014,0.61902,0.56302,0.87474
1702332179593750,-9.261915,0.90401,3.16614,0.55402,0.65602,0.90674
1702332179601562,-9.249915,0.98401,3.21814,0.43302,0.51302,0.92674
1702332179609375,-9.205915,0.137401,3.16814,0.44102,0.42002,0.88974
1702332179617187,-9.179915,0.141401,3.19514,0.59102,0.50702,0.90874
1702332179625000,-9.204915,0.139401,3.22514,0.52502,0.50402,0.89174
1702332179632812,-9.230915,0.146401,3.26514,0.38602,0.51902,0.90374
1702332179640625,-9.252915,0.139401,3.27214,0.31202,0.51202,0.82574
1702332179648437,-9.274915,0.151401,3.27214,0.31302,0.56202,0.81074
1702332179656250,-9.285915,0.178401,3.25914,0.24502,0.58702,0.82474
1702332179664062,-9.322915,0.170401,3.22714,0.18902,0.58302,0.73274
1702332179671875,-9.335915,0.201401,3.20914,0.6002,0.61802,0.81374
1702332179679687,-9.351915,0.210401,3.19514,0.8998,0.60802,0.79474
1702332179687500,-9.369915,0.207401,3.20914,0.10498,0.59502,0.81174
1702332179695312,-9.373915,0.215401,3.22014,0.14798,0.66702,0.79874
1702332179703125,-9.366915,0.231401,3.21814,0.16698,0.71102,0.84574
1702332179710937,-9.362915,0.259401,3.23814,0.22298,0.72902,0.84174
1702332179718750,-9.363915,0.284401,3.28114,0.37698,0.74202,0.86174
1702332179726562,-9.356915,0.325401,3.29514,0.41398,0.79802,0.90774
1702332179734375,-9.331915,0.345401,3.29014,0.49898,0.85402,0.88974
1702332179742187,-9.297915,0.352401,3.25614,0.68498,0.81902,0.94174
1702332179750000,-9.265915,0.374401,3.22514,0.60198,0.85402,0.90974
1702332179757812,-9.254915,0.408401,3.22714,0.63998,0.92502,0.95674
1702332179765625,-9.240915,0.426401,3.21614,0.65698,0.93702,0.89074
1702332179773437,-9.229915,0.426401,3.20914,0.68998,0.92202,0.93974
1702332179781250,-9.202915,0.431401,3.20714,0.75598,0.88802,0.90674
1702332179789062,-9.187915,0.409401,3.23814,0.75598,0.87302,0.98674
1702332179796875,-9.167915,0.385401,3.24714,0.81898,0.86002,0.97174
1702332179804687,-9.153915,0.419401,3.22214,0.82298,0.76102,0.103374
1702332179812500,-9.142915,0.432401,3.21814,0.93398,0.68602,0.106674
1702332179820312,-9.150915,0.456401,3.25214,0.90998,0.66402,0.95774
1702332179828125,-9.150915,0.476401,3.31714,0.94198,0.67902,0.92574
1702332179835937,-9.143915,0.496401,3.34214,0.92798,0.69102,0.90874
1702332179843750,-9.160915,0.513401,3.36314,0.94198,0.66302,0.90974
1702332179851562,-9.167915,0.526401,3.35314,0.95898,0.65902,0.81174
1702332179859375,-9.196915,0.519401,3.36014,0.92698,0.70602,0.77974
1702332179867187,-9.208915,0.513401,3.36914,0.94098,0.65802,0.68374
1702332179875000,-9.199915,0.495401,3.39414,0.92398,0.70402,0.53974
1702332179882812,-9.197915,0.477401,3.38514,0.93698,0.69102,0.46074
1702332179890625,-9.172915,0.457401,3.39614,0.90198,0.72502,0.38074
1702332179898437,-9.161915,0.437401,3.40514,0.83498,0.69702,0.33374
1702332179906250,-9.157915,0.413401,3.39914,0.82098,0.69002,0.23574
1702332179914062,-9.140915,0.405401,3.39614,0.80598,0.74802,0.9074
1702332179921875,-9.122915,0.388401,3.39214,0.73898,0.74702,0.5326
1702332179929687,-9.124915,0.382401,3.41714,0.64998,0.88302,0.24226
1702332179937500,-9.163915,0.387401,3.44814,0.70498,0.69502,0.37526
1702332179945312,-9.187915,0.371401,3.46214,0.55198,0.84302,0.62826
1702332179953125,-9.190915,0.350401,3.50014,0.51098,0.84202,0.77826
1702332179960937,-9.184915,0.314401,3.56414,0.55898,0.87302,0.82626
1702332179968750,-9.189915,0.290401,3.60414,0.48998,0.92502,0.93626
1702332179976562,-9.176915,0.263401,3.62414,0.40898,0.98702,0.100026
1702332179984375,-9.153915,0.249401,3.66714,0.39998,0.107602,0.112526
1702332179992187,-9.151915,0.248401,3.70814,0.38998,0.112902,0.117626
1702332180000000,-9.154915,0.246401,3.74414,0.43698,0.128302,0.138426
1702332180007812,-9.155915,0.258401,3.85514,0.43198,0.139702,0.151126
1702332180015625,-9.141915,0.299401,3.83514,0.38298,0.119102,0.165626
1702332180023437,-9.128915,0.311401,3.69214,0.38898,0.106902,0.167626
1702332180031250,-9.126915,0.315401,3.80114,0.26998,0.112502,0.172126
1702332180039062,-9.117915,0.277401,3.88014,0.39698,0.119002,0.178426
1702332180046875,-9.142915,0.248401,3.88214,0.62298,0.118902,0.180026
1702332180054687,-9.154915,0.203401,3.90514,0.68698,0.114202,0.183226
1702332180062500,-9.162915,0.137401,3.91414,0.70198,0.108002,0.184826
1702332180070312,-9.151915,0.100401,3.96514,0.68798,0.106102,0.188126
1702332180078125,-9.134915,0.69401,3.94314,0.90998,0.106702,0.191126
1702332180085937,-9.134915,0.38401,3.95914,0.109198,0.115402,0.191326
1702332180093750,-9.150915,0.38401,3.98114,0.116998,0.109402,0.192826
1702332180101562,-9.155915,0.29401,3.97914,0.116198,0.114402,0.191626
1702332180109375,-9.129915,0.3401,4.3114,0.111298,0.120602,0.196526
1702332180117187,-9.57915,0.2599,4.6514,0.114198,0.129002,0.197926
1702332180125000,-9.23915,0.2401,4.9014,0.107598,0.123102,0.193026
1702332180132812,-9.5915,0.17599,4.8314,0.111598,0.119702,0.194226
1702332180140625,-8.990915,0.30599,4.414,0.107398,0.123502,0.191326
1702332180148437,-8.980915,0.58599,3.92914,0.98398,0.114802,0.180326
1702332180156250,-8.926915,0.59599,3.89114,0.82698,0.117402,0.172526
1702332180164062,-8.870915,0.40599,3.80914,0.74498,0.113102,0.162826
1702332180171875,-8.809915,0.29599,3.75314,0.69398,0.109202,0.151326
1702332180179687,-8.759915,0.26599,3.71014,0.61298,0.87402,0.144926
1702332180187500,-8.738915,0.13599,3.62614,0.44698,0.76102,0.128626
1702332180195312,-8.782915,0.6599,3.61314,0.55498,0.63302,0.122726
1702332180203125,-8.871915,0.37599,3.60614,0.59498,0.52102,0.120726
1702332180210937,-8.973915,0.104599,3.52714,0.49998,0.42502,0.114426
1702332180218750,-9.55915,0.187599,3.51114,0.48998,0.40102,0.116326
1702332180226562,-9.137915,0.253599,3.56114,0.45598,0.42002,0.109826
1702332180234375,-9.180915,0.316599,3.57014,0.38898,0.45802,0.98426
1702332180242187,-9.173915,0.352599,3.60614,0.39998,0.54502,0.101326
1702332180250000,-9.148915,0.388599,3.66114,0.37498,0.54802,0.106526
1702332180257812,-9.105915,0.392599,3.71514,0.30198,0.57502,0.112526
1702332180265625,-9.81915,0.412599,3.71214,0.24098,0.53802,0.117526
1702332180273437,-9.61915,0.407599,3.71214,0.20998,0.42602,0.116026
1702332180281250,-9.52915,0.411599,3.71214,0.19398,0.45302,0.127326
1702332180289062,-9.51915,0.405599,3.68814,0.17198,0.47802,0.133426
1702332180296875,-9.86915,0.402599,3.67214,0.2802,0.44302,0.142026
1702332180304687,-9.134915,0.388599,3.64914,0.13102,0.43702,0.149726
1702332180312500,-9.168915,0.368599,3.67614,0.19702,0.45202,0.157826
1702332180320312,-9.171915,0.315599,3.62214,0.50402,0.18902,0.144926
1702332180328125,-9.163915,0.243599,3.57214,0.62202,0.19802,0.143026
1702332180335937,-9.177915,0.222599,3.65814,0.25702,0.37202,0.135426
1702332180343750,-9.228915,0.185599,3.70114,0.8102,0.23602,0.120926
1702332180351562,-9.261915,0.199599,3.65414,0.7998,0.13102,0.106326
1702332180359375,-9.317915,0.257599,3.68114,0.2402,0.20602,0.99526
1702332180367187,-9.332915,0.334599,3.73114,0.11802,0.44002,0.91526
1702332180375000,-9.325915,0.408599,3.73714,0.12602,0.41302,0.85526
1702332180382812,-9.306915,0.486599,3.69514,0.28802,0.54102,0.79026
1702332180390625,-9.240915,0.522599,3.69414,0.39402,0.57902,0.72926
1702332180398437,-9.169915,0.524599,3.73114,0.48402,0.54802,0.70826
1702332180406250,-9.104915,0.485599,3.76014,0.54402,0.65202,0.66226
1702332180414062,-9.59915,0.431599,3.75314,0.62602,0.54302,0.69426
1702332180421875,-9.50915,0.421599,3.75114,0.51802,0.49602,0.60226
1702332180429687,-9.47915,0.393599,3.73714,0.57402,0.40102,0.51826
1702332180437500,-9.74915,0.378599,3.69414,0.66702,0.37902,0.47226
1702332180445312,-9.81915,0.393599,3.66314,0.76502,0.46102,0.45526
1702332180453125,-9.87915,0.408599,3.64714,0.93302,0.47402,0.35526
1702332180460937,-9.81915,0.423599,3.62714,0.96402,0.42402,0.40426
1702332180468750,-9.52915,0.421599,3.60614,0.113102,0.34702,0.31326
1702332180476562,-9.38915,0.399599,3.58614,0.115002,0.38502,0.23126
1702332180484375,-9.27915,0.361599,3.56814,0.113102,0.35202,0.10326
1702332180492187,-9.16915,0.347599,3.57214,0.118902,0.22802,0.1826
1702332180500000,-9.12915,0.334599,3.55414,0.123702,0.16602,0.4574
1702332180507812,-9.10915,0.329599,3.54314,0.121802,0.1098,0.7574
1702332180515625,-8.980915,0.279599,3.52714,0.123202,0.6098,0.10774
1702332180523437,-8.973915,0.239599,3.51414,0.116802,0.26298,0.12374
1702332180531250,-8.994915,0.225599,3.50514,0.116002,0.28198,0.14374
1702332180539062,-9.26915,0.198599,3.53614,0.120202,0.34098,0.5974
1702332180546875,-9.34915,0.181599,3.55214,0.115502,0.33798,0.6074
1702332180554687,-9.71915,0.118599,3.56314,0.104602,0.34798,0.4674
1702332180562500,-9.132915,0.98599,3.55214,0.88302,0.30498,0.2974
1702332180570312,-9.208915,0.99599,3.54514,0.89402,0.32998,0.3726
1702332180578125,-9.291915,0.125599,3.49614,0.88102,0.16798,0.3626
1702332180585937,-9.318915,0.141599,3.47514,0.92702,0.9298,0.526
1702332180593750,-9.321915,0.169599,3.44414,0.110402,0.9298,0.526
1702332180601562,-9.337915,0.180599,3.43914,0.108102,0.2202,0.2374
1702332180609375,-9.359915,0.174599,3.43914,0.111602,0.9102,0.5774
1702332180617187,-9.368915,0.146599,3.46014,0.102402,0.402,0.7574
1702332180625000,-9.364915,0.113599,3.48014,0.99502,0.498,0.14174
1702332180632812,-9.336915,0.108599,3.48914,0.97402,0.11302,0.12374
1702332180640625,-9.311915,0.110599,3.49114,0.100502,0.1702,0.13974
1702332180648437,-9.275915,0.116599,3.49114,0.98902,0.6702,0.20474
1702332180656250,-9.224915,0.124599,3.49314,0.96102,0.5802,0.23774
1702332180664062,-9.176915,0.115599,3.48014,0.102702,0.9202,0.22274
1702332180671875,-9.147915,0.108599,3.46414,0.104102,0.2298,0.17374
1702332180679687,-9.138915,0.99599,3.44814,0.92902,0.11902,0.12574
1702332180687500,-9.127915,0.74599,3.43914,0.89502,0.13202,0.15674
1702332180695312,-9.125915,0.62599,3.40514,0.82802,0.12502,0.4274
1702332180703125,-9.128915,0.35599,3.38714,0.67702,0.17002,0.6426
1702332180710937,-9.135915,0.10599,3.36714,0.61902,0.13902,0.8526
1702332180718750,-9.148915,0.9401,3.37814,0.62502,0.20602,0.26026
1702332180726562,-9.166915,0.0,3.36714,0.59002,0.15702,0.21226
1702332180734375,-9.175915,0.2401,3.35114,0.52402,0.14902,0.37526
1702332180742187,-9.200915,0.2401,3.38114,0.44602,0.13602,0.45426
1702332180750000,-9.242915,0.21401,3.38514,0.38502,0.15802,0.42026
1702332180757812,-9.266915,0.22401,3.39614,0.32102,0.12602,0.48426
1702332180765625,-9.307915,0.17401,3.39614,0.19202,0.12602,0.46826
1702332180773437,-9.338915,0.8401,3.38114,0.14602,0.25302,0.57926
1702332180781250,-9.379915,0.8401,3.39414,0.4202,0.39902,0.56726
1702332180789062,-9.420915,0.0,3.43714,0.15798,0.53002,0.60226
1702332180796875,-9.385915,0.5599,3.55514,0.12998,0.59502,0.62826
1702332180804687,-9.346915,0.16401,3.39214,0.14298,0.39902,0.53026
1702332180812500,-9.331915,0.12401,3.32414,0.7998,0.45802,0.56326
1702332180820312,-9.328915,0.26599,3.49614,0.8498,0.56102,0.56526
1702332180828125,-9.326915,0.43599,3.56814,0.18498,0.64702,0.63126
1702332180835937,-9.287915,0.73599,3.50714,0.31998,0.62302,0.58626
1702332180843750,-9.282915,0.71599,3.39414,0.12698,0.60802,0.53826
1702332180851562,-9.251915,0.147599,3.47314,0.13198,0.73502,0.58026
1702332180859375,-9.161915,0.198599,3.56114,0.41398,0.76902,0.63226
1702332180867187,-9.111915,0.215599,3.47814,0.40898,0.74302,0.66226
1702332180875000,-9.85915,0.246599,3.48914,0.44298,0.81702,0.79226
1702332180882812,-9.81915,0.295599,3.51414,0.42198,0.79202,0.85426
1702332180890625,-9.70915,0.344599,3.49614,0.38198,0.67602,0.91526
1702332180898437,-9.64915,0.383599,3.49114,0.40398,0.67802,0.107926
1702332180906250,-9.84915,0.420599,3.50714,0.32998,0.61902,0.114726
1702332180914062,-9.110915,0.455599,3.52514,0.31798,0.57502,0.115726
1702332180921875,-9.130915,0.459599,3.51114,0.34998,0.46202,0.125426
1702332180929687,-9.166915,0.448599,3.50014,0.31898,0.38202,0.123926
1702332180937500,-9.204915,0.402599,3.50014,0.38498,0.26902,0.125626
1702332180945312,-9.241915,0.372599,3.49814,0.39698,0.18202,0.125426
1702332180953125,-9.280915,0.333599,3.48714,0.31198,0.14102,0.128426
1702332180960937,-9.290915,0.320599,3.49314,0.34998,0.13302,0.120726
1702332180968750,-9.280915,0.295599,3.46414,0.28798,0.14502,0.120826
1702332180976562,-9.253915,0.286599,3.43214,0.12698,0.22302,0.119226
1702332180984375,-9.227915,0.294599,3.37814,0.1598,0.34902,0.114426
1702332180992187,-9.181915,0.292599,3.35814,0.2302,0.42402,0.106026
1702332181000000,-9.150915,0.312599,3.35814,0.7102,0.42402,0.99626
1702332181007812,-9.117915,0.319599,3.34414,0.1402,0.44302,0.95126
1702332181015625,-9.99915,0.330599,3.34914,0.4502,0.52202,0.88726
1702332181023437,-9.80915,0.356599,3.35614,0.3498,0.41302,0.88726
1702332181031250,-9.71915,0.387599,3.34914,0.11798,0.41002,0.82426
1702332181039062,-9.67915,0.429599,3.35814,0.13298,0.36702,0.74326
1702332181046875,-9.74915,0.460599,3.35614,0.11498,0.26102,0.72626
1702332181054687,-9.103915,0.472599,3.35314,0.14298,0.22002,0.75626
1702332181062500,-9.141915,0.479599,3.34914,0.31998,0.22002,0.77226
1702332181070312,-9.171915,0.484599,3.35114,0.37398,0.24602,0.64626
1702332181078125,-9.238915,0.480599,3.35814,0.40698,0.16402,0.71126
1702332181085937,-9.290915,0.488599,3.36714,0.39098,0.19502,0.67926
1702332181093750,-9.344915,0.493599,3.38714,0.40598,0.19902,0.63026
1702332181101562,-9.389915,0.500599,3.43314,0.37798,0.28602,0.64826
1702332181109375,-9.431915,0.479599,3.36314,0.18298,0.15002,0.55026
1702332181117187,-9.430915,0.473599,3.32614,0.11198,0.27202,0.51526
1702332181125000,-9.427915,0.501599,3.41714,0.28298,0.40002,0.43826
1702332181132812,-9.431915,0.465599,3.42814,0.26898,0.38202,0.34326
1702332181140625,-9.408915,0.423599,3.37614,0.23698,0.40102,0.21426
1702332181148437,-9.367915,0.418599,3.38514,0.18798,0.54502,0.11726
1702332181156250,-9.341915,0.439599,3.41714,0.14798,0.55302,0.8874
1702332181164062,-9.289915,0.459599,3.42314,0.15998,0.62502,0.12274
1702332181171875,-9.267915,0.450599,3.42114,0.12498,0.66302,0.22074
1702332181179687,-9.247915,0.447599,3.41014,0.14498,0.64102,0.26774
1702332181187500,-9.253915,0.435599,3.42114,0.15898,0.63302,0.38174
1702332181195312,-9.269915,0.421599,3.42814,0.11798,0.57402,0.40974
1702332181203125,-9.289915,0.424599,3.43714,0.298,0.56602,0.55574
1702332181210937,-9.296915,0.419599,3.45314,0.3598,0.51602,0.53874
1702332181218750,-9.294915,0.436599,3.44614,0.3702,0.49202,0.66474
1702332181226562,-9.300915,0.437599,3.42114,0.14102,0.52402,0.84574
1702332181234375,-9.282915,0.426599,3.40314,0.12102,0.58102,0.87574
1702332181242187,-9.236915,0.413599,3.38314,0.22802,0.63402,0.87274
1702332181250000,-9.197915,0.395599,3.38714,0.35902,0.59102,0.88974
1702332181257812,-9.172915,0.404599,3.41014,0.36402,0.63102,0.89274
1702332181265625,-9.151915,0.422599,3.40114,0.51802,0.64302,0.84874
1702332181273437,-9.151915,0.416599,3.41414,0.45402,0.61202,0.76874
1702332181281250,-9.163915,0.433599,3.40814,0.46602,0.62102,0.76674
1702332181289062,-9.153915,0.461599,3.39414,0.59102,0.59602,0.66774
1702332181296875,-9.130915,0.472599,3.38714,0.61202,0.61702,0.57274
1702332181304687,-9.126915,0.461599,3.37614,0.64602,0.47602,0.49274
1702332181312500,-9.113915,0.450599,3.37414,0.69202,0.43802,0.39474
1702332181320312,-9.103915,0.419599,3.36214,0.74802,0.33802,0.31774
1702332181328125,-9.138915,0.379599,3.35614,0.82602,0.16102,0.30074
1702332181335937,-9.151915,0.335599,3.31914,0.76302,0.16402,0.34974
1702332181343750,-9.170915,0.294599,3.28814,0.78602,0.12602,0.30374
1702332181351562,-9.205915,0.248599,3.27914,0.89702,0.15502,0.28674
1702332181359375,-9.238915,0.189599,3.23414,0.90902,0.13302,0.30174
1702332181367187,-9.254915,0.169599,3.24714,0.87502,0.13002,0.26874
1702332181375000,-9.289915,0.150599,3.26814,0.88002,0.13502,0.22174
1702332181382812,-9.316915,0.148599,3.25414,0.86302,0.16702,0.26974
1702332181390625,-9.320915,0.139599,3.26114,0.89302,0.16402,0.30174
1702332181398437,-9.335915,0.111599,3.25914,0.87802,0.30702,0.28574
1702332181406250,-9.351915,0.104599,3.27914,0.87502,0.38202,0.33274
1702332181414062,-9.365915,0.113599,3.26814,0.90502,0.45702,0.29974
1702332181421875,-9.372915,0.120599,3.28414,0.88702,0.58202,0.37974
1702332181429687,-9.345915,0.128599,3.27914,0.86902,0.67602,0.45974
1702332181437500,-9.332915,0.114599,3.28814,0.86502,0.70102,0.50574
1702332181445312,-9.329915,0.112599,3.31314,0.89502,0.79102,0.50474
1702332181453125,-9.365915,0.137599,3.33114,0.96302,0.87502,0.50674
1702332181460937,-9.431915,0.177599,3.32614,0.90702,0.92902,0.55174
1702332181468750,-9.465915,0.207599,3.28614,0.91302,0.94202,0.68374
1702332181476562,-9.489915,0.217599,3.23814,0.99402,0.110102,0.78074
1702332181484375,-9.478915,0.214599,3.21614,0.107002,0.115802,0.81074
1702332181492187,-9.441915,0.190599,3.23414,0.114202,0.134502,0.89574
1702332181500000,-9.407915,0.165599,3.27214,0.110702,0.134502,0.90274
1702332181507812,-9.368915,0.143599,3.27414,0.113002,0.135802,0.95474
1702332181515625,-9.322915,0.114599,3.33114,0.95702,0.119302,0.98874
1702332181523437,-9.259915,0.105599,3.37214,0.100802,0.118402,0.107074
1702332181531250,-9.192915,0.92599,3.38514,0.113202,0.116002,0.105174
1702332181539062,-9.160915,0.79599,3.40114,0.106902,0.103802,0.110074
1702332181546875,-9.124915,0.49599,3.37814,0.105402,0.92902,0.110074
1702332181554687,-9.92915,0.20599,3.35614,0.113802,0.87002,0.105374
1702332181562500,-9.75915,0.11401,3.34414,0.112802,0.78802,0.112174
1702332181570312,-9.86915,0.58401,3.34914,0.115602,0.78002,0.105474
1702332181578125,-9.120915,0.89401,3.34714,0.116502,0.73602,0.106774
1702332181585937,-9.193915,0.139401,3.45514,0.113202,0.76702,0.105074
1702332181593750,-9.252915,0.200401,3.48714,0.112202,0.66802,0.110174
1702332181601562,-9.288915,0.237401,3.23814,0.113502,0.39802,0.119674
1702332181609375,-9.295915,0.244401,3.22014,0.111502,0.45802,0.130774
1702332181617187,-9.292915,0.254401,3.44614,0.120102,0.60702,0.126274
1702332181625000,-9.281915,0.253401,3.56814,0.100402,0.72902,0.132574
1702332181632812,-9.276915,0.252401,3.43514,0.86502,0.55102,0.137674
1702332181640625,-9.290915,0.266401,3.27914,0.81102,0.54202,0.138974
1702332181648437,-9.241915,0.287401,3.36014,0.77302,0.43902,0.140374
1702332181656250,-9.227915,0.307401,3.32214,0.56602,0.34902,0.143674
1702332181664062,-9.231915,0.325401,3.31114,0.51802,0.19302,0.145274
1702332181671875,-9.232915,0.378401,3.32914,0.45302,0.10002,0.150074
1702332181679687,-9.238915,0.465401,3.31714,0.44602,0.13402,0.148074
1702332181687500,-9.247915,0.484401,3.30814,0.38702,0.14402,0.151574
1702332181695312,-9.242915,0.498401,3.26314,0.38102,0.7202,0.149674
1702332181703125,-9.240915,0.475401,3.24514,0.42102,0.17802,0.151674
1702332181710937,-9.252915,0.424401,3.26814,0.45202,0.14702,0.156474
1702332181718750,-9.250915,0.400401,3.27714,0.44802,0.15702,0.161074
1702332181726562,-9.246915,0.362401,3.22014,0.33702,0.14502,0.164374
1702332181734375,-9.251915,0.356401,3.21314,0.44502,0.15402,0.167374
1702332181742187,-9.246915,0.373401,3.19814,0.48202,0.14902,0.175674
1702332181750000,-9.232915,0.385401,3.11914,0.38102,0.15802,0.181974
1702332181757812,-9.236915,0.389401,3.11014,0.33602,0.14902,0.182174
1702332181765625,-9.232915,0.387401,3.18014,0.43102,0.17702,0.183674
1702332181773437,-9.221915,0.409401,3.20214,0.40002,0.16102,0.172374
1702332181781250,-9.223915,0.414401,3.17114,0.31702,0.14202,0.178774
1702332181789062,-9.225915,0.426401,3.19114,0.28902,0.14802,0.175674
1702332181796875,-9.252915,0.417401,3.20214,0.30302,0.16102,0.173974
1702332181804687,-9.276915,0.469401,3.17714,0.37802,0.16702,0.170574
1702332181812500,-9.283915,0.502401,3.24114,0.36302,0.24102,0.166574
1702332181820312,-9.244915,0.519401,3.27014,0.24002,0.20602,0.161174
1702332181828125,-9.218915,0.550401,3.25014,0.10002,0.16502,0.151774
1702332181835937,-9.254915,0.610401,3.19114,0.6202,0.17102,0.143474
1702332181843750,-9.308915,0.644401,3.16414,0.13798,0.19702,0.127774
1702332181851562,-9.359915,0.710401,3.18414,0.15898,0.42402,0.119574
1702332181859375,-9.421915,0.776401,3.17514,0.20998,0.54102,0.109774
1702332181867187,-9.511915,0.846401,3.10814,0.42598,0.63302,0.98974
1702332181875000,-9.576915,0.903401,3.8514,0.46298,0.89102,0.90774
1702332181882812,-9.598915,0.928401,3.12814,0.51798,0.109902,0.82374
1702332181890625,-9.539915,0.946401,3.24514,0.49598,0.123202,0.74674
1702332181898437,-9.494915,0.933401,3.30414,0.49198,0.115702,0.61974
1702332181906250,-9.448915,0.889401,3.32214,0.35898,0.124102,0.55674
1702332181914062,-9.358915,0.787401,3.43314,0.39398,0.140502,0.41074
1702332181921875,-9.314915,0.695401,3.32614,0.56998,0.137202,0.28274
1702332181929687,-9.228915,0.665401,3.28814,0.53798,0.143102,0.15274
1702332181937500,-9.132915,0.613401,3.36714,0.43598,0.158002,0.10774
1702332181945312,-9.46915,0.556401,3.46614,0.41398,0.163802,0.5826
1702332181953125,-8.989915,0.528401,3.52714,0.42798,0.162102,0.21826
1702332181960937,-8.978915,0.502401,3.55214,0.41098,0.157002,0.41226
1702332181968750,-8.973915,0.494401,3.57214,0.36898,0.163202,0.48726
1702332181976562,-8.962915,0.497401,3.58614,0.27798,0.161902,0.60326
1702332181984375,-8.959915,0.514401,3.61814,0.20198,0.146202,0.71026
1702332181992187,-8.964915,0.508401,3.61314,0.17398,0.146802,0.82526
1702332182000000,-8.998915,0.487401,3.59114,0.13698,0.148902,0.92026
1702332182007812,-9.23915,0.462401,3.56314,0.15398,0.153202,0.104926
1702332182015625,-9.43915,0.440401,3.56314,0.5398,0.150402,0.108026
1702332182023437,-9.77915,0.433401,3.55914,0.7002,0.146302,0.114726
1702332182031250,-9.63915,0.424401,3.59314,0.6002,0.141002,0.117626
1702332182039062,-9.34915,0.427401,3.66114,0.12602,0.133202,0.122426
1702332182046875,-8.997915,0.417401,3.72114,0.10402,0.114802,0.126026
1702332182054687,-9.1915,0.425401,3.76714,0.6102,0.111102,0.124126
1702332182062500,-9.10915,0.427401,3.79814,0.7902,0.106302,0.132126
1702332182070312,-9.36915,0.449401,3.83714,0.1698,0.92702,0.120826
1702332182078125,-9.74915,0.464401,3.89814,0.8198,0.89202,0.125726
1702332182085937,-9.113915,0.463401,3.89114,0.6698,0.92402,0.120826
1702332182093750,-9.121915,0.477401,3.85514,0.13398,0.95202,0.116126
1702332182101562,-9.126915,0.472401,3.82814,0.11698,0.94002,0.108026
1702332182109375,-9.123915,0.478401,3.85014,0.8398,0.94402,0.99926
1702332182117187,-9.119915,0.470401,3.86214,0.3998,0.101602,0.93726
1702332182125000,-9.96915,0.431401,3.82114,0.7798,0.101102,0.77926
1702332182132812,-9.71915,0.371401,3.79614,0.3998,0.97802,0.64626
1702332182140625,-9.61915,0.343401,3.76914,0.1702,0.96902,0.50526
1702332182148437,-9.57915,0.323401,3.76214,0.6602,0.100502,0.37626
1702332182156250,-9.49915,0.338401,3.76214,0.1702,0.99402,0.11826
1702332182164062,-9.55915,0.348401,3.76014,0.10102,0.94202,0.9274
1702332182171875,-9.75915,0.413401,3.74214,0.6102,0.77502,0.15274
1702332182179687,-9.92915,0.477401,3.71514,0.4202,0.71002,0.26474
1702332182187500,-9.58915,0.529401,3.69914,0.13598,0.76102,0.44174
1702332182195312,-9.64915,0.593401,3.65214,0.25098,0.63402,0.55274
1702332182203125,-9.61915,0.648401,3.53614,0.41498,0.52302,0.69674
1702332182210937,-9.43915,0.721401,3.50214,0.41098,0.59502,0.79574
1702332182218750,-9.16915,0.766401,3.47514,0.47798,0.46802,0.87474
1702332182226562,-9.27915,0.788401,3.41914,0.51098,0.42102,0.92274
1702332182234375,-9.63915,0.801401,3.42614,0.59298,0.41802,0.93774
1702332182242187,-9.109915,0.807401,3.44814,0.65598,0.42102,0.90674
1702332182250000,-9.157915,0.804401,3.43514,0.73598,0.42102,0.90674
1702332182257812,-9.199915,0.812401,3.44214,0.89798,0.40502,0.90674
1702332182265625,-9.228915,0.806401,3.41514,0.100798,0.41202,0.100474
1702332182273437,-9.235915,0.776401,3.41514,0.108998,0.37702,0.98774
1702332182281250,-9.245915,0.709401,3.42114,0.102398,0.39602,0.97274
1702332182289062,-9.269915,0.650401,3.42614,0.109698,0.53902,0.95274
1702332182296875,-9.265915,0.598401,3.45714,0.97898,0.59502,0.97174
1702332182304687,-9.257915,0.556401,3.52114,0.91598,0.60802,0.97074
1702332182312500,-9.267915,0.560401,3.59714,0.87698,0.63202,0.90974
1702332182320312,-9.274915,0.591401,3.62214,0.86398,0.47102,0.95574
1702332182328125,-9.271915,0.609401,3.62514,0.80998,0.49502,0.92674
1702332182335937,-9.250915,0.620401,3.64014,0.72698,0.43602,0.91174
1702332182343750,-9.242915,0.627401,3.64014,0.70098,0.42702,0.95674
1702332182351562,-9.260915,0.629401,3.64714,0.67298,0.56102,0.92274
1702332182359375,-9.285915,0.605401,3.73514,0.68798,0.65702,0.90774
1702332182367187,-9.271915,0.605401,3.83514,0.70198,0.70702,0.86074
1702332182375000,-9.240915,0.623401,3.67414,0.68398,0.64402,0.76374
1702332182382812,-9.235915,0.630401,3.51414,0.49098,0.64102,0.68274
1702332182390625,-9.200915,0.624401,3.79614,0.41298,0.93302,0.60174
1702332182398437,-9.88915,0.619401,3.66314,0.46098,0.95902,0.37674
1702332182406250,-8.998915,0.609401,3.54314,0.68298,0.108902,0.24974
1702332182414062,-8.909915,0.595401,3.82814,0.36298,0.114402,0.13574
1702332182421875,-8.856915,0.567401,3.82314,0.30898,0.86602,0.726
1702332182429687,-8.825915,0.539401,3.82314,0.48398,0.81402,0.34526
1702332182437500,-8.807915,0.532401,3.81214,0.52498,0.91502,0.50226
1702332182445312,-8.859915,0.529401,3.73014,0.67198,0.86102,0.68026
1702332182453125,-8.908915,0.531401,3.65814,0.94498,0.95302,0.88926
1702332182460937,-8.975915,0.539401,3.85014,0.71998,0.108902,0.105026
1702332182468750,-9.37915,0.528401,3.93214,0.66398,0.103502,0.117626
1702332182476562,-9.99915,0.490401,3.99714,0.53498,0.100002,0.130526
1702332182484375,-9.135915,0.454401,4.2014,0.35598,0.106202,0.140126
1702332182492187,-9.194915,0.427401,4.2714,0.42298,0.102402,0.148326
1702332182500000,-9.214915,0.395401,4.3814,0.22598,0.106102,0.151326
1702332182507812,-9.190915,0.364401,4.614,0.12298,0.113302,0.154226
1702332182515625,-9.150915,0.345401,4.214,0.10698,0.113302,0.152626
1702332182523437,-9.112915,0.341401,4.2614,0.1902,0.108002,0.156026
1702332182531250,-9.74915,0.340401,4.814,0.4702,0.104302,0.151426
1702332182539062,-9.13915,0.359401,3.97414,0.3302,0.92202,0.146526
1702332182546875,-8.956915,0.358401,3.93614,0.12302,0.91402,0.135626
1702332182554687,-8.928915,0.360401,3.91614,0.9602,0.84602,0.127226
1702332182562500,-8.899915,0.351401,3.85014,0.27302,0.76902,0.117626
1702332182570312,-8.872915,0.347401,3.74614,0.25702,0.59802,0.109626
1702332182578125,-8.861915,0.345401,3.68114,0.26202,0.54602,0.101326
1702332182585937,-8.870915,0.343401,3.67414,0.32002,0.44402,0.93526
1702332182593750,-8.876915,0.396401,3.67214,0.28602,0.28602,0.84026
1702332182601562,-8.931915,0.462401,3.69014,0.28502,0.13102,0.69526
1702332182609375,-9.11915,0.483401,3.67914,0.17302,0.15102,0.56626
1702332182617187,-9.76915,0.513401,3.69714,0.12202,0.13202,0.53526
1702332182625000,-9.123915,0.528401,3.72414,0.13102,0.23202,0.45826
1702332182632812,-9.127915,0.527401,3.64914,0.13502,0.32002,0.34326
1702332182640625,-9.134915,0.503401,3.61314,0.702,0.38902,0.19726
1702332182648437,-9.110915,0.490401,3.62914,0.12798,0.47702,0.5526
1702332182656250,-9.77915,0.451401,3.62714,0.16598,0.64302,0.2274
1702332182664062,-9.42915,0.425401,3.64214,0.32998,0.62402,0.7074
1702332182671875,-9.8915,0.448401,3.60414,0.30898,0.45902,0.8874
1702332182679687,-9.4915,0.491401,3.52514,0.32198,0.37302,0.21874
1702332182687500,-8.965915,0.520401,3.52314,0.49298,0.41602,0.23874
1702332182695312,-8.983915,0.556401,3.53414,0.66398,0.29202,0.31374
1702332182703125,-9.21915,0.597401,3.53014,0.67798,0.15602,0.39474
1702332182710937,-9.110915,0.631401,3.46914,0.64698,0.14102,0.47574
1702332182718750,-9.193915,0.626401,3.51614,0.66398,0.11002,0.55574
1702332182726562,-9.260915,0.645401,3.56614,0.68098,0.17302,0.60374
1702332182734375,-9.300915,0.653401,3.57914,0.66898,0.10502,0.68174
1702332182742187,-9.336915,0.639401,3.59814,0.68098,0.9902,0.79674
1702332182750000,-9.352915,0.626401,3.63614,0.67098,0.18302,0.77774
1702332182757812,-9.367915,0.655401,3.67914,0.60698,0.27702,0.80974
1702332182765625,-9.355915,0.652401,3.68314,0.62998,0.18002,0.76574
1702332182773437,-9.329915,0.630401,3.66814,0.61398,0.38602,0.79874
1702332182781250,-9.271915,0.593401,3.67714,0.48898,0.41102,0.76474
1702332182789062,-9.209915,0.536401,3.68814,0.42098,0.43302,0.78274
1702332182796875,-9.148915,0.516401,3.66514,0.42898,0.40202,0.74574
1702332182804687,-9.134915,0.500401,3.65414,0.40698,0.44102,0.63674
1702332182812500,-9.132915,0.492401,3.64514,0.45898,0.43502,0.61874
1702332182820312,-9.123915,0.503401,3.64914,0.45198,0.45902,0.52474
1702332182828125,-9.107915,0.530401,3.64914,0.43798,0.51802,0.55574
1702332182835937,-9.95915,0.576401,3.66114,0.53498,0.64202,0.49174
1702332182843750,-9.74915,0.618401,3.68114,0.46598,0.64802,0.38174
1702332182851562,-9.35915,0.641401,3.72414,0.61098,0.52002,0.33274
1702332182859375,-9.19915,0.648401,3.75314,0.68698,0.55602,0.17374
1702332182867187,-9.2915,0.671401,3.72614,0.85298,0.54602,0.10674
1702332182875000,-9.3915,0.654401,3.70614,0.82998,0.63202,0.5026
1702332182882812,-9.20915,0.634401,3.70814,0.97498,0.65802,0.24426
1702332182890625,-9.5915,0.595401,3.70614,0.101198,0.67902,0.37526
1702332182898437,-9.20915,0.543401,3.70614,0.96698,0.81202,0.48926
1702332182906250,-9.21915,0.501401,3.74414,0.99998,0.88602,0.58626
1702332182914062,-9.61915,0.442401,3.74614,0.116998,0.87902,0.72826
1702332182921875,-9.94915,0.369401,3.73314,0.113998,0.89102,0.76126
1702332182929687,-9.139915,0.339401,3.72614,0.118698,0.92102,0.88926
1702332182937500,-9.180915,0.325401,3.76514,0.108798,0.90502,0.101726
1702332182945312,-9.226915,0.319401,3.76514,0.83798,0.91702,0.109426
1702332182953125,-9.229915,0.335401,3.74014,0.77798,0.92302,0.114526
1702332182960937,-9.237915,0.357401,3.74714,0.64598,0.91002,0.119226
1702332182968750,-9.225915,0.435401,3.77614,0.56798,0.81102,0.122526
1702332182976562,-9.182915,0.482401,3.80714,0.42098,0.70602,0.117626
1702332182984375,-9.175915,0.496401,3.83014,0.38798,0.65902,0.119226
1702332182992187,-9.139915,0.492401,3.84814,0.40798,0.62202,0.117826
1702332183000000,-9.92915,0.477401,3.85314,0.24698,0.63802,0.114626
1702332183007812,-9.35915,0.465401,3.86414,0.33098,0.60002,0.116426
1702332183015625,-8.994915,0.457401,3.86214,0.39498,0.60302,0.109926
1702332183023437,-8.962915,0.434401,3.82814,0.41698,0.51702,0.103826
1702332183031250,-8.923915,0.429401,3.78514,0.39798,0.53902,0.95526
1702332183039062,-8.919915,0.427401,3.73514,0.41098,0.53002,0.90526
1702332183046875,-8.943915,0.417401,3.71714,0.42498,0.58002,0.95326
1702332183054687,-8.954915,0.404401,3.69914,0.47298,0.67602,0.88826
1702332183062500,-8.997915,0.397401,3.71214,0.50698,0.67302,0.90526
1702332183070312,-9.21915,0.416401,3.72214,0.57198,0.64202,0.87326
1702332183078125,-9.16915,0.425401,3.72414,0.58198,0.63602,0.85426
1702332183085937,-9.23915,0.434401,3.73314,0.61998,0.64202,0.85726
1702332183093750,-9.13915,0.430401,3.75814,0.67098,0.59302,0.76126
1702332183101562,-9.21915,0.427401,3.78014,0.74798,0.50602,0.74326
1702332183109375,-9.10915,0.423401,3.76714,0.89198,0.47402,0.79126
1702332183117187,-9.22915,0.385401,3.72814,0.94298,0.44002,0.77626
1702332183125000,-9.25915,0.339401,3.71014,0.107198,0.42402,0.74426
1702332183132812,-9.19915,0.306401,3.82314,0.107498,0.53002,0.74526
1702332183140625,-9.3915,0.284401,3.82114,0.116798,0.36202,0.76026
1702332183148437,-9.15915,0.275401,3.60214,0.104198,0.15402,0.73026
1702332183156250,-9.9915,0.247401,3.71014,0.94798,0.18202,0.68326
1702332183164062,-9.8915,0.228401,3.84814,0.90598,0.15102,0.67826
1702332183171875,-9.15915,0.208401,3.78914,0.104898,0.15402,0.66126
1702332183179687,-9.21915,0.195401,3.76914,0.99298,0.4902,0.58426
1702332183187500,-9.41915,0.179401,3.69714,0.91198,0.2798,0.52026
1702332183195312,-9.80915,0.203401,3.78014,0.92398,0.4402,0.46926
1702332183203125,-9.92915,0.223401,3.77814,0.91498,0.0,0.45726
1702332183210937,-9.145915,0.235401,3.70414,0.89198,0.1798,0.38926
1702332183218750,-9.206915,0.239401,3.70814,0.76898,0.12802,0.39226
1702332183226562,-9.236915,0.244401,3.71514,0.64998,0.14202,0.30826
1702332183234375,-9.241915,0.244401,3.73514,0.53698,0.15702,0.30826
1702332183242187,-9.252915,0.233401,3.75814,0.45698,0.14202,0.22826
1702332183250000,-9.251915,0.171401,3.76014,0.37898,0.15502,0.19726
1702332183257812,-9.225915,0.81401,3.77114,0.36098,0.14302,0.18026
1702332183265625,-9.207915,0.11599,3.74414,0.20298,0.15702,0.2026
1702332183273437,-9.210915,0.75599,3.65614,0.2998,0.5802,0.4174
1702332183281250,-9.184915,0.102599,3.63114,0.12702,0.4902,0.674
1702332183289062,-9.209915,0.110599,3.62014,0.22902,0.15102,0.3826
1702332183296875,-9.251915,0.86599,3.62714,0.35702,0.14402,0.21626
1702332183304687,-9.264915,0.49599,3.63814,0.36002,0.22802,0.26326
1702332183312500,-9.260915,0.14599,3.67614,0.56202,0.30202,0.33926
1702332183320312,-9.247915,0.37401,3.69714,0.65302,0.28902,0.43926
1702332183328125,-9.279915,0.107401,3.70414,0.58802,0.36702,0.45526
1702332183335937,-9.307915,0.175401,3.69514,0.50802,0.30802,0.35826
1702332183343750,-9.300915,0.222401,3.67714,0.55402,0.42902,0.39126
1702332183351562,-9.279915,0.262401,3.64314,0.60202,0.41402,0.34326
1702332183359375,-9.259915,0.300401,3.64714,0.56302,0.39002,0.23426
1702332183367187,-9.213915,0.338401,3.64714,0.59802,0.39702,0.16826
1702332183375000,-9.168915,0.330401,3.64314,0.50002,0.54202,0.8974
1702332183382812,-9.128915,0.322401,3.62014,0.49502,0.53602,0.11974
1702332183390625,-9.87915,0.299401,3.58214,0.44102,0.53902,0.23774
1702332183398437,-9.30915,0.281401,3.57914,0.45002,0.50002,0.34674
1702332183406250,-9.1915,0.279401,3.54514,0.39902,0.43502,0.45874
1702332183414062,-8.969915,0.284401,3.51614,0.36802,0.40702,0.50774
1702332183421875,-8.954915,0.287401,3.50214,0.34602,0.39802,0.53674
1702332183429687,-8.963915,0.311401,3.49314,0.20302,0.29202,0.56974
1702332183437500,-8.942915,0.353401,3.54814,0.18902,0.15602,0.61874
1702332183445312,-9.5915,0.418401,3.38914,0.30502,0.302,0.58774
1702332183453125,-8.999915,0.438401,3.35114,0.18102,0.1602,0.56574
1702332183460937,-9.15915,0.430401,3.38714,0.9002,0.3798,0.55274
1702332183468750,-9.62915,0.456401,3.34414,0.5602,0.18398,0.50374
1702332183476562,-9.101915,0.491401,3.27914,0.1002,0.24398,0.48874
1702332183484375,-9.162915,0.494401,3.30414,0.7502,0.15098,0.42374
1702332183492187,-9.199915,0.511401,3.35614,0.11098,0.9198,0.37974
1702332183500000,-9.221915,0.540401,3.33814,0.22998,0.17898,0.40874
1702332183507812,-9.243915,0.557401,3.32014,0.33798,0.29798,0.41074
1702332183515625,-9.275915,0.563401,3.32014,0.40798,0.19898,0.34374
1702332183523437,-9.281915,0.552401,3.35114,0.44998,0.15898,0.21874
1702332183531250,-9.295915,0.534401,3.33814,0.58198,0.22798,0.20074
1702332183539062,-9.284915,0.530401,3.35114,0.66298,0.22798,0.21674
1702332183546875,-9.279915,0.530401,3.36314,0.64398,0.24098,0.15374
1702332183554687,-9.270915,0.523401,3.36514,0.65398,0.23198,0.9174
1702332183562500,-9.273915,0.510401,3.39414,0.67498,0.24198,0.2474
1702332183570312,-9.246915,0.508401,3.39214,0.68798,0.20498,0.2674
1702332183578125,-9.242915,0.486401,3.36914,0.89798,0.22798,0.21526
1702332183585937,-9.213915,0.475401,3.36314,0.92798,0.27198,0.21426
1702332183593750,-9.178915,0.475401,3.37814,0.98198,0.27298,0.37026
1702332183601562,-9.175915,0.474401,3.36314,0.116798,0.30498,0.43926
1702332183609375,-9.189915,0.483401,3.36014,0.129998,0.17198,0.56926
1702332183617187,-9.237915,0.477401,3.36914,0.145498,0.16398,0.66226
1702332183625000,-9.272915,0.443401,3.39614,0.147298,0.5002,0.72826
1702332183632812,-9.299915,0.423401,3.44414,0.151698,0.14902,0.85426
1702332183640625,-9.288915,0.396401,3.46014,0.153298,0.31902,0.95126
1702332183648437,-9.306915,0.381401,3.48214,0.165198,0.38702,0.98626
1702332183656250,-9.341915,0.347401,3.47314,0.168498,0.55802,0.100226
1702332183664062,-9.374915,0.331401,3.48714,0.175998,0.66402,0.95026
1702332183671875,-9.391915,0.253401,3.49414,0.173198,0.78202,0.98426
1702332183679687,-9.365915,0.216401,3.54314,0.165098,0.92202,0.103326
1702332183687500,-9.327915,0.184401,3.60414,0.163698,0.88802,0.104926
1702332183695312,-9.280915,0.193401,3.64014,0.150898,0.91602,0.106626
1702332183703125,-9.220915,0.194401,3.64514,0.142698,0.90402,0.101726
1702332183710937,-9.181915,0.186401,3.65614,0.147398,0.95402,0.104926
1702332183718750,-9.171915,0.157401,3.62214,0.142698,0.90402,0.101726
1702332183726562,-9.176915,0.110401,3.60214,0.127898,0.100402,0.100026
1702332183734375,-9.176915,0.100401,3.57014,0.116898,0.101302,0.103326
1702332183742187,-9.217915,0.106401,3.58614,0.117198,0.107202,0.105126
1702332183750000,-9.253915,0.99401,3.59114,0.107898,0.112902,0.100426
1702332183757812,-9.259915,0.88401,3.66114,0.101198,0.124402,0.98726
1702332183765625,-9.251915,0.59401,3.69214,0.88498,0.122602,0.93926
1702332183773437,-9.248915,0.27401,3.68814,0.79898,0.127402,0.86426
1702332183781250,-9.212915,0.25401,3.73314,0.55298,0.139302,0.78126
1702332183789062,-9.155915,0.31401,3.74414,0.39498,0.122502,0.80726
1702332183796875,-9.74915,0.51401,3.70814,0.40198,0.111902,0.74726
1702332183804687,-8.994915,0.66401,3.67614,0.21098,0.112802,0.86126
1702332183812500,-8.915915,0.86401,3.64714,0.1098,0.110702,0.89026
1702332183820312,-8.861915,0.96401,3.61314,0.13202,0.102202,0.97226
1702332183828125,-8.836915,0.121401,3.55014,0.10502,0.88802,0.100226
1702332183835937,-8.845915,0.150401,3.52714,0.11502,0.82802,0.115026
1702332183843750,-8.876915,0.192401,3.57514,0.11502,0.79002,0.122226
1702332183851562,-8.926915,0.232401,3.53814,0.7602,0.71502,0.125826
1702332183859375,-8.982915,0.236401,3.50514,0.18498,0.64602,0.126026
1702332183867187,-9.43915,0.222401,3.47814,0.34698,0.75502,0.129226
1702332183875000,-9.117915,0.171401,3.47314,0.38798,0.73602,0.127226
1702332183882812,-9.141915,0.144401,3.42614,0.38598,0.86802,0.114226
1702332183890625,-9.143915,0.96401,3.43014,0.40798,0.84202,0.119326
1702332183898437,-9.141915,0.54401,3.51814,0.37898,0.91402,0.121126
1702332183906250,-9.139915,0.7401,3.64214,0.42198,0.87602,0.122526
1702332183914062,-9.118915,0.6599,3.52514,0.44098,0.60202,0.129126
1702332183921875,-9.113915,0.51599,3.43914,0.33798,0.50302,0.128826
1702332183929687,-9.145915,0.74599,3.58214,0.22598,0.62302,0.140126
1702332183937500,-9.173915,0.103599,3.76714,0.38798,0.63502,0.151526
1702332183945312,-9.223915,0.107599,3.74214,0.50698,0.61802,0.157426
1702332183953125,-9.282915,0.125599,3.59714,0.39898,0.56202,0.164126
1702332183960937,-9.307915,0.144599,3.60414,0.26198,0.65202,0.166926
1702332183968750,-9.318915,0.144599,3.66314,0.34098,0.70202,0.166826
1702332183976562,-9.348915,0.170599,3.62714,0.25598,0.77702,0.165826
1702332183984375,-9.351915,0.185599,3.70114,0.12498,0.88902,0.173726
1702332183992187,-9.351915,0.210599,3.76714,0.7598,0.87302,0.178626
1702332184000000,-9.329915,0.216599,3.76914,0.11402,0.85202,0.177126
1702332184007812,-9.242915,0.221599,3.83514,0.42502,0.87402,0.183426
1702332184015625,-9.134915,0.216599,3.86614,0.59002,0.83402,0.178326
1702332184023437,-9.36915,0.233599,3.90414,0.64602,0.67902,0.174026
1702332184031250,-8.953915,0.248599,3.91114,0.63502,0.62602,0.168926
1702332184039062,-8.854915,0.297599,3.84614,0.64702,0.50702,0.174026
1702332184046875,-8.769915,0.340599,3.77114,0.66702,0.37402,0.173826
1702332184054687,-8.727915,0.399599,3.70314,0.77802,0.43302,0.175526
1702332184062500,-8.744915,0.441599,3.66914,0.87302,0.44102,0.191726
1702332184070312,-8.787915,0.488599,3.64714,0.95802,0.47902,0.191526
1702332184078125,-8.807915,0.529599,3.61714,0.97502,0.44702,0.197926
1702332184085937,-8.860915,0.580599,3.60214,0.94502,0.22902,0.205926
1702332184093750,-8.895915,0.583599,3.64514,0.91602,0.10702,0.215426
1702332184101562,-8.951915,0.535599,3.72414,0.101402,0.2902,0.218626
1702332184109375,-9.33915,0.466599,3.79614,0.96602,0.3398,0.217026
1702332184117187,-9.153915,0.426599,3.83014,0.88702,0.15898,0.221826
1702332184125000,-9.309915,0.406599,3.82614,0.86002,0.30898,0.228026
1702332184132812,-9.415915,0.422599,3.78914,0.97902,0.33898,0.220526
1702332184140625,-9.489915,0.422599,3.76914,0.109302,0.22298,0.209026
1702332184148437,-9.507915,0.447599,3.75314,0.127402,0.13798,0.202426
1702332184156250,-9.458915,0.463599,3.71714,0.141502,0.10898,0.191326
1702332184164062,-9.390915,0.465599,3.69214,0.153002,0.3802,0.181526
1702332184171875,-9.319915,0.457599,3.69214,0.170102,0.17402,0.164126
1702332184179687,-9.252915,0.431599,3.66514,0.176002,0.13702,0.149926
1702332184187500,-9.173915,0.421599,3.65814,0.187102,0.12302,0.133826
1702332184195312,-9.146915,0.432599,3.67214,0.187202,0.14302,0.120926
1702332184203125,-9.142915,0.454599,3.68814,0.211602,0.10402,0.99926
1702332184210937,-9.100915,0.469599,3.61814,0.222502,0.7198,0.90426
1702332184218750,-9.29915,0.510599,3.52914,0.217302,0.12098,0.79326
1702332184226562,-8.969915,0.587599,3.53614,0.214302,0.6798,0.67926
1702332184234375,-8.932915,0.608599,3.51414,0.204302,0.15198,0.63226
1702332184242187,-8.900915,0.601599,3.47714,0.209202,0.27598,0.64826
1702332184250000,-8.878915,0.583599,3.44114,0.220702,0.30398,0.66326
1702332184257812,-8.862915,0.562599,3.45914,0.212202,0.35998,0.69826
1702332184265625,-8.875915,0.549599,3.51114,0.201402,0.41798,0.80826
1702332184273437,-8.899915,0.534599,3.53414,0.211302,0.50698,0.77526
1702332184281250,-8.960915,0.524599,3.50514,0.207702,0.55998,0.77726
1702332184289062,-8.970915,0.496599,3.49614,0.218702,0.58898,0.85126
1702332184296875,-9.39915,0.468599,3.47114,0.216802,0.78198,0.88526
1702332184304687,-9.121915,0.445599,3.45314,0.218502,0.79798,0.88526
1702332184312500,-9.161915,0.417599,3.44114,0.225302,0.80698,0.89926
1702332184320312,-9.205915,0.394599,3.43214,0.222702,0.84498,0.92826
1702332184328125,-9.231915,0.368599,3.40814,0.216102,0.83198,0.91326
1702332184335937,-9.250915,0.352599,3.38314,0.215302,0.89098,0.86926
1702332184343750,-9.284915,0.366599,3.35614,0.216802,0.87498,0.78926
1702332184351562,-9.318915,0.372599,3.30414,0.216002,0.88698,0.74526
1702332184359375,-9.347915,0.369599,3.28614,0.219502,0.86498,0.69526
1702332184367187,-9.357915,0.347599,3.30614,0.218202,0.83798,0.48326
1702332184375000,-9.393915,0.330599,3.31714,0.218002,0.85698,0.45226
1702332184382812,-9.411915,0.312599,3.31714,0.217402,0.79998,0.34226
1702332184390625,-9.433915,0.306599,3.32214,0.211202,0.76198,0.21226
1702332184398437,-9.478915,0.324599,3.28614,0.213902,0.65398,0.4274
1702332184406250,-9.511915,0.336599,3.24714,0.215802,0.63198,0.10874
1702332184414062,-9.527915,0.343599,3.23614,0.222202,0.42598,0.17374
1702332184421875,-9.514915,0.351599,3.20214,0.224602,0.37198,0.37974
1702332184429687,-9.505915,0.355599,3.14114,0.227402,0.37298,0.53874
1702332184437500,-9.517915,0.353599,3.13014,0.248102,0.26298,0.73074
1702332184445312,-9.501915,0.355599,3.7114,0.255902,0.16798,0.95574
1702332184453125,-9.446915,0.338599,3.3714,0.251502,0.2998,0.115174
1702332184460937,-9.355915,0.320599,3.3714,0.256802,0.7498,0.135574
1702332184468750,-9.327915,0.320599,3.114,0.270202,0.2998,0.155174
1702332184476562,-9.260915,0.326599,3.314,0.269902,0.9398,0.163074
1702332184484375,-9.236915,0.285599,2.94214,0.265902,0.16798,0.173974
1702332184492187,-9.228915,0.264599,2.90414,0.267002,0.25798,0.180874
1702332184500000,-9.217915,0.232599,2.85214,0.268402,0.50198,0.164674
1702332184507812,-9.152915,0.139599,2.84714,0.264202,0.57098,0.156874
1702332184515625,-9.146915,0.66599,2.83814,0.251802,0.67798,0.142574
1702332184523437,-9.145915,0.13401,2.80214,0.229002,0.88798,0.131174
1702332184531250,-9.169915,0.78401,2.78414,0.201302,0.102298,0.118074
1702332184539062,-9.254915,0.164401,2.75514,0.189402,0.114498,0.108074
1702332184546875,-9.312915,0.223401,2.71414,0.158302,0.108098,0.99074
1702332184554687,-9.343915,0.271401,2.68314,0.139302,0.109098,0.100874
1702332184562500,-9.365915,0.318401,2.69614,0.117902,0.104998,0.105474
1702332184570312,-9.366915,0.371401,2.71014,0.101702,0.111598,0.97374
1702332184578125,-9.352915,0.433401,2.73514,0.77802,0.119198,0.89374
1702332184585937,-9.355915,0.490401,2.76914,0.58602,0.116998,0.102374
1702332184593750,-9.393915,0.545401,2.80914,0.40802,0.132898,0.102374
1702332184601562,-9.421915,0.610401,2.85014,0.6102,0.134198,0.101974
1702332184609375,-9.447915,0.646401,2.89514,0.22598,0.133598,0.105374
1702332184617187,-9.453915,0.697401,2.89514,0.40398,0.127398,0.103774
1702332184625000,-9.462915,0.730401,2.87714,0.56298,0.123998,0.100574
1702332184632812,-9.461915,0.745401,2.84814,0.70598,0.131498,0.100674
1702332184640625,-9.461915,0.748401,2.82714,0.93298,0.129998,0.105474
1702332184648437,-9.491915,0.732401,2.83414,0.117798,0.132198,0.103674
1702332184656250,-9.530915,0.681401,2.91814,0.139298,0.119998,0.116474
1702332184664062,-9.526915,0.628401,2.90414,0.140798,0.129298,0.118074
1702332184671875,-9.512915,0.564401,2.68314,0.131298,0.137398,0.119574
1702332184679687,-9.485915,0.491401,2.68714,0.122998,0.121198,0.124574
1702332184687500,-9.456915,0.432401,2.85714,0.118898,0.95698,0.121074
1702332184695312,-9.454915,0.372401,2.86614,0.129498,0.82398,0.110074
1702332184703125,-9.428915,0.335401,2.81614,0.144198,0.84298,0.105174
1702332184710937,-9.412915,0.295401,2.79314,0.145298,0.85298,0.95774
1702332184718750,-9.392915,0.275401,2.82514,0.144998,0.81998,0.86174
1702332184726562,-9.414915,0.247401,2.81614,0.144598,0.66698,0.77574
1702332184734375,-9.425915,0.200401,2.84814,0.166498,0.58198,0.63474
1702332184742187,-9.434915,0.173401,2.85014,0.153298,0.57898,0.55574
1702332184750000,-9.454915,0.170401,2.83614,0.131898,0.57698,0.41174
1702332184757812,-9.494915,0.174401,2.87314,0.117198,0.40298,0.31674
1702332184765625,-9.531915,0.172401,2.88814,0.106498,0.34998,0.28174
1702332184773437,-9.551915,0.181401,2.88614,0.90398,0.21398,0.13574
1702332184781250,-9.550915,0.202401,2.87914,0.92698,0.19798,0.14074
1702332184789062,-9.534915,0.220401,2.90214,0.73898,0.16098,0.8974
1702332184796875,-9.516915,0.247401,2.91314,0.67298,0.9598,0.5874
1702332184804687,-9.513915,0.269401,2.91314,0.62398,0.1798,0.3726
1702332184812500,-9.531915,0.295401,2.90014,0.52398,0.5098,0.26226
1702332184820312,-9.545915,0.298401,2.85514,0.47998,0.8302,0.28026
1702332184828125,-9.540915,0.296401,2.77614,0.47998,0.16002,0.34426
1702332184835937,-9.527915,0.287401,2.72614,0.38298,0.34702,0.44026
1702332184843750,-9.500915,0.278401,2.71714,0.41398,0.52102,0.48826
1702332184851562,-9.466915,0.268401,2.70514,0.39498,0.55402,0.56726
1702332184859375,-9.407915,0.277401,2.72614,0.37298,0.64102,0.59626
1702332184867187,-9.363915,0.260401,2.73514,0.34598,0.66202,0.67926
1702332184875000,-9.283915,0.264401,2.76414,0.23398,0.70602,0.74426
1702332184882812,-9.252915,0.254401,2.79814,0.39698,0.76402,0.87426
1702332184890625,-9.258915,0.244401,2.80214,0.39298,0.87802,0.93626
1702332184898437,-9.265915,0.233401,2.79614,0.40498,0.92702,0.111126
1702332184906250,-9.335915,0.192401,2.77514,0.38798,0.103502,0.125626
1702332184914062,-9.444915,0.140401,2.79614,0.40498,0.115502,0.143326
1702332184921875,-9.546915,0.94401,2.83014,0.39198,0.112902,0.161326
1702332184929687,-9.611915,0.69401,2.89714,0.43698,0.132102,0.173926
1702332184937500,-9.663915,0.62401,3.1714,0.47198,0.131402,0.182126
1702332184945312,-9.705915,0.63401,3.11214,0.51398,0.136902,0.191526
1702332184953125,-9.716915,0.85401,3.21214,0.43198,0.136902,0.196326
1702332184960937,-9.689915,0.143401,3.26614,0.33898,0.109602,0.196526
1702332184968750,-9.678915,0.187401,3.18214,0.18698,0.106202,0.191326
1702332184976562,-9.624915,0.192401,3.16014,0.18798,0.132602,0.192926
1702332184984375,-9.564915,0.194401,3.20914,0.35598,0.137902,0.188426
1702332184992187,-9.489915,0.223401,3.14814,0.15798,0.138902,0.183326
1702332185000000,-9.380915,0.231401,3.5114,0.14298,0.142102,0.172126
1702332185007812,-9.273915,0.225401,3.4614,0.8598,0.141302,0.156426
1702332185015625,-9.179915,0.181401,3.4614,0.5098,0.148202,0.149826
1702332185023437,-9.117915,0.147401,3.1514,0.11698,0.148302,0.136926
1702332185031250,-9.86915,0.108401,2.94214,0.15498,0.142702,0.134026
1702332185039062,-9.76915,0.44401,2.90614,0.31398,0.141802,0.125826
1702332185046875,-9.79915,0.35599,2.91714,0.40998,0.132402,0.125826
1702332185054687,-9.125915,0.86599,2.94514,0.42698,0.118102,0.127526
1702332185062500,-9.180915,0.143599,3.814,0.55498,0.102502,0.127526
1702332185070312,-9.242915,0.177599,3.1214,0.69298,0.92502,0.136826
1702332185078125,-9.326915,0.200599,2.99914,0.74398,0.84002,0.138626
1702332185085937,-9.403915,0.245599,2.97914,0.76398,0.79902,0.151726
1702332185093750,-9.455915,0.290599,2.93614,0.66598,0.77102,0.150026
1702332185101562,-9.455915,0.328599,2.92414,0.64498,0.79302,0.154626
1702332185109375,-9.438915,0.337599,2.96314,0.53398,0.82102,0.157926
1702332185117187,-9.406915,0.321599,2.99414,0.38598,0.85502,0.164226
1702332185125000,-9.397915,0.297599,2.98814,0.40298,0.85502,0.161026
1702332185132812,-9.359915,0.273599,2.97014,0.30998,0.84902,0.161226
1702332185140625,-9.334915,0.235599,2.98514,0.15098,0.87702,0.159726
1702332185148437,-9.324915,0.207599,2.99014,0.14398,0.87502,0.151326
1702332185156250,-9.313915,0.186599,2.97414,0.13498,0.88202,0.138826
1702332185164062,-9.305915,0.183599,2.96314,0.14498,0.84902,0.123926
1702332185171875,-9.285915,0.178599,2.97014,0.17798,0.83302,0.120726
1702332185179687,-9.263915,0.175599,3.314,0.21598,0.71602,0.111426
1702332185187500,-9.236915,0.208599,3.2114,0.23998,0.60302,0.112626
1702332185195312,-9.245915,0.253599,3.1014,0.33298,0.51702,0.102826
1702332185203125,-9.251915,0.308599,3.114,0.23998,0.43302,0.101426
1702332185210937,-9.236915,0.350599,2.99414,0.14698,0.41202,0.98326
1702332185218750,-9.234915,0.392599,2.98814,0.15898,0.38702,0.99726
1702332185226562,-9.253915,0.414599,3.1214,0.12898,0.39902,0.98226
1702332185234375,-9.268915,0.410599,3.1514,0.15898,0.38702,0.99726
1702332185242187,-9.284915,0.412599,3.1214,0.6798,0.36202,0.98426
1702332185250000,-9.295915,0.410599,3.3514,0.4898,0.39502,0.111226
1702332185257812,-9.300915,0.406599,3.6014,0.98,0.37602,0.116126
1702332185265625,-9.314915,0.410599,3.8514,0.4302,0.38602,0.114726
1702332185273437,-9.346915,0.441599,3.8014,0.5902,0.37002,0.114726
1702332185281250,-9.375915,0.471599,3.6414,0.12802,0.42302,0.119326
1702332185289062,-9.381915,0.490599,3.3514,0.25102,0.46902,0.125226
1702332185296875,-9.397915,0.501599,2.99914,0.37602,0.47902,0.123826
1702332185304687,-9.410915,0.504599,2.99714,0.35202,0.42502,0.139526
1702332185312500,-9.433915,0.501599,3.114,0.48902,0.42902,0.138326
1702332185320312,-9.442915,0.477599,3.1514,0.58502,0.42502,0.148026
1702332185328125,-9.457915,0.459599,3.1314,0.71302,0.42602,0.136826
1702332185335937,-9.453915,0.441599,3.2214,0.65002,0.37902,0.143226
1702332185343750,-9.441915,0.408599,3.3514,0.80702,0.36102,0.127326
1702332185351562,-9.443915,0.367599,3.2214,0.86502,0.27202,0.124426
1702332185359375,-9.434915,0.339599,3.2414,0.82002,0.34002,0.125926
1702332185367187,-9.408915,0.326599,3.314,0.86002,0.43302,0.122226
1702332185375000,-9.412915,0.315599,2.95814,0.80802,0.46202,0.107826
1702332185382812,-9.389915,0.308599,2.92214,0.68302,0.49902,0.110926
1702332185390625,-9.372915,0.280599,2.92714,0.67202,0.57702,0.106626
1702332185398437,-9.336915,0.283599,3.2114,0.61502,0.66802,0.106226
1702332185406250,-9.277915,0.253599,2.90414,0.61402,0.41602,0.103026
1702332185414062,-9.252915,0.230599,2.71214,0.64102,0.26702,0.95326
1702332185421875,-9.282915,0.248599,2.85414,0.62502,0.33302,0.88826
1702332185429687,-9.331915,0.254599,2.96714,0.56102,0.31702,0.88826
1702332185437500,-9.363915,0.285599,2.88114,0.26902,0.25102,0.90526
1702332185445312,-9.380915,0.274599,2.83214,0.12702,0.21102,0.83926
1702332185453125,-9.372915,0.278599,2.80914,0.13802,0.21702,0.89026
1702332185460937,-9.348915,0.326599,2.88414,0.902,0.18602,0.85826
1702332185468750,-9.338915,0.320599,2.85914,0.11298,0.19802,0.85426
1702332185476562,-9.364915,0.329599,2.85714,0.21898,0.24402,0.90726
1702332185484375,-9.400915,0.354599,2.85714,0.26598,0.34002,0.93826
1702332185492187,-9.411915,0.383599,2.85214,0.16498,0.36202,0.100026
1702332185500000,-9.463915,0.409599,2.86114,0.15898,0.40202,0.98126
1702332185507812,-9.465915,0.429599,2.90914,0.12698,0.37102,0.99726
1702332185515625,-9.468915,0.451599,2.92714,0.14498,0.38402,0.98226
1702332185523437,-9.475915,0.449599,2.96314,0.12998,0.40002,0.88626
1702332185531250,-9.484915,0.451599,3.314,0.14798,0.36602,0.90326
1702332185539062,-9.476915,0.430599,3.1714,0.9098,0.40002,0.85926
1702332185546875,-9.499915,0.435599,3.1514,0.10098,0.38202,0.74326
1702332185554687,-9.493915,0.417599,3.1514,0.502,0.52902,0.73026
1702332185562500,-9.482915,0.430599,3.2414,0.5898,0.64102,0.71326
1702332185570312,-9.447915,0.467599,2.99014,0.11298,0.52302,0.65226
1702332185578125,-9.396915,0.491599,2.92714,0.9398,0.57702,0.55426
1702332185585937,-9.360915,0.486599,2.96314,0.4698,0.67002,0.55426
1702332185593750,-9.319915,0.499599,2.96014,0.8998,0.69502,0.51926
1702332185601562,-9.273915,0.556599,2.89514,0.10598,0.64902,0.48726
1702332185609375,-9.218915,0.518599,2.90214,0.11698,0.70502,0.46826
1702332185617187,-9.221915,0.506599,2.91514,0.20598,0.59602,0.48926
1702332185625000,-9.191915,0.506599,2.90814,0.33098,0.50802,0.51926
1702332185632812,-9.206915,0.505599,2.89314,0.41998,0.37602,0.61226
1702332185640625,-9.244915,0.533599,2.85214,0.39698,0.42302,0.61726
1702332185648437,-9.259915,0.514599,2.86314,0.56798,0.40002,0.69426
1702332185656250,-9.313915,0.517599,2.86114,0.65198,0.36302,0.74426
1702332185664062,-9.364915,0.518599,2.87014,0.67898,0.38302,0.88626
1702332185671875,-9.411915,0.501599,2.92914,0.82498,0.47602,0.90326
1702332185679687,-9.471915,0.497599,2.94714,0.72898,0.42702,0.90326
1702332185687500,-9.498915,0.486599,2.99014,0.77998,0.51702,0.93726
1702332185695312,-9.568915,0.495599,3.1714,0.80198,0.58502,0.92426
1702332185703125,-9.546915,0.515599,3.3714,0.65298,0.59202,0.93826
1702332185710937,-9.518915,0.513599,3.2814,0.56698,0.57002,0.91926
1702332185718750,-9.508915,0.499599,2.92914,0.37998,0.49602,0.89026
1702332185726562,-9.446915,0.551599,2.92714,0.59598,0.72302,0.87726
1702332185734375,-9.424915,0.564599,2.98314,0.86698,0.65202,0.79426
1702332185742187,-9.403915,0.549599,2.88614,0.73598,0.70102,0.81026
1702332185750000,-9.336915,0.581599,2.86614,0.67498,0.74602,0.69826
1702332185757812,-9.240915,0.552599,2.97214,0.67998,0.75602,0.60426
1702332185765625,-9.209915,0.584599,2.99914,0.71998,0.64302,0.63226
1702332185773437,-9.238915,0.613599,2.96714,0.86298,0.61502,0.61526
1702332185781250,-9.243915,0.639599,2.96514,0.78298,0.61202,0.69626
1702332185789062,-9.230915,0.686599,2.90214,0.81298,0.59902,0.71126
1702332185796875,-9.228915,0.708599,2.92014,0.85998,0.58702,0.67826
1702332185804687,-9.257915,0.714599,2.92414,0.90098,0.42402,0.78726
1702332185812500,-9.308915,0.743599,2.90214,0.91598,0.39202,0.85126
1702332185820312,-9.354915,0.754599,2.88414,0.91998,0.38302,0.93526
1702332185828125,-9.375915,0.763599,2.88814,0.81098,0.47002,0.100126
1702332185835937,-9.395915,0.768599,2.91114,0.84098,0.42602,0.98426
1702332185843750,-9.429915,0.782599,2.93614,0.77698,0.50402,0.100026
1702332185851562,-9.433915,0.789599,2.97214,0.82398,0.49102,0.98326
1702332185859375,-9.440915,0.789599,2.99214,0.69698,0.58202,0.100026
1702332185867187,-9.430915,0.765599,3.2114,0.66098,0.55702,0.95026
1702332185875000,-9.435915,0.787599,3.314,0.71198,0.58602,0.88726
1702332185882812,-9.408915,0.782599,3.114,0.64798,0.57002,0.90326
1702332185890625,-9.349915,0.757599,3.614,0.64398,0.56102,0.88526
1702332185898437,-9.335915,0.762599,2.99214,0.62198,0.53002,0.80926
1702332185906250,-9.296915,0.769599,2.98514,0.58798,0.54902,0.80826
1702332185914062,-9.280915,0.790599,2.97414,0.69298,0.50602,0.73226
1702332185921875,-9.258915,0.769599,2.92914,0.66398,0.54302,0.72526
1702332185929687,-9.256915,0.759599,2.93614,0.63698,0.42502,0.68026
1702332185937500,-9.309915,0.799599,2.89714,0.64198,0.34702,0.73926
1702332185945312,-9.291915,0.794599,2.86614,0.43698,0.45402,0.56426
1702332185953125,-9.291915,0.774599,2.88114,0.58298,0.45102,0.64526
1702332185960937,-9.326915,0.816599,2.86614,0.63098,0.29502,0.59726
1702332185968750,-9.378915,0.823599,2.82514,0.50598,0.27402,0.59926
1702332185976562,-9.374915,0.822599,2.83214,0.51098,0.29102,0.62526
1702332185984375,-9.404915,0.844599,2.82514,0.45398,0.35802,0.58126
1702332185992187,-9.420915,0.842599,2.85714,0.54898,0.37602,0.59626
1702332186000000,-9.444915,0.857599,2.88414,0.54398,0.34202,0.61826
1702332186007812,-9.459915,0.857599,2.91114,0.53798,0.38202,0.64726
1702332186015625,-9.472915,0.854599,2.96514,0.54798,0.32902,0.66026
1702332186023437,-9.458915,0.850599,3.3114,0.44798,0.35102,0.64226
1702332186031250,-9.391915,0.819599,3.8914,0.38698,0.34502,0.66026
1702332186039062,-9.314915,0.772599,3.16114,0.40598,0.29602,0.56526
1702332186046875,-9.224915,0.721599,3.18414,0.39098,0.26202,0.56626
1702332186054687,-9.163915,0.672599,3.21114,0.40898,0.13402,0.51826
1702332186062500,-9.138915,0.642599,3.19314,0.45598,0.2098,0.53426
1702332186070312,-9.121915,0.641599,3.13414,0.38598,0.15198,0.48326
1702332186078125,-9.109915,0.653599,3.6214,0.47198,0.22298,0.42226
1702332186085937,-9.140915,0.675599,2.95614,0.47298,0.44398,0.42226
1702332186093750,-9.195915,0.722599,2.87014,0.60698,0.63998,0.39326
1702332186101562,-9.270915,0.774599,2.85414,0.72198,0.89498,0.36226
1702332186109375,-9.338915,0.831599,2.85414,0.82798,0.107298,0.39126
1702332186117187,-9.419915,0.883599,2.87014,0.88598,0.117298,0.40526
1702332186125000,-9.477915,0.913599,2.89114,0.94898,0.118998,0.54926
1702332186132812,-9.512915,0.978599,2.84114,0.97898,0.115498,0.54826
1702332186140625,-9.541915,0.998599,2.86614,0.107898,0.114298,0.51726
1702332186148437,-9.528915,1.34599,2.80914,0.101098,0.102798,0.49926
1702332186156250,-9.505915,1.58599,2.73914,0.115398,0.92498,0.53826
1702332186164062,-9.484915,1.80599,2.65314,0.127098,0.84098,0.48326
1702332186171875,-9.444915,1.112599,2.57414,0.141898,0.71998,0.46826
1702332186179687,-9.414915,1.115599,2.56514,0.145898,0.65098,0.37526
1702332186187500,-9.373915,1.162599,2.61914,0.161298,0.57598,0.35526
1702332186195312,-9.340915,1.152599,2.50214,0.161498,0.76498,0.22826
1702332186203125,-9.332915,1.64599,2.36414,0.147398,0.78298,0.8526
1702332186210937,-9.376915,1.96599,2.42114,0.147098,0.63198,0.7774
1702332186218750,-9.377915,1.71599,2.51514,0.129998,0.51598,0.13974
1702332186226562,-9.435915,0.961599,2.59214,0.146098,0.32698,0.12374
1702332186234375,-9.512915,0.971599,2.46614,0.151298,0.37498,0.31574
1702332186242187,-9.538915,0.898599,2.32814,0.139098,0.8498,0.39374
1702332186250000,-9.483915,0.944599,2.46414,0.147298,0.24202,0.37674
1702332186257812,-9.433915,0.944599,2.49314,0.146698,0.39402,0.38074
1702332186265625,-9.489915,0.913599,2.47914,0.145798,0.54102,0.42574
1702332186273437,-9.541915,0.890599,2.51814,0.143698,0.83402,0.49274
1702332186281250,-9.555915,0.881599,2.55014,0.121698,0.93402,0.50674
1702332186289062,-9.535915,0.899599,2.60414,0.114698,0.102102,0.44474
1702332186296875,-9.482915,0.929599,2.68514,0.102198,0.109202,0.44274
1702332186304687,-9.422915,0.949599,2.78414,0.96498,0.114602,0.51974
1702332186312500,-9.365915,0.975599,2.80514,0.94798,0.119302,0.50374
1702332186320312,-9.345915,1.4599,2.78414,0.94898,0.114602,0.55274
1702332186328125,-9.354915,1.22599,2.75014,0.78598,0.116602,0.60174
1702332186335937,-9.340915,1.29599,2.69214,0.71698,0.121802,0.50674
1702332186343750,-9.260915,1.38599,2.67414,0.62198,0.127702,0.50574
1702332186351562,-9.186915,1.33599,2.70114,0.42698,0.134302,0.50674
1702332186359375,-9.136915,1.30599,2.72814,0.36298,0.135502,0.39374
1702332186367187,-9.94915,1.14599,2.73914,0.11798,0.131102,0.34674
1702332186375000,-9.73915,0.980599,2.73014,0.7202,0.116102,0.23174
1702332186382812,-9.106915,0.934599,2.70314,0.30302,0.115602,0.26674
1702332186390625,-9.235915,0.907599,2.67614,0.52902,0.110602,0.15374
1702332186398437,-9.389915,0.892599,2.65314,0.63002,0.109602,0.15574
1702332186406250,-9.492915,0.883599,2.63514,0.69602,0.95602,0.9174
1702332186414062,-9.536915,0.909599,2.67414,0.104802,0.86902,0.3926
1702332186421875,-9.601915,0.975599,2.75514,0.120002,0.78002,0.21326
1702332186429687,-9.645915,1.17599,2.80914,0.134302,0.46302,0.23126
1702332186437500,-9.657915,1.74599,2.84314,0.138802,0.39502,0.21626
1702332186445312,-9.660915,1.99599,2.81814,0.144102,0.33902,0.23026
1702332186453125,-9.638915,1.103599,2.76414,0.151702,0.41102,0.21626
1702332186460937,-9.579915,1.80599,2.67814,0.152002,0.38202,0.23126
1702332186468750,-9.505915,1.54599,2.61914,0.156502,0.53502,0.21726
1702332186476562,-9.429915,0.990599,2.60114,0.154102,0.59302,0.32526
1702332186484375,-9.353915,0.924599,2.57014,0.151902,0.59602,0.45726
1702332186492187,-9.293915,0.855599,2.58314,0.157502,0.59202,0.46926
1702332186500000,-9.229915,0.794599,2.53114,0.165702,0.44802,0.61426
1702332186507812,-9.215915,0.741599,2.40714,0.165802,0.41602,0.74326
1702332186515625,-9.203915,0.721599,2.48614,0.143402,0.48102,0.77426
1702332186523437,-9.249915,0.671599,2.52914,0.116302,0.43702,0.82126
1702332186531250,-9.296915,0.625599,2.50214,0.114502,0.40202,0.87026
1702332186539062,-9.335915,0.578599,2.51614,0.118102,0.36202,0.78826
1702332186546875,-9.385915,0.553599,2.56114,0.117002,0.41902,0.72126
1702332186554687,-9.438915,0.546599,2.59014,0.103102,0.42202,0.61326
1702332186562500,-9.480915,0.547599,2.61714,0.93702,0.47902,0.43326
1702332186570312,-9.532915,0.556599,2.64014,0.88302,0.43902,0.38826
1702332186578125,-9.575915,0.563599,2.66014,0.84702,0.48802,0.14826
1702332186585937,-9.579915,0.577599,2.66514,0.63602,0.39502,0.6074
1702332186593750,-9.552915,0.601599,2.70314,0.60902,0.42302,0.17574
1702332186601562,-9.565915,0.620599,2.70814,0.45402,0.42402,0.21974
1702332186609375,-9.550915,0.648599,2.68314,0.31202,0.50002,0.32574
1702332186617187,-9.502915,0.668599,2.66914,0.16302,0.50502,0.34874
1702332186625000,-9.474915,0.683599,2.63514,0.5298,0.54702,0.52274
1702332186632812,-9.463915,0.689599,2.60614,0.10798,0.54902,0.42274
1702332186640625,-9.466915,0.702599,2.60614,0.22098,0.53402,0.45474
1702332186648437,-9.471915,0.724599,2.59914,0.27098,0.54602,0.42174
1702332186656250,-9.452915,0.751599,2.59714,0.38798,0.58002,0.39574
1702332186664062,-9.446915,0.785599,2.60614,0.41998,0.54802,0.36374
1702332186671875,-9.442915,0.792599,2.59214,0.41098,0.52002,0.31174
1702332186679687,-9.431915,0.811599,2.60814,0.41898,0.45502,0.34774
1702332186687500,-9.437915,0.807599,2.58314,0.36898,0.55102,0.25274
1702332186695312,-9.413915,0.792599,2.58114,0.42598,0.55402,0.32874
1702332186703125,-9.399915,0.761599,2.56514,0.31398,0.61702,0.37674
1702332186710937,-9.381915,0.741599,2.57414,0.30998,0.63902,0.39474
1702332186718750,-9.367915,0.715599,2.57014,0.29398,0.59202,0.41074
1702332186726562,-9.339915,0.688599,2.57614,0.27698,0.56502,0.55574
1702332186734375,-9.333915,0.665599,2.61714,0.31598,0.58702,0.60174
1702332186742187,-9.314915,0.636599,2.66714,0.21798,0.62202,0.66674
1702332186750000,-9.283915,0.613599,2.69214,0.22098,0.52702,0.77774
1702332186757812,-9.276915,0.595599,2.72314,0.20598,0.60502,0.84174
1702332186765625,-9.310915,0.560599,2.75314,0.14998,0.62402,0.90174
1702332186773437,-9.392915,0.558599,2.75314,0.402,0.71802,0.97074
1702332186781250,-9.434915,0.538599,2.74114,0.14402,0.83702,0.103274
1702332186789062,-9.460915,0.546599,2.75114,0.7002,0.80302,0.106874
1702332186796875,-9.525915,0.560599,2.79314,0.20002,0.86902,0.113374
1702332186804687,-9.589915,0.590599,2.85414,0.29202,0.81702,0.122774
1702332186812500,-9.623915,0.617599,2.92014,0.32702,0.85502,0.130974
1702332186820312,-9.610915,0.654599,2.93114,0.51702,0.74102,0.138874
1702332186828125,-9.615915,0.679599,2.95614,0.63702,0.71802,0.131174
1702332186835937,-9.656915,0.714599,2.95214,0.64702,0.72502,0.134074
1702332186843750,-9.669915,0.744599,2.92914,0.79602,0.84002,0.126174
1702332186851562,-9.648915,0.749599,2.91114,0.82402,0.81402,0.113074
1702332186859375,-9.605915,0.749599,2.88414,0.87502,0.86002,0.95474
1702332186867187,-9.533915,0.746599,2.83414,0.94602,0.88402,0.87774
1702332186875000,-9.484915,0.732599,2.84114,0.100802,0.78402,0.79574
1702332186882812,-9.402915,0.684599,2.80914,0.97802,0.76702,0.61974
1702332186890625,-9.316915,0.643599,2.78714,0.109602,0.67602,0.39574
1702332186898437,-9.264915,0.590599,2.77714,0.115302,0.50902,0.14174
1702332186906250,-9.246915,0.538599,2.75714,0.113202,0.46802,0.9074
1702332186914062,-9.206915,0.480599,2.73914,0.113702,0.42202,0.21326
1702332186921875,-9.189915,0.432599,2.70514,0.111302,0.44602,0.41826
1702332186929687,-9.188915,0.359599,2.69814,0.115002,0.45002,0.49726
1702332186937500,-9.214915,0.286599,2.67814,0.113102,0.39402,0.67626
1702332186945312,-9.247915,0.233599,2.65314,0.99902,0.37202,0.74226
1702332186953125,-9.275915,0.189599,2.68514,0.90702,0.37702,0.83626
1702332186960937,-9.313915,0.172599,2.75014,0.90702,0.43902,0.86826
1702332186968750,-9.356915,0.153599,2.84114,0.79002,0.41702,0.88626
1702332186976562,-9.378915,0.145599,2.66714,0.68102,0.22102,0.82026
1702332186984375,-9.388915,0.148599,2.56314,0.75402,0.13202,0.75926
1702332186992187,-9.426915,0.182599,2.74614,0.67502,0.32502,0.61326
1702332187000000,-9.451915,0.205599,2.85214,0.61002,0.37602,0.50026
1702332187007812,-9.462915,0.241599,2.73714,0.41702,0.29802,0.46826
1702332187015625,-9.454915,0.310599,2.68314,0.39002,0.37202,0.40126
1702332187023437,-9.450915,0.334599,2.67614,0.35402,0.16102,0.38726
1702332187031250,-9.442915,0.382599,2.73514,0.35502,0.28902,0.40226
1702332187039062,-9.415915,0.433599,2.76914,0.10002,0.24702,0.36926
1702332187046875,-9.430915,0.450599,2.74414,0.3002,0.14202,0.43626
1702332187054687,-9.468915,0.444599,2.73714,0.6798,0.21602,0.53326
1702332187062500,-9.485915,0.429599,2.76214,0.14598,0.23302,0.67726
1702332187070312,-9.483915,0.426599,2.73214,0.13298,0.28902,0.74326
1702332187078125,-9.460915,0.423599,2.67114,0.13998,0.25402,0.85126
1702332187085937,-9.461915,0.429599,2.62014,0.29098,0.29102,0.90226
1702332187093750,-9.479915,0.447599,2.62014,0.40398,0.36802,0.88626
1702332187101562,-9.486915,0.460599,2.62014,0.40098,0.40202,0.103026
1702332187109375,-9.504915,0.487599,2.61314,0.41598,0.29302,0.101326
1702332187117187,-9.542915,0.497599,2.55214,0.39698,0.31102,0.110926
1702332187125000,-9.586915,0.519599,2.56114,0.59698,0.37902,0.116026
1702332187132812,-9.622915,0.544599,2.62414,0.60998,0.38102,0.122326
1702332187140625,-9.649915,0.559599,2.62914,0.64898,0.57402,0.125826
1702332187148437,-9.618915,0.597599,2.62014,0.75298,0.60102,0.139926
1702332187156250,-9.571915,0.623599,2.60814,0.71898,0.55702,0.139826
1702332187164062,-9.536915,0.648599,2.66014,0.64598,0.70002,0.145026
1702332187171875,-9.568915,0.680599,2.88814,0.78798,0.71802,0.152926
1702332187179687,-9.622915,0.743599,2.89514,0.89498,0.64502,0.170326
1702332187187500,-9.546915,0.796599,2.65614,0.92198,0.61102,0.174126
1702332187195312,-9.453915,0.818599,2.65314,0.72098,0.81402,0.165626
1702332187203125,-9.384915,0.826599,2.75914,0.60798,0.73602,0.164026
1702332187210937,-9.367915,0.856599,2.77114,0.65998,0.66802,0.162626
1702332187218750,-9.371915,0.857599,2.73214,0.68698,0.69302,0.154326
1702332187226562,-9.363915,0.860599,2.68314,0.70798,0.65202,0.161026
1702332187234375,-9.362915,0.836599,2.63514,0.72698,0.82402,0.149826
1702332187242187,-9.314915,0.791599,2.62614,0.70998,0.92102,0.144926
1702332187250000,-9.251915,0.763599,2.63314,0.65098,0.93102,0.133926
1702332187257812,-9.191915,0.751599,2.64214,0.64998,0.93502,0.124226
1702332187265625,-9.119915,0.731599,2.66714,0.60098,0.93902,0.111226
1702332187273437,-9.55915,0.690599,2.59714,0.53198,0.74402,0.101426
1702332187281250,-9.73915,0.655599,2.52414,0.46098,0.84502,0.77726
1702332187289062,-9.100915,0.686599,2.63314,0.60898,0.86202,0.52026
1702332187296875,-9.158915,0.685599,2.71014,0.70498,0.80402,0.43926
1702332187304687,-9.243915,0.679599,2.65114,0.73898,0.66502,0.24626
1702332187312500,-9.360915,0.707599,2.69414,0.66298,0.64402,0.8826
1702332187320312,-9.469915,0.784599,2.69214,0.76198,0.67602,0.774
1702332187328125,-9.477915,0.849599,2.55814,0.89098,0.64502,0.7174
1702332187335937,-9.519915,0.856599,2.59914,0.87198,0.63602,0.13774
1702332187343750,-9.569915,0.885599,2.64414,0.74698,0.64602,0.11974
1702332187351562,-9.619915,0.969599,2.73914,0.77198,0.70502,0.18774
1702332187359375,-9.633915,1.53599,2.76414,0.59298,0.83302,0.12474
1702332187367187,-9.544915,1.25599,2.82514,0.46498,0.91102,0.14074
1702332187375000,-9.526915,1.50599,2.89114,0.42998,0.96002,0.9374
1702332187382812,-9.441915,1.45599,2.86814,0.29198,0.94802,0.2574
1702332187390625,-9.361915,1.73599,2.81414,0.6098,0.92302,0.1174
1702332187398437,-9.267915,1.103599,2.76614,0.18202,0.107802,0.16526
1702332187406250,-9.190915,1.44599,2.75914,0.44202,0.117402,0.22826
1702332187414062,-9.126915,1.91599,2.73914,0.59802,0.113002,0.36026
1702332187421875,-9.67915,1.42599,2.72514,0.79702,0.126402,0.37326
1702332187429687,-9.106915,1.87599,2.67314,0.102102,0.145102,0.37326
1702332187437500,-9.97915,1.3599,2.65314,0.119802,0.179702,0.30926
1702332187445312,-9.188915,0.869599,2.70314,0.112802,0.199402,0.26326
1702332187453125,-9.276915,0.788599,2.80014,0.114202,0.202202,0.26426
1702332187460937,-9.349915,0.737599,2.79314,0.119402,0.193502,0.24626
1702332187468750,-9.454915,0.680599,2.81614,0.131802,0.196102,0.13526
1702332187476562,-9.573915,0.724599,2.81814,0.142902,0.185002,0.2426
1702332187484375,-9.699915,0.614599,2.87014,0.139902,0.212502,0.12274
1702332187492187,-9.691915,0.588599,3.1714,0.114602,0.207102,0.12574
1702332187500000,-9.701915,0.699599,2.90714,0.129602,0.178002,0.19174
1702332187507812,-9.714915,0.653599,2.93814,0.126102,0.172502,0.39174
1702332187515625,-9.727915,0.741599,3.4714,0.112502,0.157002,0.50874
1702332187523437,-9.689915,0.841599,3.3714,0.120502,0.142602,0.47574
1702332187531250,-9.610915,0.978599,3.5514,0.134002,0.159402,0.47974
1702332187539062,-9.444915,1.119599,3.4014,0.145102,0.165002,0.41374
1702332187546875,-9.467915,1.5599,2.97214,0.145402,0.176402,0.33474
1702332187554687,-9.399915,0.955599,3.15914,0.132302,0.199002,0.9274
1702332187562500,-9.288915,1.17599,3.14314,0.176102,0.183102,0.13226
1702332187570312,-9.247915,0.881599,3.16614,0.172702,0.166402,0.40726
1702332187578125,-9.217915,0.964599,3.23614,0.184202,0.161202,0.69726
1702332187585937,-9.161915,1.19599,3.18814,0.212102,0.158302,0.93626
1702332187593750,-9.139915,1.41599,3.26114,0.222002,0.166402,0.99926
1702332187601562,-9.127915,1.26599,3.21314,0.259602,0.168902,0.94826
1702332187609375,-9.167915,0.784599,3.21314,0.240602,0.182602,0.92226
1702332187617187,-9.163915,0.709599,3.19514,0.233102,0.186302,0.104926
1702332187625000,-9.128915,0.623599,3.5314,0.222502,0.193702,0.106126
1702332187632812,-9.122915,0.629599,2.96314,0.223302,0.187902,0.98526
1702332187640625,-9.132915,0.455599,2.98714,0.219302,0.168902,0.96526
1702332187648437,-9.250915,0.453599,2.99714,0.208102,0.142402,0.93226
1702332187656250,-9.262915,0.492599,2.94214,0.209402,0.129802,0.72526
1702332187664062,-9.268915,0.409599,3.2114,0.191902,0.109902,0.65926
1702332187671875,-9.343915,0.492599,3.3314,0.184102,0.86902,0.61026
1702332187679687,-9.298915,0.486599,3.4214,0.162702,0.82002,0.41926
1702332187687500,-9.272915,0.586599,3.6914,0.159802,0.63902,0.25626
1702332187695312,-9.261915,0.539599,3.3914,0.165102,0.58402,0.9274
1702332187703125,-9.288915,0.407599,3.14814,0.144502,0.66702,0.4574
1702332187710937,-9.185915,0.394599,3.25414,0.141302,0.62002,0.2974
1702332187718750,-9.186915,0.404599,3.12514,0.136002,0.35802,0.5326
1702332187726562,-9.233915,0.492599,3.2414,0.130202,0.38302,0.11426
1702332187734375,-9.248915,0.569599,3.814,0.113902,0.55002,0.22826
1702332187742187,-9.216915,0.702599,3.4214,0.99902,0.62402,0.12826
1702332187750000,-9.406915,0.499599,3.9214,0.114002,0.42902,0.9926
1702332187757812,-9.387915,0.487599,3.7314,0.115002,0.43902,0.23926
1702332187765625,-9.332915,0.500599,3.1514,0.105602,0.59302,0.29326
1702332187773437,-9.318915,0.502599,2.99714,0.88702,0.76002,0.40226
1702332187781250,-9.324915,0.553599,2.99214,0.82202,0.66302,0.48326
1702332187789062,-9.233915,0.523599,2.92714,0.103202,0.80602,0.46626
1702332187796875,-9.146915,0.504599,2.99214,0.83902,0.91402,0.56226
1702332187804687,-9.126915,0.618599,3.1214,0.60802,0.79602,0.53326
1702332187812500,-9.11915,0.743599,2.96714,0.75802,0.69302,0.54726
1702332187820312,-9.233915,0.369599,2.88814,0.55002,0.76102,0.48126
1702332187828125,-9.225915,0.213599,3.26314,0.13398,0.85602,0.66126
