time,Acceleration X (m/s^2),Acceleration Y (m/s^2),Acceleration Z (m/s^2),Angular Velocity X (rad/s),Angular Velocity Y (rad/s),Angular Velocity Z (rad/s)
1700753422585937,-9.702455,5.937369,-0.456538,-1.37815,,
1700753422593750,-9.581455,0.718575,5.413369,0.453038,-1.47225,0.4876
1700753422601562,-9.724455,-1.711575,4.77369,0.733938,-1.3985,0.1736
1700753422609375,-10.70455,-1.517575,2.706369,0.792638,0.61275,0.1554
1700753422617187,-9.714455,-1.134575,1.477369,0.677638,0.45555,0.1946
1700753422625000,-8.990455,-1.107575,0.970369,0.369938,0.59715,0.3696
1700753422640625,-9.705455,0.638575,2.242369,0.193662,0.63705,0.21154
1700753422648437,-10.43455,0.3425,4.237369,0.313362,0.43715,0.23554
1700753422656250,-10.145455,0.216425,6.378369,0.126762,0.5735,0.25274
1700753422664062,-10.255455,0.206425,7.6369,0.163438,0.17625,0.25894
1700753422687500,-10.616455,0.107575,4.822369,0.189138,0.61285,0.10904
1700753422695312,-10.543455,0.240575,4.495369,0.229238,0.50845,0.9894
1700753422703125,-10.583455,0.404575,4.233369,0.272438,0.32295,0.11474
1700753422710937,-10.606455,0.565575,4.725369,0.214938,0.24415,0.15494
1700753422718750,-10.602455,0.727575,5.669369,0.136638,0.15355,0.17734
1700753422726562,-10.337455,0.862575,6.426369,0.111838,0.3595,0.11984
1700753422734375,-10.304455,0.960575,6.570369,0.98938,0.1355,0.7634
1700753422742187,-10.587455,0.781575,6.385369,0.43138,0.10075,0.4924
1700753422750000,-10.728455,0.644575,6.110369,0.36038,0.19525,0.6544
1700753422757812,-11.23455,0.633575,6.11369,0.21338,0.24025,0.7994
1700753422765625,-10.557455,0.558575,6.252369,0.5638,0.21455,0.3226
1700753422773437,-10.219455,0.700575,6.432369,0.30062,0.16035,0.8206
1700753422781250,-10.184455,0.743575,6.719369,0.36462,0.12515,0.11266
1700753422789062,-10.275455,0.761575,6.421369,0.6762,0.11585,0.8076
1700753422796875,-10.569455,0.464575,6.487369,0.54862,0.19355,0.2776
1700753422804687,-10.142455,0.164575,6.489369,0.68562,0.20525,0.14276
1700753422812500,-9.865455,0.524575,6.303369,0.71962,0.19575,0.20876
1700753422820312,-10.216455,0.606575,5.976369,0.107562,0.14995,0.16586
1700753422828125,-10.697455,0.227575,6.96369,0.144862,0.17935,0.6346
1700753422835937,-10.709455,0.178575,6.220369,0.133462,0.17625,0.5706
1700753422843750,-10.135455,0.545575,6.349369,0.145862,0.20425,0.11626
1700753422851562,-9.770455,0.940575,6.270369,0.131262,0.15625,0.13556
1700753422859375,-10.38455,0.659575,5.920369,0.148962,0.9515,0.4746
1700753422867187,-9.885455,0.575575,5.759369,0.140662,0.11715,0.2836
1700753422875000,-9.218455,0.609575,5.666369,0.128062,0.13595,0.9026
1700753422882812,-8.834455,0.514575,5.706369,0.139262,0.11355,0.12736
1700753422890625,-8.753455,0.547575,5.406369,0.117762,0.6005,0.9046
1700753422898437,-9.239455,0.95575,5.284369,0.147762,0.10615,0.706
1700753422906250,-9.164455,0.30425,5.445369,0.141962,0.16165,0.6646
1700753422914062,-9.273455,0.75425,5.354369,0.142262,0.13815,0.9366
1700753422921875,-9.304455,0.8425,5.210369,0.138462,0.14995,0.8596
1700753422929687,-9.93455,0.251575,5.205369,0.139162,0.19295,0.8726
1700753422937500,-8.806455,0.384575,5.266369,0.123062,0.19605,0.9206
1700753422945312,-8.604455,0.283575,5.300369,0.122762,0.12765,0.10016
1700753422953125,-8.324455,0.304575,5.128369,0.96162,0.8625,0.12876
1700753422960937,-8.45455,0.507575,4.902369,0.92162,0.4945,0.12096
1700753422968750,-7.799455,0.452575,4.656369,0.91262,0.5055,0.10526
1700753422976562,-7.475455,0.292575,4.630369,0.79962,0.7385,0.13196
1700753422984375,-7.220455,0.289575,4.526369,0.63162,0.1385,0.14506
1700753422992187,-7.389455,0.334575,4.267369,0.37962,0.715,0.12296
1700753423000000,-7.465455,0.507575,4.271369,0.80862,0.3355,0.13046
1700753423007812,-7.419455,0.553575,4.240369,0.72062,0.5905,0.13556
1700753423015625,-7.70455,0.727575,4.16369,0.25162,0.10905,0.14036
1700753423023437,-7.121455,0.399575,3.788369,0.16462,0.14815,0.10996
1700753423031250,-7.365455,0.426575,3.585369,0.8062,0.16185,0.10686
1700753423039062,-7.341455,0.443575,3.478369,0.61862,0.18425,0.8806
1700753423046875,-7.231455,0.520575,3.546369,0.75062,0.22055,0.10076
1700753423054687,-6.951455,0.644575,3.379369,0.68462,0.28265,0.12166
1700753423062500,-6.788455,0.667575,3.408369,0.65662,0.29285,0.12136
1700753423070312,-6.640455,0.557575,3.548369,0.67362,0.33705,0.12126
1700753423078125,-6.783455,0.413575,3.521369,0.16562,0.39865,0.12476
1700753423085937,-6.656455,0.521575,3.372369,0.7662,0.40255,0.14206
1700753423093750,-6.566455,0.351575,3.351369,0.4538,0.36175,0.13936
1700753423101562,-6.571455,0.188575,3.315369,0.3638,0.34345,0.17126
1700753423109375,-6.427455,0.93575,3.286369,0.49938,0.31675,0.20166
1700753423117187,-5.954455,0.100575,3.105369,0.70938,0.29855,0.17596
1700753423125000,-5.654455,0.107575,2.876369,0.87338,0.27895,0.12286
1700753423132812,-5.442455,0.158575,2.707369,0.59038,0.34525,0.13436
1700753423140625,-5.467455,0.7575,2.705369,0.9938,0.42755,0.11536
1700753423148437,-5.622455,0.106575,2.682369,0.11962,0.51245,0.13486
1700753423156250,-5.932455,0.183575,2.691369,0.37562,0.55915,0.13816
1700753423164062,-6.220455,0.272575,2.755369,0.52662,0.54575,0.14916
1700753423171875,-6.451455,0.420575,2.845369,0.52062,0.50455,0.15846
1700753423179687,-6.572455,0.661575,2.861369,0.1662,0.47515,0.17806
1700753423187500,-6.554455,0.803575,2.798369,0.17838,0.48295,0.17166
1700753423195312,-6.479455,0.617575,2.733369,0.43038,0.52645,0.16956
1700753423203125,-6.535455,0.586575,2.753369,0.28438,0.60275,0.16856
1700753423210937,-6.499455,0.640575,2.766369,0.7838,0.64995,0.13806
1700753423218750,-6.680455,0.599575,2.938369,0.538,0.66315,0.12876
1700753423226562,-6.759455,0.574575,3.142369,0.10862,0.71505,0.13826
1700753423234375,-6.833455,0.570575,3.87369,0.2738,0.74255,0.12726
1700753423242187,-6.710455,0.599575,2.959369,0.22938,0.71585,0.11236
1700753423250000,-6.493455,0.534575,2.967369,0.50838,0.70745,0.10456
1700753423257812,-6.518455,0.560575,2.911369,0.72938,0.73155,0.11076
1700753423265625,-6.412455,0.588575,2.954369,0.60538,0.74505,0.10936
1700753423273437,-6.341455,0.534575,2.918369,0.64038,0.77355,0.8526
1700753423281250,-6.406455,0.463575,2.841369,0.63338,0.76265,0.8566
1700753423289062,-6.401455,0.427575,2.897369,0.36938,0.78695,0.9186
1700753423296875,-6.557455,0.613575,2.897369,0.4762,0.87165,0.9016
1700753423304687,-6.742455,0.789575,2.841369,0.38162,0.92235,0.10806
1700753423312500,-7.50455,-1.45575,2.826369,0.38662,0.91005,0.12396
1700753423320312,-7.420455,-1.197575,2.885369,0.61662,0.88435,0.10926
1700753423328125,-7.659455,-1.231575,2.923369,0.112662,0.87585,0.9516
1700753423335937,-7.736455,-1.177575,2.885369,0.159762,0.88935,0.8206
1700753423343750,-7.801455,-1.8575,2.711369,0.188362,0.90635,0.6606
1700753423351562,-7.988455,-1.24575,2.560369,0.229762,0.89265,0.7606
1700753423359375,-8.258455,-1.147575,2.607369,0.266362,0.88755,0.9816
1700753423367187,-8.609455,-1.165575,2.497369,0.279062,0.88845,0.11276
1700753423375000,-8.848455,-1.34575,2.355369,0.285962,0.86845,0.12706
1700753423382812,-9.7455,0.979575,2.217369,0.279362,0.87155,0.17556
1700753423390625,-9.128455,-1.16575,2.172369,0.268662,0.85795,0.19296
1700753423398437,-9.287455,-1.575,1.987369,0.242462,0.86045,0.18996
1700753423406250,-9.454455,0.916575,1.861369,0.244862,0.85235,0.19116
1700753423414062,-9.604455,0.898575,1.809369,0.242962,0.82025,0.19456
1700753423421875,-9.647455,0.855575,1.723369,0.243162,0.81125,0.19286
1700753423429687,-9.709455,0.799575,1.648369,0.209962,0.79185,0.19416
1700753423437500,-9.666455,0.743575,1.655369,0.175162,0.77245,0.19716
1700753423445312,-9.566455,0.638575,1.709369,0.146062,0.75815,0.19556
1700753423453125,-9.467455,0.536575,1.752369,0.100962,0.72695,0.19076
1700753423460937,-9.345455,0.470575,1.763369,0.77162,0.70275,0.17456
1700753423468750,-9.166455,0.405575,1.759369,0.72962,0.67795,0.16216
1700753423476562,-9.142455,0.410575,1.806369,0.48662,0.65625,0.14126
1700753423484375,-9.69455,0.481575,1.813369,0.44962,0.61695,0.11576
1700753423492187,-9.10455,0.554575,1.835369,0.45662,0.58405,0.9126
1700753423500000,-9.52455,0.588575,1.826369,0.32362,0.55755,0.6246
1700753423507812,-9.184455,0.615575,1.747369,0.14762,0.52375,0.3836
1700753423515625,-9.320455,0.662575,1.786369,0.22962,0.48485,0.2866
1700753423523437,-9.460455,0.706575,1.874369,0.19962,0.47745,0.2536
1700753423531250,-9.580455,0.722575,1.933369,0.0,0.47805,0.2726
1700753423539062,-9.664455,0.712575,1.942369,0.22338,0.46745,0.2716
1700753423546875,-9.751455,0.690575,1.924369,0.39838,0.45015,0.3516
1700753423554687,-9.769455,0.668575,1.831369,0.46638,0.45615,0.3046
1700753423562500,-9.712455,0.660575,1.766369,0.70338,0.46135,0.3986
1700753423570312,-9.717455,0.707575,1.703369,0.117238,0.45975,0.3506
1700753423578125,-9.701455,0.762575,1.651369,0.152738,0.44255,0.2866
1700753423585937,-9.606455,0.798575,1.520369,0.184138,0.43855,0.1606
1700753423593750,-9.502455,0.766575,1.409369,0.213338,0.41735,0.896
1700753423601562,-9.437455,0.630575,1.296369,0.219738,0.38985,0.1674
1700753423609375,-9.427455,0.499575,1.174369,0.236538,0.32765,0.2444
1700753423617187,-9.403455,0.407575,1.77369,0.230938,0.28425,0.4164
1700753423625000,-9.413455,0.481575,0.894369,0.220638,0.28555,0.4844
1700753423632812,-9.480455,0.623575,0.657369,0.222738,0.27565,0.6584
1700753423640625,-9.594455,0.787575,0.451369,0.221038,0.24775,0.7554
1700753423648437,-9.789455,0.960575,0.424369,0.204338,0.26265,0.6934
1700753423656250,-9.896455,-1.131575,0.343369,0.214138,0.27355,0.6934
1700753423664062,-9.949455,-1.159575,0.314369,0.207638,0.28445,0.6614
1700753423671875,-10.45455,-1.152575,0.327369,0.193538,0.28535,0.6594
1700753423679687,-10.80455,-1.63575,0.366369,0.171438,0.28485,0.7214
1700753423687500,-10.100455,-1.54575,0.427369,0.157138,0.31295,0.8174
1700753423695312,-10.47455,-1.55575,0.425369,0.134838,0.34265,0.8974
1700753423703125,-10.33455,-1.64575,0.510369,0.134638,0.36655,0.9154
1700753423710937,-10.94455,-1.79575,0.524369,0.140838,0.35595,0.9004
1700753423718750,-10.41455,-1.76575,0.612369,0.132138,0.31155,0.9664
1700753423726562,-10.110455,-1.34575,0.705369,0.122838,0.29545,0.10774
1700753423734375,-10.142455,-1.29575,0.766369,0.98638,0.26095,0.10604
1700753423742187,-10.154455,-1.127575,0.845369,0.64238,0.25385,0.10624
1700753423750000,-10.215455,-1.257575,0.881369,0.44538,0.25915,0.10484
1700753423757812,-10.267455,-1.259575,0.980369,0.31138,0.25815,0.9864
1700753423765625,-10.136455,-1.172575,1.43369,0.362,0.25075,0.10314
1700753423773437,-9.900455,-1.64575,0.973369,0.17862,0.26455,0.10464
1700753423781250,-9.746455,-1.9575,0.799369,0.26262,0.27135,0.9994
1700753423789062,-9.581455,0.930575,0.661369,0.24662,0.26315,0.9184
1700753423796875,-9.497455,0.869575,0.625369,0.29562,0.25225,0.8864
1700753423804687,-9.385455,0.842575,0.589369,0.39262,0.23955,0.8374
1700753423812500,-9.385455,0.878575,0.494369,0.52962,0.23605,0.8094
1700753423820312,-9.421455,0.900575,0.467369,0.77462,0.24105,0.7144
1700753423828125,-9.478455,0.913575,0.422369,0.87862,0.23485,0.6614
1700753423835937,-9.610455,0.927575,0.390369,0.83462,0.22415,0.5504
1700753423843750,-9.629455,0.883575,0.411369,0.72262,0.21315,0.4864
1700753423851562,-9.775455,0.861575,0.438369,0.67562,0.23525,0.4554
1700753423859375,-9.868455,0.800575,0.366369,0.46662,0.25215,0.2464
1700753423867187,-9.843455,0.805575,0.282369,0.40662,0.24495,0.2324
1700753423875000,-9.884455,0.731575,0.259369,0.30462,0.23945,0.2614
1700753423882812,-9.886455,0.674575,0.232369,0.362,0.23875,0.2644
1700753423890625,-9.839455,0.677575,0.171369,0.4638,0.26095,0.4254
1700753423898437,-9.751455,0.646575,0.171369,0.23138,0.25225,0.5514
1700753423906250,-9.715455,0.635575,0.79369,0.42938,0.24705,0.6774
1700753423914062,-9.655455,0.621575,0.6369,0.49438,0.25365,0.8384
1700753423921875,-9.640455,0.604575,0.60631,0.79438,0.23895,0.8254
1700753423929687,-9.656455,0.517575,0.22631,0.91338,0.21435,0.8214
1700753423937500,-9.697455,0.543575,0.52369,0.105138,0.20585,0.7124
1700753423945312,-9.715455,0.532575,0.29369,0.129238,0.19955,0.6324
1700753423953125,-9.753455,0.525575,0.54369,0.143338,0.18415,0.5214
1700753423960937,-9.848455,0.601575,0.38369,0.164538,0.17105,0.4714
1700753423968750,-9.884455,0.706575,0.20631,0.166238,0.17375,0.3584
1700753423976562,-9.959455,0.845575,0.101631,0.167538,0.18525,0.3284
1700753423984375,-9.998455,0.904575,0.83631,0.169338,0.18455,0.2294
1700753423992187,-10.18455,0.865575,0.0,0.185438,0.18565,0.44
1700753424000000,-9.968455,0.806575,0.74369,0.190238,0.17475,0.276
1700753424007812,-9.915455,0.783575,0.144369,0.198038,0.17495,0.746
1700753424015625,-9.795455,0.843575,0.106369,0.205738,0.18955,0.886
1700753424023437,-9.759455,0.861575,0.4631,0.217038,0.19615,0.236
1700753424031250,-9.722455,0.925575,0.76631,0.197138,0.18695,0.1314
1700753424039062,-9.568455,0.935575,0.160631,0.181938,0.18675,0.2154
1700753424046875,-9.620455,0.816575,0.187631,0.188738,0.16435,0.2944
1700753424054687,-9.619455,0.806575,0.160631,0.183138,0.13065,0.1684
1700753424062500,-9.601455,0.918575,0.101631,0.161038,0.12775,0.204
1700753424070312,-9.738455,-1.54575,0.40631,0.141138,0.11945,0.714
1700753424078125,-9.885455,-1.154575,0.4631,0.124638,0.12015,0.1214
1700753424085937,-9.963455,-1.168575,0.11369,0.99038,0.12185,0.2654
1700753424093750,-10.19455,-1.113575,0.83631,0.91738,0.12215,0.2944
1700753424101562,-10.9455,0.989575,0.146631,0.91838,0.12185,0.2454
1700753424109375,-10.31455,0.925575,0.119631,0.83538,0.12375,0.2134
1700753424117187,-9.986455,0.901575,0.94631,0.83238,0.11415,0.426
1700753424125000,-10.96455,0.904575,0.112631,0.71438,0.11165,0.886
1700753424132812,-10.145455,0.943575,0.96631,0.57138,0.8925,0.1386
1700753424140625,-10.195455,-1.35575,0.121631,0.29638,0.8465,0.1226
1700753424148437,-10.257455,-1.169575,0.227631,0.12338,0.7435,0.1726
1700753424156250,-10.278455,-1.189575,0.297631,0.1538,0.4905,0.3136
1700753424164062,-10.370455,-1.184575,0.234631,0.12138,0.1965,0.5686
1700753424171875,-10.401455,-1.194575,0.175631,0.20038,0.355,0.8256
1700753424179687,-10.477455,-1.157575,0.105631,0.30138,0.1335,0.10056
1700753424187500,-10.538455,-1.291575,0.68369,0.50838,0.2905,0.11656
1700753424195312,-10.464455,-1.445575,0.45369,0.29538,0.105,0.12606
1700753424203125,-10.376455,-1.327575,0.6631,0.3838,0.115,0.11476
1700753424210937,-10.251455,-1.255575,0.16369,0.19662,0.815,0.10706
1700753424218750,-10.9455,-1.328575,0.6631,0.43062,0.1135,0.9696
1700753424226562,-9.826455,-1.401575,0.1631,0.64462,0.25,0.8956
1700753424234375,-9.731455,-1.486575,0.51631,0.81062,0.535,0.8936
1700753424242187,-9.687455,-1.574575,0.128631,0.88262,0.715,0.8736
1700753424250000,-9.647455,-1.593575,0.135631,0.101462,0.3985,0.9046
1700753424257812,-9.613455,-1.457575,0.58631,0.107562,0.7345,0.9236
1700753424265625,-9.627455,-1.355575,0.81631,0.118662,0.8065,0.9006
1700753424273437,-9.641455,-1.349575,0.119631,0.127262,0.8835,0.8086
1700753424281250,-9.656455,-1.321575,0.246631,0.121262,0.9505,0.6616
1700753424289062,-9.658455,-1.280575,0.404631,0.144762,0.9425,0.5046
1700753424296875,-9.666455,-1.268575,0.401631,0.145762,0.10135,0.4266
1700753424304687,-9.581455,-1.226575,0.327631,0.144762,0.10475,0.3426
1700753424312500,-9.586455,-1.164575,0.340631,0.139962,0.11245,0.2626
1700753424320312,-9.593455,0.987575,0.232631,0.126662,0.12045,0.1036
1700753424328125,-9.604455,0.872575,0.189631,0.120062,0.12035,0.414
1700753424335937,-9.617455,0.798575,0.187631,0.120862,0.12925,0.3354
1700753424343750,-9.545455,0.788575,0.200631,0.116262,0.12165,0.5544
1700753424351562,-9.466455,0.825575,0.374631,0.103162,0.11955,0.7954
1700753424359375,-9.426455,0.899575,0.533631,0.94762,0.11975,0.9704
1700753424367187,-9.392455,0.969575,0.569631,0.81162,0.13535,0.10564
1700753424375000,-9.402455,-1.3575,0.616631,0.55562,0.14835,0.11614
1700753424382812,-9.497455,0.984575,0.688631,0.43362,0.15685,0.11004
1700753424390625,-9.647455,0.962575,0.722631,0.38162,0.14315,0.11474
1700753424398437,-9.820455,0.942575,0.806631,0.32262,0.13755,0.11344
1700753424406250,-9.887455,0.904575,0.815631,0.29862,0.13915,0.10014
1700753424414062,-9.972455,0.886575,0.862631,0.26462,0.12205,0.10324
1700753424421875,-10.99455,0.842575,0.914631,0.12462,0.13555,0.9544
1700753424429687,-10.81455,0.816575,0.959631,0.6738,0.15735,0.9874
1700753424437500,-10.120455,0.755575,0.984631,0.42338,0.18565,0.10184
1700753424445312,-9.822455,0.912575,-1.63631,0.60038,0.19965,0.10984
1700753424453125,-10.67455,0.530575,-1.95631,0.31738,0.20585,0.15464
1700753424460937,-10.164455,0.711575,0.528631,0.60938,0.24575,0.10214
1700753424468750,-10.413455,0.351575,0.530631,0.59638,0.29565,0.13894
1700753424476562,-7.862455,-1.811575,-1.35631,0.67338,0.28845,0.9394
1700753424484375,-5.286455,0.315575,-3.431631,0.4838,-1.1545,0.84374
1700753424492187,-13.500455,0.667425,1.775369,0.31338,-1.38205,0.64664
1700753424500000,-13.578455,-2.53575,2.74369,0.43362,0.14685,0.7134
1700753424507812,-9.989455,-1.36575,0.114631,0.25138,0.26915,0.9414
1700753424515625,-9.199455,-1.433575,0.259631,0.66338,0.32855,0.6374
1700753424523437,-9.822455,-1.570575,0.643631,0.1262,0.24065,0.6544
1700753424531250,-9.632455,-1.717575,0.401631,0.64462,0.29695,0.5584
1700753424539062,-9.533455,-1.691575,0.404631,0.134562,0.26495,0.6674
1700753424546875,-9.487455,-1.588575,0.225631,0.179662,0.26675,0.6344
1700753424554687,-9.538455,-1.469575,0.234631,0.187462,0.26085,0.6654
1700753424562500,-9.671455,-1.322575,0.397631,0.189662,0.26495,0.5554
1700753424570312,-9.665455,-1.79575,0.498631,0.212462,0.25685,0.4754
1700753424578125,-9.643455,0.843575,0.569631,0.224462,0.23855,0.4634
1700753424585937,-9.590455,0.652575,0.607631,0.227662,0.22895,0.3264
1700753424593750,-9.602455,0.510575,0.625631,0.231062,0.21585,0.3924
1700753424601562,-9.631455,0.366575,0.584631,0.205462,0.21555,0.3774
1700753424609375,-9.655455,0.293575,0.490631,0.180062,0.22585,0.3794
1700753424617187,-9.693455,0.273575,0.383631,0.159062,0.22905,0.3954
1700753424625000,-9.606455,0.269575,0.356631,0.131162,0.21725,0.3774
1700753424632812,-9.742455,0.352575,0.191631,0.102862,0.21755,0.4284
1700753424640625,-9.750455,0.385575,0.227631,0.76162,0.19365,0.5054
1700753424648437,-9.679455,0.395575,0.216631,0.50962,0.20355,0.5564
1700753424656250,-9.658455,0.420575,0.142631,0.23162,0.20075,0.7004
1700753424664062,-9.574455,0.472575,0.67631,0.9138,0.19925,0.6354
1700753424671875,-9.541455,0.565575,0.4369,0.25338,0.19655,0.5704
1700753424679687,-9.511455,0.674575,0.6369,0.49538,0.19655,0.5384
1700753424687500,-9.442455,0.777575,0.22631,0.48138,0.18765,0.4574
1700753424695312,-9.407455,0.864575,0.22369,0.51238,0.17025,0.4424
1700753424703125,-9.354455,0.928575,0.22369,0.41838,0.15655,0.4244
1700753424710937,-9.344455,0.979575,0.18631,0.32538,0.13695,0.3424
1700753424718750,-9.347455,0.981575,0.40631,0.14838,0.11015,0.3754
1700753424726562,-9.374455,0.932575,0.76631,0.9838,0.10665,0.3924
1700753424734375,-9.431455,0.890575,0.76631,0.12738,0.8745,0.3134
1700753424742187,-9.472455,0.881575,0.92631,0.4238,0.7905,0.2674
1700753424750000,-9.517455,0.873575,0.76631,0.6762,0.6385,0.2344
1700753424757812,-9.552455,0.850575,0.20631,0.15762,0.6815,0.2304
1700753424765625,-9.570455,0.832575,0.65369,0.38262,0.6845,0.1654
1700753424773437,-9.562455,0.855575,0.101369,0.43562,0.5035,0.2004
1700753424781250,-9.565455,0.900575,0.110369,0.57362,0.4035,0.2294
1700753424789062,-9.571455,0.914575,0.56369,0.57362,0.3885,0.2134
1700753424796875,-9.561455,0.872575,0.29369,0.67462,0.5525,0.2634
1700753424804687,-9.534455,0.778575,0.11369,0.69762,0.6175,0.3634
1700753424812500,-9.495455,0.672575,0.18631,0.67962,0.8105,0.3784
1700753424820312,-9.453455,0.615575,0.40631,0.51562,0.8915,0.4574
1700753424828125,-9.422455,0.618575,0.97631,0.46862,0.8875,0.4744
1700753424835937,-9.433455,0.649575,0.131631,0.48462,0.10275,0.6024
1700753424843750,-9.426455,0.662575,0.101631,0.38562,0.12635,0.6824
1700753424851562,-9.459455,0.697575,0.88631,0.42262,0.13695,0.5554
1700753424859375,-9.490455,0.705575,0.29631,0.27862,0.14955,0.4754
1700753424867187,-9.530455,0.716575,0.83369,0.3562,0.14725,0.2644
1700753424875000,-9.595455,0.766575,0.169369,0.10038,0.12595,0.114
1700753424882812,-9.648455,0.814575,0.237369,0.24238,0.13395,0.2286
1700753424890625,-9.783455,0.882575,0.329369,0.41038,0.11195,0.4576
1700753424898437,-9.917455,0.925575,0.440369,0.43838,0.10715,0.6966
1700753424906250,-10.49455,0.920575,0.533369,0.55338,0.8425,0.8586
1700753424914062,-10.174455,0.864575,0.443369,0.61238,0.6165,0.9046
1700753424921875,-10.427455,0.817575,0.398369,0.56938,0.7495,0.8586
1700753424929687,-10.523455,0.919575,0.391369,0.38238,0.8825,0.7326
1700753424937500,-10.423455,0.998575,0.226369,0.32038,0.6125,0.4916
1700753424945312,-10.299455,-1.69575,0.102369,0.54638,0.5465,0.3626
1700753424953125,-10.190455,-1.49575,0.70369,0.60938,0.6015,0.1686
1700753424960937,-10.111455,0.972575,0.172369,0.49838,0.6665,0.1216
1700753424968750,-9.981455,0.943575,0.318369,0.24638,0.7795,0.1334
1700753424976562,-9.834455,0.926575,0.332369,0.12938,0.7225,0.2484
1700753424984375,-9.785455,0.898575,0.395369,0.16138,0.7535,0.2644
1700753424992187,-9.777455,0.878575,0.476369,0.18938,0.8095,0.2664
1700753425000000,-9.753455,0.819575,0.555369,0.13838,0.7915,0.2194
1700753425007812,-9.749455,0.790575,0.535369,0.17238,0.6235,0.1224
1700753425015625,-9.780455,0.804575,0.503369,0.33938,0.6535,0.906
1700753425023437,-9.802455,0.822575,0.506369,0.40138,0.6975,0.1216
1700753425031250,-9.807455,0.861575,0.558369,0.45538,0.5985,0.2046
1700753425039062,-9.773455,0.893575,0.526369,0.64838,0.5685,0.2846
1700753425046875,-9.744455,0.884575,0.458369,0.63338,0.4785,0.4136
1700753425054687,-9.794455,0.875575,0.395369,0.78338,0.6355,0.4736
1700753425062500,-9.837455,0.828575,0.404369,0.68938,0.9205,0.3946
1700753425070312,-9.837455,0.758575,0.404369,0.55538,0.11165,0.3446
1700753425078125,-9.929455,0.835575,0.436369,0.48438,0.11585,0.1396
1700753425085937,-10.24455,0.958575,0.284369,0.35038,0.8495,0.1036
1700753425093750,-10.23455,-1.14575,0.253369,0.29938,0.10285,0.1064
1700753425101562,-9.967455,-1.10575,0.325369,0.35538,0.9285,0.2314
1700753425109375,-9.871455,0.989575,0.361369,0.34038,0.8815,0.2954
1700753425117187,-9.793455,0.896575,0.454369,0.35038,0.7905,0.3474
1700753425125000,-9.714455,0.830575,0.474369,0.47238,0.6625,0.3754
1700753425132812,-9.651455,0.792575,0.485369,0.41738,0.6225,0.3304
1700753425140625,-9.643455,0.803575,0.506369,0.37238,0.6285,0.3124
1700753425148437,-9.675455,0.818575,0.555369,0.28538,0.7135,0.2834
1700753425156250,-9.688455,0.837575,0.560369,0.27438,0.7845,0.2644
1700753425164062,-9.705455,0.863575,0.506369,0.37238,0.8035,0.2314
1700753425171875,-9.741455,0.890575,0.472369,0.25638,0.8285,0.2814
1700753425179687,-9.792455,0.914575,0.485369,0.15638,0.8715,0.2664
1700753425187500,-9.835455,0.922575,0.497369,0.8838,0.8815,0.2684
1700753425195312,-9.855455,0.910575,0.515369,0.10938,0.8555,0.3144
1700753425203125,-9.835455,0.911575,0.515369,0.6138,0.7775,0.3304
1700753425210937,-9.852455,0.835575,0.501369,0.7838,0.7625,0.3624
1700753425218750,-9.893455,0.761575,0.546369,0.4862,0.8415,0.4744
1700753425226562,-9.873455,0.733575,0.571369,0.30262,0.8165,0.5204
1700753425234375,-9.812455,0.767575,0.501369,0.36862,0.7505,0.5054
1700753425242187,-9.816455,0.845575,0.454369,0.45262,0.7135,0.5394
1700753425250000,-9.822455,0.848575,0.447369,0.41462,0.7845,0.5524
1700753425257812,-9.800455,0.836575,0.470369,0.45362,0.7915,0.4594
1700753425265625,-9.804455,0.833575,0.488369,0.55962,0.8195,0.4714
1700753425273437,-9.854455,0.799575,0.433369,0.44962,0.6425,0.4244
1700753425281250,-9.926455,0.785575,0.395369,0.49762,0.6575,0.4894
1700753425289062,-9.956455,0.786575,0.388369,0.53662,0.8125,0.5324
1700753425296875,-9.961455,0.786575,0.420369,0.67262,0.7685,0.6004
1700753425304687,-9.869455,0.841575,0.400369,0.77162,0.6365,0.6824
1700753425312500,-9.830455,0.900575,0.327369,0.77062,0.6215,0.7304
1700753425320312,-9.811455,0.896575,0.311369,0.80962,0.6985,0.7414
1700753425328125,-9.782455,0.834575,0.357369,0.79062,0.8515,0.7314
1700753425335937,-9.796455,0.742575,0.375369,0.81362,0.8315,0.8244
1700753425343750,-9.810455,0.738575,0.368369,0.89862,0.8415,0.7784
1700753425351562,-9.832455,0.784575,0.278369,0.89962,0.7135,0.8104
1700753425359375,-9.879455,0.779575,0.246369,0.88062,0.7625,0.8744
1700753425367187,-9.897455,0.759575,0.316369,0.91462,0.8875,0.7944
1700753425375000,-9.857455,0.749575,0.327369,0.96662,0.8345,0.8124
1700753425382812,-9.846455,0.744575,0.327369,0.83462,0.7645,0.7134
1700753425390625,-9.821455,0.727575,0.350369,0.84962,0.8455,0.6644
1700753425398437,-9.805455,0.677575,0.409369,0.85662,0.9145,0.6354
1700753425406250,-9.794455,0.633575,0.463369,0.88962,0.8995,0.5554
1700753425414062,-9.798455,0.659575,0.490369,0.71462,0.9275,0.4764
1700753425421875,-9.843455,0.670575,0.474369,0.66962,0.9565,0.3494
1700753425429687,-9.872455,0.649575,0.506369,0.64762,0.10625,0.3294
1700753425437500,-9.888455,0.649575,0.531369,0.63762,0.11475,0.2844
1700753425445312,-9.887455,0.646575,0.540369,0.64462,0.11165,0.2634
1700753425453125,-9.905455,0.663575,0.537369,0.56562,0.11135,0.2484
1700753425460937,-9.875455,0.681575,0.528369,0.44362,0.11755,0.2754
1700753425468750,-9.862455,0.695575,0.521369,0.30462,0.11515,0.2144
1700753425476562,-9.835455,0.695575,0.503369,0.14462,0.11635,0.2634
1700753425484375,-9.789455,0.679575,0.469369,0.16562,0.13285,0.2654
1700753425492187,-9.758455,0.626575,0.460369,0.4062,0.13695,0.2194
1700753425500000,-9.709455,0.643575,0.445369,0.5638,0.13075,0.2034
1700753425507812,-9.673455,0.659575,0.415369,0.9038,0.13415,0.2344
1700753425515625,-9.634455,0.678575,0.422369,0.12738,0.13985,0.1674
1700753425523437,-9.597455,0.735575,0.384369,0.10638,0.13615,0.574
1700753425531250,-9.565455,0.782575,0.325369,0.15238,0.13125,0.546
1700753425539062,-9.576455,0.808575,0.280369,0.28538,0.13195,0.406
1700753425546875,-9.589455,0.817575,0.266369,0.34738,0.12855,0.1196
1700753425554687,-9.589455,0.843575,0.253369,0.31238,0.11435,0.2306
1700753425562500,-9.609455,0.850575,0.234369,0.42838,0.10375,0.2326
1700753425570312,-9.625455,0.868575,0.216369,0.53538,0.9975,0.2776
1700753425578125,-9.647455,0.880575,0.174369,0.53938,0.8485,0.3596
1700753425585937,-9.677455,0.877575,0.180369,0.64038,0.9365,0.3946
1700753425593750,-9.693455,0.902575,0.221369,0.49038,0.8025,0.3756
1700753425601562,-9.721455,0.918575,0.196369,0.43538,0.7085,0.4126
1700753425609375,-9.736455,0.910575,0.210369,0.36138,0.8525,0.4886
1700753425617187,-9.767455,0.887575,0.232369,0.40938,0.8025,0.4236
1700753425625000,-9.785455,0.893575,0.178369,0.36638,0.6525,0.3776
1700753425632812,-9.757455,0.879575,0.228369,0.28038,0.6895,0.3106
1700753425640625,-9.770455,0.868575,0.230369,0.39238,0.6545,0.2776
1700753425648437,-9.781455,0.874575,0.226369,0.37938,0.6265,0.1986
1700753425656250,-9.794455,0.882575,0.273369,0.43138,0.6785,0.1206
1700753425664062,-9.780455,0.902575,0.280369,0.38738,0.6845,0.1226
1700753425671875,-9.799455,0.895575,0.278369,0.35138,0.6005,0.1366
1700753425679687,-9.844455,0.857575,0.273369,0.46638,0.6355,0.1216
1700753425687500,-9.838455,0.827575,0.273369,0.31538,0.5485,0.1346
1700753425695312,-9.843455,0.813575,0.296369,0.23538,0.5945,0.866
1700753425703125,-9.851455,0.831575,0.291369,0.33438,0.6125,0.556
1700753425710937,-9.840455,0.866575,0.269369,0.26838,0.6095,0.386
1700753425718750,-9.805455,0.875575,0.246369,0.35438,0.5725,0.256
1700753425726562,-9.780455,0.873575,0.230369,0.35838,0.6245,0.54
1700753425734375,-9.767455,0.896575,0.244369,0.36938,0.6465,0.74
1700753425742187,-9.740455,0.891575,0.266369,0.29338,0.6215,0.704
1700753425750000,-9.732455,0.897575,0.248369,0.25438,0.5925,0.1864
1700753425757812,-9.734455,0.892575,0.232369,0.25638,0.6725,0.2334
1700753425765625,-9.738455,0.905575,0.275369,0.14438,0.6725,0.2814
1700753425773437,-9.731455,0.912575,0.289369,0.25838,0.6605,0.2484
1700753425781250,-9.755455,0.897575,0.289369,0.17038,0.6945,0.2524
1700753425789062,-9.738455,0.905575,0.298369,0.9638,0.5945,0.3134
1700753425796875,-9.733455,0.916575,0.291369,0.14838,0.5035,0.3764
1700753425804687,-9.740455,0.920575,0.287369,0.7138,0.4635,0.3584
1700753425812500,-9.722455,0.927575,0.311369,0.2962,0.3945,0.2964
1700753425820312,-9.731455,0.936575,0.370369,0.4938,0.3765,0.3134
1700753425828125,-9.715455,0.931575,0.402369,0.7438,0.4195,0.3894
1700753425835937,-9.734455,0.932575,0.377369,0.11138,0.4785,0.4274
1700753425843750,-9.731455,0.934575,0.363369,0.10038,0.3795,0.3284
1700753425851562,-9.736455,0.927575,0.366369,0.8138,0.4695,0.3454
1700753425859375,-9.744455,0.914575,0.361369,0.11538,0.5385,0.2314
1700753425867187,-9.760455,0.886575,0.363369,0.10438,0.4205,0.2134
1700753425875000,-9.801455,0.855575,0.384369,0.12038,0.4205,0.2294
1700753425882812,-9.801455,0.846575,0.384369,0.11838,0.4015,0.2144
1700753425890625,-9.836455,0.797575,0.366369,0.16738,0.4175,0.2304
1700753425898437,-9.839455,0.771575,0.370369,0.12938,0.3965,0.1194
1700753425906250,-9.853455,0.812575,0.386369,0.19838,0.4485,0.1984
1700753425914062,-9.860455,0.844575,0.320369,0.17838,0.3965,0.1514
1700753425921875,-9.820455,0.820575,0.368369,0.8138,0.5205,0.1844
1700753425929687,-9.800455,0.800575,0.393369,0.21438,0.5265,0.1824
1700753425937500,-9.757455,0.780575,0.404369,0.16738,0.5605,0.2134
1700753425945312,-9.740455,0.790575,0.390369,0.18038,0.6015,0.2314
1700753425953125,-9.721455,0.789575,0.381369,0.18538,0.6265,0.2284
1700753425960937,-9.731455,0.763575,0.420369,0.15138,0.6845,0.2934
1700753425968750,-9.724455,0.752575,0.427369,0.20338,0.6605,0.2594
1700753425976562,-9.722455,0.748575,0.399369,0.16238,0.6795,0.1514
1700753425984375,-9.728455,0.767575,0.395369,0.23138,0.6855,0.1654
1700753425992187,-9.738455,0.779575,0.393369,0.30338,0.6585,0.574
1700753426000000,-9.746455,0.792575,0.404369,0.32638,0.6365,0.1504
1700753426007812,-9.791455,0.803575,0.402369,0.45138,0.6455,0.1844
1700753426015625,-9.838455,0.793575,0.388369,0.54838,0.6145,0.1524
1700753426023437,-9.861455,0.791575,0.381369,0.56138,0.6235,0.2344
1700753426031250,-9.838455,0.781575,0.415369,0.55238,0.6515,0.2144
1700753426039062,-9.822455,0.788575,0.422369,0.55338,0.6515,0.2304
1700753426046875,-9.813455,0.800575,0.438369,0.60138,0.6205,0.2304
1700753426054687,-9.800455,0.815575,0.436369,0.39038,0.5695,0.2954
1700753426062500,-9.808455,0.819575,0.449369,0.41038,0.6235,0.2614
1700753426070312,-9.788455,0.802575,0.476369,0.42638,0.6535,0.3094
1700753426078125,-9.778455,0.809575,0.517369,0.35538,0.6915,0.2804
1700753426085937,-9.790455,0.797575,0.506369,0.37938,0.6725,0.2444
1700753426093750,-9.818455,0.766575,0.497369,0.36138,0.6545,0.2294
1700753426101562,-9.827455,0.779575,0.492369,0.34538,0.7005,0.2614
1700753426109375,-9.841455,0.798575,0.458369,0.23938,0.8435,0.2814
1700753426117187,-9.859455,0.802575,0.454369,0.25238,0.9125,0.2754
1700753426125000,-9.860455,0.807575,0.456369,0.21938,0.9395,0.3564
1700753426132812,-9.847455,0.801575,0.497369,0.16438,0.8495,0.3924
1700753426140625,-9.835455,0.821575,0.510369,0.28038,0.7935,0.3414
1700753426148437,-9.824455,0.829575,0.492369,0.30738,0.7995,0.3764
1700753426156250,-9.782455,0.811575,0.463369,0.31138,0.8055,0.3584
1700753426164062,-9.741455,0.794575,0.492369,0.31438,0.8745,0.3414
1700753426171875,-9.707455,0.816575,0.521369,0.23738,0.9115,0.3074
1700753426179687,-9.671455,0.863575,0.508369,0.11938,0.7465,0.3094
1700753426187500,-9.639455,0.903575,0.481369,0.4238,0.7685,0.3084
1700753426195312,-9.618455,0.915575,0.472369,0.2438,0.7185,0.2604
1700753426203125,-9.616455,0.915575,0.492369,0.10662,0.6065,0.2774
1700753426210937,-9.643455,0.903575,0.467369,0.15262,0.5315,0.2604
1700753426218750,-9.688455,0.896575,0.429369,0.12262,0.5135,0.2294
1700753426226562,-9.720455,0.878575,0.390369,0.12362,0.3855,0.2464
1700753426234375,-9.759455,0.816575,0.395369,0.10962,0.4605,0.2474
1700753426242187,-9.765455,0.781575,0.418369,0.12762,0.4415,0.2324
1700753426250000,-9.780455,0.771575,0.402369,0.4062,0.3275,0.1974
1700753426257812,-9.804455,0.786575,0.388369,0.8862,0.2495,0.1814
1700753426265625,-9.802455,0.831575,0.384369,0.4462,0.1465,0.2154
1700753426273437,-9.770455,0.837575,0.395369,0.5938,0.1595,0.2124
1700753426281250,-9.747455,0.865575,0.397369,0.8838,0.1065,0.2294
1700753426289062,-9.734455,0.845575,0.406369,0.9238,0.815,0.2434
1700753426296875,-9.716455,0.809575,0.431369,0.6438,0.1025,0.2904
1700753426304687,-9.701455,0.817575,0.440369,0.10338,0.875,0.2944
1700753426312500,-9.676455,0.808575,0.449369,0.10438,0.905,0.2454
1700753426320312,-9.648455,0.807575,0.438369,0.11638,0.1465,0.2474
1700753426328125,-9.641455,0.811575,0.463369,0.10138,0.535,0.2314
1700753426335937,-9.647455,0.804575,0.463369,0.13638,0.915,0.1654
1700753426343750,-9.667455,0.826575,0.449369,0.18738,0.1295,0.674
1700753426351562,-9.676455,0.835575,0.447369,0.27938,0.575,0.1504
1700753426359375,-9.694455,0.843575,0.442369,0.15238,0.645,0.44
1700753426367187,-9.725455,0.847575,0.449369,0.20138,0.485,0.524
1700753426375000,-9.767455,0.839575,0.433369,0.18938,0.615,0.264
1700753426382812,-9.786455,0.814575,0.424369,0.16238,0.85,0.246
1700753426390625,-9.817455,0.842575,0.397369,0.14638,0.65,0.726
1700753426398437,-9.842455,0.826575,0.395369,0.11638,0.115,0.416
1700753426406250,-9.844455,0.834575,0.370369,0.10238,0.305,0.266
1700753426414062,-9.834455,0.872575,0.368369,0.12238,0.725,0.286
1700753426421875,-9.820455,0.897575,0.329369,0.18538,0.755,0.436
1700753426429687,-9.784455,0.890575,0.350369,0.15438,0.675,0.286
1700753426437500,-9.746455,0.888575,0.368369,0.10938,0.425,0.626
1700753426445312,-9.741455,0.874575,0.375369,0.8438,0.45,0.416
1700753426453125,-9.741455,0.854575,0.363369,0.11638,0.735,0.96
1700753426460937,-9.757455,0.840575,0.363369,0.9938,0.745,0.896
1700753426468750,-9.746455,0.852575,0.361369,0.1638,0.85,0.886
1700753426476562,-9.745455,0.858575,0.343369,0.6738,0.895,0.576
1700753426484375,-9.758455,0.867575,0.298369,0.4462,0.155,0.1716
1700753426492187,-9.756455,0.849575,0.314369,0.17362,0.625,0.1716
1700753426500000,-9.813455,0.866575,0.411369,0.8162,0.1175,0.1526
1700753426507812,-9.820455,0.899575,0.381369,0.4362,0.1115,0.1556
1700753426515625,-9.836455,0.961575,0.318369,0.11262,0.865,0.886
1700753426523437,-9.819455,0.990575,0.298369,0.5762,0.1105,0.44
1700753426531250,-9.795455,0.948575,0.255369,0.10762,0.1535,0.534
1700753426539062,-9.818455,0.937575,0.298369,0.14162,0.1815,0.864
1700753426546875,-9.840455,0.939575,0.341369,0.15562,0.1685,0.854
1700753426554687,-9.828455,0.981575,0.311369,0.18762,0.1835,0.1654
1700753426562500,-9.840455,0.972575,0.287369,0.12362,0.2155,0.1494
1700753426570312,-9.796455,0.925575,0.255369,0.24262,0.1555,0.2334
1700753426578125,-9.772455,0.887575,0.253369,0.40062,0.1455,0.2154
1700753426585937,-9.738455,0.892575,0.223369,0.40062,0.995,0.1674
1700753426593750,-9.718455,0.894575,0.137369,0.28762,0.685,0.1514
1700753426601562,-9.685455,0.866575,0.189369,0.32362,0.3455,0.1524
1700753426609375,-9.540455,0.910575,0.99369,0.23662,0.2425,0.2794
1700753426617187,-9.727455,0.824575,0.90369,0.11162,0.5395,0.4664
1700753426625000,-9.765455,0.880575,0.97369,0.21662,0.3835,0.5184
1700753426632812,-9.821455,0.922575,0.7369,0.38362,0.4755,0.6744
1700753426640625,-9.552455,-1.69575,0.27631,0.18662,0.7485,0.9054
1700753426648437,-9.677455,0.955575,0.17631,0.16662,0.11345,0.13874
1700753426656250,-10.102455,0.860575,0.160369,0.13662,0.8825,0.12754
1700753426664062,-9.959455,0.897575,0.81369,0.33762,0.3825,0.10624
1700753426671875,-9.909455,0.820575,0.122369,0.24362,0.5815,0.11284
1700753426679687,-9.977455,0.805575,0.135369,0.23862,0.5055,0.9564
1700753426687500,-9.901455,0.832575,0.124369,0.22262,0.4905,0.8924
1700753426695312,-9.853455,0.846575,0.74369,0.17162,0.7455,0.9224
1700753426703125,-9.767455,0.880575,0.70369,0.11562,0.9125,0.9834
1700753426710937,-9.646455,0.877575,0.13369,0.11362,0.12565,0.12394
1700753426718750,-9.958455,0.705575,0.129369,0.29662,0.12735,0.14354
1700753426726562,-10.228455,0.718575,0.294369,0.42062,0.11435,0.13204
1700753426734375,-10.136455,0.795575,0.275369,0.42362,0.11565,0.12094
1700753426742187,-10.21455,0.781575,0.194369,0.39162,0.13155,0.11444
1700753426750000,-10.23455,0.834575,0.210369,0.44062,0.14255,0.10964
1700753426757812,-10.89455,0.901575,0.217369,0.61862,0.15335,0.11284
1700753426765625,-10.216455,0.930575,0.224369,0.71662,0.17975,0.12414
1700753426773437,-10.289455,0.910575,0.267369,0.83862,0.20645,0.12614
1700753426781250,-10.102455,-1.130575,0.230369,0.106262,0.18505,0.10994
1700753426789062,-9.292455,-1.217575,0.49631,0.97562,0.25485,0.19174
1700753426796875,-9.810455,0.833575,0.305369,0.108562,0.34845,0.23814
1700753426804687,-10.332455,0.842575,0.434369,0.140162,0.26365,0.21544
1700753426812500,-10.458455,0.699575,0.479369,0.161862,0.24215,0.20294
1700753426820312,-10.114455,0.764575,0.429369,0.173462,0.19845,0.17574
1700753426828125,-9.636455,0.668575,0.142369,0.110562,0.18585,0.17424
1700753426835937,-9.381455,0.651575,0.146369,0.71262,0.19815,0.16264
1700753426843750,-9.666455,0.611575,0.212369,0.77662,0.14845,0.14334
1700753426851562,-9.780455,0.740575,0.185369,0.97062,0.6585,0.11284
1700753426859375,-9.690455,0.748575,0.167369,0.67562,0.6805,0.11264
1700753426867187,-9.683455,0.669575,0.302369,0.39362,0.10805,0.9844
1700753426875000,-9.545455,0.752575,0.316369,0.35962,0.8555,0.7094
1700753426882812,-9.595455,0.585575,0.415369,0.3362,0.12105,0.7644
1700753426890625,-9.849455,0.509575,0.596369,0.14838,0.10195,0.5364
1700753426898437,-9.862455,0.551575,0.519369,0.3538,0.6465,0.3274
1700753426906250,-9.647455,0.507575,0.505369,0.12238,0.9395,0.3724
1700753426914062,-9.381455,0.552575,0.650369,0.28162,0.16675,0.3474
1700753426921875,-10.24455,0.581575,0.860369,0.6938,0.17665,0.5424
1700753426929687,-9.972455,0.671575,0.429369,0.66838,0.7785,0.3254
1700753426937500,-9.661455,0.624575,0.386369,0.63638,0.8915,0.2444
1700753426945312,-9.461455,0.647575,0.566369,0.62438,0.7575,0.1944
1700753426953125,-9.432455,0.672575,0.693369,0.57038,0.7835,0.684
1700753426960937,-9.378455,0.671575,0.668369,0.63138,0.8435,0.586
1700753426968750,-9.397455,0.678575,0.548369,0.48238,0.8835,0.246
1700753426976562,-9.436455,0.703575,0.399369,0.42038,0.8285,0.1386
1700753426984375,-9.420455,0.704575,0.325369,0.30538,0.8405,0.1216
1700753426992187,-9.412455,0.706575,0.325369,0.28638,0.8995,0.1526
1700753427000000,-9.429455,0.699575,0.327369,0.20638,0.9035,0.2346
1700753427007812,-9.470455,0.663575,0.329369,0.33638,0.8565,0.2186
1700753427015625,-9.524455,0.620575,0.289369,0.30638,0.7205,0.2996
1700753427023437,-9.531455,0.602575,0.257369,0.16338,0.5525,0.3486
1700753427031250,-9.582455,0.536575,0.250369,0.31738,0.3965,0.2636
1700753427039062,-9.623455,0.482575,0.277369,0.22438,0.3245,0.2656
1700753427046875,-9.627455,0.485575,0.309369,0.29838,0.1805,0.1736
1700753427054687,-9.645455,0.493575,0.298369,0.32438,0.1835,0.1216
1700753427062500,-9.690455,0.491575,0.341369,0.29838,0.2585,0.1256
1700753427070312,-9.707455,0.504575,0.399369,0.31438,0.3625,0.674
1700753427078125,-9.702455,0.512575,0.417369,0.40238,0.3585,0.2334
1700753427085937,-9.722455,0.500575,0.415369,0.42338,0.4105,0.3604
1700753427093750,-9.722455,0.502575,0.442369,0.44238,0.5065,0.4874
1700753427101562,-9.681455,0.494575,0.429369,0.52438,0.5835,0.6324
1700753427109375,-9.643455,0.474575,0.417369,0.38338,0.6665,0.7744
1700753427117187,-9.609455,0.511575,0.404369,0.36538,0.8025,0.8074
1700753427125000,-9.582455,0.542575,0.397369,0.21938,0.10045,0.8884
1700753427132812,-9.584455,0.597575,0.426369,0.16838,0.11255,0.8894
1700753427140625,-9.607455,0.663575,0.426369,0.9238,0.13365,0.9344
1700753427148437,-9.635455,0.715575,0.426369,0.8162,0.14515,0.9814
1700753427156250,-9.675455,0.753575,0.447369,0.18562,0.13615,0.9364
1700753427164062,-9.726455,0.770575,0.438369,0.25362,0.14985,0.8894
1700753427171875,-9.821455,0.744575,0.436369,0.34762,0.15045,0.8554
1700753427179687,-9.937455,0.731575,0.438369,0.44062,0.15415,0.8384
1700753427187500,-10.24455,0.763575,0.474369,0.59062,0.14735,0.7914
1700753427195312,-10.77455,0.827575,0.472369,0.67362,0.14085,0.7284
1700753427203125,-10.137455,0.850575,0.495369,0.65662,0.13465,0.6964
1700753427210937,-10.149455,0.803575,0.526369,0.66962,0.11475,0.7114
1700753427218750,-10.112455,0.704575,0.580369,0.70262,0.11165,0.6474
1700753427226562,-10.76455,0.596575,0.583369,0.60562,0.8525,0.5504
1700753427234375,-9.996455,0.508575,0.555369,0.48662,0.8005,0.4674
1700753427242187,-9.916455,0.481575,0.508369,0.40762,0.6735,0.4684
1700753427250000,-9.865455,0.476575,0.503369,0.41462,0.6955,0.3584
1700753427257812,-9.839455,0.499575,0.546369,0.40662,0.8385,0.3954
1700753427265625,-9.814455,0.558575,0.560369,0.41462,0.9015,0.2784
1700753427273437,-9.805455,0.612575,0.542369,0.41862,0.9415,0.3444
1700753427281250,-9.800455,0.614575,0.573369,0.39862,0.10415,0.3744
1700753427289062,-9.805455,0.594575,0.589369,0.41762,0.11465,0.3754
1700753427296875,-9.798455,0.578575,0.603369,0.41362,0.11685,0.3734
1700753427304687,-9.806455,0.548575,0.585369,0.41862,0.10965,0.4244
1700753427312500,-9.842455,0.500575,0.596369,0.41662,0.10845,0.3754
1700753427320312,-9.823455,0.456575,0.610369,0.40062,0.10695,0.3914
1700753427328125,-9.821455,0.426575,0.580369,0.41962,0.10355,0.2644
1700753427335937,-9.835455,0.365575,0.578369,0.39962,0.10575,0.3104
1700753427343750,-9.820455,0.382575,0.576369,0.41962,0.10815,0.3284
1700753427351562,-9.853455,0.394575,0.517369,0.38362,0.10885,0.3264
1700753427359375,-9.874455,0.428575,0.494369,0.39162,0.10845,0.3544
1700753427367187,-9.872455,0.444575,0.540369,0.25062,0.11565,0.3404
1700753427375000,-9.872455,0.449575,0.560369,0.12662,0.11005,0.3754
1700753427382812,-9.853455,0.418575,0.578369,0.6162,0.10545,0.3754
1700753427390625,-9.826455,0.379575,0.589369,0.5438,0.10415,0.4224
1700753427398437,-9.786455,0.342575,0.605369,0.7138,0.9475,0.4864
