time,Acceleration X (m/s^2),Acceleration Y (m/s^2),Acceleration Z (m/s^2),Angular Velocity X (rad/s),Angular Velocity Y (rad/s),Angular Velocity Z (rad/s)
1700754006593750,-10.143773,-0.793516,2.394755,,,
1700754006601562,-10.175773,0.994516,0.528161,2.360755,0.958,0.79851
1700754006609375,-10.161773,-1.173516,0.555161,2.352855,0.102,0.84651
1700754006617187,-10.94773,-1.360516,0.553161,2.359455,0.911,0.94251
1700754006625000,-10.99773,-1.530516,0.591161,2.347755,0.542,0.108851
1700754006632812,-10.52773,-1.607516,0.643161,2.364455,0.306,0.135951
1700754006648437,-9.972773,-1.842516,0.566161,2.393755,0.171,0.198551
1700754006656250,-9.852773,-2.119516,0.580161,2.416855,0.311,0.233751
1700754006664062,-9.716773,-2.173516,0.542161,2.461955,0.556,0.254751
1700754006671875,-9.471773,-2.403516,0.555161,2.500955,0.603,0.275551
1700754006695312,-9.176773,-2.558516,0.287161,2.619955,0.14,0.269151
1700754006703125,-9.217773,-2.321516,0.282161,2.655255,0.1464,0.253151
1700754006710937,-9.310773,-2.111516,0.359161,2.703555,0.1153,0.238751
1700754006718750,-9.437773,-1.666516,0.431161,2.739155,0.609,0.229051
1700754006726562,-9.375773,-1.221516,0.519161,2.736655,0.86,0.214451
1700754006734375,-9.230773,0.835516,0.567161,2.734855,0.525,0.200051
1700754006742187,-9.90773,0.504516,0.630161,2.715655,0.598,0.177451
1700754006750000,-8.967773,0.292516,0.531161,2.671355,0.834,0.145551
1700754006757812,-8.925773,0.114516,0.373161,2.619155,0.818,0.110351
1700754006765625,-8.975773,0.102516,0.186161,2.560555,0.487,0.68651
1700754006773437,-9.249773,0.36516,0.172161,2.501655,0.52,0.39951
1700754006781250,-9.567773,0.51516,0.273161,2.443055,0.169,0.4651
1700754006789062,-9.867773,0.80516,0.264161,2.370155,0.141,0.35449
1700754006796875,-10.140773,0.76516,0.307161,2.300355,0.112,0.75549
1700754006804687,-10.383773,0.10516,0.196161,2.211055,0.94,0.96249
1700754006812500,-10.668773,0.6484,0.63839,2.120955,0.136,0.114049
1700754006820312,-10.990773,0.202516,0.212839,2.27555,0.214,0.114049
1700754006828125,-11.332773,0.561516,0.364839,1.983855,0.434,0.115649
1700754006835937,-11.535773,-1.13516,0.384839,1.966355,0.936,0.101149
1700754006843750,-11.601773,-1.254516,0.461839,1.996055,0.1465,0.88449
1700754006851562,-11.498773,-1.536516,0.450839,2.19055,0.1885,0.75649
1700754006859375,-11.135773,-1.696516,0.504839,2.88855,0.2433,0.53249
1700754006867187,-10.747773,-1.857516,0.481839,2.147455,0.2869,0.35649
1700754006875000,-10.457773,-1.795516,0.456839,2.202955,0.3227,0.11749
1700754006882812,-10.210773,-1.513516,0.463839,2.262955,0.3415,0.7551
1700754006890625,-10.15773,-1.242516,0.496839,2.334155,0.3398,0.17051
1700754006898437,-9.846773,-1.61516,0.465839,2.386055,0.3429,0.31451
1700754006906250,-9.635773,-1.55516,0.297839,2.447455,0.3446,0.47551
1700754006914062,-9.300773,0.847516,0.128839,2.496155,0.3727,0.61951
1700754006921875,-8.913773,0.774516,0.97161,2.524155,0.3882,0.84251
1700754006929687,-8.543773,0.679516,0.328161,2.548455,0.3838,0.106751
1700754006937500,-8.309773,0.466516,0.590161,2.568355,0.348,0.143551
1700754006945312,-8.134773,0.260516,0.715161,2.601255,0.3011,0.185151
1700754006953125,-8.7773,0.168516,0.837161,2.626555,0.2362,0.210951
1700754006960937,-7.984773,0.184516,0.898161,2.699355,0.1676,0.239851
1700754006968750,-8.123773,0.267516,-1.26161,2.760855,0.988,0.265451
1700754006976562,-8.356773,0.370516,-1.157161,2.807455,0.473,0.265451
1700754006984375,-8.744773,0.452516,-1.103161,2.816455,0.87,0.259251
1700754006992187,-9.153773,0.492516,-1.111161,2.802955,0.504,0.252951
1700754007000000,-9.496773,0.435516,-1.224161,2.807155,0.908,0.233751
1700754007007812,-9.779773,0.194516,-1.179161,2.793555,0.1096,0.198551
1700754007015625,-10.18773,0.175484,-1.102161,2.752855,0.1395,0.171351
1700754007023437,-10.226773,0.563484,-1.27161,2.717255,0.1446,0.140851
1700754007031250,-10.347773,1.5484,0.894161,2.658755,0.1337,0.115151
1700754007039062,-10.327773,1.342484,0.768161,2.613555,0.1194,0.118451
1700754007046875,-10.214773,1.667484,0.700161,2.545955,0.1005,0.129651
1700754007054687,-10.10773,1.825484,0.655161,2.467255,0.1067,0.147251
1700754007062500,-9.748773,1.694484,0.678161,2.393055,0.1046,0.168151
1700754007070312,-9.528773,1.609484,0.635161,2.332655,0.908,0.200051
1700754007078125,-9.452773,1.579484,0.520161,2.268555,0.719,0.225651
1700754007085937,-9.480773,1.456484,0.409161,2.209355,0.561,0.254551
1700754007093750,-9.571773,1.316484,0.350161,2.152955,0.195,0.286651
1700754007101562,-9.700773,1.254484,0.285161,2.119755,0.319,0.305851
1700754007109375,-9.850773,1.294484,0.210161,2.100355,0.586,0.302651
1700754007117187,-9.916773,1.330484,0.120161,2.82655,0.677,0.292951
1700754007125000,-9.904773,1.221484,0.38161,2.84155,0.656,0.256051
1700754007132812,-9.891773,0.996484,0.53839,2.83555,0.828,0.222451
1700754007140625,-9.893773,0.719484,0.234839,2.81755,0.936,0.204851
1700754007148437,-9.895773,0.430484,0.261839,2.78255,0.1001,0.200051
1700754007156250,-9.801773,0.398484,0.275839,2.83255,0.1297,0.203251
1700754007164062,-9.704773,0.385484,0.333839,2.81755,0.122,0.211251
1700754007171875,-9.701773,0.276484,0.385839,2.83855,0.952,0.231951
1700754007179687,-9.702773,0.55484,0.327839,2.81755,0.582,0.238551
1700754007187500,-9.806773,0.105516,0.250839,2.116855,0.304,0.240251
1700754007195312,-9.993773,0.61516,0.331839,2.144255,0.55,0.245051
1700754007203125,-10.152773,0.70516,0.390839,2.142755,0.25,0.243451
1700754007210937,-10.211773,0.22516,0.424839,2.139655,0.148,0.251451
1700754007218750,-10.266773,0.163484,0.474839,2.130155,0.255,0.249751
1700754007226562,-10.262773,0.360484,0.521839,2.126755,0.179,0.253051
1700754007234375,-10.228773,0.403484,0.471839,2.113655,0.353,0.251551
1700754007242187,-10.220773,0.551484,0.395839,2.109555,0.611,0.243251
1700754007250000,-10.180773,0.782484,0.440839,2.126755,0.724,0.237051
1700754007257812,-10.186773,0.864484,0.523839,2.128455,0.632,0.249851
1700754007265625,-10.223773,0.872484,0.578839,2.132255,0.596,0.257751
1700754007273437,-10.278773,0.998484,0.618839,2.117555,0.897,0.261051
1700754007281250,-10.281773,1.115484,0.695839,2.73855,0.1278,0.278751
1700754007289062,-10.206773,1.145484,0.754839,2.29555,0.1583,0.281751
1700754007296875,-10.94773,1.274484,0.853839,1.992655,0.199,0.289751
1700754007304687,-9.959773,1.394484,0.898839,1.949255,0.2178,0.291351
1700754007312500,-9.768773,1.585484,1.15839,1.911055,0.2112,0.304051
1700754007320312,-9.473773,1.686484,1.169839,1.863555,0.1887,0.312251
1700754007328125,-9.333773,1.612484,1.248839,1.845555,0.1544,0.310751
1700754007335937,-9.243773,1.259484,1.250839,1.848555,0.1108,0.310751
1700754007343750,-9.183773,0.834484,1.157839,1.833755,0.89,0.305951
1700754007351562,-9.127773,0.642484,0.970839,1.814455,0.59,0.296351
1700754007359375,-8.934773,0.654484,0.839839,1.791655,0.28,0.301151
1700754007367187,-8.888773,0.613484,0.611839,1.781455,0.57,0.309351
1700754007375000,-8.966773,0.758484,0.428839,1.776555,0.273,0.323851
1700754007382812,-9.191773,1.4484,0.254839,1.772055,0.708,0.363951
1700754007390625,-9.427773,1.120484,0.179839,1.751355,0.1253,0.391151
1700754007398437,-9.591773,0.960484,0.405839,1.735455,0.1814,0.418351
1700754007406250,-9.846773,0.639484,0.575839,1.717355,0.2296,0.420051
1700754007414062,-10.133773,0.560484,0.365839,1.708655,0.2388,0.399351
1700754007421875,-10.128773,0.876484,0.81839,1.663955,0.1672,0.397651
1700754007429687,-9.997773,1.201484,0.173839,1.591255,0.1923,0.383151
1700754007437500,-9.930773,1.344484,0.618839,1.552755,0.3309,0.354551
1700754007445312,-10.82773,1.455484,0.903839,1.534155,0.3887,0.316151
1700754007453125,-10.31773,1.367484,1.117839,1.534455,0.3048,0.295151
1700754007460937,-9.685773,1.274484,1.232839,1.482155,0.269,0.248751
1700754007468750,-9.216773,0.908484,1.193839,1.397055,0.3723,0.179951
1700754007476562,-8.782773,0.414484,1.252839,1.347055,0.5932,0.93851
1700754007484375,-8.905773,0.501484,1.392839,1.396255,0.7643,0.51949
1700754007492187,-9.158773,0.83484,1.338839,1.469355,0.7309,0.162549
1700754007500000,-9.645773,0.452516,0.738839,1.567655,0.4423,0.227149
1700754007507812,-9.706773,0.701516,0.338839,1.639355,0.1,0.224349
1700754007515625,-9.651773,0.767516,0.582839,1.730655,0.139,0.197249
1700754007523437,-10.230773,0.394516,0.840839,1.735955,0.402,0.133049
1700754007531250,-10.902773,0.280516,0.883839,1.661155,0.956,0.30449
1700754007539062,-11.232773,0.249516,0.940839,1.612155,0.1511,0.70551
1700754007546875,-11.256773,0.261516,0.928839,1.591255,0.2404,0.155651
1700754007554687,-11.161773,0.743516,0.495839,1.533355,0.3101,0.208651
1700754007562500,-10.991773,-1.276516,0.285839,1.490855,0.3363,0.194351
1700754007570312,-11.43773,-1.66516,0.757839,1.459855,0.3477,0.151051
1700754007578125,-11.185773,0.834516,1.260839,1.405155,0.2965,0.133351
1700754007585937,-10.895773,-1.5516,1.430839,1.349155,0.1915,0.155751
1700754007593750,-10.315773,-1.167516,1.147839,1.320855,0.1229,0.174851
1700754007601562,-9.728773,-1.326516,1.271839,1.302055,0.559,0.186051
1700754007609375,-9.383773,-1.450516,1.564839,1.249555,0.16,0.192251
1700754007617187,-9.314773,-1.494516,1.783839,1.177255,0.424,0.208351
1700754007625000,-9.429773,-1.444516,2.113839,1.104555,0.459,0.224451
1700754007632812,-9.837773,-1.201516,2.360839,1.67455,0.9,0.232451
1700754007640625,-10.358773,0.906516,2.511839,1.42855,0.692,0.242151
1700754007648437,-10.742773,0.732516,2.523839,1.11855,0.864,0.227751
1700754007656250,-10.819773,0.826516,2.516839,0.978055,0.507,0.210051
1700754007664062,-10.565773,-1.168516,2.511839,0.932555,0.304,0.187651
1700754007671875,-10.129773,-1.591516,2.353839,0.877155,0.604,0.144351
1700754007679687,-9.540773,-2.94516,2.18839,0.831055,0.741,0.114151
1700754007687500,-9.2773,-2.415516,1.598839,0.824455,0.775,0.90051
1700754007695312,-8.685773,-2.661516,1.241839,0.856555,0.825,0.62751
1700754007703125,-8.663773,-2.837516,0.986839,0.893655,0.1097,0.35351
1700754007710937,-8.830773,-2.921516,0.710839,0.978055,0.131,0.19551
1700754007718750,-9.41773,-3.47516,0.496839,1.63755,0.1345,0.14651
1700754007726562,-9.407773,-3.62516,0.399839,1.169055,0.1583,0.25751
1700754007734375,-9.783773,-3.52516,0.302839,1.278755,0.1864,0.35451
1700754007742187,-10.78773,-2.966516,0.241839,1.364655,0.1895,0.65851
1700754007750000,-10.166773,-2.738516,0.287839,1.466655,0.1832,0.86651
1700754007757812,-10.127773,-2.471516,0.241839,1.547555,0.1848,0.104351
1700754007765625,-10.24773,-2.205516,0.248839,1.641355,0.1692,0.120351
1700754007773437,-9.859773,-2.38516,0.338839,1.706555,0.1616,0.139451
1700754007781250,-9.652773,-1.918516,0.426839,1.769155,0.1581,0.152351
1700754007789062,-9.512773,-1.868516,0.352839,1.830755,0.185,0.155451
1700754007796875,-9.482773,-1.899516,0.419839,1.898355,0.2038,0.150651
1700754007804687,-9.577773,-1.972516,0.507839,1.930255,0.199,0.137951
1700754007812500,-9.737773,-1.968516,0.505839,1.953055,0.1869,0.126651
1700754007820312,-9.888773,-2.34516,0.399839,1.985355,0.1557,0.121851
1700754007828125,-10.39773,-2.130516,0.291839,2.39155,0.845,0.112051
1700754007835937,-10.29773,-2.139516,0.277839,2.83155,0.5,0.105551
1700754007843750,-9.967773,-2.164516,0.356839,2.127155,0.289,0.107051
1700754007851562,-9.985773,-2.133516,0.361839,2.180055,0.133,0.94251
1700754007859375,-10.27773,-2.176516,0.262839,2.221955,0.163,0.92651
1700754007867187,-10.4773,-2.203516,0.146839,2.273955,0.473,0.90951
1700754007875000,-10.50773,-2.222516,0.79839,2.312455,0.661,0.86251
1700754007882812,-10.154773,-2.150516,0.90161,2.364255,0.63,0.94251
1700754007890625,-10.147773,-1.995516,0.101161,2.419355,0.894,0.100651
1700754007898437,-10.11773,-1.959516,0.144161,2.437355,0.1067,0.119851
1700754007906250,-9.802773,-2.11516,0.108161,2.490655,0.897,0.134351
1700754007914062,-9.789773,-2.20516,0.92161,2.535955,0.227,0.166351
1700754007921875,-9.974773,-1.994516,0.119161,2.588155,0.214,0.187051
1700754007929687,-10.162773,-2.97516,0.214161,2.644655,0.381,0.219251
1700754007937500,-10.239773,-2.218516,0.302161,2.701655,0.254,0.257651
1700754007945312,-10.150773,-2.305516,0.257161,2.729455,0.96,0.286551
1700754007953125,-9.971773,-2.315516,0.90161,2.752455,0.27,0.299251
1700754007960937,-9.756773,-2.192516,0.115839,2.755755,0.245,0.296051
1700754007968750,-9.519773,-1.951516,0.221839,2.760155,0.401,0.272051
1700754007976562,-9.257773,-1.969516,0.227839,2.752055,0.584,0.241551
1700754007984375,-9.73773,-2.22516,0.396839,2.759555,0.692,0.199851
1700754007992187,-9.38773,-2.85516,0.640839,2.759155,0.517,0.166251
1700754008000000,-9.170773,-2.107516,0.771839,2.745655,0.283,0.143851
1700754008007812,-9.340773,-2.16516,0.787839,2.752155,0.298,0.137451
1700754008015625,-9.515773,-1.785516,0.882839,2.753555,0.564,0.129451
1700754008023437,-9.711773,-1.336516,0.858839,2.744155,0.639,0.122951
1700754008031250,-9.932773,0.946516,0.733839,2.750855,0.608,0.134151
1700754008039062,-10.181773,0.686516,0.627839,2.760155,0.566,0.145551
1700754008046875,-10.382773,0.445516,0.616839,2.756355,0.968,0.175751
1700754008054687,-10.418773,0.319516,0.668839,2.736055,0.1407,0.209351
1700754008062500,-10.256773,0.347516,0.555839,2.704355,0.1817,0.246251
1700754008070312,-9.974773,0.462516,0.578839,2.649655,0.1899,0.278351
1700754008078125,-9.805773,0.601516,0.550839,2.589655,0.1717,0.286451
1700754008085937,-9.794773,0.511516,0.553839,2.541455,0.1636,0.281651
1700754008093750,-9.732773,0.350516,0.638839,2.492655,0.165,0.252751
1700754008101562,-9.668773,0.288516,0.740839,2.437755,0.1583,0.222251
1700754008109375,-9.722773,0.191516,0.851839,2.404355,0.134,0.200051
1700754008117187,-9.963773,0.13484,0.855839,2.380155,0.1072,0.188751
1700754008125000,-10.191773,0.150484,0.898839,2.366855,0.1075,0.182451
1700754008132812,-10.352773,0.89484,0.865839,2.359555,0.101,0.209551
1700754008140625,-10.510773,0.304484,0.838839,2.345455,0.934,0.246351
1700754008148437,-10.501773,0.650484,0.688839,2.302055,0.1144,0.283351
1700754008156250,-10.338773,0.851484,0.460839,2.263755,0.1351,0.323451
1700754008164062,-10.52773,0.819484,0.302839,2.205055,0.1473,0.355351
1700754008171875,-9.755773,0.492484,0.112839,2.140455,0.143,0.371451
1700754008179687,-9.443773,0.135484,0.11161,2.91955,0.1167,0.379551
1700754008187500,-9.121773,0.89516,0.70161,2.72255,0.875,0.389251
1700754008195312,-8.963773,0.227516,0.79161,2.73855,0.296,0.392451
1700754008203125,-8.998773,0.246516,0.111161,2.105655,0.108,0.389351
1700754008210937,-9.132773,0.268516,0.115161,2.137555,0.45,0.379751
1700754008218750,-9.296773,0.365516,0.194161,2.182055,0.609,0.342951
1700754008226562,-9.455773,0.509516,0.282161,2.205955,0.583,0.294751
1700754008234375,-9.579773,0.596516,0.409161,2.211455,0.601,0.230751
1700754008242187,-9.610773,0.647516,0.506161,2.240055,0.764,0.174551
1700754008250000,-9.534773,0.508516,0.551161,2.258555,0.108,0.120051
1700754008257812,-9.361773,0.209516,0.495161,2.275455,0.1281,0.88151
1700754008265625,-9.268773,0.83484,0.450161,2.296555,0.1662,0.68751
1700754008273437,-9.186773,0.317484,0.527161,2.322055,0.1959,0.59151
1700754008281250,-9.89773,0.552484,0.538161,2.341555,0.2207,0.76851
1700754008289062,-9.108773,0.661484,0.509161,2.355855,0.2547,0.99351
1700754008296875,-9.246773,0.767484,0.475161,2.364055,0.2886,0.129951
1700754008304687,-9.403773,0.871484,0.409161,2.351755,0.2931,0.174751
1700754008312500,-9.535773,0.871484,0.429161,2.328055,0.2695,0.201951
1700754008320312,-9.645773,0.855484,0.461161,2.293055,0.2491,0.232351
1700754008328125,-9.741773,0.849484,0.443161,2.264455,0.2443,0.254751
1700754008335937,-9.796773,0.880484,0.425161,2.212355,0.2498,0.271051
1700754008343750,-9.778773,0.885484,0.416161,2.175455,0.2121,0.287051
1700754008351562,-9.749773,0.756484,0.337161,2.135255,0.2027,0.293451
1700754008359375,-9.778773,0.743484,0.172161,2.110955,0.1978,0.295051
1700754008367187,-9.862773,0.770484,0.29161,2.82255,0.1935,0.290151
1700754008375000,-9.950773,0.693484,0.65839,2.39755,0.1761,0.269451
1700754008382812,-10.4773,0.525484,0.137839,2.10655,0.1592,0.242151
1700754008390625,-10.103773,0.416484,0.196839,1.975055,0.1579,0.221251
1700754008398437,-10.178773,0.434484,0.284839,1.934655,0.1596,0.214851
1700754008406250,-10.208773,0.492484,0.386839,1.900755,0.144,0.206851
1700754008414062,-10.203773,0.431484,0.460839,1.876855,0.1428,0.197051
1700754008421875,-10.194773,0.494484,0.469839,1.855455,0.1331,0.192351
1700754008429687,-10.185773,0.640484,0.413839,1.869755,0.1378,0.181151
1700754008437500,-10.136773,0.657484,0.345839,1.864855,0.1239,0.168351
1700754008445312,-10.66773,0.637484,0.297839,1.884055,0.1161,0.160351
1700754008453125,-10.25773,0.582484,0.227839,1.905455,0.868,0.157051
1700754008460937,-9.955773,0.557484,0.175839,1.907955,0.641,0.159951
1700754008468750,-9.858773,0.575484,0.169839,1.915455,0.636,0.160151
1700754008476562,-9.806773,0.610484,0.85839,1.907155,0.1055,0.166651
1700754008484375,-9.760773,0.671484,0.45161,1.902355,0.1177,0.185951
1700754008492187,-9.679773,0.756484,0.104161,1.901055,0.99,0.197151
1700754008500000,-9.562773,0.860484,0.39161,1.904955,0.885,0.209751
1700754008507812,-9.507773,0.939484,0.42839,1.907955,0.1178,0.217851
1700754008515625,-9.621773,1.26484,0.67839,1.902055,0.1545,0.211751
1700754008523437,-9.863773,1.93484,0.112839,1.890855,0.1829,0.203651
1700754008531250,-10.115773,1.296484,0.173839,1.865255,0.1535,0.195551
1700754008539062,-10.262773,1.441484,0.221839,1.800555,0.1064,0.192451
1700754008546875,-10.305773,1.553484,0.257839,1.725655,0.539,0.193851
1700754008554687,-10.297773,1.653484,0.325839,1.645055,0.146,0.200251
1700754008562500,-10.277773,1.608484,0.322839,1.559755,0.52,0.208251
1700754008570312,-10.155773,1.606484,0.437839,1.485555,0.77,0.222751
1700754008578125,-10.25773,1.600484,0.546839,1.412855,0.49,0.233951
1700754008585937,-9.852773,1.475484,0.652839,1.356655,0.263,0.251551
1700754008593750,-9.732773,1.227484,0.756839,1.298555,0.699,0.264451
1700754008601562,-9.717773,0.854484,0.853839,1.246855,0.71,0.278951
1700754008609375,-9.683773,0.624484,0.970839,1.202355,0.307,0.290051
1700754008617187,-9.653773,0.499484,0.961839,1.176555,0.167,0.310951
1700754008625000,-9.532773,0.513484,1.74839,1.159255,0.669,0.341451
1700754008632812,-9.322773,0.384484,1.293839,1.149555,0.361,0.365551
1700754008640625,-9.623773,0.657484,1.313839,1.153055,0.423,0.371851
1700754008648437,-10.40773,0.763484,1.361839,1.127855,0.1387,0.360851
1700754008656250,-10.531773,0.328484,1.454839,1.160855,0.2123,0.320751
1700754008664062,-10.964773,0.120484,1.398839,1.176255,0.2248,0.279151
1700754008671875,-11.155773,0.291516,1.82839,1.158055,0.1924,0.229451
1700754008679687,-11.773,0.522516,1.281839,1.140155,0.1355,0.163651
1700754008687500,-10.605773,0.521516,1.443839,1.97255,0.1341,0.99551
1700754008695312,-10.235773,0.131516,1.154839,1.16455,0.1096,0.59451
1700754008703125,-9.624773,0.58484,1.56839,0.960555,0.439,0.81851
1700754008710937,-9.155773,0.190484,1.273839,0.950455,0.43,0.109251
1700754008718750,-9.28773,0.353484,1.241839,0.915355,0.757,0.136551
1700754008726562,-9.51773,0.551484,1.200839,0.868655,0.845,0.170251
1700754008734375,-9.157773,0.602484,1.123839,0.830255,0.88,0.166951
1700754008742187,-9.348773,0.542484,0.993839,0.786255,0.628,0.150951
1700754008750000,-9.388773,0.340484,0.927839,0.743255,0.56,0.134751
1700754008757812,-9.332773,0.161484,0.977839,0.681755,0.288,0.118751
1700754008765625,-9.349773,0.105484,1.13839,0.628055,0.68,0.86751
1700754008773437,-9.491773,0.134484,0.970839,0.553655,0.306,0.80351
1700754008781250,-9.677773,0.146484,0.977839,0.482455,0.351,0.77151
1700754008789062,-9.812773,0.205484,1.74839,0.414555,0.397,0.77251
1700754008796875,-9.823773,0.6484,1.149839,0.324355,0.271,0.81951
1700754008804687,-9.746773,0.281516,1.180839,0.231855,0.158,0.64451
1700754008812500,-9.706773,0.570516,1.144839,0.162355,0.193,0.37151
1700754008820312,-9.661773,0.896516,1.83839,0.121955,0.56,0.6651
1700754008828125,-9.669773,-1.196516,1.839,0.88555,0.37,0.34849
1700754008835937,-9.689773,-1.456516,0.871839,0.69755,0.125,0.63949
1700754008843750,-9.690773,-1.688516,0.783839,0.69555,0.294,0.86449
1700754008851562,-9.704773,-1.759516,0.754839,0.67755,0.31,0.99149
1700754008859375,-9.712773,-1.811516,0.731839,0.65855,0.172,0.102349
1700754008867187,-9.744773,-1.756516,0.731839,0.70755,0.48,0.87849
1700754008875000,-9.845773,-1.758516,0.727839,0.73955,0.245,0.68549
1700754008882812,-9.990773,-1.830516,0.632839,0.83855,0.557,0.44549
1700754008890625,-10.142773,-1.895516,0.632839,0.94955,0.565,0.15549
1700754008898437,-10.241773,-1.949516,0.722839,0.105255,0.691,0.16451
1700754008906250,-10.215773,-2.41516,0.822839,0.97755,0.675,0.45251
1700754008914062,-10.159773,-2.86516,0.903839,0.98355,0.58,0.83651
1700754008921875,-10.107773,-2.73516,1.11839,0.101555,0.762,0.117451
1700754008929687,-9.956773,-2.66516,1.11839,0.98555,0.634,0.144651
1700754008937500,-9.729773,-2.28516,1.61839,0.116855,0.464,0.159051
1700754008945312,-9.542773,-1.910516,1.153839,0.116655,0.303,0.171951
1700754008953125,-9.424773,-1.787516,1.183839,0.118855,0.34,0.174951
1700754008960937,-9.328773,-1.638516,1.244839,0.112255,0.386,0.167051
1700754008968750,-9.310773,-1.481516,1.318839,0.97555,0.402,0.154151
1700754008976562,-9.388773,-1.403516,1.273839,0.99155,0.484,0.136451
1700754008984375,-9.375773,-1.393516,1.106839,0.67755,0.28,0.104551
1700754008992187,-9.246773,-1.364516,1.79839,0.45155,0.346,0.91751
1700754009000000,-9.227773,-1.407516,1.18839,0.38355,0.31,0.66051
1700754009007812,-9.450773,-1.370516,0.991839,0.21755,0.314,0.40451
1700754009015625,-9.704773,-1.424516,1.45839,0.16655,0.346,0.19651
1700754009023437,-9.856773,-1.479516,1.120839,0.11855,0.332,0.9951
1700754009031250,-9.998773,-1.424516,1.77839,0.4645,0.237,0.1149
1700754009039062,-10.63773,-1.374516,0.964839,0.12345,0.196,0.15749
1700754009046875,-9.957773,-1.341516,0.844839,0.12245,0.644,0.39849
1700754009054687,-9.746773,-1.261516,0.806839,0.13745,0.718,0.60749
1700754009062500,-9.578773,-1.142516,0.799839,0.1155,0.457,0.94149
1700754009070312,-9.561773,0.948516,0.819839,0.20155,0.35,0.103749
1700754009078125,-9.677773,0.867516,0.851839,0.31155,0.465,0.110149
1700754009085937,-9.759773,0.934516,0.848839,0.42655,0.715,0.102149
1700754009093750,-9.783773,0.932516,0.912839,0.48955,0.854,0.94149
1700754009101562,-9.814773,-1.6516,0.977839,0.57055,0.1069,0.74849
1700754009109375,-9.866773,-1.175516,0.939839,0.54455,0.1088,0.57349
1700754009117187,-9.870773,-1.309516,0.912839,0.49655,0.788,0.41249
1700754009125000,-9.893773,-1.363516,0.973839,0.54355,0.8,0.31549
1700754009132812,-9.985773,-1.373516,1.61839,0.43055,0.1034,0.26749
1700754009140625,-10.83773,-1.296516,1.149839,0.30255,0.832,0.29949
1700754009148437,-10.129773,-1.218516,1.224839,0.18955,0.724,0.36449
1700754009156250,-10.121773,-1.112516,1.217839,0.12755,0.351,0.41249
1700754009164062,-10.10773,0.933516,1.169839,0.5055,0.54,0.36549
1700754009171875,-9.908773,0.776516,1.149839,0.12145,0.408,0.38349
1700754009179687,-9.859773,0.564516,1.142839,0.21745,0.798,0.47949
1700754009187500,-9.821773,0.418516,1.149839,0.39645,0.1002,0.54349
1700754009195312,-9.804773,0.402516,1.135839,0.59545,0.127,0.76649
1700754009203125,-9.757773,0.284516,1.117839,0.65745,0.1546,0.95949
1700754009210937,-9.683773,0.91516,1.61839,0.83245,0.1697,0.108949
1700754009218750,-9.708773,0.19516,1.839,0.91745,0.1543,0.120049
1700754009226562,-9.834773,0.79516,0.909839,0.108345,0.1328,0.121549
1700754009234375,-9.920773,0.195516,0.799839,0.127445,0.1264,0.115149
1700754009242187,-9.912773,0.311516,0.772839,0.136745,0.1323,0.115349
1700754009250000,-9.849773,0.407516,0.817839,0.147245,0.1223,0.108649
1700754009257812,-9.783773,0.453516,0.891839,0.161745,0.1255,0.103749
1700754009265625,-9.718773,0.445516,0.968839,0.176145,0.138,0.100649
1700754009273437,-9.587773,0.405516,1.49839,0.192145,0.1455,0.110249
1700754009281250,-9.536773,0.328516,1.146839,0.208045,0.1294,0.124849
1700754009289062,-9.570773,0.229516,1.205839,0.244245,0.1235,0.140749
1700754009296875,-9.645773,0.130516,1.142839,0.267045,0.1174,0.143849
1700754009304687,-9.703773,0.56516,1.88839,0.278045,0.1343,0.151949
1700754009312500,-9.839773,0.32516,1.88839,0.286445,0.1422,0.163149
1700754009320312,-10.34773,0.16516,1.54839,0.281545,0.1671,0.169549
1700754009328125,-10.219773,0.48516,1.18839,0.276745,0.2171,0.183949
1700754009335937,-10.328773,0.97516,0.921839,0.278045,0.2683,0.193649
1700754009343750,-10.321773,0.138516,0.842839,0.282345,0.3176,0.205149
1700754009351562,-10.179773,0.191516,0.770839,0.295045,0.3722,0.209949
1700754009359375,-10.7773,0.196516,0.799839,0.312445,0.4048,0.203649
1700754009367187,-9.770773,0.159516,0.783839,0.348045,0.416,0.197149
1700754009375000,-9.581773,0.67516,0.625839,0.370445,0.4131,0.179449
1700754009382812,-9.628773,0.27484,0.595839,0.389345,0.4033,0.174849
1700754009390625,-9.812773,0.76484,0.693839,0.391045,0.4188,0.189249
1700754009398437,-10.56773,0.208484,0.769839,0.377745,0.5027,0.211849
1700754009406250,-10.309773,0.347484,0.973839,0.366645,0.5942,0.264849
1700754009414062,-10.617773,0.406484,1.113839,0.366845,0.6843,0.320949
1700754009421875,-10.781773,0.486484,1.116839,0.407245,0.7713,0.361049
1700754009429687,-10.600773,0.500484,1.72839,0.503845,0.8256,0.386849
1700754009437500,-10.274773,0.481484,1.147839,0.644945,0.7904,0.385049
1700754009445312,-9.826773,0.557484,1.318839,0.780545,0.7001,0.368949
1700754009453125,-9.399773,0.602484,1.372839,0.877445,0.6475,0.343249
1700754009460937,-9.14773,0.652484,1.367839,0.907945,0.6964,0.320749
1700754009468750,-8.725773,0.545484,1.281839,0.909745,0.791,0.292149
1700754009476562,-8.477773,0.486484,1.89839,0.922445,0.7899,0.261649
1700754009484375,-8.504773,0.358484,0.974839,0.960245,0.6529,0.250349
1700754009492187,-8.896773,0.205484,0.913839,0.971445,0.4292,0.232249
1700754009500000,-9.485773,0.98516,0.920839,0.986245,0.2996,0.222649
1700754009507812,-9.933773,0.448516,1.11839,0.995845,0.2672,0.195449
1700754009515625,-10.185773,0.765516,1.14839,0.997345,0.2812,0.195449
1700754009523437,-10.235773,0.874516,1.5839,0.998845,0.3296,0.195449
1700754009531250,-10.94773,0.944516,0.910839,-1.12545,0.365,0.190849
1700754009539062,-9.929773,0.979516,0.880839,-1.35645,0.3498,0.192249
1700754009546875,-9.816773,0.894516,0.885839,-1.65345,0.2875,0.206549
1700754009554687,-9.790773,0.754516,0.943839,-1.100345,0.2241,0.220749
1700754009562500,-9.772773,0.529516,1.16839,-1.142345,0.2177,0.236849
1700754009570312,-9.686773,0.316516,1.9839,-1.175945,0.2174,0.240149
1700754009578125,-9.584773,0.63516,0.932839,-1.210045,0.2332,0.248049
1700754009585937,-9.507773,0.163484,0.875839,-1.230945,0.2597,0.251349
1700754009593750,-9.529773,0.188484,0.859839,-1.252145,0.249,0.251249
1700754009601562,-9.501773,0.112484,0.864839,-1.302345,0.2273,0.249549
1700754009609375,-9.563773,0.53516,0.882839,-1.338845,0.2127,0.246649
1700754009617187,-9.631773,0.82516,0.887839,-1.395545,0.2087,0.224049
1700754009625000,-9.619773,0.100516,0.803839,-1.464745,0.2056,0.216049
1700754009632812,-9.574773,0.138516,0.726839,-1.521345,0.1903,0.207949
1700754009640625,-9.528773,0.203516,0.695839,-1.557145,0.1669,0.219149
1700754009648437,-9.498773,0.149516,0.695839,-1.589445,0.1478,0.236849
1700754009656250,-9.425773,0.91516,0.640839,-1.626845,0.1524,0.267349
1700754009664062,-9.336773,0.7484,0.568839,-1.663145,0.1526,0.294449
1700754009671875,-9.230773,0.90484,0.514839,-1.705545,0.1526,0.319949
1700754009679687,-9.215773,0.143484,0.523839,-1.720645,0.1354,0.351949
1700754009687500,-9.309773,0.277484,0.557839,-1.748345,0.1037,0.388949
1700754009695312,-9.418773,0.336484,0.561839,-1.785945,0.802,0.414549
1700754009703125,-9.567773,0.305484,0.480839,-1.813745,0.552,0.430549
1700754009710937,-9.551773,0.303484,0.390839,-1.860945,0.523,0.444849
1700754009718750,-9.695773,0.288484,0.333839,-1.902645,0.238,0.453049
1700754009726562,-9.757773,0.434484,0.573839,-1.938445,0.397,0.460949
1700754009734375,-9.772773,0.347484,0.821839,-1.978545,0.506,0.452949
1700754009742187,-10.5773,0.138484,0.943839,-2.2045,0.109,0.446249
1700754009750000,-10.294773,0.81516,0.987839,-2.30645,0.345,0.425549
1700754009757812,-10.295773,0.430516,0.826839,-2.59845,0.575,0.399749
1700754009765625,-10.93773,0.916516,0.781839,-2.73945,0.808,0.370949
1700754009773437,-10.23773,-1.227516,0.928839,-2.112745,0.1597,0.322749
1700754009781250,-10.218773,-1.412516,1.122839,-2.143245,0.2465,0.266549
1700754009789062,-10.383773,-1.577516,1.312839,-2.204445,0.3047,0.195849
1700754009796875,-10.405773,-1.666516,1.285839,-2.258445,0.3295,0.141449
1700754009804687,-10.156773,-1.655516,1.115839,-2.298145,0.3029,0.109449
1700754009812500,-9.699773,-1.619516,0.916839,-2.315945,0.2543,0.114249
1700754009820312,-9.247773,-1.664516,0.866839,-2.282145,0.236,0.136749
1700754009828125,-9.40773,-1.540516,1.51839,-2.269645,0.2654,0.143049
1700754009835937,-9.47773,-1.345516,1.133839,-2.287645,0.315,0.130149
1700754009843750,-9.146773,-1.162516,1.45839,-2.297445,0.3755,0.97949
1700754009851562,-9.364773,-1.57516,0.963839,-2.286045,0.4014,0.54549
1700754009859375,-9.629773,0.920516,1.70839,-2.291445,0.3933,0.17451
1700754009867187,-9.801773,0.810516,1.86839,-2.318945,0.3353,0.95851
1700754009875000,-9.859773,0.665516,1.124839,-2.333845,0.2708,0.171151
1700754009882812,-9.797773,0.496516,1.144839,-2.345345,0.1944,0.223851
1700754009890625,-9.624773,0.315516,1.151839,-2.355545,0.1134,0.262151
1700754009898437,-9.549773,0.334516,1.40839,-2.370045,0.1088,0.254151
1700754009906250,-9.830773,0.306516,0.932839,-2.403445,0.1097,0.228751
1700754009914062,-10.316773,0.123516,0.935839,-2.448645,0.1123,0.170851
1700754009921875,-10.872773,0.93484,0.987839,-2.527545,0.1109,0.84451
1700754009929687,-11.239773,0.285484,0.899839,-2.607645,0.1064,0.15551
1700754009937500,-11.352773,0.463484,0.806839,-2.680845,0.616,0.59749
1700754009945312,-11.288773,0.726484,0.709839,-2.745445,0.82,0.103149
1700754009953125,-10.867773,1.25484,0.693839,-2.798745,0.782,0.130449
1700754009960937,-10.378773,1.74484,0.636839,-2.866145,0.1198,0.153049
1700754009968750,-10.141773,0.949484,0.476839,-2.918045,0.137,0.173849
1700754009976562,-9.972773,0.734484,0.277839,-2.958745,0.1448,0.201049
1700754009984375,-9.814773,0.508484,0.150839,-2.979345,0.177,0.222049
1700754009992187,-9.692773,0.339484,0.98839,-2.962245,0.2145,0.252349
1700754010000000,-9.741773,0.149484,0.44839,-2.922445,0.2033,0.292449
1700754010007812,-10.5773,0.48516,0.17839,-2.867645,0.1777,0.321449
1700754010015625,-10.256773,0.233516,0.9161,-2.838245,0.171,0.329549
1700754010023437,-10.226773,0.489516,0.266161,-2.833645,0.2043,0.316549
1700754010031250,-10.86773,0.683516,0.571161,-2.829945,0.259,0.297349
1700754010039062,-9.998773,0.691516,0.598161,-2.828045,0.2655,0.270149
1700754010046875,-9.907773,0.870516,0.661161,-2.843745,0.2248,0.247749
1700754010054687,-9.922773,0.732516,0.718161,-2.871445,0.1989,0.225149
1700754010062500,-9.863773,0.643516,0.743161,-2.882545,0.1819,0.205949
1700754010070312,-9.802773,0.562516,0.723161,-2.878845,0.1772,0.178749
1700754010078125,-9.863773,0.497516,0.680161,-2.846645,0.1696,0.162649
1700754010085937,-10.5773,0.458516,0.619161,-2.826545,0.1787,0.141949
1700754010093750,-10.207773,0.329516,0.582161,-2.811445,0.2209,0.119649
1700754010101562,-10.377773,0.234516,0.600161,-2.822545,0.2976,0.113149
1700754010109375,-10.399773,0.296516,0.528161,-2.826945,0.3895,0.111649
1700754010117187,-10.481773,0.415516,0.433161,-2.849045,0.4156,0.119849
1700754010125000,-10.547773,0.624516,0.320161,-2.889345,0.4591,0.142249
1700754010132812,-10.453773,0.727516,0.214161,-2.941045,0.509,0.156649
1700754010140625,-10.156773,0.784516,0.210161,-2.968545,0.5605,0.172749
1700754010148437,-9.871773,0.751516,0.201161,-2.979945,0.5619,0.190349
1700754010156250,-9.764773,0.850516,0.219161,-2.956045,0.5242,0.209649
1700754010164062,-9.834773,0.913516,0.221161,-2.934045,0.5274,0.233549
1700754010171875,-9.924773,0.799516,0.262161,-2.904945,0.5628,0.262549
1700754010179687,-9.938773,0.669516,0.320161,-2.874845,0.5878,0.292849
1700754010187500,-9.890773,0.606516,0.327161,-2.862045,0.589,0.318549
1700754010195312,-9.958773,0.639516,0.415161,-2.852345,0.5698,0.337949
1700754010203125,-10.71773,0.545516,0.564161,-2.826245,0.5834,0.352549
1700754010210937,-10.103773,0.381516,0.659161,-2.811845,0.6053,0.355649
1700754010218750,-10.133773,0.249516,0.749161,-2.807245,0.5884,0.353949
1700754010226562,-10.179773,0.147516,0.919161,-2.815445,0.559,0.341049
1700754010234375,-10.272773,0.58516,-1.93161,-2.820845,0.5485,0.345749
1700754010242187,-10.255773,0.4484,-1.29161,-2.840145,0.5419,0.361849
1700754010250000,-10.189773,0.36484,0.957161,-2.840245,0.5216,0.360249
1700754010257812,-10.170773,0.124484,0.862161,-2.841745,0.5166,0.368349
1700754010265625,-10.141773,0.123484,0.752161,-2.858045,0.4916,0.374749
1700754010273437,-10.94773,0.121484,0.562161,-2.850545,0.4497,0.389049
1700754010281250,-10.118773,0.93484,0.646161,-2.836745,0.3984,0.398549
1700754010289062,-10.68773,0.92484,0.777161,-2.814045,0.4311,0.401749
1700754010296875,-9.888773,0.32516,0.736161,-2.805145,0.4853,0.395549
1700754010304687,-9.751773,0.299516,0.686161,-2.821645,0.4702,0.387349
1700754010312500,-9.622773,0.463516,0.655161,-2.822945,0.4668,0.379449
1700754010320312,-9.399773,0.552516,0.574161,-2.793645,0.4669,0.365049
1700754010328125,-9.91773,0.772516,0.461161,-2.751345,0.4794,0.344249
1700754010335937,-8.890773,0.894516,0.344161,-2.689945,0.4655,0.321749
1700754010343750,-8.760773,0.861516,0.188161,-2.621845,0.4439,0.289649
1700754010351562,-8.720773,0.937516,0.23161,-2.546345,0.4384,0.252549
1700754010359375,-8.770773,-1.137516,0.112839,-2.461345,0.4255,0.214349
1700754010367187,-8.834773,-1.302516,0.270839,-2.397945,0.4429,0.174249
1700754010375000,-8.863773,-1.370516,0.387839,-2.351945,0.4647,0.137549
1700754010382812,-8.887773,-1.325516,0.365839,-2.326445,0.4829,0.97749
1700754010390625,-9.5773,-1.219516,0.611839,-2.287745,0.4569,0.65549
1700754010398437,-9.231773,-1.181516,0.866839,-2.246145,0.3905,0.28449
1700754010406250,-9.503773,-1.239516,0.835839,-2.194445,0.3456,0.6851
1700754010414062,-9.708773,-1.353516,0.650839,-2.148845,0.344,0.30851
1700754010421875,-9.689773,-1.391516,0.611839,-2.104845,0.3847,0.53251
1700754010429687,-9.563773,-1.375516,0.860839,-2.43645,0.3834,0.62951
1700754010437500,-9.596773,-1.183516,1.165839,-1.983745,0.3378,0.67651
1700754010445312,-9.715773,-1.66516,1.302839,-1.939145,0.3079,0.37251
1700754010453125,-10.7773,-1.6516,1.488839,-1.886145,0.2872,0.1951
1700754010460937,-10.463773,-1.81516,1.628839,-1.825645,0.2773,0.57349
1700754010468750,-10.904773,-1.122516,1.509839,-1.777445,0.3078,0.115149
1700754010476562,-11.187773,-1.176516,1.141839,-1.766745,0.404,0.192149
1700754010484375,-11.214773,-1.269516,1.184839,-1.767445,0.4922,0.286749
1700754010492187,-11.65773,-1.114516,1.215839,-1.780945,0.5334,0.378249
1700754010500000,-10.717773,-1.66516,1.23839,-1.802545,0.6421,0.461549
1700754010507812,-10.317773,-1.52516,0.749839,-1.834845,0.7755,0.538649
1700754010515625,-9.582773,0.888516,0.724839,-1.886545,0.8608,0.593249
1700754010523437,-8.972773,0.674516,0.618839,-1.940445,0.8043,0.636549
1700754010531250,-8.563773,0.350516,0.482839,-2.2845,0.7173,0.655649
1700754010539062,-8.358773,0.13484,0.262839,-2.64845,0.6145,0.666749
1700754010546875,-8.478773,0.280484,0.64839,-2.102645,0.5504,0.697149
1700754010554687,-8.538773,0.654484,0.3839,-2.161245,0.5253,0.727549
1700754010562500,-8.651773,0.663484,0.215161,-2.200445,0.5022,0.737049
1700754010570312,-8.761773,0.550484,0.308161,-2.255645,0.4898,0.748249
1700754010578125,-8.802773,0.245484,0.265161,-2.339845,0.4478,0.754649
1700754010585937,-9.139773,0.161516,0.265161,-2.424245,0.3544,0.752949
1700754010593750,-9.688773,0.553516,0.271161,-2.507045,0.2487,0.743249
1700754010601562,-10.353773,-1.5516,0.345161,-2.559245,0.1804,0.739849
1700754010609375,-11.33773,-1.513516,0.514161,-2.573545,0.1961,0.730249
1700754010617187,-11.290773,-1.940516,0.629161,-2.576445,0.2696,0.720649
1700754010625000,-11.189773,-2.281516,0.685161,-2.578545,0.3349,0.688749
1700754010632812,-10.835773,-2.532516,0.749161,-2.588345,0.3792,0.667749
1700754010640625,-10.313773,-2.594516,0.571161,-2.574745,0.4163,0.653449
1700754010648437,-9.827773,-2.606516,0.212161,-2.568145,0.4181,0.639049
1700754010656250,-9.512773,-2.564516,0.4839,-2.553545,0.3961,0.632649
1700754010664062,-9.421773,-2.530516,0.173839,-2.529345,0.3855,0.614949
1700754010671875,-9.419773,-2.473516,0.311839,-2.496845,0.3809,0.597349
1700754010679687,-9.472773,-2.441516,0.417839,-2.491645,0.3496,0.574949
1700754010687500,-9.556773,-2.340516,0.451839,-2.477245,0.297,0.544449
1700754010695312,-9.582773,-2.233516,0.498839,-2.474245,0.2849,0.529849
1700754010703125,-9.497773,-2.242516,0.451839,-2.472045,0.2786,0.505949
1700754010710937,-9.347773,-2.175516,0.430839,-2.475345,0.2588,0.478549
1700754010718750,-9.275773,-2.178516,0.372839,-2.469145,0.2233,0.460749
1700754010726562,-9.296773,-2.165516,0.329839,-2.483145,0.1982,0.435249
1700754010734375,-9.423773,-2.205516,0.259839,-2.489645,0.1596,0.406349
1700754010742187,-9.662773,-2.126516,0.214839,-2.484745,0.1379,0.393449
1700754010750000,-9.799773,-2.167516,0.137839,-2.501445,0.1515,0.369749
1700754010757812,-9.813773,-2.286516,0.164839,-2.520945,0.1642,0.366449
1700754010765625,-9.960773,-2.265516,0.178839,-2.524745,0.1645,0.380749
1700754010773437,-9.992773,-2.191516,0.214839,-2.533045,0.1832,0.393449
1700754010781250,-9.926773,-2.16516,0.341839,-2.553545,0.2341,0.414549
1700754010789062,-9.959773,-1.795516,0.406839,-2.563245,0.2324,0.428949
1700754010796875,-10.18773,-1.667516,0.404839,-2.596145,0.2188,0.436849
1700754010804687,-10.83773,-1.664516,0.440839,-2.633145,0.225,0.433649
1700754010812500,-10.166773,-1.678516,0.395839,-2.667245,0.2143,0.433549
1700754010820312,-10.197773,-1.688516,0.327839,-2.697745,0.2254,0.420749
1700754010828125,-10.110773,-1.867516,0.259839,-2.718245,0.2468,0.428949
1700754010835937,-10.159773,-1.968516,0.241839,-2.721845,0.2472,0.425549
1700754010843750,-10.268773,-2.30516,0.325839,-2.725045,0.2439,0.432049
1700754010851562,-10.315773,-2.117516,0.330839,-2.740745,0.2419,0.430649
1700754010859375,-10.238773,-2.227516,0.336839,-2.765445,0.2614,0.422349
1700754010867187,-10.23773,-2.546516,0.300839,-2.802045,0.2689,0.412849
1700754010875000,-9.731773,-2.801516,0.266839,-2.803645,0.2438,0.419349
1700754010882812,-9.452773,-2.975516,0.325839,-2.800745,0.2299,0.425649
1700754010890625,-9.214773,-3.24516,0.507839,-2.778745,0.2143,0.449649
1700754010898437,-9.206773,-2.987516,0.613839,-2.756345,0.1859,0.468849
1700754010906250,-9.280773,-2.984516,0.530839,-2.719745,0.1687,0.496049
1700754010914062,-9.427773,-2.871516,0.537839,-2.639345,0.164,0.504049
1700754010921875,-9.415773,-2.826516,0.661839,-2.564645,0.1397,0.515549
1700754010929687,-9.485773,-2.461516,0.907839,-2.481745,0.1059,0.526449
1700754010937500,-9.563773,-2.32516,1.196839,-2.446045,0.749,0.497549
1700754010945312,-9.468773,-1.608516,1.499839,-2.413045,0.668,0.473749
1700754010953125,-9.737773,-1.233516,1.546839,-2.380645,0.317,0.414249
1700754010960937,-10.30773,-1.364516,1.341839,-2.364045,0.165,0.362949
1700754010968750,-10.99773,-1.714516,1.294839,-2.337545,0.325,0.305249
1700754010976562,-10.83773,-2.316516,1.242839,-2.283445,0.159,0.225049
1700754010984375,-9.871773,-3.46516,1.97839,-2.229245,0.3,0.167449
1700754010992187,-9.604773,-3.771516,1.122839,-2.164245,0.7,0.119349
1700754011000000,-9.553773,-3.999516,1.409839,-2.131145,0.213,0.76249
1700754011007812,-9.421773,-4.93516,1.671839,-2.148945,0.488,0.39249
1700754011015625,-9.170773,-3.865516,2.138839,-2.158545,0.829,0.21549
1700754011023437,-8.992773,-3.197516,2.594839,-2.187945,0.1107,0.16649
1700754011031250,-8.815773,-2.305516,2.772839,-2.187845,0.1215,0.7049
1700754011039062,-8.538773,-1.482516,2.869839,-2.150845,0.1154,0.16649
1700754011046875,-8.445773,0.606516,2.589839,-2.131745,0.747,0.27849
1700754011054687,-8.517773,0.504484,2.320839,-2.150245,0.284,0.23249
1700754011062500,-8.842773,1.218484,2.27839,-2.171745,0.358,0.32649
1700754011070312,-9.469773,1.672484,1.727839,-2.178845,0.953,0.59849
1700754011078125,-10.63773,1.997484,1.548839,-2.203345,0.768,0.90349
1700754011085937,-10.467773,2.200484,1.467839,-2.241645,0.196,0.112949
1700754011093750,-10.691773,2.210484,1.359839,-2.307845,0.898,0.133749
1700754011101562,-10.765773,1.957484,1.158839,-2.362645,0.1223,0.156249
1700754011109375,-10.751773,1.726484,0.980839,-2.412445,0.1157,0.166049
1700754011117187,-10.602773,1.487484,0.862839,-2.482445,0.988,0.186749
1700754011125000,-10.574773,1.270484,0.725839,-2.563545,0.662,0.196249
1700754011132812,-10.461773,1.248484,0.553839,-2.638445,0.272,0.223449
1700754011140625,-10.459773,1.123484,0.456839,-2.708745,0.54,0.266549
1700754011148437,-10.554773,1.30484,0.413839,-2.773845,0.497,0.322749
1700754011156250,-10.704773,0.820484,0.476839,-2.844145,0.981,0.370749
1700754011164062,-10.841773,0.617484,0.506839,-2.887545,0.1269,0.395049
1700754011171875,-10.935773,0.428484,0.508839,-2.896545,0.1014,0.415549
1700754011179687,-10.983773,0.232484,0.476839,-2.890245,0.685,0.423549
1700754011187500,-10.910773,0.43516,0.348839,-2.863645,0.84,0.438249
1700754011195312,-10.702773,0.148516,0.336839,-2.830645,0.836,0.420649
1700754011203125,-10.332773,0.178516,0.275839,-2.807145,0.1929,0.385449
1700754011210937,-9.862773,0.138516,0.56839,-2.801645,0.2181,0.343849
1700754011218750,-9.622773,0.142516,0.285161,-2.785245,0.1918,0.311749
1700754011226562,-9.546773,0.199516,0.425161,-2.767745,0.1847,0.281149
1700754011234375,-9.624773,0.281516,0.391161,-2.753845,0.1953,0.252449
1700754011242187,-9.717773,0.257516,0.287161,-2.752045,0.1956,0.223549
1700754011250000,-9.712773,0.289516,0.255161,-2.749445,0.2374,0.196549
1700754011257812,-9.697773,0.389516,0.262161,-2.750745,0.2578,0.180549
1700754011265625,-9.721773,0.415516,0.293161,-2.758945,0.247,0.177249
1700754011273437,-9.833773,0.393516,0.275161,-2.778445,0.2348,0.170749
1700754011281250,-9.938773,0.305516,0.208161,-2.791345,0.2302,0.167549
1700754011289062,-9.990773,0.252516,0.106161,-2.792845,0.2441,0.170849
1700754011296875,-10.1773,0.208516,0.4161,-2.797245,0.2625,0.167749
1700754011304687,-9.925773,0.293516,0.76839,-2.821645,0.2721,0.172449
1700754011312500,-9.888773,0.312516,0.29839,-2.849645,0.2663,0.175549
1700754011320312,-9.889773,0.374516,0.34161,-2.877045,0.2585,0.173949
1700754011328125,-9.942773,0.468516,0.70161,-2.896445,0.2585,0.177149
1700754011335937,-9.994773,0.549516,0.124161,-2.898245,0.2772,0.194749
1700754011343750,-10.179773,0.687516,0.191161,-2.878445,0.3077,0.215749
1700754011351562,-10.268773,0.845516,0.221161,-2.842945,0.3466,0.225449
1700754011359375,-10.268773,-1.7516,0.185161,-2.824745,0.4054,0.239949
1700754011367187,-10.252773,-1.108516,0.216161,-2.805645,0.4291,0.241449
1700754011375000,-10.183773,-1.116516,0.221161,-2.798745,0.4771,0.246449
1700754011382812,-10.85773,0.981516,0.117161,-2.787045,0.4971,0.246549
1700754011390625,-9.987773,0.722516,0.40161,-2.761645,0.471,0.236749
1700754011398437,-10.162773,0.367516,0.115161,-2.695945,0.4416,0.236649
1700754011406250,-10.388773,0.5516,0.106161,-2.630945,0.4517,0.259349
1700754011414062,-10.493773,0.335484,0.223161,-2.608645,0.5048,0.280049
1700754011421875,-10.312773,0.667484,0.458161,-2.616545,0.5467,0.291349
1700754011429687,-9.934773,0.934484,0.702161,-2.664545,0.5681,0.301149
1700754011437500,-9.639773,1.137484,0.879161,-2.719945,0.5373,0.304249
1700754011445312,-9.467773,1.171484,-1.91161,-2.797545,0.4982,0.317049
1700754011453125,-9.413773,1.44484,-1.263161,-2.861045,0.4611,0.323349
1700754011460937,-9.478773,0.855484,-1.337161,-2.937245,0.394,0.332949
1700754011468750,-9.671773,0.677484,-1.371161,-2.983745,0.3198,0.351849
1700754011476562,-9.802773,0.512484,-1.308161,-2.990145,0.285,0.366449
1700754011484375,-9.728773,0.266484,-1.278161,-2.982245,0.2961,0.367949
1700754011492187,-9.601773,0.161484,-1.240161,-2.945645,0.3297,0.357049
1700754011500000,-9.379773,0.14484,-1.179161,-2.892145,0.35,0.337849
1700754011507812,-9.115773,0.192516,-1.152161,-2.842245,0.3427,0.318449
1700754011515625,-8.930773,0.414516,0.978161,-2.785445,0.3397,0.289549
1700754011523437,-8.860773,0.523516,0.692161,-2.731745,0.3288,0.259149
1700754011531250,-9.23773,0.622516,0.472161,-2.685145,0.3075,0.226949
1700754011539062,-9.299773,0.645516,0.355161,-2.631445,0.292,0.194949
1700754011546875,-9.542773,0.707516,0.215161,-2.589045,0.2877,0.146849
1700754011554687,-9.788773,0.863516,0.185161,-2.551345,0.2675,0.105149
1700754011562500,-9.941773,-1.175516,0.235161,-2.518445,0.2661,0.63549
1700754011570312,-9.979773,-1.339516,0.185161,-2.485245,0.288,0.15549
1700754011578125,-9.942773,-1.562516,0.47839,-2.443245,0.2977,0.8551
1700754011585937,-9.958773,-1.585516,0.438839,-2.368945,0.2708,0.451
1700754011593750,-10.206773,-1.596516,0.763839,-2.283045,0.1944,0.37849
1700754011601562,-10.506773,-1.616516,1.16839,-2.189945,0.183,0.79549
1700754011609375,-10.659773,-1.689516,1.226839,-2.112245,0.2652,0.111749
1700754011617187,-10.659773,-1.828516,1.303839,-2.57245,0.3771,0.142249
1700754011625000,-10.549773,-1.912516,1.371839,-2.18245,0.4496,0.185749
1700754011632812,-10.523773,-1.846516,1.330839,-1.997645,0.4881,0.245049
1700754011640625,-10.378773,-1.732516,1.21839,-2.16145,0.5284,0.307549
1700754011648437,-10.23773,-1.492516,0.591839,-2.61445,0.6091,0.357349
1700754011656250,-9.512773,-1.70516,0.430839,-2.133045,0.6432,0.410149
1700754011664062,-9.140773,0.784516,0.225839,-2.182145,0.6118,0.450249
1700754011671875,-8.854773,0.747516,0.32161,-2.225745,0.5957,0.479149
1700754011679687,-8.786773,0.630516,0.360161,-2.271745,0.5351,0.501449
1700754011687500,-8.858773,0.464516,0.748161,-2.313745,0.51,0.512749
1700754011695312,-9.46773,0.395516,0.922161,-2.337145,0.5074,0.523749
1700754011703125,-9.228773,0.403516,-1.3161,-2.341645,0.4913,0.525449
1700754011710937,-9.444773,0.589516,-1.71161,-2.338945,0.4496,0.526949
1700754011718750,-9.605773,0.979516,-1.131161,-2.350345,0.3934,0.518949
1700754011726562,-9.718773,-1.524516,-1.143161,-2.377645,0.3296,0.491749
1700754011734375,-9.862773,-1.974516,0.969161,-2.407345,0.2542,0.457749
1700754011742187,-10.82773,-2.409516,0.991161,-2.420045,0.1843,0.414449
1700754011750000,-10.177773,-2.678516,0.946161,-2.424845,0.1473,0.380649
1700754011757812,-10.121773,-2.874516,0.837161,-2.409345,0.1612,0.339149
1700754011765625,-9.979773,-3.179516,0.715161,-2.380445,0.1647,0.319849
1700754011773437,-9.753773,-3.333516,0.652161,-2.322045,0.1674,0.329549
1700754011781250,-9.562773,-3.391516,0.560161,-2.244545,0.186,0.331149
1700754011789062,-9.424773,-3.347516,0.368161,-2.185045,0.192,0.348849
1700754011796875,-9.393773,-3.222516,0.264161,-2.128445,0.1683,0.353749
1700754011804687,-9.448773,-3.59516,0.266161,-2.75345,0.1687,0.339149
1700754011812500,-9.442773,-2.951516,0.232161,-2.13445,0.1684,0.320049
1700754011820312,-9.412773,-2.829516,0.162161,-1.963245,0.1703,0.289549
1700754011828125,-9.435773,-2.743516,0.122161,-1.941945,0.158,0.254249
1700754011835937,-9.375773,-2.604516,0.63161,-1.902845,0.163,0.218949
1700754011843750,-9.330773,-2.481516,0.4839,-1.874845,0.1691,0.196649
1700754011851562,-9.347773,-2.386516,0.28839,-1.834345,0.1862,0.193449
1700754011859375,-9.366773,-2.321516,0.24839,-1.800345,0.1939,0.190249
1700754011867187,-9.377773,-2.294516,0.112839,-1.760345,0.1941,0.194949
1700754011875000,-9.449773,-2.264516,0.248839,-1.721945,0.1818,0.201349
1700754011882812,-9.614773,-2.332516,0.311839,-1.707445,0.1426,0.201349
1700754011890625,-9.745773,-2.399516,0.293839,-1.673645,0.1114,0.198149
1700754011898437,-9.804773,-2.522516,0.259839,-1.657545,0.85,0.185249
1700754011906250,-9.836773,-2.637516,0.241839,-1.620245,0.866,0.169249
1700754011914062,-9.896773,-2.746516,0.282839,-1.591245,0.792,0.151549
1700754011921875,-10.19773,-2.809516,0.271839,-1.557045,0.744,0.133949
1700754011929687,-10.68773,-2.833516,0.232839,-1.537245,0.663,0.122849
1700754011937500,-10.109773,-2.750516,0.230839,-1.511645,0.683,0.113149
1700754011945312,-10.129773,-2.570516,0.235839,-1.487445,0.591,0.95449
1700754011953125,-10.124773,-2.362516,0.239839,-1.458345,0.607,0.93849
1700754011960937,-10.47773,-2.221516,0.259839,-1.433945,0.733,0.79449
1700754011968750,-9.985773,-2.54516,0.271839,-1.409345,0.716,0.60249
1700754011976562,-9.972773,-1.911516,0.246839,-1.399445,0.686,0.45849
1700754011984375,-9.968773,-1.905516,0.171839,-1.384145,0.559,0.9149
1700754011992187,-9.868773,-1.943516,0.135839,-1.382845,0.504,0.16751
1700754012000000,-9.774773,-2.48516,0.110839,-1.376945,0.481,0.29251
1700754012007812,-9.705773,-2.148516,0.121839,-1.354745,0.5,0.30951
1700754012015625,-9.629773,-2.260516,0.128839,-1.343345,0.64,0.29351
1700754012023437,-9.564773,-2.346516,0.200839,-1.320145,0.776,0.37251
1700754012031250,-9.513773,-2.446516,0.230839,-1.302245,0.916,0.42051
1700754012039062,-9.398773,-2.456516,0.211839,-1.300545,0.1106,0.56451
1700754012046875,-9.299773,-2.361516,0.193839,-1.280645,0.123,0.80451
1700754012054687,-9.281773,-2.210516,0.168839,-1.277545,0.1137,0.77251
1700754012062500,-9.326773,-2.129516,0.119839,-1.282845,0.1141,0.77451
1700754012070312,-9.425773,-2.104516,0.137839,-1.273145,0.1029,0.61351
1700754012078125,-9.575773,-2.153516,0.144839,-1.273445,0.9,0.29251
1700754012085937,-9.718773,-2.204516,0.203839,-1.272245,0.929,0.4449
1700754012093750,-9.779773,-2.169516,0.275839,-1.277745,0.942,0.54149
1700754012101562,-9.792773,-2.106516,0.257839,-1.267245,0.11,0.87649
1700754012109375,-9.786773,-2.65516,0.191839,-1.249345,0.1206,0.97349
1700754012117187,-9.758773,-2.41516,0.162839,-1.221845,0.1235,0.106949
1700754012125000,-9.731773,-2.68516,0.171839,-1.181445,0.875,0.103849
1700754012132812,-9.740773,-2.133516,0.246839,-1.151345,0.601,0.82749
1700754012140625,-9.721773,-2.371516,0.395839,-1.109145,0.242,0.63549
1700754012148437,-9.716773,-2.440516,0.578839,-1.84745,0.181,0.41049
1700754012156250,-9.660773,-2.422516,0.695839,-1.57545,0.58,0.36249
1700754012164062,-9.588773,-2.302516,0.722839,-1.29845,0.7,0.37949
1700754012171875,-9.607773,-2.198516,0.587839,0.991445,0.149,0.57149
1700754012179687,-9.730773,-2.103516,0.614839,0.914145,0.448,0.66749
1700754012187500,-9.959773,-1.941516,0.736839,0.841745,0.839,0.73149
1700754012195312,-10.186773,-1.846516,0.858839,0.778845,0.696,0.58649
1700754012203125,-10.259773,-1.819516,1.14839,0.721845,0.527,0.44349
1700754012210937,-10.293773,-1.788516,1.102839,0.677845,0.574,0.20349
1700754012218750,-10.305773,-1.836516,1.181839,0.629145,0.462,0.10151
1700754012226562,-10.236773,-2.349516,1.265839,0.576045,0.471,0.48751
1700754012234375,-10.135773,-2.847516,1.527839,0.535045,0.55,0.80751
1700754012242187,-10.182773,-2.839516,1.630839,0.509445,0.534,0.67951
1700754012250000,-10.251773,-2.796516,1.567839,0.456045,0.104,0.37351
1700754012257812,-10.229773,-2.593516,1.493839,0.370645,0.748,0.20449
1700754012265625,-10.159773,-2.154516,1.362839,0.290345,0.1534,0.102349
1700754012273437,-10.8773,-1.740516,1.319839,0.203545,0.2339,0.166449
1700754012281250,-9.774773,-1.392516,1.325839,0.113145,0.3111,0.222749
1700754012289062,-9.534773,-1.150516,1.343839,0.27745,0.3543,0.258049
1700754012296875,-9.433773,-1.1516,1.264839,0.72055,0.3695,0.286949
1700754012304687,-9.387773,0.958516,1.180839,0.133755,0.3723,0.277449
1700754012312500,-9.377773,0.840516,1.115839,0.171055,0.3757,0.254949
1700754012320312,-9.344773,0.792516,1.72839,0.174755,0.3824,0.206849
1700754012328125,-9.297773,0.802516,1.27839,0.146455,0.37,0.162049
1700754012335937,-9.221773,0.843516,1.11839,0.122755,0.3422,0.115549
1700754012343750,-9.121773,0.818516,0.954839,0.63255,0.3035,0.83549
1700754012351562,-9.94773,0.662516,0.884839,0.38755,0.2212,0.64149
1700754012359375,-9.172773,0.449516,0.873839,0.21455,0.1128,0.60649
1700754012367187,-9.372773,0.305516,0.864839,0.7855,0.1,0.63749
1700754012375000,-9.624773,0.190516,0.855839,0.5945,0.726,0.87649
1700754012382812,-9.840773,0.51516,0.842839,0.3855,0.857,0.111849
1700754012390625,-9.928773,0.46484,0.824839,0.5055,0.527,0.126149
1700754012398437,-9.879773,0.87484,0.806839,0.7545,0.171,0.132649
1700754012406250,-9.721773,0.59484,0.697839,0.13245,0.183,0.131249
1700754012414062,-9.509773,0.30484,0.697839,0.22845,0.625,0.105549
1700754012421875,-9.336773,0.124516,0.692839,0.40445,0.644,0.84649
1700754012429687,-9.227773,0.292516,0.667839,0.57745,0.488,0.59049
1700754012437500,-9.145773,0.319516,0.755839,0.55945,0.134,0.10849
1700754012445312,-9.109773,0.344516,0.886839,0.46345,0.283,0.11651
1700754012453125,-9.142773,0.460516,0.938839,0.29845,0.752,0.38851
1700754012460937,-9.219773,0.518516,0.920839,0.2045,0.923,0.67651
1700754012468750,-9.286773,0.532516,0.893839,0.20755,0.858,0.93351
1700754012476562,-9.302773,0.625516,0.909839,0.43655,0.42,0.106151
1700754012484375,-9.288773,0.694516,0.889839,0.60155,0.153,0.130151
1700754012492187,-9.236773,0.683516,0.862839,0.76755,0.97,0.150951
1700754012500000,-9.254773,0.530516,0.871839,0.104255,0.221,0.152551
1700754012507812,-9.399773,0.729516,0.957839,0.128055,0.213,0.157451
1700754012515625,-9.777773,-1.67516,0.993839,0.164955,0.686,0.131751
1700754012523437,-10.183773,-1.324516,0.912839,0.168955,0.871,0.104651
1700754012531250,-10.447773,-1.497516,0.856839,0.178655,0.986,0.74051
1700754012539062,-10.638773,-1.482516,0.867839,0.192855,0.1084,0.35551
1700754012546875,-10.728773,-1.604516,0.757839,0.194055,0.1037,0.17951
1700754012554687,-10.686773,-1.392516,0.716839,0.195555,0.835,0.6751
1700754012562500,-10.604773,-1.120516,0.718839,0.192155,0.662,0.4449
1700754012570312,-10.500773,0.901516,0.747839,0.200255,0.493,0.18849
1700754012578125,-10.344773,0.795516,0.808839,0.211855,0.434,0.23849
1700754012585937,-10.192773,0.724516,0.797839,0.219555,0.37,0.28549
1700754012593750,-10.41773,0.644516,0.835839,0.232455,0.183,0.38149
1700754012601562,-9.849773,0.581516,0.826839,0.237355,0.151,0.30149
1700754012609375,-9.682773,0.526516,0.819839,0.245955,0.126,0.31849
1700754012617187,-9.567773,0.478516,0.814839,0.234855,0.297,0.25549
1700754012625000,-9.525773,0.454516,0.814839,0.241455,0.407,0.14249
1700754012632812,-9.504773,0.445516,0.826839,0.228555,0.457,0.1851
1700754012640625,-9.522773,0.415516,0.823839,0.213555,0.462,0.351
1700754012648437,-9.554773,0.375516,0.814839,0.199255,0.414,0.1951
1700754012656250,-9.597773,0.352516,0.778839,0.184655,0.163,0.251
1700754012664062,-9.648773,0.425516,0.726839,0.158855,0.118,0.251
1700754012671875,-9.693773,0.515516,0.674839,0.143855,0.443,0.4449
1700754012679687,-9.729773,0.622516,0.586839,0.130655,0.55,0.2749
1700754012687500,-9.753773,0.697516,0.496839,0.103055,0.566,0.18749
1700754012695312,-9.731773,0.747516,0.440839,0.87455,0.651,0.20549
1700754012703125,-9.650773,0.775516,0.431839,0.67355,0.533,0.20249
1700754012710937,-9.583773,0.770516,0.401839,0.43355,0.565,0.18749
1700754012718750,-9.537773,0.718516,0.388839,0.37255,0.596,0.5251
1700754012726562,-9.545773,0.696516,0.383839,0.35755,0.565,0.11651
1700754012734375,-9.580773,0.702516,0.390839,0.27655,0.579,0.16451
1700754012742187,-9.645773,0.741516,0.372839,0.24855,0.566,0.22851
1700754012750000,-9.717773,0.835516,0.356839,0.23155,0.579,0.35651
1700754012757812,-9.765773,0.920516,0.390839,0.27755,0.56,0.40551
1700754012765625,-9.815773,-1.19516,0.410839,0.37655,0.516,0.38951
1700754012773437,-9.834773,-1.109516,0.410839,0.37455,0.562,0.35751
1700754012781250,-9.802773,-1.170516,0.415839,0.32655,0.563,0.27751
1700754012789062,-9.775773,-1.170516,0.408839,0.38955,0.595,0.18051
1700754012796875,-9.734773,-1.180516,0.428839,0.37355,0.674,0.13251
1700754012804687,-9.706773,-1.194516,0.458839,0.35855,0.785,0.14851
1700754012812500,-9.702773,-1.191516,0.449839,0.33655,0.873,0.11751
1700754012820312,-9.701773,-1.194516,0.451839,0.40355,0.846,0.5251
1700754012828125,-9.707773,-1.200516,0.455839,0.38655,0.8,0.2749
1700754012835937,-9.716773,-1.208516,0.467839,0.51155,0.798,0.13849
1700754012843750,-9.695773,-1.216516,0.464839,0.67555,0.705,0.10749
1700754012851562,-9.683773,-1.199516,0.455839,0.85655,0.537,0.12449
1700754012859375,-9.677773,-1.161516,0.455839,0.93855,0.474,0.1249
1700754012867187,-9.670773,-1.107516,0.446839,0.105055,0.268,0.2051
1700754012875000,-9.664773,-1.57516,0.435839,0.119655,0.208,0.1149
1700754012882812,-9.673773,-1.54516,0.406839,0.118055,0.82,0.451
1700754012890625,-9.712773,-1.50516,0.401839,0.139555,0.212,0.251
1700754012898437,-9.811773,-1.25516,0.399839,0.141055,0.368,0.251
1700754012906250,-9.893773,-1.7516,0.408839,0.138855,0.55,0.451
1700754012914062,-9.957773,0.975516,0.406839,0.119555,0.566,0.5251
1700754012921875,-9.931773,0.972516,0.386839,0.110355,0.679,0.8351
1700754012929687,-9.856773,0.970516,0.345839,0.98655,0.737,0.10051
1700754012937500,-9.798773,0.951516,0.309839,0.82455,0.722,0.5251
1700754012945312,-9.741773,0.939516,0.286839,0.72855,0.833,0.1951
1700754012953125,-9.683773,0.920516,0.293839,0.55055,0.787,0.7649
1700754012960937,-9.626773,0.914516,0.302839,0.48155,0.816,0.20349
1700754012968750,-9.617773,0.911516,0.300839,0.43055,0.862,0.25149
1700754012976562,-9.644773,0.905516,0.281839,0.36655,0.988,0.25149
1700754012984375,-9.679773,0.903516,0.252839,0.32155,0.1085,0.28449
1700754012992187,-9.716773,0.901516,0.227839,0.17055,0.1063,0.23449
1700754013000000,-9.766773,0.906516,0.214839,0.245,0.1082,0.23649
1700754013007812,-9.830773,0.904516,0.178839,0.8545,0.108,0.20349
1700754013015625,-9.874773,0.934516,0.151839,0.15245,0.1015,0.21849
1700754013023437,-9.944773,0.992516,0.130839,0.13645,0.733,0.25049
1700754013031250,-9.988773,-1.35516,0.139839,0.0,0.569,0.23649
1700754013039062,-10.34773,-1.67516,0.117839,0.3055,0.379,0.26849
1700754013046875,-10.33773,-1.115516,0.151839,0.1745,0.176,0.28349
1700754013054687,-10.28773,-1.124516,0.155839,0.8145,0.146,0.31649
1700754013062500,-9.996773,-1.156516,0.162839,0.4955,0.9,0.30049
1700754013070312,-9.938773,-1.206516,0.189839,0.3555,0.85,0.22049
1700754013078125,-9.854773,-1.215516,0.182839,0.1555,0.12,0.26749
1700754013085937,-9.772773,-1.226516,0.173839,0.4645,0.23,0.30149
1700754013093750,-9.710773,-1.264516,0.112839,0.6155,0.58,0.36349
1700754013101562,-9.663773,-1.302516,0.108839,0.9855,0.166,0.25249
1700754013109375,-9.680773,-1.315516,0.103839,0.27555,0.25,0.25249
1700754013117187,-9.717773,-1.316516,0.60839,0.40855,0.114,0.31849
1700754013125000,-9.728773,-1.336516,0.69839,0.58855,0.206,0.28649
1700754013132812,-9.829773,-1.283516,0.65839,0.74855,0.365,0.25349
1700754013140625,-9.931773,-1.249516,0.97839,0.96255,0.626,0.22349
1700754013148437,-10.11773,-1.222516,0.126839,0.109055,0.723,0.15849
1700754013156250,-10.25773,-1.186516,0.153839,0.104055,0.82,0.7749
1700754013164062,-9.946773,-1.155516,0.146839,0.109555,0.814,0.1449
1700754013171875,-9.865773,-1.127516,0.175839,0.117155,0.836,0.1851
1700754013179687,-9.741773,-1.95516,0.180839,0.104855,0.581,0.11351
1700754013187500,-9.611773,-1.49516,0.259839,0.92855,0.305,0.8351
1700754013195312,-9.602773,-1.20516,0.281839,0.97155,0.19,0.5251
1700754013203125,-9.687773,0.985516,0.282839,0.93655,0.8,0.2151
1700754013210937,-9.820773,0.970516,0.266839,0.90655,0.99,0.6049
1700754013218750,-9.853773,0.942516,0.282839,0.79755,0.24,0.7749
1700754013226562,-9.800773,0.951516,0.245839,0.66455,0.56,0.14049
1700754013234375,-9.759773,0.928516,0.254839,0.63655,0.209,0.14149
1700754013242187,-9.689773,0.879516,0.277839,0.63155,0.198,0.15649
1700754013250000,-9.689773,0.877516,0.311839,0.53655,0.196,0.15649
1700754013257812,-9.697773,0.899516,0.259839,0.40355,0.44,0.13949
1700754013265625,-9.708773,0.925516,0.180839,0.58155,0.58,0.15549
1700754013273437,-9.805773,0.951516,0.212839,0.50455,0.23,0.20549
1700754013281250,-9.835773,-1.1516,0.200839,0.64655,0.58,0.12349
1700754013289062,-9.853773,-1.26516,0.286839,0.58655,0.115,0.18949
1700754013296875,-9.919773,-1.48516,0.234839,0.53155,0.5,0.20349
1700754013304687,-9.950773,-1.45516,0.259839,0.64255,0.16,0.17049
1700754013312500,-9.932773,-1.59516,0.347839,0.56455,0.33,0.5849
1700754013320312,-9.944773,-1.147516,0.311839,0.53055,0.94,0.4249
1700754013328125,-9.886773,-1.208516,0.275839,0.64855,0.151,0.12449
1700754013343750,-9.818773,-1.132516,0.309839,0.66455,0.352,0.26849
1700754013351562,-9.691773,-1.211516,0.207839,0.64755,0.57,0.36449
1700754013359375,-9.587773,-1.131516,0.277839,0.82755,0.818,0.39749
1700754013367187,-9.642773,0.886516,0.367839,0.77555,0.695,0.42849
1700754013375000,-9.776773,0.805516,0.415839,0.85955,0.412,0.31749
1700754013382812,-9.922773,0.770516,0.419839,0.77855,0.429,0.26949
1700754013390625,-9.846773,0.944516,0.354839,0.78455,0.536,0.6149
1700754013398437,-9.665773,-1.116516,0.297839,0.73355,0.806,0.2849
1700754013406250,-9.593773,-1.71516,0.327839,0.91555,0.99,0.1349
