time,Acceleration X (m/s^2),Acceleration Y (m/s^2),Acceleration Z (m/s^2),Angular Velocity X (rad/s),Angular Velocity Y (rad/s),Angular Velocity Z (rad/s)
1700753586593750,-9.71331,-0.945981,,,,
1700753586601562,-9.71731,0.939981,0.831516,0.6375,0.62117,0.22472
1700753586609375,-9.70531,0.938981,0.828516,0.5175,0.65617,0.27172
1700753586617187,-9.70531,0.937981,0.831516,0.4075,0.61017,0.22872
1700753586625000,-9.70631,0.941981,0.828516,0.8075,0.56017,0.22472
1700753586632812,-9.70831,0.941981,0.828516,0.3075,0.66817,0.20872
1700753586648437,-9.70831,0.947981,0.840516,0.9875,0.57817,0.20772
1700753586656250,-9.72631,0.936981,0.842516,0.3125,0.52817,0.28872
1700753586664062,-9.72731,0.932981,0.842516,0.1825,0.57217,0.25772
1700753586671875,-9.72231,0.948981,0.851516,0.6275,0.61917,0.30572
1700753586695312,-9.73131,0.911981,0.860516,0.11475,0.60917,0.20772
1700753586703125,-9.72631,0.914981,0.862516,0.9775,0.60817,0.20872
1700753586710937,-9.72431,0.906981,0.858516,0.5075,0.67317,0.15972
1700753586718750,-9.72931,0.909981,0.858516,0.4775,0.66917,0.19272
1700753586726562,-9.72431,0.912981,0.846516,0.4775,0.62217,0.19272
1700753586734375,-9.72531,0.915981,0.846516,0.3975,0.61417,0.5172
1700753586742187,-9.71931,0.914981,0.837516,0.6575,0.67117,0.19172
1700753586750000,-9.70531,0.924981,0.828516,0.6775,0.65717,0.19172
1700753586757812,-9.70431,0.911981,0.831516,0.13175,0.67217,0.20772
1700753586765625,-9.70831,0.914981,0.817516,0.11375,0.71617,0.28872
1700753586773437,-9.69731,0.910981,0.815516,0.12875,0.66917,0.19272
1700753586781250,-9.70631,0.916981,0.819516,0.0,0.63917,0.20872
1700753586789062,-9.71731,0.921981,0.828516,0.6425,0.60617,0.22472
1700753586796875,-9.71031,0.932981,0.833516,0.4725,0.56117,0.17672
1700753586804687,-9.71131,0.945981,0.842516,0.4675,0.62217,0.14472
1700753586812500,-9.71331,0.943981,0.837516,0.8075,0.57617,0.20872
1700753586820312,-9.70531,0.945981,0.828516,0.11575,0.59417,0.22372
1700753586828125,-9.69931,0.948981,0.828516,0.9575,0.59117,0.17672
1700753586835937,-9.69331,0.944981,0.826516,0.7775,0.65117,0.20972
1700753586843750,-9.69031,0.943981,0.808516,0.4625,0.60817,0.25572
1700753586851562,-9.69331,0.930981,0.822516,0.0,0.60517,0.25672
1700753586859375,-9.70831,0.929981,0.824516,0.4625,0.45317,0.15972
1700753586867187,-9.72631,0.936981,0.831516,0.4925,0.49817,0.12872
1700753586875000,-9.73431,0.953981,0.849516,0.6325,0.46917,0.6372
1700753586882812,-9.73331,0.943981,0.864516,0.3325,0.42017,0.12872
1700753586890625,-9.72231,0.945981,0.869516,0.3075,0.44817,0.17772
1700753586898437,-9.72631,0.945981,0.876516,0.3125,0.45117,0.20872
1700753586906250,-9.72731,0.950981,0.889516,0.2875,0.53817,0.21072
1700753586914062,-9.72431,0.943981,0.878516,0.1825,0.63517,0.22572
1700753586921875,-9.69931,0.948981,0.840516,0.5025,0.65217,0.20872
1700753586929687,-9.68631,0.937981,0.810516,0.3225,0.62217,0.22472
1700753586937500,-9.68631,0.937981,0.792516,0.1375,0.54217,0.19372
1700753586945312,-9.69331,0.939981,0.817516,0.3175,0.52817,0.20872
1700753586953125,-9.69531,0.930981,0.837516,0.4825,0.51217,0.22472
1700753586960937,-9.70231,0.930981,0.840516,0.4575,0.57317,0.19372
1700753586968750,-9.66531,0.952981,0.853516,0.11025,0.57717,0.25572
1700753586976562,-9.74231,0.914981,0.831516,0.6425,0.65317,0.30472
1700753586984375,-9.74031,0.907981,0.835516,0.4875,0.51317,0.20872
1700753586992187,-9.71931,0.943981,0.840516,0.6425,0.49817,0.22472
1700753587000000,-9.73431,0.925981,0.831516,0.12475,0.55417,0.21072
1700753587007812,-9.72731,0.913981,0.851516,0.4075,0.59417,0.24472
1700753587015625,-9.71631,0.915981,0.853516,0.2475,0.54817,0.22872
1700753587023437,-9.71531,0.921981,0.837516,0.1525,0.59117,0.25672
1700753587031250,-9.71831,0.919981,0.844516,0.2775,0.61617,0.24272
1700753587039062,-9.72731,0.932981,0.853516,0.10975,0.55417,0.25872
1700753587046875,-9.73331,0.952981,0.869516,0.1575,0.51217,0.24072
1700753587054687,-9.74631,0.944981,0.885516,0.3375,0.60717,0.25672
1700753587062500,-9.73931,0.955981,0.876516,0.3125,0.68517,0.30472
1700753587070312,-9.72031,0.944981,0.871516,0.2375,0.64117,0.22872
1700753587078125,-9.70731,0.942981,0.858516,0.12275,0.64417,0.24372
1700753587085937,-9.70231,0.937981,0.855516,0.7275,0.58317,0.9972
1700753587093750,-9.70231,0.946981,0.867516,0.2025,0.53917,0.19472
1700753587101562,-9.70131,0.947981,0.860516,0.9675,0.65417,0.20872
1700753587109375,-9.70131,0.943981,0.842516,0.12875,0.65417,0.22472
1700753587117187,-9.70131,0.945981,0.837516,0.9875,0.67217,0.20772
1700753587125000,-9.70431,0.950981,0.822516,0.5975,0.63217,0.22672
1700753587132812,-9.70431,0.939981,0.833516,0.12375,0.64817,0.17872
1700753587140625,-9.70531,0.942981,0.840516,0.5175,0.59417,0.20772
1700753587148437,-9.70631,0.945981,0.835516,0.1875,0.56217,0.23972
1700753587156250,-9.71931,0.947981,0.824516,0.3575,0.51617,0.20772
1700753587164062,-9.71731,0.942981,0.840516,0.5175,0.48517,0.22372
1700753587171875,-9.73131,0.948981,0.851516,0.325,0.46017,0.25872
1700753587179687,-9.72931,0.945981,0.853516,0.7875,0.55717,0.19372
1700753587187500,-9.72631,0.941981,0.858516,0.7975,0.55917,0.20872
1700753587195312,-9.71331,0.934981,0.842516,0.9775,0.56017,0.24072
1700753587203125,-9.70931,0.932981,0.844516,0.9675,0.55917,0.22472
1700753587210937,-9.70631,0.927981,0.842516,0.6575,0.56017,0.25672
1700753587218750,-9.71131,0.921981,0.851516,0.11475,0.54517,0.24072
1700753587226562,-9.70631,0.934981,0.853516,0.11575,0.57717,0.28772
1700753587234375,-9.71731,0.918981,0.849516,0.8275,0.57617,0.28872
1700753587242187,-9.71131,0.937981,0.851516,0.9275,0.60117,0.24272
1700753587250000,-9.71231,0.954981,0.862516,0.12975,0.65317,0.27272
1700753587257812,-9.71731,0.945981,0.862516,0.13175,0.56217,0.20772
1700753587265625,-9.70431,0.952981,0.860516,0.9675,0.57417,0.25672
1700753587273437,-9.70831,0.945981,0.844516,0.6675,0.54517,0.25672
1700753587281250,-9.70631,0.943981,0.842516,0.8175,0.59217,0.24072
1700753587289062,-9.70331,0.943981,0.842516,0.8175,0.63917,0.20872
1700753587296875,-9.70431,0.934981,0.842516,0.4925,0.62117,0.22472
1700753587304687,-9.71331,0.948981,0.844516,0.2875,0.46117,0.21072
1700753587312500,-9.71431,0.936981,0.842516,0.6775,0.53217,0.23972
1700753587320312,-9.72031,0.930981,0.840516,0.125,0.57517,0.19272
1700753587328125,-9.71031,0.936981,0.842516,0.1425,0.51417,0.22472
1700753587335937,-9.72431,0.936981,0.833516,0.7875,0.54217,0.20972
1700753587343750,-9.73131,0.927981,0.849516,0.12875,0.57517,0.22472
1700753587351562,-9.72931,0.930981,0.864516,0.7875,0.52617,0.19372
1700753587359375,-9.71331,0.924981,0.860516,0.1175,0.60117,0.21072
1700753587367187,-9.71731,0.934981,0.853516,0.9775,0.65417,0.22472
1700753587375000,-9.70631,0.939981,0.860516,0.2975,0.61917,0.20972
1700753587382812,-9.70431,0.928981,0.844516,0.6375,0.55917,0.20872
1700753587390625,-9.70331,0.934981,0.860516,0.8275,0.57717,0.22372
1700753587398437,-9.70631,0.934981,0.860516,0.6475,0.59117,0.25672
1700753587406250,-9.69331,0.959981,0.878516,0.2975,0.63517,0.24172
1700753587414062,-9.74631,0.926981,0.844516,0.1425,0.71717,0.27272
1700753587421875,-9.72631,0.916981,0.851516,0.3275,0.63817,0.25672
1700753587429687,-9.71231,0.931981,0.851516,0.6775,0.53117,0.23972
1700753587437500,-9.72931,0.936981,0.862516,0.9775,0.46517,0.27272
1700753587445312,-9.72431,0.925981,0.878516,0.1775,0.59217,0.22472
1700753587453125,-9.72631,0.936981,0.871516,0.3275,0.62317,0.22472
1700753587460937,-9.70431,0.941981,0.869516,0.11175,0.57517,0.20872
1700753587468750,-9.70831,0.929981,0.867516,0.11375,0.59217,0.22472
1700753587476562,-9.71131,0.934981,0.849516,0.125,0.62117,0.19272
1700753587484375,-9.70431,0.934981,0.853516,0.7975,0.60617,0.20872
1700753587492187,-9.71031,0.947981,0.867516,0.4775,0.62217,0.20872
1700753587500000,-9.71331,0.938981,0.862516,0.75,0.59217,0.22472
1700753587507812,-9.72931,0.934981,0.846516,0.7975,0.60617,0.17672
1700753587515625,-9.70931,0.935981,0.846516,0.12375,0.56617,0.24372
1700753587523437,-9.71231,0.927981,0.851516,0.8275,0.64017,0.22372
1700753587531250,-9.70531,0.909981,0.860516,0.7275,0.53217,0.21272
1700753587539062,-9.72331,0.926981,0.871516,0.12375,0.56717,0.22772
1700753587546875,-9.71331,0.932981,0.867516,0.11175,0.60617,0.22472
1700753587554687,-9.71531,0.936981,0.853516,0.12975,0.68517,0.27272
1700753587562500,-9.71031,0.927981,0.858516,0.11575,0.59317,0.25572
1700753587570312,-9.70931,0.939981,0.874516,0.12275,0.61317,0.22772
1700753587578125,-9.71331,0.930981,0.867516,0.11075,0.58817,0.22572
1700753587585937,-9.71631,0.926981,0.842516,0.12675,0.68117,0.25772
1700753587593750,-9.71131,0.926981,0.840516,0.5975,0.66317,0.24272
1700753587601562,-9.70931,0.930981,0.849516,0.1475,0.58817,0.27372
1700753587609375,-9.71931,0.947981,0.855516,0.14675,0.62317,0.25672
1700753587617187,-9.72531,0.948981,0.867516,0.11675,0.64217,0.23972
1700753587625000,-9.71531,0.952981,0.878516,0.12375,0.62917,0.25972
1700753587632812,-9.70431,0.945981,0.864516,0.11275,0.65317,0.25672
1700753587640625,-9.70431,0.942981,0.846516,0.10775,0.59717,0.25972
1700753587648437,-9.70631,0.925981,0.849516,0.8075,0.65417,0.20872
1700753587656250,-9.70831,0.925981,0.840516,0.3275,0.59117,0.25672
1700753587664062,-9.70431,0.937981,0.858516,0.4775,0.57417,0.25672
1700753587671875,-9.70831,0.943981,0.867516,0.9575,0.55917,0.20872
1700753587679687,-9.71931,0.944981,0.871516,0.10175,0.51717,0.22372
1700753587687500,-9.72131,0.949981,0.871516,0.0,0.62217,0.22472
1700753587695312,-9.70831,0.938981,0.864516,0.8175,0.67117,0.20772
1700753587703125,-9.70731,0.935981,0.851516,0.7025,0.59717,0.24372
1700753587710937,-9.70031,0.926981,0.835516,0.325,0.65117,0.19372
1700753587718750,-9.70531,0.935981,0.828516,0.825,0.53217,0.19672
1700753587726562,-9.70731,0.921981,0.842516,0.3425,0.51017,0.22572
1700753587734375,-9.71631,0.921981,0.858516,0.5325,0.64817,0.17872
1700753587742187,-9.71631,0.919981,0.855516,0.7125,0.55117,0.13172
1700753587750000,-9.70431,0.926981,0.849516,0.3525,0.57317,0.17772
1700753587757812,-9.70231,0.931981,0.849516,0.625,0.62917,0.21172
1700753587765625,-9.69731,0.912981,0.858516,0.0,0.62217,0.27272
1700753587773437,-9.70431,0.918981,0.855516,0.6325,0.59217,0.22472
1700753587781250,-9.70231,0.917981,0.853516,0.1725,0.54117,0.25772
1700753587789062,-9.70231,0.916981,0.865516,0.1525,0.57517,0.24072
1700753587796875,-9.70731,0.921981,0.853516,0.1375,0.60317,0.25772
1700753587804687,-9.70431,0.930981,0.844516,0.3175,0.60617,0.25672
1700753587812500,-9.72631,0.929981,0.855516,0.3375,0.48217,0.24072
1700753587820312,-9.73731,0.935981,0.871516,0.9975,0.48417,0.20772
1700753587828125,-9.74031,0.943981,0.898516,0.7975,0.57517,0.20872
1700753587835937,-9.73031,0.972981,0.889516,0.1825,0.65017,0.24172
1700753587843750,-9.70631,0.961981,0.878516,0.0,0.63617,0.28872
1700753587851562,-9.69431,0.940981,0.837516,0.5075,0.65517,0.23972
1700753587859375,-9.69031,0.945981,0.828516,0.3175,0.60717,0.20872
1700753587867187,-9.69131,0.944981,0.833516,0.225,0.52617,0.19372
1700753587875000,-9.70231,0.945981,0.846516,0.6375,0.49717,0.17672
1700753587882812,-9.70831,0.945981,0.867516,0.4875,0.40517,0.11272
1700753587890625,-9.73231,0.940981,0.889516,0.6775,0.45317,0.20772
1700753587898437,-9.73531,0.931981,0.907516,0.8275,0.48517,0.12772
1700753587906250,-9.74931,0.936981,0.919516,0.6375,0.55917,0.19272
1700753587914062,-9.75131,0.940981,0.910516,0.12975,0.63917,0.22472
1700753587921875,-9.72431,0.923981,0.896516,0.4875,0.65417,0.20872
1700753587929687,-9.70231,0.912981,0.865516,0.4725,0.68617,0.22372
1700753587937500,-9.67731,0.913981,0.835516,0.6275,0.73117,0.19272
1700753587945312,-9.66231,0.931981,0.822516,0.1375,0.65017,0.20972
1700753587953125,-9.67731,0.946981,0.826516,0.2775,0.66317,0.22672
1700753587960937,-9.70431,0.950981,0.824516,0.2025,0.61617,0.25872
1700753587968750,-9.71531,0.945981,0.835516,0.1375,0.57217,0.24172
1700753587976562,-9.69731,0.943981,0.858516,0.11275,0.73117,0.24072
1700753587984375,-9.71231,0.931981,0.851516,0.4975,0.71717,0.25672
1700753587992187,-9.74931,0.898981,0.842516,0.8275,0.65517,0.23972
1700753588000000,-9.72231,0.934981,0.840516,0.3075,0.65017,0.27372
1700753588007812,-9.73131,0.936981,0.835516,0.6375,0.66917,0.22472
1700753588015625,-9.70931,0.932981,0.849516,0.11175,0.63717,0.20872
1700753588023437,-9.69331,0.914981,0.840516,0.6575,0.59217,0.20872
1700753588031250,-9.68631,0.928981,0.822516,0.4875,0.65417,0.22472
1700753588039062,-9.69631,0.933981,0.824516,0.3775,0.62317,0.21372
1700753588046875,-9.71031,0.938981,0.835516,0.14575,0.59117,0.22472
1700753588054687,-9.72131,0.938981,0.860516,0.8275,0.57617,0.25672
1700753588062500,-9.72631,0.949981,0.867516,0.4775,0.62117,0.27272
1700753588070312,-9.71131,0.946981,0.871516,0.1825,0.57317,0.22572
1700753588078125,-9.72131,0.952981,0.860516,0.6475,0.63817,0.20872
1700753588085937,-9.70831,0.934981,0.860516,0.3375,0.64017,0.22372
1700753588093750,-9.71031,0.933981,0.862516,0.13175,0.65617,0.20772
1700753588101562,-9.70831,0.927981,0.858516,0.4875,0.67017,0.22472
1700753588109375,-9.71031,0.940981,0.849516,0.6675,0.62417,0.27172
1700753588117187,-9.70631,0.941981,0.864516,0.13075,0.59217,0.22472
1700753588125000,-9.70331,0.942981,0.860516,0.11575,0.67217,0.23972
1700753588132812,-9.69831,0.941981,0.858516,0.4475,0.64717,0.27472
1700753588140625,-9.69731,0.948981,0.842516,0.7975,0.66817,0.28872
1700753588148437,-9.71131,0.946981,0.819516,0.1275,0.66217,0.29072
1700753588156250,-9.69531,0.942981,0.824516,0.4475,0.56917,0.25872
1700753588164062,-9.71231,0.915981,0.831516,0.2175,0.59617,0.23872
1700753588171875,-9.71431,0.933981,0.849516,0.8825,0.56317,0.27672
1700753588179687,-9.73131,0.928981,0.855516,0.5225,0.58517,0.27472
1700753588187500,-9.70631,0.946981,0.876516,0.5025,0.58817,0.24172
1700753588195312,-9.73931,0.942981,0.864516,0.11275,0.71617,0.25672
1700753588203125,-9.74031,0.919981,0.867516,0.6075,0.67817,0.27472
1700753588210937,-9.71131,0.934981,0.853516,0.2975,0.58817,0.22572
1700753588218750,-9.70631,0.934981,0.842516,0.3175,0.57417,0.27272
1700753588226562,-9.70731,0.924981,0.864516,0.8975,0.54817,0.24472
1700753588234375,-9.71631,0.910981,0.869516,0.3175,0.54417,0.20872
1700753588242187,-9.72431,0.923981,0.867516,0.3175,0.63817,0.22472
1700753588250000,-9.72431,0.919981,0.864516,0.1475,0.62117,0.20872
1700753588257812,-9.72831,0.913981,0.862516,0.175,0.60917,0.20772
1700753588265625,-9.73131,0.918981,0.862516,0.3325,0.59017,0.22472
1700753588273437,-9.73531,0.927981,0.862516,0.4675,0.68417,0.19272
1700753588281250,-9.70731,0.935981,0.871516,0.2575,0.64517,0.17972
1700753588289062,-9.71631,0.939981,0.860516,0.6875,0.67417,0.20672
1700753588296875,-9.70631,0.937981,0.862516,0.4675,0.63717,0.19272
1700753588304687,-9.68131,0.950981,0.878516,0.6475,0.73217,0.19272
1700753588312500,-9.72831,0.907981,0.837516,0.3375,0.76417,0.28872
1700753588320312,-9.70931,0.919981,0.840516,0.1575,0.65217,0.25672
1700753588328125,-9.70631,0.928981,0.842516,0.3325,0.63717,0.20872
1700753588335937,-9.72231,0.922981,0.837516,0.3475,0.59317,0.28772
1700753588343750,-9.72731,0.923981,0.835516,0.6525,0.69917,0.25672
1700753588351562,-9.72931,0.923981,0.842516,0.4925,0.66817,0.25672
1700753588359375,-9.70731,0.933981,0.828516,0.5525,0.69117,0.24372
1700753588367187,-9.70031,0.935981,0.819516,0.1375,0.69717,0.27372
1700753588375000,-9.72231,0.916981,0.799516,0.1425,0.68517,0.32072
1700753588382812,-9.69831,0.901981,0.828516,0.6175,0.58917,0.17772
1700753588390625,-9.70531,0.917981,0.826516,0.12475,0.53917,0.21072
1700753588398437,-9.70731,0.910981,0.831516,0.7975,0.59017,0.20872
1700753588406250,-9.70231,0.910981,0.835516,0.9775,0.67017,0.22472
1700753588414062,-9.71231,0.931981,0.844516,0.7075,0.51417,0.21372
1700753588421875,-9.71831,0.921981,0.846516,0.12375,0.53517,0.24372
1700753588429687,-9.71631,0.912981,0.864516,0.9475,0.63517,0.25772
1700753588437500,-9.72931,0.914981,0.853516,0.6475,0.56017,0.22472
1700753588445312,-9.71131,0.930981,0.858516,0.2775,0.64717,0.22672
1700753588453125,-9.71731,0.933981,0.862516,0.2925,0.59317,0.27172
1700753588460937,-9.70831,0.930981,0.862516,0.4775,0.68517,0.22472
1700753588468750,-9.72631,0.932981,0.860516,0.4875,0.68417,0.25672
1700753588476562,-9.72631,0.929981,0.867516,0.4975,0.63817,0.27272
1700753588484375,-9.72431,0.927981,0.860516,0.8275,0.65517,0.22372
1700753588492187,-9.73331,0.916981,0.867516,0.12975,0.67017,0.22472
1700753588500000,-9.71931,0.929981,0.851516,0.12975,0.71617,0.27272
1700753588507812,-9.72531,0.910981,0.851516,0.9475,0.66617,0.24172
1700753588515625,-9.72931,0.927981,0.862516,0.6375,0.66817,0.22472
1700753588523437,-9.71931,0.949981,0.871516,0.3375,0.70217,0.25572
1700753588531250,-9.71731,0.947981,0.871516,0.4875,0.71517,0.30472
1700753588539062,-9.71131,0.945981,0.876516,0.7975,0.74517,0.30572
1700753588546875,-9.72131,0.940981,0.844516,0.6675,0.70217,0.25572
1700753588554687,-9.72631,0.924981,0.842516,0.3475,0.70317,0.23972
1700753588562500,-9.72231,0.936981,0.824516,0.6575,0.68517,0.27272
1700753588570312,-9.71131,0.916981,0.826516,0.4975,0.67017,0.25672
1700753588578125,-9.70431,0.908981,0.817516,0.8075,0.68417,0.25672
1700753588585937,-9.70331,0.904981,0.801516,0.7675,0.66217,0.30672
1700753588593750,-9.70431,0.903981,0.804516,0.9675,0.62217,0.24072
1700753588601562,-9.70731,0.910981,0.826516,0.12875,0.62117,0.25672
1700753588609375,-9.70631,0.907981,0.835516,0.9975,0.64117,0.22372
1700753588617187,-9.71731,0.907981,0.844516,0.4975,0.62317,0.22472
1700753588625000,-9.72931,0.910981,0.844516,0.9275,0.61617,0.21072
1700753588632812,-9.72431,0.903981,0.844516,0.12975,0.67017,0.25672
1700753588640625,-9.71631,0.910981,0.835516,0.11275,0.62117,0.27272
1700753588648437,-9.71331,0.903981,0.828516,0.12975,0.62217,0.25672
1700753588656250,-9.70931,0.903981,0.835516,0.10975,0.66617,0.19372
1700753588664062,-9.70431,0.910981,0.840516,0.9575,0.65317,0.20872
1700753588671875,-9.70931,0.910981,0.840516,0.12875,0.65217,0.25672
1700753588679687,-9.71631,0.919981,0.855516,0.10975,0.66617,0.20972
1700753588687500,-9.72431,0.925981,0.844516,0.12875,0.62117,0.27272
1700753588695312,-9.72431,0.936981,0.855516,0.11275,0.59117,0.22472
1700753588703125,-9.72931,0.936981,0.869516,0.14375,0.61917,0.25772
1700753588710937,-9.73031,0.942981,0.876516,0.13175,0.65617,0.23972
1700753588718750,-9.73431,0.939981,0.876516,0.8475,0.70417,0.27172
1700753588726562,-9.73031,0.933981,0.855516,0.1325,0.68717,0.28772
1700753588734375,-9.72431,0.936981,0.842516,0.1775,0.70217,0.25672
1700753588742187,-9.71331,0.926981,0.835516,0.225,0.69717,0.27372
1700753588750000,-9.71031,0.929981,0.828516,0.9875,0.68517,0.32072
1700753588757812,-9.70631,0.931981,0.833516,0.8275,0.67217,0.20772
1700753588765625,-9.72631,0.927981,0.842516,0.1325,0.71817,0.25572
1700753588773437,-9.73131,0.913981,0.842516,0.3025,0.67117,0.22372
1700753588781250,-9.72731,0.903981,0.842516,0.1475,0.68317,0.24072
1700753588789062,-9.72431,0.893981,0.833516,0.5275,0.68917,0.25572
1700753588796875,-9.70431,0.898981,0.828516,0.11675,0.67317,0.25572
1700753588804687,-9.71831,0.887981,0.831516,0.9875,0.65517,0.20772
1700753588812500,-9.71531,0.889981,0.828516,0.6675,0.67217,0.22372
1700753588820312,-9.72231,0.898981,0.831516,0.1325,0.65617,0.20772
1700753588828125,-9.72731,0.889981,0.817516,0.4875,0.67017,0.22472
1700753588835937,-9.72931,0.900981,0.831516,0.3275,0.62317,0.20872
1700753588843750,-9.73931,0.908981,0.858516,0.8775,0.59817,0.22272
1700753588851562,-9.74231,0.920981,0.855516,0.11475,0.68617,0.22372
1700753588859375,-9.73531,0.920981,0.846516,0.8075,0.65317,0.27272
1700753588867187,-9.71531,0.914981,0.849516,0.13075,0.70217,0.22372
1700753588875000,-9.70131,0.918981,0.817516,0.11775,0.73617,0.28772
1700753588882812,-9.69931,0.936981,0.799516,0.10075,0.65717,0.23972
1700753588890625,-9.70131,0.924981,0.808516,0.11675,0.67417,0.20672
1700753588898437,-9.71231,0.917981,0.815516,0.3875,0.69117,0.22272
1700753588906250,-9.72631,0.924981,0.828516,0.5175,0.59417,0.27172
1700753588914062,-9.74631,0.928981,0.851516,0.7725,0.56217,0.27172
1700753588921875,-9.74431,0.933981,0.860516,0.9425,0.57817,0.19172
1700753588929687,-9.73031,0.926981,0.862516,0.12725,0.71817,0.22372
1700753588937500,-9.71531,0.911981,0.846516,0.1225,0.65717,0.28772
1700753588945312,-9.70431,0.909981,0.837516,0.275,0.67217,0.23972
1700753588953125,-9.70431,0.907981,0.842516,0.1675,0.65417,0.24072
1700753588960937,-9.70431,0.909981,0.831516,0.1525,0.73317,0.22372
1700753588968750,-9.70331,0.902981,0.808516,0.2075,0.75217,0.22272
1700753588976562,-9.70531,0.893981,0.797516,0.675,0.73717,0.27072
1700753588984375,-9.70831,0.895981,0.794516,0.4225,0.69117,0.25472
1700753588992187,-9.71531,0.893981,0.792516,0.4625,0.74917,0.27172
1700753589000000,-9.71631,0.901981,0.792516,0.3425,0.79217,0.24172
1700753589007812,-9.70931,0.909981,0.794516,0.3275,0.67017,0.22472
1700753589015625,-9.71531,0.906981,0.790516,0.1125,0.67317,0.27172
1700753589023437,-9.70131,0.905981,0.785516,0.11575,0.65617,0.20772
1700753589031250,-9.69731,0.910981,0.792516,0.8075,0.66917,0.25672
1700753589039062,-9.69931,0.903981,0.790516,0.2925,0.65617,0.23972
1700753589046875,-9.70331,0.910981,0.797516,0.1175,0.66317,0.24272
1700753589054687,-9.71331,0.912981,0.801516,0.1525,0.66817,0.28872
1700753589062500,-9.72531,0.912981,0.792516,0.4675,0.71517,0.24072
1700753589070312,-9.70831,0.909981,0.801516,0.3375,0.60817,0.22472
1700753589078125,-9.70631,0.905981,0.806516,0.5175,0.56317,0.20772
1700753589085937,-9.72031,0.907981,0.808516,0.5075,0.63917,0.25572
1700753589093750,-9.71031,0.889981,0.815516,0.13275,0.65717,0.25572
1700753589101562,-9.72431,0.887981,0.810516,0.11475,0.64017,0.25572
1700753589109375,-9.72431,0.896981,0.806516,0.3475,0.63917,0.28772
1700753589117187,-9.72931,0.914981,0.833516,0.12875,0.60617,0.22472
1700753589125000,-9.72531,0.917981,0.844516,0.10875,0.67817,0.29072
1700753589132812,-9.71831,0.930981,0.842516,0.12675,0.65017,0.24172
1700753589140625,-9.70331,0.927981,0.831516,0.11675,0.67117,0.30372
1700753589148437,-9.70431,0.907981,0.806516,0.13075,0.65417,0.33672
1700753589156250,-9.70431,0.916981,0.792516,0.4975,0.65317,0.33672
1700753589164062,-9.70431,0.912981,0.790516,0.3375,0.66917,0.32072
1700753589171875,-9.70431,0.918981,0.790516,0.1225,0.62417,0.30372
1700753589179687,-9.71331,0.916981,0.781516,0.3325,0.62117,0.22472
1700753589187500,-9.72631,0.929981,0.810516,0.8025,0.60817,0.20872
1700753589195312,-9.72931,0.932981,0.824516,0.3425,0.54117,0.20972
1700753589203125,-9.72631,0.949981,0.826516,0.1775,0.59217,0.22472
1700753589210937,-9.73731,0.940981,0.844516,0.6225,0.49817,0.24072
1700753589218750,-9.73731,0.920981,0.846516,0.3475,0.59317,0.22372
1700753589226562,-9.73731,0.906981,0.842516,0.2925,0.64017,0.25572
1700753589234375,-9.73631,0.896981,0.844516,0.0,0.59117,0.25672
1700753589242187,-9.73431,0.894981,0.833516,0.6525,0.66817,0.24072
1700753589250000,-9.74031,0.905981,0.828516,0.6525,0.66817,0.25672
1700753589257812,-9.72631,0.898981,0.828516,0.1325,0.65617,0.23972
1700753589265625,-9.72631,0.907981,0.828516,0.11025,0.70317,0.22372
1700753589273437,-9.72731,0.914981,0.808516,0.6425,0.70017,0.25672
1700753589281250,-9.71731,0.909981,0.799516,0.3025,0.68617,0.23972
1700753589289062,-9.72031,0.900981,0.801516,0.9525,0.70117,0.25672
1700753589296875,-9.71931,0.916981,0.785516,0.6325,0.77917,0.25672
1700753589304687,-9.71731,0.909981,0.790516,0.11325,0.79417,0.24072
1700753589312500,-9.71231,0.915981,0.788516,0.5925,0.72117,0.27072
1700753589320312,-9.70131,0.896981,0.781516,0.9325,0.70317,0.28772
1700753589328125,-9.70731,0.894981,0.770516,0.4825,0.70017,0.25672
1700753589335937,-9.69531,0.896981,0.767516,0.9325,0.65717,0.23972
1700753589343750,-9.71131,0.898981,0.745516,0.4825,0.67017,0.20872
1700753589351562,-9.70431,0.891981,0.756516,0.6025,0.65717,0.25572
1700753589359375,-9.71131,0.891981,0.774516,0.1875,0.65617,0.25572
1700753589367187,-9.72431,0.900981,0.785516,0.7725,0.60917,0.25572
1700753589375000,-9.72631,0.893981,0.804516,0.12625,0.65617,0.25572
1700753589382812,-9.72231,0.893981,0.792516,0.2925,0.65617,0.28772
1700753589390625,-9.71531,0.887981,0.776516,0.1225,0.67217,0.27172
1700753589398437,-9.70431,0.900981,0.767516,0.3675,0.59517,0.23972
1700753589406250,-9.71131,0.891981,0.772516,0.1975,0.57817,0.25572
1700753589414062,-9.71531,0.900981,0.794516,0.3475,0.53117,0.22372
1700753589421875,-9.72431,0.909981,0.819516,0.9625,0.51317,0.20872
1700753589429687,-9.72831,0.911981,0.826516,0.4525,0.46817,0.22372
1700753589437500,-9.72731,0.909981,0.831516,0.1675,0.52917,0.20872
1700753589445312,-9.73331,0.906981,0.828516,0.4425,0.56417,0.22372
1700753589453125,-9.74231,0.907981,0.831516,0.6475,0.57517,0.25672
1700753589460937,-9.73131,0.903981,0.826516,0.0,0.70117,0.27272
1700753589468750,-9.72131,0.895981,0.826516,0.6825,0.67817,0.29072
1700753589476562,-9.71931,0.893981,0.806516,0.625,0.67517,0.27572
1700753589484375,-9.71331,0.896981,0.767516,0.12925,0.69917,0.28872
1700753589492187,-9.72731,0.894981,0.749516,0.8025,0.71517,0.28872
1700753589500000,-9.71631,0.904981,0.747516,0.11725,0.69417,0.25872
1700753589507812,-9.72731,0.895981,0.754516,0.6925,0.64717,0.24272
1700753589515625,-9.72731,0.896981,0.776516,0.1525,0.68517,0.25672
1700753589523437,-9.72931,0.885981,0.776516,0.1625,0.66817,0.27272
1700753589531250,-9.72131,0.877981,0.779516,0.4175,0.64417,0.22772
1700753589539062,-9.71431,0.879981,0.772516,0.11175,0.66817,0.24072
1700753589546875,-9.70431,0.878981,0.770516,0.6225,0.62517,0.20772
1700753589554687,-9.70731,0.874981,0.774516,0.9675,0.62217,0.25672
1700753589562500,-9.70031,0.886981,0.772516,0.1575,0.62217,0.20872
1700753589570312,-9.71031,0.893981,0.774516,0.1375,0.60017,0.35472
1700753589578125,-9.71331,0.896981,0.790516,0.13175,0.56217,0.23972
1700753589585937,-9.72031,0.892981,0.810516,0.13075,0.67017,0.27272
1700753589593750,-9.73631,0.881981,0.803516,0.7975,0.57517,0.22472
1700753589601562,-9.74031,0.898981,0.801516,0.4875,0.60717,0.22472
1700753589609375,-9.73731,0.913981,0.828516,0.3575,0.54717,0.25572
1700753589617187,-9.73731,0.909981,0.853516,0.8275,0.62417,0.27172
1700753589625000,-9.72931,0.910981,0.844516,0.1675,0.62017,0.33772
1700753589632812,-9.73831,0.905981,0.837516,0.6275,0.61917,0.24172
1700753589640625,-9.74031,0.907981,0.810516,0.9675,0.70017,0.24072
1700753589648437,-9.73231,0.892981,0.779516,0.3075,0.71517,0.24072
1700753589656250,-9.72231,0.902981,0.779516,0.3475,0.71717,0.30472
1700753589664062,-9.71831,0.908981,0.776516,0.1375,0.66617,0.27372
1700753589671875,-9.72931,0.891981,0.783516,0.11475,0.66917,0.30472
1700753589679687,-9.73631,0.897981,0.792516,0.2775,0.70917,0.25872
1700753589687500,-9.73431,0.896981,0.794516,0.9675,0.68417,0.24072
1700753589695312,-9.72531,0.897981,0.792516,0.8525,0.67817,0.21072
1700753589703125,-9.71031,0.891981,0.792516,0.2375,0.71917,0.21272
1700753589710937,-9.70531,0.895981,0.772516,0.10125,0.67817,0.22672
1700753589718750,-9.70531,0.876981,0.754516,0.14525,0.68517,0.19272
1700753589726562,-9.68731,0.877981,0.743516,0.9825,0.74717,0.20872
1700753589734375,-9.70331,0.872981,0.747516,0.16225,0.70017,0.24072
1700753589742187,-9.70331,0.859981,0.747516,0.11325,0.68317,0.28972
1700753589750000,-9.71431,0.857981,0.749516,0.9925,0.68117,0.22572
1700753589757812,-9.71231,0.857981,0.740516,0.3725,0.66317,0.22672
1700753589765625,-9.71431,0.852981,0.743516,0.6425,0.71617,0.24072
1700753589773437,-9.70231,0.865981,0.743516,0.3275,0.67017,0.20872
1700753589781250,-9.70331,0.863981,0.736516,0.12875,0.62217,0.22472
1700753589789062,-9.70831,0.875981,0.729516,0.7675,0.61617,0.22672
1700753589796875,-9.71331,0.883981,0.745516,0.13075,0.67017,0.27272
1700753589804687,-9.70031,0.875981,0.761516,0.11175,0.66817,0.24072
1700753589812500,-9.71231,0.841981,0.774516,0.11475,0.62417,0.23972
1700753589820312,-9.73631,0.863981,0.785516,0.14675,0.52817,0.30472
1700753589828125,-9.77331,0.876981,0.826516,0.20475,0.53517,0.27572
1700753589835937,-9.78831,0.869981,0.828516,0.22175,0.66317,0.25872
1700753589843750,-9.78331,0.886981,0.824516,0.24175,0.73117,0.24072
1700753589851562,-9.73131,0.929981,0.824516,0.24175,0.74517,0.36972
1700753589859375,-9.72531,0.923981,0.806516,0.23875,0.81817,0.37072
1700753589867187,-9.72431,0.927981,0.776516,0.16175,0.71417,0.38572
1700753589875000,-9.72731,0.930981,0.752516,0.11375,0.68217,0.40172
1700753589882812,-9.72431,0.918981,0.747516,0.13175,0.77917,0.33672
1700753589890625,-9.72731,0.930981,0.765516,0.7775,0.66217,0.33872
1700753589898437,-9.74031,0.945981,0.794516,0.9675,0.65317,0.27272
1700753589906250,-9.75231,0.939981,0.831516,0.6775,0.65717,0.22372
1700753589914062,-9.75131,0.931981,0.835516,0.3125,0.67117,0.20772
1700753589921875,-9.74431,0.931981,0.835516,0.6225,0.73217,0.30472
1700753589929687,-9.73531,0.927981,0.824516,0.11525,0.85417,0.28972
1700753589937500,-9.72631,0.906981,0.822516,0.9325,0.87417,0.36772
1700753589945312,-9.72631,0.902981,0.826516,0.9325,0.81017,0.38472
1700753589953125,-9.73131,0.869981,0.799516,0.4425,0.92017,0.39972
1700753589960937,-9.75431,0.867981,0.772516,0.3325,0.91717,0.32172
1700753589968750,-9.75131,0.846981,0.799516,0.2025,0.86417,0.40372
1700753589976562,-9.75231,0.838981,0.785516,0.12725,0.88917,0.32072
1700753589984375,-9.76331,0.844981,0.794516,0.12525,0.88917,0.35172
1700753589992187,-9.77331,0.838981,0.767516,0.14725,0.90117,0.28972
1700753590000000,-9.76831,0.836981,0.756516,0.13125,0.88517,0.25772
1700753590007812,-9.75531,0.845981,0.740516,0.10125,0.89917,0.20972
1700753590015625,-9.74431,0.845981,0.747516,0.325,0.89917,0.28972
1700753590023437,-9.73331,0.849981,0.722516,0.2925,0.96917,0.27172
1700753590031250,-9.72031,0.853981,0.702516,0.9425,0.93617,0.30372
1700753590039062,-9.70931,0.841981,0.688516,0.0,0.96617,0.30472
1700753590046875,-9.71231,0.855981,0.691516,0.6825,0.94517,0.28972
1700753590054687,-9.72131,0.854981,0.675516,0.4775,0.94917,0.30472
1700753590062500,-9.73031,0.847981,0.677516,0.8075,0.84117,0.30472
1700753590070312,-9.72331,0.838981,0.704516,0.14575,0.73217,0.20872
1700753590078125,-9.73431,0.845981,0.709516,0.8275,0.67217,0.22372
1700753590085937,-9.75031,0.838981,0.740516,0.9875,0.73417,0.23972
1700753590093750,-9.75031,0.841981,0.758516,0.9375,0.72817,0.20972
1700753590101562,-9.76231,0.863981,0.761516,0.725,0.69117,0.21172
1700753590109375,-9.73431,0.876981,0.763516,0.7975,0.80917,0.22472
1700753590117187,-9.71831,0.878981,0.736516,0.11275,0.88817,0.25672
1700753590125000,-9.72631,0.889981,0.718516,0.6975,0.90217,0.32572
1700753590132812,-9.72531,0.883981,0.688516,0.6275,0.90117,0.27372
1700753590140625,-9.73931,0.888981,0.693516,0.5875,0.84917,0.25872
1700753590148437,-9.74131,0.874981,0.715516,0.7875,0.68117,0.25772
1700753590156250,-9.74031,0.891981,0.736516,0.8075,0.81017,0.22472
1700753590164062,-9.74031,0.895981,0.756516,0.4975,0.84317,0.23972
1700753590171875,-9.73831,0.905981,0.731516,0.8425,0.85217,0.27372
1700753590179687,-9.72931,0.903981,0.713516,0.16525,0.88317,0.24172
1700753590187500,-9.72931,0.901981,0.718516,0.9825,0.90117,0.32172
1700753590195312,-9.70331,0.898981,0.718516,0.12625,0.92217,0.23972
1700753590203125,-9.72731,0.897981,0.700516,0.5225,0.91517,0.25772
1700753590210937,-9.72831,0.888981,0.697516,0.10425,0.93917,0.32372
1700753590218750,-9.75931,0.892981,0.679516,0.13325,0.94517,0.27372
1700753590226562,-9.75831,0.896981,0.691516,0.14725,0.93217,0.28972
1700753590234375,-9.73831,0.894981,0.695516,0.11425,0.96317,0.35372
1700753590242187,-9.72531,0.894981,0.654516,0.5225,0.94617,0.25772
1700753590250000,-9.73331,0.887981,0.645516,0.10925,0.86817,0.29472
1700753590257812,-9.71931,0.880981,0.668516,0.10825,0.82417,0.26172
1700753590265625,-9.71631,0.883981,0.661516,0.6725,0.88317,0.32172
1700753590273437,-9.73731,0.877981,0.675516,0.5125,0.91417,0.33872
1700753590281250,-9.74131,0.872981,0.666516,0.8225,0.90017,0.36972
1700753590289062,-9.74631,0.863981,0.652516,0.14725,0.91317,0.41872
1700753590296875,-9.74131,0.845981,0.654516,0.11125,0.88717,0.38472
1700753590304687,-9.73631,0.838981,0.648516,0.6025,0.84317,0.38372
1700753590312500,-9.72131,0.832981,0.650516,0.175,0.81017,0.35272
1700753590320312,-9.71831,0.827981,0.657516,0.2825,0.84317,0.38372
1700753590328125,-9.74931,0.846981,0.648516,0.6875,0.87517,0.35172
1700753590335937,-9.77131,0.832981,0.659516,0.6175,0.86417,0.45172
1700753590343750,-9.77331,0.829981,0.659516,0.9875,0.87117,0.46472
1700753590351562,-9.78131,0.847981,0.663516,0.11375,0.91617,0.48172
1700753590359375,-9.76531,0.846981,0.693516,0.13175,0.85617,0.44872
1700753590367187,-9.77031,0.820981,0.679516,0.11475,0.88617,0.43272
1700753590375000,-9.76231,0.818981,0.630516,0.8175,0.99517,0.46572
1700753590382812,-9.72231,0.837981,0.621516,0.9275,0.98817,0.45172
1700753590390625,-9.71331,0.851981,0.612516,0.7675,0.89517,0.43572
1700753590398437,-9.69631,0.841981,0.591516,0.9775,0.93317,0.43272
1700753590406250,-9.67531,0.858981,0.607516,0.10175,0.90617,0.38372
1700753590414062,-9.68931,0.863981,0.593516,0.14675,0.82517,0.36872
1700753590421875,-9.70531,0.874981,0.605516,0.13075,0.76217,0.35272
1700753590429687,-9.75431,0.878981,0.643516,0.11075,0.69717,0.30572
1700753590437500,-9.78831,0.880981,0.686516,0.14275,0.74417,0.25772
1700753590445312,-9.77131,0.871981,0.702516,0.13175,0.70317,0.25572
1700753590453125,-9.74931,0.880981,0.686516,0.3275,0.82717,0.20872
1700753590460937,-9.73931,0.872981,0.663516,0.8425,0.86817,0.25772
1700753590468750,-9.78631,0.854981,0.627516,0.14925,0.86817,0.27372
1700753590476562,-9.82531,0.817981,0.609516,0.1725,0.85417,0.33772
1700753590484375,-9.76731,0.801981,0.618516,0.6625,0.90117,0.28972
1700753590492187,-9.73331,0.799981,0.634516,0.2975,0.87017,0.25772
1700753590500000,-9.73131,0.799981,0.634516,0.5025,0.85417,0.32172
1700753590507812,-9.76531,0.788981,0.632516,0.2025,0.89517,0.37172
1700753590515625,-9.76631,0.782981,0.591516,0.7825,0.91817,0.41672
1700753590523437,-9.77431,0.787981,0.566516,0.13125,0.89817,0.41872
1700753590531250,-9.79031,0.792981,0.557516,0.8525,0.87917,0.38772
1700753590539062,-9.80031,0.807981,0.580516,0.12875,0.71417,0.35372
1700753590546875,-9.76231,0.807981,0.587516,0.14575,0.65217,0.36972
1700753590554687,-9.73331,0.810981,0.625516,0.19375,0.72717,0.44972
1700753590562500,-9.74731,0.797981,0.625516,0.16175,0.86917,0.43372
1700753590570312,-9.72431,0.821981,0.593516,0.12875,0.91617,0.41772
1700753590578125,-9.70631,0.857981,0.614516,0.12475,0.89517,0.37072
1700753590585937,-9.71631,0.852981,0.587516,0.8075,0.97917,0.40172
1700753590593750,-9.71031,0.844981,0.553516,0.5975,0.94217,0.40372
1700753590601562,-9.70131,0.815981,0.580516,0.12975,0.79217,0.38472
1700753590609375,-9.72231,0.819981,0.603516,0.16075,0.71417,0.32172
1700753590617187,-9.75231,0.842981,0.636516,0.13175,0.68617,0.33672
1700753590625000,-9.79531,0.858981,0.666516,0.11275,0.70017,0.28872
1700753590632812,-9.79731,0.873981,0.677516,0.12875,0.71617,0.24072
1700753590640625,-9.83231,0.874981,0.672516,0.9775,0.79417,0.28872
1700753590648437,-9.84131,0.870981,0.679516,0.3275,0.85817,0.20872
1700753590656250,-9.82831,0.873981,0.659516,0.4475,0.93017,0.28972
1700753590664062,-9.78631,0.869981,0.643516,0.6825,0.99517,0.24172
1700753590671875,-9.72431,0.839981,0.607516,0.14925,0.105417,0.33872
1700753590679687,-9.71031,0.823981,0.544516,0.19225,0.104317,0.38472
1700753590687500,-9.70631,0.808981,0.542516,0.17725,0.91817,0.30472
1700753590695312,-9.71531,0.799981,0.557516,0.14725,0.88617,0.24072
1700753590703125,-9.76931,0.801981,0.555516,0.19525,0.90017,0.33772
1700753590710937,-9.81731,0.790981,0.544516,0.20225,0.90417,0.35672
1700753590718750,-9.82031,0.784981,0.557516,0.14625,0.93217,0.35372
1700753590726562,-9.81031,0.769981,0.546516,0.21125,0.90017,0.35372
1700753590734375,-9.76531,0.754981,0.544516,0.12825,0.91817,0.35272
1700753590742187,-9.71931,0.769981,0.521516,0.13725,0.88917,0.34072
1700753590750000,-9.69631,0.769981,0.510516,0.8325,0.96017,0.38672
1700753590757812,-9.69531,0.788981,0.542516,0.11325,0.83817,0.41772
1700753590765625,-9.72931,0.782981,0.548516,0.14925,0.86417,0.41972
1700753590773437,-9.76531,0.796981,0.553516,0.9825,0.91317,0.45072
1700753590781250,-9.79531,0.804981,0.557516,0.6325,0.94817,0.44972
1700753590789062,-9.81631,0.813981,0.564516,0.3275,0.93217,0.46572
1700753590796875,-9.82531,0.825981,0.555516,0.1075,0.93817,0.50072
1700753590804687,-9.81831,0.800981,0.557516,0.2975,0.93017,0.37072
1700753590812500,-9.79131,0.825981,0.569516,0.225,0.94517,0.38672
1700753590820312,-9.74031,0.839981,0.582516,0.5875,0.86117,0.35572
1700753590828125,-9.72331,0.832981,0.566516,0.7925,0.95017,0.35272
1700753590835937,-9.72431,0.839981,0.544516,0.1275,0.94517,0.33872
1700753590843750,-9.70831,0.837981,0.539516,0.9375,0.89917,0.33772
1700753590851562,-9.72831,0.809981,0.546516,0.12625,0.88817,0.36872
1700753590859375,-9.69531,0.802981,0.551516,0.13025,0.90017,0.33772
1700753590867187,-9.69031,0.810981,0.481516,0.17925,0.93317,0.24072
1700753590875000,-9.69931,0.805981,0.417516,0.16125,0.93517,0.25672
1700753590882812,-9.72131,0.798981,0.420516,0.8025,0.88817,0.27272
1700753590890625,-9.77131,0.798981,0.465516,0.0,0.66717,0.30572
1700753590898437,-9.80131,0.815981,0.537516,0.13275,0.65717,0.22372
1700753590906250,-9.81131,0.809981,0.569516,0.1575,0.84017,0.30472
1700753590914062,-9.78331,0.774981,0.521516,0.16425,0.92917,0.37072
1700753590921875,-9.70531,0.762981,0.444516,0.19725,0.96017,0.33872
1700753590929687,-9.65631,0.764981,0.404516,0.20425,0.87017,0.32572
1700753590937500,-9.66931,0.756981,0.390516,0.18125,0.74317,0.22572
1700753590945312,-9.69831,0.751981,0.420516,0.14825,0.65017,0.20972
1700753590953125,-9.73631,0.757981,0.462516,0.3125,0.62217,0.30472
1700753590960937,-9.77931,0.752981,0.508516,0.6075,0.53417,0.37172
1700753590968750,-9.80231,0.746981,0.532516,0.575,0.67117,0.38372
1700753590976562,-9.82131,0.760981,0.521516,0.3525,0.73917,0.38672
1700753590984375,-9.85131,0.756981,0.514516,0.6925,0.70517,0.41972
1700753590992187,-9.82631,0.759981,0.517516,0.775,0.85817,0.30872
1700753591000000,-9.78431,0.739981,0.499516,0.7375,0.90817,0.33972
1700753591007812,-9.75431,0.757981,0.528516,0.12475,0.83417,0.30672
1700753591015625,-9.73931,0.769981,0.508516,0.10575,0.86217,0.30772
1700753591023437,-9.70731,0.789981,0.481516,0.12575,0.89917,0.33772
1700753591031250,-9.72131,0.800981,0.447516,0.9975,0.88417,0.24672
1700753591039062,-9.71331,0.800981,0.467516,0.10775,0.75617,0.24272
1700753591046875,-9.70731,0.795981,0.510516,0.12675,0.66617,0.20972
1700753591054687,-9.67731,0.793981,0.508516,0.11075,0.68117,0.27372
1700753591062500,-9.66631,0.792981,0.463516,0.12375,0.80317,0.24272
1700753591070312,-9.72931,0.793981,0.401516,0.10775,0.74117,0.24272
1700753591078125,-9.74031,0.790981,0.390516,0.17575,0.60617,0.17672
1700753591085937,-9.74531,0.797981,0.424516,0.15675,0.52317,0.16272
1700753591093750,-9.75731,0.803981,0.474516,0.19575,0.49917,0.23972
1700753591101562,-9.75431,0.792981,0.490516,0.22275,0.47717,0.21072
1700753591109375,-9.73631,0.789981,0.458516,0.7375,0.45517,0.21272
1700753591117187,-9.72531,0.800981,0.413516,0.875,0.52117,0.9872
1700753591125000,-9.72831,0.808981,0.370516,0.4875,0.45117,0.17672
1700753591132812,-9.72431,0.802981,0.368516,0.11075,0.35617,0.12872
1700753591140625,-9.73131,0.813981,0.420516,0.10875,0.25617,0.14672
1700753591148437,-9.72531,0.786981,0.476516,0.9375,0.41417,0.21072
1700753591156250,-9.71331,0.770981,0.447516,0.8175,0.46717,0.24072
1700753591164062,-9.70331,0.746981,0.368516,0.1625,0.38817,0.20872
1700753591171875,-9.71431,0.740981,0.352516,0.3225,0.21517,0.17672
1700753591179687,-9.73231,0.748981,0.383516,0.9775,0.13717,0.19272
1700753591187500,-9.74331,0.768981,0.420516,0.16375,0.283,0.24072
1700753591195312,-9.75231,0.790981,0.501516,0.25475,0.10083,0.8272
1700753591203125,-9.77631,0.794981,0.575516,0.38975,0.7983,0.22472
1700753591210937,-9.78031,0.771981,0.591516,0.23075,0.9183,0.15972
1700753591218750,-9.78331,0.768981,0.584516,0.22475,0.4117,0.14572
1700753591226562,-9.74931,0.784981,0.582516,0.12675,0.16617,0.9772
1700753591234375,-9.76031,0.792981,0.596516,0.7975,0.15317,0.11272
1700753591242187,-9.78231,0.804981,0.573516,0.13375,0.17317,0.15972
1700753591250000,-9.79131,0.804981,0.580516,0.13275,0.22017,0.14372
1700753591257812,-9.78331,0.803981,0.569516,0.23975,0.35217,0.20972
1700753591265625,-9.76931,0.809981,0.553516,0.21175,0.35817,0.22472
1700753591273437,-9.78031,0.798981,0.551516,0.16375,0.26517,0.20772
1700753591281250,-9.79231,0.783981,0.566516,0.14675,0.20117,0.20872
1700753591289062,-9.79631,0.776981,0.596516,0.13075,0.18617,0.20872
1700753591296875,-9.76431,0.794981,0.596516,0.8175,0.38917,0.22472
1700753591304687,-9.73531,0.801981,0.562516,0.0,0.43517,0.14472
1700753591312500,-9.72831,0.810981,0.514516,0.1725,0.42017,0.11272
1700753591320312,-9.71331,0.808981,0.458516,0.11425,0.40117,0.17772
1700753591328125,-9.70431,0.806981,0.438516,0.6525,0.41917,0.17672
1700753591335937,-9.70031,0.804981,0.474516,0.11175,0.35517,0.17672
1700753591343750,-9.70931,0.808981,0.494516,0.7975,0.18417,0.11272
1700753591351562,-9.72831,0.803981,0.517516,0.4725,0.18917,0.3172
1700753591359375,-9.73631,0.790981,0.537516,0.6725,0.24317,0.11372
1700753591367187,-9.73331,0.772981,0.523516,0.3375,0.17217,0.9572
1700753591375000,-9.73331,0.774981,0.548516,0.1875,0.14317,0.1472
1700753591382812,-9.71831,0.768981,0.562516,0.4675,0.7617,0.0
1700753591390625,-9.72231,0.761981,0.571516,0.9675,0.6317,0.0
1700753591398437,-9.73631,0.746981,0.564516,0.12975,0.7817,0.6372
1700753591406250,-9.74331,0.724981,0.562516,0.11275,0.9117,0.11272
1700753591414062,-9.76831,0.734981,0.591516,0.11175,0.13817,0.8072
1700753591421875,-9.78631,0.736981,0.618516,0.13075,0.9317,0.12772
1700753591429687,-9.78631,0.736981,0.630516,0.22575,0.10717,0.14472
1700753591437500,-9.79731,0.727981,0.645516,0.16375,0.10817,0.17672
1700753591445312,-9.80431,0.730981,0.652516,0.25575,0.8417,0.22672
1700753591453125,-9.78531,0.725981,0.668516,0.25975,0.18717,0.14372
1700753591460937,-9.77931,0.718981,0.657516,0.24375,0.21917,0.9572
1700753591468750,-9.75731,0.735981,0.623516,0.25475,0.30617,0.8172
1700753591476562,-9.75431,0.757981,0.598516,0.31975,0.40317,0.3272
1700753591484375,-9.74031,0.772981,0.598516,0.37075,0.28017,0.8072
1700753591492187,-9.73131,0.794981,0.596516,0.33875,0.17317,0.1628
1700753591500000,-9.72031,0.808981,0.614516,0.30275,0.18217,0.172
1700753591507812,-9.70831,0.826981,0.625516,0.38375,0.22917,0.6572
1700753591515625,-9.70031,0.849981,0.603516,0.23375,0.23417,0.14872
1700753591523437,-9.70131,0.858981,0.580516,0.22175,0.33317,0.24272
1700753591531250,-9.72931,0.878981,0.562516,0.22975,0.23317,0.30472
1700753591539062,-9.76331,0.876981,0.578516,0.30875,0.21817,0.19172
1700753591546875,-9.80631,0.882981,0.616516,0.38975,0.13917,0.25672
1700753591554687,-9.82031,0.882981,0.677516,0.36675,0.7017,0.9872
1700753591562500,-9.79531,0.869981,0.715516,0.20475,0.14817,0.8272
1700753591570312,-9.74831,0.859981,0.715516,0.14275,0.15017,0.9772
1700753591578125,-9.73631,0.867981,0.695516,0.17775,0.20217,0.11272
1700753591585937,-9.74131,0.876981,0.682516,0.6475,0.20217,0.9672
1700753591593750,-9.74831,0.879981,0.691516,0.725,0.19117,0.3572
1700753591601562,-9.77631,0.886981,0.718516,0.13175,0.18817,0.11172
1700753591609375,-9.80631,0.876981,0.785516,0.7675,0.13217,0.11472
1700753591617187,-9.84431,0.855981,0.810516,0.11375,0.26517,0.12772
1700753591625000,-9.84431,0.827981,0.808516,0.4525,0.48517,0.15972
1700753591632812,-9.83431,0.813981,0.770516,0.14725,0.59017,0.16072
1700753591640625,-9.82231,0.810981,0.736516,0.12825,0.68517,0.24072
1700753591648437,-9.80231,0.793981,0.695516,0.13125,0.74717,0.16072
1700753591656250,-9.77131,0.787981,0.666516,0.14825,0.79417,0.11272
1700753591664062,-9.74031,0.767981,0.621516,0.9725,0.73217,0.14472
1700753591671875,-9.71531,0.751981,0.614516,0.12625,0.76717,0.12672
1700753591679687,-9.71331,0.750981,0.607516,0.4675,0.67017,0.8072
1700753591687500,-9.72531,0.755981,0.596516,0.12675,0.63817,0.11272
1700753591695312,-9.73531,0.765981,0.609516,0.8075,0.60817,0.11172
1700753591703125,-9.74931,0.768981,0.639516,0.12775,0.57317,0.24172
1700753591710937,-9.77431,0.772981,0.668516,0.11175,0.49517,0.24172
1700753591718750,-9.78931,0.782981,0.666516,0.13075,0.57617,0.25672
1700753591726562,-9.78831,0.775981,0.654516,0.11675,0.67317,0.25572
1700753591734375,-9.79131,0.766981,0.643516,0.13175,0.65617,0.25572
1700753591742187,-9.78531,0.772981,0.666516,0.11175,0.62117,0.24072
1700753591750000,-9.78031,0.769981,0.666516,0.16175,0.56017,0.19272
1700753591757812,-9.73531,0.787981,0.668516,0.16375,0.57917,0.12772
1700753591765625,-9.71131,0.789981,0.657516,0.10575,0.56717,0.9972
1700753591773437,-9.69631,0.794981,0.648516,0.11775,0.58217,0.12672
1700753591781250,-9.69431,0.803981,0.639516,0.14675,0.58017,0.6372
1700753591789062,-9.70631,0.801981,0.636516,0.14375,0.54617,0.1572
1700753591796875,-9.72031,0.802981,0.652516,0.20475,0.41617,0.1772
1700753591804687,-9.72231,0.808981,0.688516,0.12675,0.42017,0.3272
1700753591812500,-9.72831,0.818981,0.704516,0.11275,0.46917,0.3172
1700753591820312,-9.78331,0.810981,0.702516,0.18075,0.59717,0.4672
1700753591828125,-9.81131,0.809981,0.684516,0.14175,0.68517,0.1672
1700753591835937,-9.77531,0.800981,0.688516,0.11175,0.62517,0.0
1700753591843750,-9.74631,0.798981,0.686516,0.12975,0.65817,0.1572
1700753591851562,-9.74131,0.800981,0.666516,0.11275,0.67417,0.1628
1700753591859375,-9.73231,0.803981,0.627516,0.12775,0.71917,0.3172
1700753591867187,-9.70831,0.801981,0.621516,0.11075,0.67017,0.6472
1700753591875000,-9.70631,0.803981,0.600516,0.8175,0.65617,0.14372
1700753591882812,-9.70831,0.804981,0.609516,0.15775,0.66917,0.4872
1700753591890625,-9.70231,0.837981,0.609516,0.12275,0.63317,0.3472
1700753591898437,-9.69231,0.844981,0.596516,0.11075,0.62217,0.12872
1700753591906250,-9.70131,0.844981,0.600516,0.7675,0.49217,0.14672
1700753591914062,-9.70931,0.836981,0.612516,0.16475,0.48717,0.11072
1700753591921875,-9.71731,0.816981,0.625516,0.14475,0.43817,0.1628
1700753591929687,-9.74431,0.830981,0.654516,0.14175,0.48117,0.4872
1700753591937500,-9.78631,0.835981,0.659516,0.17775,0.50117,0.3172
1700753591945312,-9.79731,0.844981,0.675516,0.19175,0.43617,0.0
1700753591953125,-9.78531,0.839981,0.686516,0.15375,0.45917,0.2928
1700753591960937,-9.74331,0.849981,0.684516,0.11375,0.43917,0.1572
1700753591968750,-9.73631,0.851981,0.691516,0.12975,0.56417,0.1572
1700753591976562,-9.73231,0.854981,0.686516,0.11275,0.62517,0.6372
1700753591984375,-9.72131,0.839981,0.684516,0.12775,0.63917,0.12872
1700753591992187,-9.72531,0.836981,0.668516,0.11375,0.60817,0.20872
1700753592000000,-9.73031,0.830981,0.679516,0.9575,0.60717,0.12872
1700753592007812,-9.72531,0.834981,0.686516,0.11375,0.62517,0.14372
1700753592015625,-9.75731,0.805981,0.679516,0.9675,0.65517,0.19272
1700753592023437,-9.77831,0.814981,0.675516,0.11775,0.69017,0.20672
1700753592031250,-9.77931,0.840981,0.684516,0.16175,0.67017,0.19272
1700753592039062,-9.78231,0.838981,0.684516,0.14375,0.77817,0.17672
1700753592046875,-9.76531,0.851981,0.686516,0.14675,0.70217,0.20772
1700753592054687,-9.74131,0.853981,0.673516,0.16375,0.70217,0.27172
1700753592062500,-9.73031,0.841981,0.643516,0.11375,0.68617,0.22472
1700753592070312,-9.71231,0.829981,0.648516,0.13175,0.68817,0.20772
1700753592078125,-9.70331,0.810981,0.648516,0.11575,0.65617,0.23972
1700753592085937,-9.70431,0.806981,0.648516,0.7975,0.71617,0.20872
1700753592093750,-9.73231,0.824981,0.670516,0.1225,0.65717,0.27172
1700753592101562,-9.77431,0.844981,0.677516,0.3475,0.68717,0.22372
1700753592109375,-9.77031,0.847981,0.684516,0.4775,0.71617,0.24072
1700753592117187,-9.77531,0.816981,0.702516,0.6275,0.77717,0.25772
1700753592125000,-9.79631,0.816981,0.700516,0.4475,0.88417,0.25772
1700753592132812,-9.77631,0.801981,0.706516,0.925,0.87417,0.26072
1700753592140625,-9.76231,0.790981,0.693516,0.1275,0.91717,0.22572
1700753592148437,-9.74631,0.794981,0.663516,0.0,0.90417,0.20872
1700753592156250,-9.74431,0.807981,0.654516,0.8125,0.98217,0.20872
1700753592164062,-9.73431,0.798981,0.657516,0.12825,0.103017,0.22372
1700753592171875,-9.75731,0.809981,0.623516,0.5025,0.99517,0.27372
1700753592179687,-9.78231,0.804981,0.593516,0.4775,0.104517,0.19172
1700753592187500,-9.73631,0.824981,0.612516,0.2425,0.92417,0.21172
1700753592195312,-9.73931,0.827981,0.600516,0.1575,0.106117,0.22472
1700753592203125,-9.71531,0.837981,0.566516,0.8725,0.116417,0.17872
1700753592210937,-9.67931,0.842981,0.519516,0.14925,0.102617,0.16172
1700753592218750,-9.69531,0.843981,0.490516,0.2825,0.87217,0.19772
1700753592226562,-9.69731,0.847981,0.508516,0.5725,0.87817,0.14772
1700753592234375,-9.70631,0.839981,0.535516,0.10025,0.66617,0.16172
1700753592242187,-9.71631,0.843981,0.535516,0.9625,0.67117,0.14372
1700753592250000,-9.73031,0.825981,0.535516,0.13025,0.65317,0.17672
1700753592257812,-9.71931,0.821981,0.537516,0.14625,0.66917,0.20872
1700753592265625,-9.70831,0.813981,0.523516,0.8425,0.59117,0.3272
1700753592273437,-9.69931,0.806981,0.501516,0.16325,0.54417,0.9672
1700753592281250,-9.68731,0.810981,0.510516,0.16125,0.56417,0.0
1700753592289062,-9.68331,0.808981,0.537516,0.12725,0.43817,0.14372
1700753592296875,-9.68331,0.822981,0.557516,0.1575,0.45117,0.14472
1700753592304687,-9.68631,0.811981,0.578516,0.8525,0.44617,0.11372
1700753592312500,-9.67231,0.822981,0.591516,0.12925,0.37317,0.14472
1700753592320312,-9.68931,0.820981,0.598516,0.10325,0.39617,0.9872
1700753592328125,-9.72831,0.814981,0.614516,0.3375,0.46917,0.14372
1700753592335937,-9.74231,0.801981,0.612516,0.6525,0.41717,0.24172
1700753592343750,-9.75331,0.803981,0.593516,0.5025,0.40217,0.17772
1700753592351562,-9.75131,0.808981,0.600516,0.4775,0.40417,0.12872
1700753592359375,-9.75531,0.811981,0.618516,0.1425,0.40617,0.15972
1700753592367187,-9.74831,0.809981,0.618516,0.5175,0.42217,0.19172
1700753592375000,-9.74631,0.822981,0.616516,0.6125,0.40617,0.19172
1700753592382812,-9.76331,0.828981,0.612516,0.2075,0.42417,0.19072
1700753592390625,-9.75031,0.838981,0.607516,0.11475,0.39017,0.19172
1700753592398437,-9.75231,0.844981,0.598516,0.5275,0.40717,0.20772
1700753592406250,-9.74331,0.838981,0.584516,0.8275,0.40617,0.19172
1700753592414062,-9.74131,0.834981,0.580516,0.13175,0.42217,0.19172
1700753592421875,-9.74031,0.808981,0.609516,0.12875,0.37017,0.22572
1700753592429687,-9.73531,0.815981,0.616516,0.10975,0.35217,0.19372
1700753592437500,-9.74631,0.828981,0.614516,0.17675,0.37417,0.6472
1700753592445312,-9.77531,0.827981,0.621516,0.14475,0.42117,0.4772
1700753592453125,-9.81331,0.824981,0.648516,0.17775,0.37417,0.11172
1700753592460937,-9.80631,0.839981,0.652516,0.13175,0.43817,0.15972
1700753592468750,-9.78931,0.852981,0.639516,0.10975,0.44517,0.25872
1700753592476562,-9.76231,0.845981,0.645516,0.20675,0.43017,0.22672
1700753592484375,-9.74131,0.840981,0.654516,0.13075,0.48317,0.23972
1700753592492187,-9.73031,0.847981,0.650516,0.21175,0.45117,0.27272
1700753592500000,-9.71831,0.851981,0.652516,0.13275,0.43817,0.22372
1700753592507812,-9.70531,0.836981,0.663516,0.14875,0.39117,0.20772
1700753592515625,-9.68931,0.873981,0.684516,0.12875,0.40417,0.12872
1700753592523437,-9.70931,0.883981,0.666516,0.11175,0.43517,0.12872
1700753592531250,-9.78331,0.891981,0.657516,0.12875,0.41917,0.19272
1700753592539062,-9.83631,0.898981,0.688516,0.11675,0.40817,0.15972
1700753592546875,-9.81231,0.895981,0.720516,0.12875,0.40517,0.11172
1700753592554687,-9.77231,0.886981,0.706516,0.8275,0.39017,0.15972
1700753592562500,-9.73731,0.875981,0.668516,0.2125,0.55417,0.14672
1700753592570312,-9.70731,0.870981,0.621516,0.9725,0.48117,0.17672
1700753592578125,-9.69631,0.854981,0.616516,0.9525,0.48317,0.17572
1700753592585937,-9.71631,0.836981,0.625516,0.3575,0.45317,0.22372
1700753592593750,-9.75231,0.829981,0.659516,0.9975,0.40617,0.22372
1700753592601562,-9.80231,0.808981,0.684516,0.10075,0.42317,0.15972
1700753592609375,-9.81431,0.820981,0.697516,0.1475,0.44817,0.19372
1700753592617187,-9.76431,0.837981,0.700516,0.3825,0.52017,0.22772
1700753592625000,-9.73131,0.814981,0.636516,0.125,0.60617,0.20872
1700753592632812,-9.72931,0.797981,0.591516,0.1075,0.52017,0.22772
1700753592640625,-9.72231,0.804981,0.598516,0.12875,0.46617,0.19272
1700753592648437,-9.72231,0.809981,0.634516,0.10875,0.28717,0.21072
1700753592656250,-9.71331,0.810981,0.652516,0.12975,0.32617,0.19272
1700753592664062,-9.69031,0.829981,0.684516,0.17775,0.24617,0.20872
1700753592671875,-9.72831,0.808981,0.691516,0.22675,0.42117,0.16072
1700753592679687,-9.78431,0.807981,0.688516,0.37075,0.40617,0.7972
1700753592687500,-9.83531,0.828981,0.715516,0.34375,0.31517,0.17472
1700753592695312,-9.81631,0.838981,0.749516,0.31975,0.39917,0.16172
1700753592703125,-9.78931,0.845981,0.765516,0.22175,0.46117,0.16272
1700753592710937,-9.75731,0.863981,0.736516,0.14175,0.68217,0.19372
1700753592718750,-9.72831,0.855981,0.679516,0.17375,0.61617,0.22672
1700753592726562,-9.72131,0.863981,0.641516,0.11175,0.66817,0.20872
1700753592734375,-9.69131,0.876981,0.632516,0.14775,0.62517,0.22372
1700753592742187,-9.68931,0.857981,0.645516,0.12975,0.48417,0.14372
1700753592750000,-9.70131,0.841981,0.645516,0.11175,0.54417,0.16072
1700753592757812,-9.70131,0.837981,0.673516,0.6175,0.52717,0.9772
1700753592765625,-9.70431,0.849981,0.682516,0.5525,0.55117,0.14772
1700753592773437,-9.73931,0.841981,0.670516,0.2025,0.57417,0.8172
1700753592781250,-9.75531,0.838981,0.654516,0.3075,0.54417,0.12872
1700753592789062,-9.75231,0.853981,0.688516,0.5075,0.42317,0.11172
1700753592796875,-9.74831,0.838981,0.700516,0.8075,0.46717,0.16072
1700753592804687,-9.73931,0.836981,0.693516,0.6375,0.60617,0.20872
1700753592812500,-9.70631,0.835981,0.675516,0.9575,0.59117,0.17672
1700753592820312,-9.69531,0.811981,0.652516,0.1825,0.59117,0.11272
1700753592828125,-9.69731,0.824981,0.632516,0.5025,0.54417,0.11272
1700753592835937,-9.71131,0.827981,0.623516,0.275,0.48817,0.1728
1700753592843750,-9.72831,0.833981,0.630516,0.5875,0.49317,0.4972
1700753592851562,-9.77031,0.849981,0.677516,0.7975,0.43717,0.7972
1700753592859375,-9.80231,0.842981,0.697516,0.14475,0.45217,0.9672
1700753592867187,-9.80131,0.839981,0.718516,0.14675,0.43817,0.9572
1700753592875000,-9.77331,0.845981,0.713516,0.11075,0.46417,0.14572
1700753592882812,-9.73331,0.837981,0.693516,0.11975,0.39417,0.1972
1700753592890625,-9.73531,0.844981,0.677516,0.10475,0.42417,0.9972
1700753592898437,-9.74231,0.837981,0.654516,0.12575,0.41817,0.3272
1700753592906250,-9.74131,0.863981,0.675516,0.11375,0.40617,0.7972
1700753592914062,-9.73631,0.864981,0.688516,0.14775,0.40817,0.9472
1700753592921875,-9.73231,0.860981,0.702516,0.13075,0.39217,0.7972
1700753592929687,-9.72531,0.852981,0.695516,0.11375,0.42217,0.9572
1700753592937500,-9.72531,0.859981,0.709516,0.12775,0.40517,0.8072
1700753592945312,-9.73231,0.861981,0.715516,0.14275,0.42117,0.4728
1700753592953125,-9.70731,0.875981,0.727516,0.11075,0.40217,0.12872
1700753592960937,-9.71331,0.873981,0.740516,0.13275,0.51817,0.11072
1700753592968750,-9.73431,0.856981,0.729516,0.11375,0.48517,0.4772
1700753592976562,-9.72831,0.841981,0.727516,0.11175,0.54617,0.8072
1700753592984375,-9.73631,0.840981,0.718516,0.12875,0.54717,0.3172
1700753592992187,-9.75031,0.861981,0.718516,0.10975,0.54517,0.3128
1700753593000000,-9.76331,0.869981,0.720516,0.9475,0.59117,0.8072
1700753593007812,-9.76531,0.874981,0.724516,0.12675,0.63817,0.12872
1700753593015625,-9.75631,0.880981,0.722516,0.11075,0.62217,0.12872
1700753593023437,-9.75531,0.881981,0.709516,0.10675,0.66017,0.25972
1700753593031250,-9.78431,0.869981,0.713516,0.12675,0.65017,0.24172
1700753593039062,-9.78431,0.860981,0.736516,0.9475,0.58817,0.22572
1700753593046875,-9.77631,0.853981,0.727516,0.3225,0.62517,0.7972
1700753593054687,-9.78131,0.869981,0.711516,0.11175,0.70217,0.11272
1700753593062500,-9.79131,0.885981,0.718516,0.10375,0.73917,0.5172
1700753593070312,-9.75431,0.867981,0.729516,0.7875,0.65617,0.3228
1700753593078125,-9.72931,0.883981,0.720516,0.12675,0.67117,0.1672
1700753593085937,-9.70931,0.872981,0.700516,0.7875,0.65417,0.11272
1700753593093750,-9.71031,0.875981,0.700516,0.8975,0.66417,0.1872
1700753593101562,-9.70731,0.867981,0.702516,0.9575,0.65517,0.9572
1700753593109375,-9.70931,0.867981,0.704516,0.4975,0.65717,0.14372
1700753593117187,-9.70931,0.877981,0.709516,0.2975,0.66917,0.14472
1700753593125000,-9.70731,0.883981,0.700516,0.7975,0.70217,0.12872
1700753593132812,-9.69131,0.890981,0.700516,0.3325,0.62417,0.3172
1700753593140625,-9.70731,0.887981,0.702516,0.3225,0.65417,0.19272
1700753593148437,-9.69531,0.890981,0.695516,0.4825,0.65417,0.17672
1700753593156250,-9.69831,0.888981,0.661516,0.11525,0.66617,0.22572
1700753593164062,-9.69331,0.863981,0.634516,0.11125,0.60917,0.19172
1700753593171875,-9.68131,0.862981,0.630516,0.13125,0.52917,0.9672
1700753593179687,-9.68331,0.871981,0.664516,0.11625,0.46417,0.9772
1700753593187500,-9.67631,0.875981,0.688516,0.5025,0.48217,0.11272
1700753593195312,-9.71031,0.868981,0.684516,0.11825,0.53917,0.9872
1700753593203125,-9.73431,0.863981,0.684516,0.8325,0.48017,0.14572
1700753593210937,-9.74831,0.852981,0.691516,0.225,0.41717,0.14572
1700753593218750,-9.73031,0.857981,0.706516,0.2875,0.44517,0.17872
1700753593226562,-9.72831,0.870981,0.702516,0.6625,0.41717,0.14572
1700753593234375,-9.72831,0.859981,0.700516,0.1575,0.43517,0.14472
1700753593242187,-9.72531,0.865981,0.693516,0.3175,0.48217,0.17672
1700753593250000,-9.71531,0.848981,0.673516,0.4675,0.46417,0.20972
1700753593257812,-9.70831,0.850981,0.684516,0.4775,0.40417,0.11272
1700753593265625,-9.71431,0.866981,0.702516,0.19175,0.38717,0.16072
1700753593273437,-9.68531,0.863981,0.727516,0.13075,0.39017,0.14372
1700753593281250,-9.69031,0.857981,0.722516,0.11175,0.40417,0.11272
1700753593289062,-9.71531,0.844981,0.693516,0.10575,0.40817,0.16372
1700753593296875,-9.72631,0.848981,0.711516,0.12775,0.40217,0.17772
1700753593304687,-9.73231,0.865981,0.727516,0.11275,0.28017,0.12872
1700753593312500,-9.73631,0.874981,0.736516,0.12875,0.32617,0.14472
1700753593320312,-9.74531,0.876981,0.729516,0.14575,0.37417,0.9572
1700753593328125,-9.73631,0.878981,0.711516,0.8275,0.42117,0.22372
1700753593335937,-9.74331,0.879981,0.722516,0.16075,0.38617,0.20972
1700753593343750,-9.74531,0.874981,0.720516,0.17875,0.31117,0.19272
1700753593351562,-9.74331,0.881981,0.743516,0.9675,0.32617,0.12872
1700753593359375,-9.73431,0.875981,0.770516,0.10975,0.35217,0.17772
1700753593367187,-9.74131,0.874981,0.767516,0.8075,0.41917,0.17672
1700753593375000,-9.76731,0.871981,0.772516,0.6675,0.40817,0.7872
1700753593382812,-9.77831,0.888981,0.767516,0.8175,0.51617,0.12772
1700753593390625,-9.75831,0.901981,0.772516,0.6275,0.44917,0.16172
1700753593398437,-9.76331,0.894981,0.801516,0.6475,0.40417,0.19272
1700753593406250,-9.76531,0.893981,0.803516,0.6475,0.51417,0.16072
1700753593414062,-9.74731,0.885981,0.783516,0.6575,0.54417,0.24072
1700753593421875,-9.74531,0.867981,0.756516,0.4725,0.56017,0.25672
1700753593429687,-9.74631,0.856981,0.745516,0.4825,0.57417,0.30472
1700753593437500,-9.74531,0.878981,0.745516,0.6325,0.56117,0.24072
1700753593445312,-9.75831,0.893981,0.761516,0.1575,0.54517,0.16072
1700753593453125,-9.75131,0.900981,0.765516,0.1525,0.57617,0.22472
1700753593460937,-9.74231,0.891981,0.761516,0.4975,0.57817,0.19172
1700753593468750,-9.73731,0.893981,0.776516,0.4525,0.56317,0.23972
1700753593476562,-9.72631,0.887981,0.772516,0.1425,0.64117,0.17572
1700753593484375,-9.71831,0.874981,0.765516,0.4825,0.62417,0.12872
1700753593492187,-9.71431,0.879981,0.756516,0.9825,0.62117,0.19272
1700753593500000,-9.72131,0.883981,0.736516,0.14825,0.65317,0.11272
1700753593507812,-9.71831,0.903981,0.740516,0.13325,0.63517,0.11372
1700753593515625,-9.73231,0.917981,0.736516,0.15025,0.63217,0.16272
1700753593523437,-9.74731,0.909981,0.729516,0.1725,0.68417,0.20872
1700753593531250,-9.75031,0.908981,0.749516,0.7025,0.69417,0.19472
1700753593539062,-9.76831,0.885981,0.763516,0.11525,0.57217,0.20972
1700753593546875,-9.74031,0.887981,0.767516,0.0,0.60617,0.27272
1700753593554687,-9.72031,0.874981,0.763516,0.9825,0.70217,0.11272
1700753593562500,-9.70731,0.869981,0.734516,0.7825,0.67217,0.19172
1700753593570312,-9.70531,0.855981,0.706516,0.11625,0.66617,0.19372
1700753593578125,-9.70331,0.866981,0.700516,0.13225,0.63517,0.20972
1700753593585937,-9.72831,0.866981,0.713516,0.14925,0.63117,0.22672
1700753593593750,-9.72831,0.859981,0.738516,0.1825,0.57217,0.24172
1700753593601562,-9.72931,0.867981,0.745516,0.1325,0.53917,0.21572
1700753593609375,-9.73031,0.861981,0.749516,0.9275,0.61617,0.25872
1700753593617187,-9.74631,0.863981,0.752516,0.7575,0.71017,0.22672
1700753593625000,-9.72631,0.855981,0.727516,0.5325,0.67917,0.19472
1700753593632812,-9.71731,0.860981,0.715516,0.2625,0.63817,0.21372
1700753593640625,-9.72131,0.866981,0.711516,0.2025,0.62017,0.8172
1700753593648437,-9.71931,0.879981,0.724516,0.5775,0.50517,0.14772
1700753593656250,-9.73031,0.888981,0.747516,0.12275,0.45817,0.13072
1700753593664062,-9.74631,0.895981,0.754516,0.4275,0.48917,0.16372
1700753593671875,-9.72931,0.892981,0.752516,0.4675,0.56017,0.14472
1700753593679687,-9.72131,0.883981,0.729516,0.14175,0.62017,0.11372
1700753593687500,-9.70131,0.884981,0.724516,0.625,0.60217,0.3472
1700753593695312,-9.69631,0.879981,0.697516,0.1275,0.57317,0.12972
1700753593703125,-9.69931,0.884981,0.686516,0.525,0.50817,0.4972
1700753593710937,-9.66931,0.902981,0.711516,0.325,0.40317,0.3272
1700753593718750,-9.69631,0.893981,0.720516,0.525,0.41517,0.172
1700753593726562,-9.74531,0.879981,0.740516,0.6075,0.41817,0.3272
1700753593734375,-9.76831,0.872981,0.776516,0.2775,0.38417,0.6572
1700753593742187,-9.74331,0.874981,0.801516,0.3075,0.40517,0.3272
1700753593750000,-9.73031,0.877981,0.797516,0.6825,0.39917,0.12972
1700753593757812,-9.71431,0.895981,0.792516,0.775,0.50617,0.1328
1700753593765625,-9.72031,0.896981,0.767516,0.1375,0.54417,0.8072
1700753593773437,-9.70231,0.915981,0.754516,0.1825,0.57317,0.22572
1700753593781250,-9.70031,0.914981,0.754516,0.1425,0.56117,0.24072
1700753593789062,-9.68931,0.912981,0.756516,0.8125,0.51217,0.24072
1700753593796875,-9.69831,0.904981,0.731516,0.3425,0.54117,0.25772
1700753593804687,-9.72931,0.882981,0.738516,0.9425,0.48417,0.23972
1700753593812500,-9.75031,0.876981,0.745516,0.11425,0.52817,0.14472
1700753593820312,-9.73631,0.876981,0.756516,0.1675,0.42117,0.12872
1700753593828125,-9.72831,0.874981,0.763516,0.10975,0.45017,0.1672
1700753593835937,-9.72731,0.888981,0.767516,0.0,0.43517,0.12872
1700753593843750,-9.72931,0.897981,0.754516,0.3075,0.41717,0.17772
1700753593851562,-9.73231,0.892981,0.758516,0.9275,0.52317,0.17872
1700753593859375,-9.72831,0.895981,0.756516,0.3875,0.48317,0.16472
1700753593867187,-9.73231,0.897981,0.743516,0.6075,0.46117,0.17872
1700753593875000,-9.74631,0.872981,0.752516,0.4475,0.46117,0.21072
1700753593882812,-9.74231,0.880981,0.765516,0.11875,0.43717,0.13272
1700753593890625,-9.74431,0.895981,0.790516,0.10375,0.39017,0.14872
1700753593898437,-9.74131,0.901981,0.792516,0.975,0.41117,0.13072
1700753593906250,-9.73331,0.909981,0.799516,0.9725,0.43617,0.12872
1700753593914062,-9.71231,0.899981,0.799516,0.8525,0.46117,0.11472
1700753593921875,-9.70431,0.894981,0.781516,0.3025,0.43817,0.14372
1700753593929687,-9.71331,0.896981,0.776516,0.1675,0.40517,0.14472
1700753593937500,-9.70531,0.908981,0.804516,0.8225,0.38617,0.19372
1700753593945312,-9.69931,0.918981,0.824516,0.5075,0.42217,0.17572
1700753593953125,-9.72031,0.919981,0.817516,0.2125,0.60117,0.14672
1700753593960937,-9.75631,0.911981,0.788516,0.6425,0.63817,0.22472
1700753593968750,-9.75031,0.899981,0.788516,0.6925,0.66317,0.22672
1700753593976562,-9.73431,0.915981,0.788516,0.13725,0.51717,0.19672
1700753593984375,-9.71531,0.914981,0.774516,0.12725,0.56117,0.24072
1700753593992187,-9.70931,0.917981,0.752516,0.10025,0.72817,0.24172
1700753594000000,-9.70231,0.928981,0.743516,0.11325,0.62117,0.25672
1700753594007812,-9.70231,0.926981,0.738516,0.13125,0.60417,0.20972
1700753594015625,-9.70231,0.928981,0.752516,0.14525,0.54417,0.22472
1700753594023437,-9.69731,0.921981,0.761516,0.7825,0.54617,0.27172
1700753594031250,-9.75131,0.902981,0.772516,0.11225,0.45117,0.22472
1700753594039062,-9.75631,0.872981,0.785516,0.19325,0.46517,0.22472
1700753594046875,-9.74131,0.893981,0.792516,0.28325,0.46617,0.21372
1700753594054687,-9.73731,0.891981,0.781516,0.21925,0.48217,0.22972
1700753594062500,-9.72331,0.885981,0.774516,0.17925,0.49717,0.11272
1700753594070312,-9.70231,0.894981,0.801516,0.24125,0.46817,0.12772
1700753594078125,-9.71931,0.881981,0.770516,0.19925,0.52317,0.9872
1700753594085937,-9.72731,0.870981,0.770516,0.13025,0.45217,0.4772
1700753594093750,-9.74631,0.861981,0.785516,0.14725,0.44817,0.16172
1700753594101562,-9.74531,0.861981,0.788516,0.8225,0.48217,0.9672
1700753594109375,-9.75731,0.852981,0.797516,0.3325,0.41917,0.14472
1700753594117187,-9.75731,0.858981,0.797516,0.1725,0.52817,0.14472
1700753594125000,-9.75231,0.872981,0.801516,0.0,0.52817,0.24072
1700753594132812,-9.73231,0.866981,0.772516,0.2875,0.52717,0.11372
1700753594140625,-9.74131,0.876981,0.770516,0.9475,0.49517,0.19372
1700753594148437,-9.74431,0.875981,0.776516,0.11975,0.48317,0.22972
1700753594156250,-9.74331,0.890981,0.803516,0.12575,0.52717,0.11372
1700753594164062,-9.73631,0.896981,0.824516,0.11275,0.57617,0.19272
1700753594171875,-9.72631,0.894981,0.792516,0.14675,0.54717,0.11172
1700753594179687,-9.72731,0.899981,0.785516,0.12475,0.69817,0.12972
1700753594187500,-9.73431,0.917981,0.810516,0.15675,0.55417,0.19472
1700753594195312,-9.74331,0.914981,0.819516,0.23475,0.42817,0.3472
1700753594203125,-9.75131,0.918981,0.822516,0.27075,0.59017,0.8172
1700753594210937,-9.74231,0.925981,0.826516,0.28875,0.62417,0.4872
1700753594218750,-9.72531,0.910981,0.804516,0.20575,0.60517,0.9772
1700753594226562,-9.72431,0.921981,0.774516,0.17475,0.63817,0.4872
1700753594234375,-9.72031,0.929981,0.790516,0.19175,0.62417,0.4872
1700753594242187,-9.70631,0.916981,0.794516,0.25675,0.62417,0.8072
1700753594250000,-9.70431,0.927981,0.776516,0.14275,0.63917,0.3272
1700753594257812,-9.69931,0.918981,0.774516,0.13075,0.54817,0.11172
1700753594265625,-9.69831,0.913981,0.770516,0.20575,0.51217,0.1528
1700753594273437,-9.72931,0.914981,0.799516,0.28975,0.49817,0.14472
1700753594281250,-9.74231,0.904981,0.824516,0.24275,0.50117,0.3172
1700753594289062,-9.74031,0.905981,0.822516,0.25875,0.51617,0.7972
1700753594296875,-9.74231,0.893981,0.819516,0.24275,0.51717,0.3172
1700753594304687,-9.72031,0.896981,0.801516,0.30675,0.61017,0.4772
1700753594312500,-9.71531,0.898981,0.801516,0.32375,0.57717,0.15972
1700753594320312,-9.71831,0.896981,0.819516,0.30775,0.60817,0.19272
1700753594328125,-9.72031,0.910981,0.824516,0.26975,0.64817,0.19472
1700753594335937,-9.72131,0.918981,0.842516,0.26075,0.68817,0.23972
1700753594343750,-9.70631,0.921981,0.828516,0.22475,0.77817,0.24072
1700753594351562,-9.71831,0.914981,0.776516,0.14475,0.82417,0.27272
1700753594359375,-9.72431,0.925981,0.756516,0.14675,0.73217,0.28872
1700753594367187,-9.70931,0.948981,0.752516,0.14275,0.71317,0.24172
1700753594375000,-9.71131,0.950981,0.779516,0.17675,0.71517,0.27272
1700753594382812,-9.70631,0.946981,0.792516,0.12575,0.66617,0.19372
1700753594390625,-9.70531,0.951981,0.804516,0.11675,0.63517,0.21472
1700753594398437,-9.70731,0.948981,0.779516,0.7275,0.65717,0.26072
1700753594406250,-9.70931,0.943981,0.772516,0.11075,0.62017,0.20972
1700753594414062,-9.70631,0.954981,0.765516,0.8075,0.66917,0.22472
1700753594421875,-9.69731,0.939981,0.756516,0.325,0.61917,0.19372
1700753594429687,-9.70731,0.930981,0.767516,0.1825,0.60417,0.20972
1700753594437500,-9.71131,0.936981,0.785516,0.1425,0.49717,0.28872
1700753594445312,-9.71631,0.923981,0.815516,0.7775,0.58817,0.19372
1700753594453125,-9.72931,0.914981,0.799516,0.1825,0.68417,0.14472
1700753594460937,-9.71131,0.926981,0.799516,0.1825,0.63517,0.22572
1700753594468750,-9.70931,0.919981,0.806516,0.11325,0.62217,0.20872
1700753594476562,-9.71331,0.928981,0.772516,0.14625,0.62117,0.22472
1700753594484375,-9.70531,0.915981,0.756516,0.15225,0.58217,0.17972
1700753594492187,-9.70331,0.913981,0.763516,0.13625,0.54717,0.24472
1700753594500000,-9.70531,0.913981,0.799516,0.11725,0.56917,0.19472
1700753594507812,-9.72031,0.910981,0.824516,0.14825,0.44517,0.21072
1700753594515625,-9.73331,0.921981,0.835516,0.14625,0.54317,0.22472
1700753594523437,-9.74731,0.919981,0.831516,0.11925,0.65917,0.25972
1700753594531250,-9.74731,0.912981,0.801516,0.13025,0.69917,0.24072
1700753594539062,-9.72531,0.908981,0.779516,0.14925,0.69317,0.25872
1700753594546875,-9.71631,0.896981,0.772516,0.12925,0.66917,0.22472
1700753594554687,-9.72331,0.894981,0.770516,0.16125,0.52717,0.25672
1700753594562500,-9.71731,0.900981,0.783516,0.14225,0.62517,0.20772
1700753594570312,-9.72731,0.907981,0.794516,0.13125,0.66817,0.16072
1700753594578125,-9.73331,0.900981,0.788516,0.16025,0.65517,0.22372
1700753594585937,-9.72031,0.894981,0.767516,0.4825,0.67017,0.19272
1700753594593750,-9.72031,0.874981,0.772516,0.3325,0.65317,0.19272
1700753594601562,-9.73231,0.874981,0.776516,0.8225,0.66917,0.16072
1700753594609375,-9.73031,0.877981,0.815516,0.5975,0.55517,0.11472
1700753594617187,-9.74731,0.898981,0.826516,0.3075,0.59117,0.14472
1700753594625000,-9.74531,0.910981,0.831516,0.10975,0.68217,0.20972
1700753594632812,-9.73631,0.912981,0.803516,0.9275,0.63217,0.21072
1700753594640625,-9.71531,0.932981,0.774516,0.12675,0.79317,0.22472
1700753594648437,-9.70031,0.931981,0.761516,0.11975,0.71917,0.21272
1700753594656250,-9.68931,0.933981,0.758516,0.10975,0.63617,0.12972
1700753594664062,-9.69431,0.915981,0.765516,0.10575,0.66017,0.17972
1700753594671875,-9.70131,0.911981,0.754516,0.13575,0.61117,0.8372
1700753594679687,-9.71231,0.911981,0.772516,0.175,0.52317,0.15072
1700753594687500,-9.72031,0.901981,0.770516,0.1475,0.57717,0.8072
1700753594695312,-9.72331,0.939981,0.788516,0.11975,0.58017,0.6772
1700753594703125,-9.73031,0.940981,0.799516,0.9875,0.52417,0.10272
1700753594710937,-9.73531,0.920981,0.826516,0.12975,0.57517,0.28872
1700753594718750,-9.72631,0.918981,0.835516,0.11275,0.65317,0.22472
1700753594726562,-9.72931,0.917981,0.815516,0.7375,0.67617,0.19572
1700753594734375,-9.72131,0.919981,0.774516,0.13875,0.69117,0.25972
1700753594742187,-9.70031,0.921981,0.736516,0.4775,0.68317,0.27272
1700753594750000,-9.68931,0.917981,0.743516,0.11075,0.69717,0.28972
1700753594757812,-9.68731,0.913981,0.761516,0.9175,0.52017,0.22772
1700753594765625,-9.69631,0.922981,0.763516,0.10575,0.54817,0.27672
1700753594773437,-9.71631,0.917981,0.785516,0.12675,0.54217,0.17772
1700753594781250,-9.72731,0.926981,0.779516,0.12475,0.55417,0.19472
1700753594789062,-9.72331,0.910981,0.774516,0.10675,0.59817,0.22772
1700753594796875,-9.73031,0.915981,0.810516,0.9175,0.42717,0.21172
1700753594804687,-9.72531,0.908981,0.817516,0.12375,0.52017,0.21172
1700753594812500,-9.71131,0.910981,0.790516,0.11175,0.60617,0.22472
1700753594820312,-9.71931,0.913981,0.770516,0.10375,0.54517,0.21372
1700753594828125,-9.71131,0.927981,0.781516,0.12975,0.54517,0.22472
1700753594835937,-9.71531,0.941981,0.797516,0.11175,0.41717,0.20972
1700753594843750,-9.73631,0.941981,0.822516,0.17275,0.47317,0.25972
1700753594851562,-9.72831,0.915981,0.831516,0.11975,0.52917,0.26172
1700753594859375,-9.73431,0.903981,0.822516,0.14175,0.53917,0.21072
1700753594867187,-9.72831,0.899981,0.828516,0.12275,0.58217,0.22772
1700753594875000,-9.72931,0.914981,0.833516,0.11275,0.52817,0.20872
1700753594882812,-9.72631,0.934981,0.831516,0.12875,0.57517,0.22472
1700753594890625,-9.72931,0.932981,0.831516,0.10875,0.52317,0.19472
1700753594898437,-9.72131,0.944981,0.813516,0.5375,0.55717,0.24672
1700753594906250,-9.70931,0.939981,0.806516,0.11075,0.68117,0.25772
1700753594914062,-9.70831,0.936981,0.815516,0.8075,0.65317,0.25672
1700753594921875,-9.71831,0.943981,0.813516,0.4475,0.63217,0.25872
1700753594929687,-9.71631,0.929981,0.794516,0.925,0.70017,0.30972
1700753594937500,-9.72331,0.919981,0.783516,0.9275,0.66317,0.24272
1700753594945312,-9.72231,0.919981,0.794516,0.12775,0.65317,0.20872
1700753594953125,-9.71531,0.927981,0.792516,0.8075,0.66917,0.22472
1700753594960937,-9.72231,0.930981,0.772516,0.6275,0.66817,0.19272
1700753594968750,-9.70931,0.908981,0.774516,0.7675,0.61617,0.21072
1700753594976562,-9.72531,0.913981,0.776516,0.5675,0.54817,0.21272
1700753594984375,-9.72031,0.910981,0.792516,0.3425,0.55717,0.24172
1700753594992187,-9.72331,0.912981,0.806516,0.4575,0.44517,0.27472
1700753595000000,-9.72031,0.910981,0.822516,0.9775,0.52917,0.20872
1700753595007812,-9.71531,0.916981,0.824516,0.6225,0.54617,0.22372
1700753595015625,-9.72531,0.912981,0.810516,0.6375,0.60617,0.20872
1700753595023437,-9.72831,0.910981,0.804516,0.2375,0.62617,0.22872
1700753595031250,-9.72931,0.910981,0.813516,0.1175,0.58517,0.21072
1700753595039062,-9.72231,0.905981,0.810516,0.3125,0.59217,0.22472
1700753595046875,-9.72531,0.899981,0.785516,0.11525,0.58817,0.20972
1700753595054687,-9.72131,0.904981,0.788516,0.425,0.69417,0.24272
1700753595062500,-9.72531,0.910981,0.792516,0.6375,0.63717,0.25672
1700753595070312,-9.71431,0.910981,0.810516,0.4275,0.56617,0.22772
1700753595078125,-9.71831,0.904981,0.815516,0.4275,0.58217,0.21172
1700753595085937,-9.72331,0.906981,0.808516,0.5375,0.68517,0.22972
1700753595093750,-9.70931,0.914981,0.790516,0.12975,0.70017,0.28872
1700753595101562,-9.70931,0.914981,0.770516,0.3175,0.62117,0.24072
1700753595109375,-9.71631,0.914981,0.779516,0.3075,0.63417,0.28972
1700753595117187,-9.73031,0.926981,0.776516,0.3975,0.70317,0.24472
1700753595125000,-9.72231,0.917981,0.774516,0.225,0.71217,0.27372
1700753595132812,-9.70431,0.912981,0.772516,0.7975,0.65317,0.20872
1700753595140625,-9.70731,0.915981,0.761516,0.12475,0.69417,0.25872
1700753595148437,-9.70931,0.897981,0.761516,0.9475,0.60417,0.25772
1700753595156250,-9.70431,0.914981,0.758516,0.11475,0.62417,0.20772
1700753595164062,-9.69731,0.905981,0.765516,0.5175,0.48517,0.15972
1700753595171875,-9.69531,0.908981,0.776516,0.3275,0.56017,0.24072
1700753595179687,-9.70731,0.910981,0.790516,0.6175,0.57317,0.19372
1700753595187500,-9.71131,0.912981,0.808516,0.6475,0.43617,0.16072
1700753595195312,-9.72231,0.912981,0.819516,0.12975,0.52917,0.22472
1700753595203125,-9.72431,0.919981,0.794516,0.11275,0.54417,0.20872
1700753595210937,-9.72031,0.907981,0.785516,0.12975,0.49817,0.22472
1700753595218750,-9.72731,0.910981,0.792516,0.10975,0.41417,0.19472
1700753595226562,-9.72431,0.909981,0.797516,0.4975,0.56117,0.20872
1700753595234375,-9.71631,0.912981,0.797516,0.1375,0.63517,0.22572
1700753595242187,-9.71431,0.915981,0.783516,0.4375,0.57017,0.17872
1700753595250000,-9.71631,0.908981,0.785516,0.9275,0.53917,0.17872
1700753595257812,-9.70931,0.910981,0.783516,0.11375,0.54517,0.22472
1700753595265625,-9.70531,0.913981,0.797516,0.12475,0.58517,0.19472
1700753595273437,-9.70931,0.910981,0.799516,0.9675,0.57417,0.27272
1700753595281250,-9.72731,0.914981,0.794516,0.8075,0.54317,0.24072
1700753595289062,-9.74531,0.921981,0.808516,0.5775,0.53217,0.26072
1700753595296875,-9.73931,0.919981,0.808516,0.10575,0.54817,0.24472
1700753595304687,-9.74531,0.912981,0.806516,0.12575,0.53817,0.24272
1700753595312500,-9.73531,0.916981,0.813516,0.11375,0.52917,0.27272
1700753595320312,-9.73831,0.909981,0.828516,0.14675,0.53017,0.22472
1700753595328125,-9.73531,0.915981,0.835516,0.13175,0.61017,0.17572
1700753595335937,-9.74531,0.910981,0.835516,0.10975,0.68217,0.16172
1700753595343750,-9.72131,0.906981,0.831516,0.13375,0.61217,0.19072
1700753595351562,-9.71331,0.914981,0.833516,0.11275,0.59117,0.19272
1700753595359375,-9.70931,0.921981,0.815516,0.10775,0.66317,0.19472
1700753595367187,-9.72331,0.921981,0.806516,0.12375,0.64817,0.17872
1700753595375000,-9.72131,0.924981,0.810516,0.10075,0.52717,0.16572
1700753595382812,-9.72731,0.935981,0.801516,0.12275,0.64517,0.19572
1700753595390625,-9.72731,0.928981,0.797516,0.11075,0.65117,0.22572
1700753595398437,-9.72431,0.936981,0.797516,0.12775,0.66817,0.20872
1700753595406250,-9.72331,0.944981,0.810516,0.6675,0.67117,0.25572
1700753595414062,-9.72131,0.945981,0.792516,0.6575,0.71617,0.25672
1700753595421875,-9.70431,0.936981,0.772516,0.11275,0.66917,0.25672
1700753595429687,-9.69431,0.938981,0.765516,0.5675,0.70317,0.26072
1700753595437500,-9.68731,0.931981,0.756516,0.10075,0.67317,0.22372
1700753595445312,-9.69231,0.923981,0.752516,0.1875,0.62517,0.20772
1700753595453125,-9.70731,0.917981,0.765516,0.0,0.65217,0.24072
1700753595460937,-9.70931,0.919981,0.765516,0.16325,0.60317,0.28972
1700753595468750,-9.72531,0.912981,0.747516,0.8425,0.53817,0.24272
1700753595476562,-9.72931,0.893981,0.781516,0.6125,0.51517,0.27172
1700753595484375,-9.72731,0.896981,0.794516,0.3175,0.54317,0.25672
1700753595492187,-9.72731,0.892981,0.819516,0.6475,0.60617,0.27272
1700753595500000,-9.72431,0.894981,0.810516,0.8275,0.73317,0.28872
1700753595507812,-9.70931,0.906981,0.783516,0.6625,0.63417,0.25772
1700753595515625,-9.70431,0.906981,0.785516,0.8075,0.62117,0.27272
1700753595523437,-9.70431,0.890981,0.797516,0.8175,0.59217,0.25672
1700753595531250,-9.69831,0.888981,0.794516,0.1375,0.63517,0.22572
1700753595539062,-9.69631,0.882981,0.779516,0.8325,0.61917,0.20972
1700753595546875,-9.70331,0.880981,0.758516,0.3825,0.61317,0.25972
1700753595554687,-9.70731,0.894981,0.756516,0.0,0.66817,0.25672
1700753595562500,-9.72231,0.909981,0.763516,0.1775,0.60917,0.20772
1700753595570312,-9.72631,0.929981,0.788516,0.6575,0.65517,0.22372
1700753595578125,-9.71131,0.941981,0.783516,0.4675,0.65317,0.20872
1700753595585937,-9.68631,0.937981,0.776516,0.6525,0.66917,0.22472
1700753595593750,-9.67331,0.926981,0.772516,0.6525,0.65317,0.20872
1700753595601562,-9.66931,0.917981,0.776516,0.8325,0.65017,0.22572
1700753595609375,-9.69531,0.914981,0.749516,0.12925,0.66917,0.24072
1700753595617187,-9.71131,0.907981,0.743516,0.14525,0.63717,0.22472
1700753595625000,-9.70431,0.921981,0.758516,0.13025,0.51017,0.25772
1700753595632812,-9.72731,0.939981,0.770516,0.14725,0.52617,0.20972
1700753595640625,-9.72231,0.943981,0.792516,0.12825,0.48217,0.22472
1700753595648437,-9.72231,0.932981,0.794516,0.14825,0.46017,0.25872
1700753595656250,-9.70031,0.912981,0.788516,0.11525,0.55717,0.24172
1700753595664062,-9.69631,0.920981,0.788516,0.13325,0.45717,0.29172
1700753595671875,-9.70231,0.919981,0.799516,0.16425,0.49117,0.29072
1700753595679687,-9.72531,0.912981,0.808516,0.25925,0.52517,0.25772
1700753595687500,-9.72031,0.916981,0.804516,0.14625,0.55917,0.20872
1700753595695312,-9.72131,0.909981,0.819516,0.18625,0.48217,0.22972
1700753595703125,-9.72331,0.915981,0.822516,0.13325,0.56917,0.25872
1700753595710937,-9.75631,0.903981,0.824516,0.9925,0.61917,0.25772
1700753595718750,-9.77331,0.879981,0.840516,0.4525,0.65617,0.25572
1700753595726562,-9.75831,0.893981,0.837516,0.12825,0.63717,0.27272
1700753595734375,-9.73631,0.900981,0.803516,0.12925,0.66817,0.27272
1700753595742187,-9.70731,0.906981,0.763516,0.15025,0.74017,0.25872
1700753595750000,-9.70031,0.897981,0.736516,0.9825,0.68317,0.24072
1700753595757812,-9.69231,0.891981,0.727516,0.10325,0.69017,0.27572
1700753595765625,-9.69631,0.903981,0.727516,0.14625,0.62117,0.25672
1700753595773437,-9.69331,0.904981,0.736516,0.9725,0.62117,0.25672
1700753595781250,-9.71631,0.894981,0.752516,0.4825,0.45017,0.25672
1700753595789062,-9.73131,0.891981,0.763516,0.6125,0.43717,0.20772
1700753595796875,-9.72631,0.894981,0.792516,0.6125,0.40617,0.22372
1700753595804687,-9.72931,0.896981,0.806516,0.3025,0.42117,0.22372
1700753595812500,-9.72631,0.891981,0.831516,0.6675,0.48417,0.19172
1700753595820312,-9.73031,0.886981,0.828516,0.7275,0.45517,0.17972
1700753595828125,-9.73431,0.903981,0.835516,0.9375,0.47617,0.21072
1700753595835937,-9.74231,0.909981,0.840516,0.9775,0.49817,0.25672
1700753595843750,-9.75831,0.900981,0.846516,0.4775,0.48117,0.20872
1700753595851562,-9.77131,0.886981,0.844516,0.8375,0.57717,0.27172
1700753595859375,-9.75831,0.891981,0.840516,0.9775,0.62317,0.25672
1700753595867187,-9.74631,0.895981,0.813516,0.13275,0.65617,0.27172
1700753595875000,-9.74031,0.878981,0.790516,0.13075,0.71717,0.25572
1700753595882812,-9.73231,0.895981,0.792516,0.10875,0.64817,0.21072
1700753595890625,-9.71231,0.895981,0.792516,0.14275,0.66617,0.22572
1700753595898437,-9.70431,0.899981,0.794516,0.17675,0.65417,0.20872
1700753595906250,-9.70731,0.897981,0.794516,0.14375,0.66817,0.22472
1700753595914062,-9.70531,0.895981,0.767516,0.12675,0.65117,0.20972
1700753595921875,-9.69831,0.884981,0.756516,0.11175,0.68417,0.22472
1700753595929687,-9.70531,0.890981,0.736516,0.14375,0.66817,0.20872
1700753595937500,-9.70731,0.894981,0.729516,0.21075,0.63917,0.22472
1700753595945312,-9.71431,0.897981,0.763516,0.32075,0.49517,0.19372
1700753595953125,-9.72631,0.894981,0.774516,0.22775,0.54717,0.15972
1700753595960937,-9.72531,0.896981,0.788516,0.32275,0.51417,0.12872
1700753595968750,-9.71731,0.891981,0.792516,0.29375,0.53217,0.17572
1700753595976562,-9.70331,0.893981,0.772516,0.15175,0.45717,0.19072
1700753595984375,-9.70831,0.895981,0.792516,0.24775,0.47317,0.11072
1700753595992187,-9.71631,0.892981,0.808516,0.17675,0.53017,0.14472
1700753596000000,-9.71431,0.904981,0.808516,0.15275,0.50217,0.13172
1700753596007812,-9.71731,0.909981,0.806516,0.19475,0.59317,0.19272
1700753596015625,-9.72731,0.912981,0.792516,0.11275,0.40417,0.14472
1700753596023437,-9.71431,0.919981,0.779516,0.14275,0.44517,0.24272
1700753596031250,-9.72031,0.912981,0.783516,0.22275,0.50717,0.24272
1700753596039062,-9.72231,0.914981,0.794516,0.21175,0.51617,0.19172
1700753596046875,-9.72231,0.909981,0.797516,0.12975,0.57717,0.15972
1700753596054687,-9.72231,0.914981,0.822516,0.17775,0.54517,0.16072
1700753596062500,-9.72731,0.921981,0.815516,0.14475,0.54417,0.24072
1700753596070312,-9.72731,0.921981,0.824516,0.11175,0.59117,0.14472
1700753596078125,-9.73131,0.934981,0.824516,0.12675,0.55817,0.16172
1700753596085937,-9.72931,0.932981,0.828516,0.11175,0.56017,0.12872
1700753596093750,-9.73131,0.941981,0.822516,0.9275,0.63617,0.8172
1700753596101562,-9.72231,0.941981,0.808516,0.10975,0.62017,0.16172
1700753596109375,-9.72631,0.941981,0.799516,0.9575,0.62217,0.19272
1700753596117187,-9.71531,0.934981,0.788516,0.3375,0.67117,0.20772
1700753596125000,-9.70931,0.919981,0.788516,0.6625,0.68417,0.16072
1700753596132812,-9.71031,0.931981,0.794516,0.2925,0.62817,0.7872
1700753596140625,-9.72031,0.923981,0.783516,0.12925,0.59117,0.20872
1700753596148437,-9.72231,0.912981,0.797516,0.14625,0.59017,0.17672
1700753596156250,-9.71431,0.912981,0.781516,0.13225,0.57317,0.17772
1700753596164062,-9.70431,0.905981,0.770516,0.14625,0.65417,0.14472
1700753596171875,-9.70931,0.899981,0.765516,0.18125,0.52317,0.21072
1700753596179687,-9.70731,0.908981,0.779516,0.16325,0.54117,0.19372
1700753596187500,-9.72731,0.903981,0.799516,0.12925,0.51217,0.22472
1700753596195312,-9.73231,0.895981,0.828516,0.14925,0.53817,0.21072
1700753596203125,-9.72731,0.896981,0.817516,0.13025,0.60517,0.22472
1700753596210937,-9.72931,0.897981,0.808516,0.14725,0.61917,0.25772
1700753596218750,-9.73231,0.899981,0.785516,0.14725,0.54117,0.25772
1700753596226562,-9.72431,0.903981,0.785516,0.11225,0.65417,0.24072
1700753596234375,-9.72531,0.910981,0.792516,0.1625,0.59017,0.27272
1700753596242187,-9.72031,0.893981,0.790516,0.9325,0.64017,0.28772
1700753596250000,-9.71031,0.900981,0.767516,0.14125,0.67217,0.27172
1700753596257812,-9.70831,0.909981,0.761516,0.7925,0.60817,0.20772
1700753596265625,-9.72431,0.916981,0.783516,0.6475,0.56017,0.22472
1700753596273437,-9.73131,0.904981,0.806516,0.3475,0.45417,0.12772
1700753596281250,-9.72731,0.903981,0.806516,0.3275,0.49817,0.20872
1700753596289062,-9.72731,0.898981,0.808516,0.9675,0.59117,0.22472
1700753596296875,-9.72931,0.882981,0.781516,0.11575,0.54717,0.20772
1700753596304687,-9.73131,0.891981,0.781516,0.9775,0.60917,0.15972
1700753596312500,-9.73231,0.901981,0.797516,0.12675,0.54217,0.20972
1700753596320312,-9.74131,0.910981,0.817516,0.12475,0.58517,0.22672
1700753596328125,-9.73831,0.912981,0.803516,0.10875,0.61617,0.21072
1700753596335937,-9.72031,0.910981,0.776516,0.9675,0.65317,0.24072
1700753596343750,-9.72331,0.904981,0.781516,0.15475,0.66017,0.22772
1700753596351562,-9.71831,0.908981,0.772516,0.11075,0.58817,0.20972
1700753596359375,-9.71131,0.903981,0.794516,0.11375,0.57717,0.20872
1700753596367187,-9.71331,0.896981,0.799516,0.12975,0.57617,0.22472
1700753596375000,-9.71431,0.894981,0.794516,0.7975,0.59017,0.19272
1700753596382812,-9.71031,0.891981,0.772516,0.4275,0.55117,0.21172
1700753596390625,-9.71431,0.904981,0.774516,0.12275,0.59817,0.17972
1700753596398437,-9.73431,0.904981,0.794516,0.10475,0.54817,0.21272
1700753596406250,-9.73231,0.910981,0.815516,0.10575,0.59417,0.24472
1700753596414062,-9.72731,0.909981,0.813516,0.8075,0.70017,0.25672
1700753596421875,-9.72531,0.901981,0.794516,0.9075,0.67517,0.24372
1700753596429687,-9.72231,0.898981,0.783516,0.12875,0.71617,0.22472
1700753596437500,-9.72331,0.917981,0.765516,0.10675,0.72217,0.27572
1700753596445312,-9.70831,0.904981,0.756516,0.10275,0.63817,0.19772
1700753596453125,-9.70031,0.913981,0.758516,0.12175,0.66017,0.16372
1700753596460937,-9.68931,0.911981,0.756516,0.10775,0.53517,0.22772
1700753596468750,-9.69831,0.913981,0.761516,0.9375,0.51117,0.14572
1700753596476562,-9.70931,0.919981,0.781516,0.10775,0.41117,0.21172
1700753596484375,-9.70731,0.910981,0.794516,0.9575,0.46417,0.20972
1700753596492187,-9.71231,0.924981,0.808516,0.8875,0.43917,0.16372
1700753596500000,-9.71831,0.921981,0.810516,0.8125,0.45017,0.19272
1700753596507812,-9.70631,0.932981,0.788516,0.3175,0.52817,0.17672
1700753596515625,-9.69631,0.924981,0.772516,0.3925,0.52017,0.11572
1700753596523437,-9.69331,0.933981,0.779516,0.8225,0.44817,0.17772
1700753596531250,-9.69131,0.937981,0.783516,0.11725,0.43017,0.14672
1700753596539062,-9.69531,0.926981,0.776516,0.3225,0.51217,0.24072
1700753596546875,-9.70731,0.919981,0.785516,0.10225,0.41117,0.14672
1700753596554687,-9.72931,0.903981,0.806516,0.9925,0.46417,0.14572
1700753596562500,-9.73631,0.905981,0.828516,0.4775,0.41717,0.22572
1700753596570312,-9.73231,0.906981,0.826516,0.875,0.48617,0.21272
1700753596578125,-9.73731,0.908981,0.831516,0.925,0.51317,0.22972
1700753596585937,-9.74231,0.914981,0.833516,0.6425,0.51217,0.28872
1700753596593750,-9.74531,0.914981,0.837516,0.0,0.57517,0.22472
1700753596601562,-9.74931,0.911981,0.808516,0.11225,0.57617,0.20872
1700753596609375,-9.74631,0.911981,0.808516,0.14225,0.54617,0.27172
1700753596617187,-9.74431,0.918981,0.808516,0.3225,0.56017,0.22472
1700753596625000,-9.75631,0.911981,0.817516,0.3225,0.49617,0.25672
1700753596632812,-9.74331,0.914981,0.831516,0.3425,0.58817,0.25772
1700753596640625,-9.73631,0.907981,0.828516,0.9825,0.68317,0.25672
1700753596648437,-9.72231,0.912981,0.804516,0.4825,0.62217,0.22472
1700753596656250,-9.70731,0.911981,0.779516,0.8725,0.64417,0.21172
1700753596664062,-9.70531,0.908981,0.779516,0.3725,0.64717,0.22672
1700753596671875,-9.72531,0.906981,0.792516,0.425,0.55417,0.22672
1700753596679687,-9.73431,0.906981,0.835516,0.775,0.56317,0.21272
1700753596687500,-9.73831,0.914981,0.844516,0.4475,0.52317,0.22672
1700753596695312,-9.73331,0.914981,0.837516,0.0,0.59117,0.19272
1700753596703125,-9.73131,0.910981,0.837516,0.3075,0.66817,0.20872
1700753596710937,-9.72231,0.914981,0.824516,0.7775,0.65017,0.22572
1700753596718750,-9.71331,0.905981,0.824516,0.4675,0.65317,0.19272
1700753596726562,-9.70431,0.896981,0.817516,0.8075,0.70117,0.20872
1700753596734375,-9.69631,0.901981,0.797516,0.2975,0.69717,0.27372
1700753596742187,-9.69531,0.905981,0.767516,0.6575,0.71817,0.22372
1700753596750000,-9.68731,0.893981,0.729516,0.4575,0.69717,0.20972
1700753596757812,-9.68231,0.901981,0.720516,0.6575,0.62317,0.25672
1700753596765625,-9.69831,0.897981,0.711516,0.4675,0.58817,0.28972
1700753596773437,-9.71131,0.894981,0.733516,0.6375,0.57517,0.22472
1700753596781250,-9.71631,0.906981,0.761516,0.7275,0.59417,0.26072
1700753596789062,-9.71431,0.901981,0.779516,0.325,0.49217,0.24272
1700753596796875,-9.71231,0.908981,0.770516,0.7775,0.53817,0.25872
1700753596804687,-9.70831,0.899981,0.770516,0.8875,0.50417,0.25472
1700753596812500,-9.70431,0.903981,0.763516,0.13075,0.53017,0.24072
1700753596820312,-9.70531,0.895981,0.761516,0.9775,0.48117,0.27272
1700753596828125,-9.70531,0.897981,0.761516,0.6475,0.46617,0.22472
1700753596835937,-9.72031,0.894981,0.783516,0.13075,0.51417,0.24072
1700753596843750,-9.73631,0.900981,0.790516,0.11475,0.45217,0.20772
1700753596851562,-9.74831,0.901981,0.810516,0.12275,0.39217,0.22772
1700753596859375,-9.73531,0.898981,0.840516,0.11575,0.43817,0.20772
1700753596867187,-9.73631,0.910981,0.837516,0.12375,0.56717,0.22772
1700753596875000,-9.72031,0.906981,0.835516,0.11075,0.57317,0.20972
1700753596882812,-9.71631,0.908981,0.819516,0.12775,0.59017,0.20872
1700753596890625,-9.70731,0.910981,0.806516,0.10875,0.58517,0.22672
1700753596898437,-9.70131,0.909981,0.801516,0.1025,0.56017,0.21372
1700753596906250,-9.71031,0.909981,0.790516,0.2625,0.62217,0.22972
1700753596914062,-9.71431,0.910981,0.813516,0.4475,0.52317,0.25872
1700753596921875,-9.72731,0.910981,0.822516,0.9175,0.55117,0.24372
1700753596929687,-9.73031,0.917981,0.831516,0.11975,0.56017,0.21372
1700753596937500,-9.74131,0.908981,0.824516,0.5475,0.63817,0.29372
1700753596945312,-9.74131,0.910981,0.824516,0.8875,0.65717,0.26072
1700753596953125,-9.73231,0.904981,0.808516,0.4275,0.61317,0.27572
1700753596960937,-9.72931,0.912981,0.815516,0.1575,0.66917,0.22472
1700753596968750,-9.73131,0.923981,0.806516,0.13225,0.68117,0.24172
1700753596976562,-9.73131,0.930981,0.810516,0.11425,0.57217,0.27372
1700753596984375,-9.73831,0.927981,0.822516,0.1825,0.68117,0.25772
1700753596992187,-9.74931,0.916981,0.833516,0.0,0.62117,0.27272
1700753597000000,-9.74531,0.921981,0.846516,0.10325,0.62817,0.22772
1700753597007812,-9.74031,0.918981,0.840516,0.0,0.70017,0.20872
1700753597015625,-9.74131,0.908981,0.837516,0.8725,0.69117,0.22772
1700753597023437,-9.73331,0.909981,0.815516,0.1625,0.74817,0.20872
1700753597031250,-9.71431,0.904981,0.788516,0.7125,0.70617,0.22772
1700753597039062,-9.70031,0.894981,0.776516,0.9825,0.73117,0.20872
1700753597046875,-9.68931,0.902981,0.770516,0.13225,0.66617,0.22572
1700753597054687,-9.70131,0.907981,0.763516,0.3025,0.71817,0.20772
1700753597062500,-9.70431,0.894981,0.770516,0.6525,0.68517,0.19272
1700753597070312,-9.70631,0.905981,0.770516,0.8025,0.68517,0.22472
1700753597078125,-9.70231,0.899981,0.774516,0.14525,0.62217,0.20872
1700753597085937,-9.70531,0.902981,0.781516,0.2025,0.61617,0.21072
1700753597093750,-9.70731,0.901981,0.774516,0.4925,0.66817,0.22472
1700753597101562,-9.70431,0.899981,0.783516,0.0,0.65317,0.28872
1700753597109375,-9.70131,0.889981,0.772516,0.5525,0.64417,0.17972
1700753597117187,-9.68931,0.893981,0.770516,0.10125,0.66317,0.21072
1700753597125000,-9.70131,0.898981,0.772516,0.3025,0.64717,0.26372
1700753597132812,-9.71031,0.895981,0.774516,0.10325,0.64417,0.22772
1700753597140625,-9.70531,0.895981,0.776516,0.875,0.64117,0.27672
1700753597148437,-9.71431,0.902981,0.792516,0.5975,0.59717,0.29172
1700753597156250,-9.73231,0.921981,0.801516,0.4025,0.67217,0.29272
1700753597164062,-9.75731,0.899981,0.788516,0.3675,0.69717,0.26272
1700753597171875,-9.74431,0.888981,0.772516,0.575,0.70017,0.27772
1700753597179687,-9.72331,0.886981,0.756516,0.9925,0.72817,0.25772
1700753597187500,-9.71931,0.884981,0.767516,0.5675,0.67217,0.27672
1700753597195312,-9.71031,0.871981,0.767516,0.9175,0.63217,0.19472
1700753597203125,-9.71431,0.882981,0.761516,0.10875,0.63217,0.21072
1700753597210937,-9.71731,0.884981,0.765516,0.12075,0.61017,0.22872
1700753597218750,-9.71131,0.894981,0.776516,0.11275,0.62217,0.20872
1700753597226562,-9.71431,0.902981,0.772516,0.8775,0.54517,0.22972
1700753597234375,-9.71431,0.895981,0.770516,0.10675,0.59817,0.21172
1700753597242187,-9.70531,0.897981,0.772516,0.12775,0.57517,0.16072
1700753597250000,-9.72131,0.899981,0.785516,0.4175,0.59817,0.21172
1700753597257812,-9.71031,0.895981,0.794516,0.2375,0.67217,0.22872
1700753597265625,-9.70531,0.893981,0.781516,0.4375,0.61617,0.19472
1700753597273437,-9.70531,0.890981,0.770516,0.3525,0.65017,0.20972
1700753597281250,-9.71731,0.891981,0.785516,0.3575,0.63517,0.21472
1700753597289062,-9.71831,0.901981,0.783516,0.225,0.66617,0.22572
1700753597296875,-9.72431,0.909981,0.792516,0.7975,0.63817,0.19272
1700753597304687,-9.73431,0.908981,0.797516,0.11875,0.63817,0.21372
1700753597312500,-9.73231,0.910981,0.785516,0.7375,0.66017,0.16372
1700753597320312,-9.73231,0.899981,0.790516,0.7275,0.65717,0.22872
1700753597328125,-9.72731,0.895981,0.781516,0.10775,0.71017,0.19472
1700753597335937,-9.70931,0.903981,0.758516,0.2975,0.66617,0.20972
1700753597343750,-9.70631,0.898981,0.754516,0.7075,0.66917,0.26172
1700753597351562,-9.71431,0.897981,0.765516,0.12375,0.58217,0.25972
1700753597359375,-9.72831,0.898981,0.758516,0.5275,0.58817,0.24672
1700753597367187,-9.72831,0.904981,0.765516,0.2425,0.65617,0.24472
1700753597375000,-9.72831,0.904981,0.774516,0.8675,0.68417,0.29372
1700753597382812,-9.72831,0.895981,0.772516,0.8475,0.62017,0.21472
1700753597390625,-9.73131,0.893981,0.770516,0.11475,0.61717,0.21572
1700753597398437,-9.73231,0.897981,0.770516,0.6975,0.59217,0.16572
1700753597406250,-9.72431,0.907981,0.794516,0.6675,0.61617,0.21572
1700753597414062,-9.72631,0.891981,0.788516,0.3375,0.64817,0.21572
1700753597421875,-9.72831,0.896981,0.781516,0.5075,0.61617,0.23172
1700753597429687,-9.73031,0.902981,0.781516,0.5675,0.61017,0.21272
1700753597437500,-9.72631,0.906981,0.781516,0.6975,0.57717,0.13372
1700753597445312,-9.72631,0.915981,0.792516,0.2075,0.61917,0.23072
1700753597453125,-9.72531,0.915981,0.788516,0.4325,0.62317,0.18172
1700753597460937,-9.72331,0.917981,0.794516,0.2025,0.64717,0.24272
1700753597468750,-9.71431,0.911981,0.783516,0.6025,0.65017,0.23072
1700753597476562,-9.71231,0.915981,0.781516,0.575,0.63817,0.21372
1700753597484375,-9.71431,0.906981,0.765516,0.5925,0.66917,0.21372
1700753597492187,-9.71631,0.918981,0.747516,0.4225,0.66917,0.22972
1700753597500000,-9.72231,0.907981,0.756516,0.6525,0.67617,0.20072
1700753597507812,-9.72131,0.902981,0.752516,0.12325,0.65317,0.21372
1700753597515625,-9.72931,0.896981,0.763516,0.3425,0.62617,0.23372
1700753597523437,-9.72831,0.902981,0.772516,0.2525,0.60717,0.26172
1700753597531250,-9.72731,0.922981,0.776516,0.10525,0.78117,0.26072
1700753597539062,-9.74031,0.900981,0.765516,0.14725,0.71917,0.26572
1700753597546875,-9.71031,0.891981,0.754516,0.9025,0.71517,0.29372
1700753597554687,-9.71031,0.907981,0.740516,0.5825,0.71517,0.26172
1700753597562500,-9.71431,0.897981,0.749516,0.2425,0.62617,0.21272
1700753597570312,-9.72631,0.882981,0.756516,0.4425,0.63517,0.24672
1700753597578125,-9.71931,0.878981,0.749516,0.12525,0.65017,0.23072
1700753597585937,-9.70631,0.874981,0.736516,0.11125,0.63217,0.21572
1700753597593750,-9.70631,0.880981,0.729516,0.6225,0.63217,0.21572
1700753597601562,-9.70731,0.870981,0.722516,0.3275,0.64417,0.24872
1700753597609375,-9.71231,0.873981,0.713516,0.6075,0.61617,0.22672
1700753597617187,-9.70031,0.876981,0.720516,0.8275,0.52317,0.18272
1700753597625000,-9.70431,0.874981,0.724516,0.9775,0.47317,0.21572
1700753597632812,-9.70231,0.883981,0.754516,0.11675,0.43017,0.21472
1700753597640625,-9.70231,0.890981,0.756516,0.6575,0.52017,0.23172
1700753597648437,-9.70831,0.876981,0.758516,0.7175,0.40517,0.19672
1700753597656250,-9.72131,0.889981,0.756516,0.8775,0.40517,0.14872
1700753597664062,-9.73931,0.902981,0.785516,0.8475,0.38317,0.23072
1700753597671875,-9.74131,0.910981,0.808516,0.12275,0.40817,0.21172
1700753597679687,-9.74331,0.906981,0.797516,0.10875,0.47317,0.27572
1700753597687500,-9.73531,0.905981,0.801516,0.6575,0.48917,0.21572
1700753597695312,-9.72931,0.903981,0.790516,0.9475,0.52617,0.17772
1700753597703125,-9.71431,0.911981,0.781516,0.11775,0.54217,0.19872
1700753597710937,-9.70431,0.901981,0.767516,0.8075,0.51317,0.20872
1700753597718750,-9.69631,0.899981,0.745516,0.1925,0.50717,0.22672
1700753597726562,-9.70631,0.898981,0.747516,0.5575,0.46717,0.22972
1700753597734375,-9.72331,0.899981,0.743516,0.3625,0.41417,0.14672
1700753597742187,-9.74431,0.895981,0.763516,0.675,0.46717,0.16472
1700753597750000,-9.73931,0.883981,0.781516,0.2125,0.41517,0.8172
1700753597757812,-9.73931,0.895981,0.794516,0.5675,0.36217,0.11572
1700753597765625,-9.73031,0.890981,0.792516,0.11075,0.48017,0.19372
1700753597773437,-9.73231,0.882981,0.792516,0.8875,0.47017,0.16372
1700753597781250,-9.72831,0.868981,0.785516,0.7475,0.59817,0.21172
1700753597789062,-9.70931,0.867981,0.772516,0.9975,0.53917,0.23172
1700753597796875,-9.70431,0.873981,0.761516,0.10275,0.56117,0.16572
1700753597804687,-9.69431,0.873981,0.747516,0.10775,0.44217,0.21172
1700753597812500,-9.70631,0.878981,0.740516,0.8475,0.38317,0.21472
1700753597820312,-9.72331,0.899981,0.761516,0.11175,0.41717,0.17772
1700753597828125,-9.72831,0.910981,0.797516,0.7375,0.37717,0.22772
1700753597835937,-9.73031,0.908981,0.803516,0.11975,0.39017,0.14872
1700753597843750,-9.71831,0.910981,0.797516,0.10775,0.41117,0.22772
1700753597851562,-9.72831,0.909981,0.801516,0.11775,0.48017,0.19772
1700753597859375,-9.73631,0.910981,0.808516,0.10775,0.39617,0.19472
1700753597867187,-9.73631,0.917981,0.792516,0.8875,0.40917,0.11572
1700753597875000,-9.73931,0.908981,0.797516,0.12275,0.44317,0.11472
1700753597882812,-9.73031,0.911981,0.799516,0.10275,0.40217,0.22972
1700753597890625,-9.73431,0.919981,0.799516,0.7575,0.50417,0.22772
1700753597898437,-9.71831,0.912981,0.804516,0.6175,0.47617,0.25872
1700753597906250,-9.71431,0.918981,0.788516,0.10375,0.54517,0.21372
1700753597914062,-9.72331,0.910981,0.815516,0.9175,0.44217,0.24372
1700753597921875,-9.71431,0.918981,0.813516,0.11875,0.53017,0.14872
1700753597929687,-9.72831,0.900981,0.801516,0.8475,0.55817,0.18272
1700753597937500,-9.72831,0.906981,0.808516,0.7325,0.50217,0.13172
1700753597945312,-9.72731,0.910981,0.826516,0.725,0.55217,0.11572
1700753597953125,-9.73931,0.908981,0.824516,0.625,0.59717,0.22772
1700753597960937,-9.73731,0.908981,0.801516,0.5575,0.65717,0.21272
1700753597968750,-9.73331,0.911981,0.790516,0.8175,0.62917,0.26472
1700753597976562,-9.72331,0.906981,0.781516,0.5475,0.63817,0.26172
1700753597984375,-9.72831,0.907981,0.783516,0.1875,0.58517,0.21572
1700753597992187,-9.72831,0.904981,0.770516,0.8875,0.57917,0.22872
1700753598000000,-9.72131,0.896981,0.774516,0.475,0.55717,0.23072
1700753598007812,-9.71731,0.897981,0.788516,0.2475,0.54817,0.19672
1700753598015625,-9.71731,0.902981,0.799516,0.2075,0.47917,0.21472
1700753598023437,-9.72131,0.909981,0.804516,0.675,0.49817,0.19772
1700753598031250,-9.72131,0.897981,0.813516,0.825,0.50217,0.13172
1700753598039062,-9.73031,0.904981,0.817516,0.1025,0.59217,0.18172
1700753598046875,-9.73331,0.902981,0.806516,0.1525,0.58217,0.21672
1700753598054687,-9.72831,0.897981,0.794516,0.2225,0.58217,0.21172
1700753598062500,-9.73331,0.903981,0.792516,0.1725,0.64117,0.24972
1700753598070312,-9.71531,0.903981,0.788516,0.1675,0.56617,0.23272
1700753598078125,-9.70831,0.891981,0.781516,0.2075,0.58817,0.23072
1700753598085937,-9.70431,0.894981,0.758516,0.375,0.69717,0.23072
1700753598093750,-9.71331,0.896981,0.743516,0.6875,0.65017,0.26272
1700753598101562,-9.71131,0.901981,0.756516,0.14625,0.48517,0.21672
1700753598109375,-9.71931,0.916981,0.785516,0.1225,0.47617,0.24772
1700753598117187,-9.72131,0.915981,0.788516,0.12175,0.54817,0.27672
1700753598125000,-9.71031,0.911981,0.790516,0.5475,0.54517,0.21372
1700753598132812,-9.70631,0.898981,0.794516,0.1425,0.50817,0.10272
1700753598140625,-9.70831,0.894981,0.792516,0.4975,0.56617,0.28072
1700753598148437,-9.70431,0.894981,0.792516,0.0,0.50417,0.19972
1700753598156250,-9.71931,0.894981,0.790516,0.7825,0.46117,0.16672
1700753598164062,-9.73031,0.899981,0.806516,0.775,0.48617,0.11572
1700753598171875,-9.72831,0.900981,0.826516,0.3375,0.50817,0.8672
1700753598179687,-9.74131,0.915981,0.826516,0.2325,0.48617,0.21272
1700753598187500,-9.74831,0.904981,0.797516,0.275,0.57017,0.23172
1700753598195312,-9.74031,0.894981,0.801516,0.6625,0.65217,0.19272
1700753598203125,-9.72331,0.902981,0.783516,0.8725,0.62917,0.21172
1700753598210937,-9.73131,0.871981,0.749516,0.175,0.64817,0.19972
1700753598218750,-9.71131,0.872981,0.749516,0.9725,0.59817,0.18472
1700753598226562,-9.69331,0.894981,0.752516,0.8025,0.39617,0.15172
1700753598234375,-9.70431,0.892981,0.765516,0.5075,0.38417,0.7072
1700753598242187,-9.71331,0.887981,0.790516,0.1125,0.41717,0.16572
1700753598250000,-9.72631,0.878981,0.785516,0.3975,0.40517,0.18072
1700753598257812,-9.73531,0.895981,0.792516,0.10575,0.42417,0.17972
1700753598265625,-9.74431,0.895981,0.822516,0.9975,0.41517,0.13472
1700753598273437,-9.74231,0.902981,0.824516,0.6575,0.48917,0.24772
1700753598281250,-9.74831,0.908981,0.824516,0.8875,0.51717,0.19672
1700753598289062,-9.74331,0.913981,0.831516,0.925,0.54417,0.24572
1700753598296875,-9.74431,0.915981,0.826516,0.1775,0.52417,0.11872
1700753598304687,-9.74131,0.913981,0.806516,0.2925,0.60417,0.13472
1700753598312500,-9.70831,0.909981,0.790516,0.275,0.57417,0.6972
1700753598320312,-9.70531,0.907981,0.792516,0.6975,0.56117,0.11672
1700753598328125,-9.71631,0.918981,0.822516,0.10175,0.57717,0.13372
1700753598335937,-9.72831,0.910981,0.813516,0.5575,0.54817,0.13272
1700753598343750,-9.72731,0.905981,0.788516,0.11075,0.60417,0.20972
1700753598351562,-9.72831,0.907981,0.772516,0.5075,0.63217,0.21572
1700753598359375,-9.72831,0.904981,0.788516,0.10075,0.58917,0.18272
1700753598367187,-9.73331,0.904981,0.808516,0.9875,0.57017,0.16672
1700753598375000,-9.72831,0.900981,0.801516,0.11575,0.55417,0.23172
1700753598382812,-9.70431,0.886981,0.801516,0.14175,0.62317,0.18572
1700753598390625,-9.68531,0.895981,0.765516,0.9275,0.55417,0.17872
1700753598398437,-9.67031,0.898981,0.754516,0.5475,0.56417,0.8372
1700753598406250,-9.69231,0.900981,0.763516,0.11975,0.51417,0.22972
1700753598414062,-9.70331,0.904981,0.765516,0.10775,0.41117,0.21172
1700753598421875,-9.73231,0.910981,0.797516,0.10575,0.40817,0.16372
1700753598429687,-9.74631,0.909981,0.835516,0.13075,0.38017,0.23172
1700753598437500,-9.75131,0.916981,0.844516,0.14375,0.39317,0.12072
1700753598445312,-9.75831,0.927981,0.842516,0.10475,0.38017,0.18872
1700753598453125,-9.74431,0.923981,0.842516,0.9375,0.52917,0.21772
1700753598460937,-9.72631,0.912981,0.844516,0.12875,0.54817,0.24972
1700753598468750,-9.72331,0.931981,0.828516,0.11775,0.69717,0.27872
1700753598476562,-9.71231,0.933981,0.824516,0.11575,0.64717,0.26372
1700753598484375,-9.71931,0.917981,0.801516,0.8675,0.68517,0.22972
1700753598492187,-9.72331,0.927981,0.785516,0.9975,0.64717,0.26372
1700753598500000,-9.72531,0.920981,0.808516,0.11975,0.56017,0.26172
1700753598507812,-9.74331,0.923981,0.828516,0.10875,0.55517,0.16272
1700753598515625,-9.75031,0.914981,0.844516,0.9075,0.59817,0.19572
1700753598523437,-9.75631,0.912981,0.842516,0.12175,0.66017,0.17972
1700753598531250,-9.75031,0.908981,0.837516,0.10575,0.64517,0.17972
1700753598539062,-9.73931,0.917981,0.828516,0.2925,0.65117,0.18272
1700753598546875,-9.72531,0.908981,0.799516,0.8875,0.64117,0.22872
1700753598554687,-9.70831,0.902981,0.785516,0.7175,0.67217,0.21272
1700753598562500,-9.69231,0.904981,0.765516,0.625,0.66017,0.22772
1700753598570312,-9.69031,0.896981,0.756516,0.5575,0.64217,0.14872
1700753598578125,-9.69231,0.905981,0.758516,0.1975,0.62017,0.18272
1700753598585937,-9.69431,0.902981,0.765516,0.7425,0.48317,0.16472
1700753598593750,-9.73231,0.904981,0.792516,0.13725,0.59417,0.21272
1700753598601562,-9.74331,0.908981,0.806516,0.10225,0.55117,0.22772
1700753598609375,-9.73731,0.911981,0.803516,0.4425,0.58817,0.18272
1700753598617187,-9.73331,0.905981,0.797516,0.16125,0.61317,0.23272
1700753598625000,-9.70431,0.901981,0.785516,0.6425,0.62817,0.24872
1700753598632812,-9.68231,0.901981,0.767516,0.3325,0.62517,0.24972
1700753598640625,-9.68631,0.899981,0.772516,0.4875,0.64517,0.20072
1700753598648437,-9.69731,0.908981,0.758516,0.3525,0.59117,0.21772
1700753598656250,-9.69531,0.892981,0.734516,0.6225,0.64717,0.26372
1700753598664062,-9.69531,0.896981,0.745516,0.9625,0.64417,0.24872
1700753598671875,-9.70231,0.894981,0.747516,0.9225,0.41317,0.27972
1700753598679687,-9.71531,0.885981,0.763516,0.9325,0.42917,0.24672
1700753598687500,-9.74031,0.895981,0.785516,0.9325,0.39917,0.18272
1700753598695312,-9.74131,0.911981,0.799516,0.2625,0.42117,0.13272
1700753598703125,-9.73731,0.909981,0.803516,0.3175,0.43917,0.23272
1700753598710937,-9.72431,0.911981,0.794516,0.11675,0.44517,0.21472
1700753598718750,-9.72331,0.909981,0.797516,0.13675,0.45117,0.26172
1700753598726562,-9.71431,0.910981,0.790516,0.12575,0.55417,0.29072
1700753598734375,-9.70831,0.909981,0.790516,0.9775,0.58217,0.23272
1700753598742187,-9.69931,0.909981,0.776516,0.11775,0.58817,0.23072
1700753598750000,-9.69731,0.911981,0.770516,0.10175,0.54217,0.21472
1700753598757812,-9.71231,0.909981,0.770516,0.5375,0.41717,0.22972
1700753598765625,-9.72631,0.895981,0.783516,0.3975,0.45117,0.26172
1700753598773437,-9.73031,0.906981,0.810516,0.3875,0.37417,0.13272
1700753598781250,-9.73231,0.900981,0.824516,0.8775,0.38917,0.21272
1700753598789062,-9.72031,0.901981,0.826516,0.9575,0.47117,0.16872
1700753598796875,-9.72831,0.904981,0.819516,0.9975,0.43017,0.19872
1700753598804687,-9.72931,0.900981,0.817516,0.11175,0.51717,0.20072
1700753598812500,-9.72831,0.897981,0.817516,0.10375,0.51417,0.19772
1700753598820312,-9.72831,0.893981,0.831516,0.12075,0.49817,0.26172
1700753598828125,-9.72831,0.884981,0.817516,0.15575,0.62917,0.25972
1700753598835937,-9.72631,0.895981,0.797516,0.8775,0.54417,0.27772
1700753598843750,-9.72131,0.898981,0.776516,0.8775,0.57617,0.26172
1700753598851562,-9.72631,0.902981,0.783516,0.10375,0.51417,0.24572
1700753598859375,-9.71231,0.909981,0.799516,0.13575,0.57617,0.24572
1700753598867187,-9.72231,0.909981,0.824516,0.11375,0.55117,0.26472
1700753598875000,-9.72631,0.922981,0.826516,0.9975,0.49217,0.24772
1700753598882812,-9.72931,0.912981,0.828516,0.10575,0.57017,0.23572
1700753598890625,-9.73531,0.909981,0.819516,0.10175,0.48017,0.19772
1700753598898437,-9.72731,0.910981,0.817516,0.10775,0.50417,0.21172
1700753598906250,-9.73031,0.902981,0.817516,0.11675,0.62017,0.23072
1700753598914062,-9.72331,0.902981,0.797516,0.10275,0.57617,0.21372
1700753598921875,-9.71631,0.906981,0.808516,0.8875,0.57917,0.22872
1700753598929687,-9.71031,0.909981,0.804516,0.8575,0.62317,0.14972
1700753598937500,-9.70131,0.915981,0.781516,0.2375,0.57917,0.19672
1700753598945312,-9.69331,0.908981,0.774516,0.9675,0.52817,0.22472
1700753598953125,-9.69831,0.913981,0.792516,0.10575,0.50117,0.22872
1700753598960937,-9.70231,0.915981,0.824516,0.7775,0.41417,0.19472
1700753598968750,-9.69831,0.910981,0.831516,0.9475,0.54217,0.19372
1700753598976562,-9.70731,0.908981,0.828516,0.12375,0.50517,0.19572
1700753598984375,-9.72631,0.909981,0.833516,0.3975,0.48217,0.22972
1700753598992187,-9.73431,0.910981,0.840516,0.1075,0.41117,0.21172
1700753599000000,-9.73931,0.909981,0.842516,0.3775,0.54117,0.26272
1700753599007812,-9.73531,0.911981,0.835516,0.4775,0.59417,0.29772
1700753599015625,-9.73631,0.913981,0.822516,0.7275,0.59517,0.22872
1700753599023437,-9.74331,0.917981,0.824516,0.875,0.56317,0.27672
1700753599031250,-9.73731,0.915981,0.813516,0.3025,0.70917,0.29572
1700753599039062,-9.72831,0.913981,0.813516,0.825,0.64117,0.26072
1700753599046875,-9.72431,0.916981,0.822516,0.1575,0.66017,0.21672
1700753599054687,-9.69931,0.919981,0.835516,0.1925,0.68517,0.26672
1700753599062500,-9.76631,0.884981,0.797516,0.4225,0.73117,0.30972
1700753599070312,-9.75031,0.886981,0.810516,0.2375,0.62617,0.21272
1700753599078125,-9.73631,0.897981,0.835516,0.7475,0.58217,0.22772
1700753599085937,-9.74331,0.897981,0.855516,0.9075,0.64417,0.21172
1700753599093750,-9.74231,0.886981,0.869516,0.13275,0.65117,0.23072
1700753599101562,-9.73831,0.891981,0.851516,0.4775,0.62917,0.18472
1700753599109375,-9.73331,0.898981,0.822516,0.6675,0.67917,0.23172
1700753599117187,-9.72231,0.898981,0.785516,0.8075,0.67617,0.23272
1700753599125000,-9.71531,0.902981,0.788516,0.3575,0.66617,0.23072
1700753599132812,-9.70831,0.914981,0.799516,0.12975,0.62917,0.23272
1700753599140625,-9.70631,0.921981,0.819516,0.1575,0.64417,0.21672
1700753599148437,-9.70331,0.905981,0.801516,0.5175,0.69817,0.16672
1700753599156250,-9.69531,0.903981,0.774516,0.0,0.66017,0.18472
1700753599164062,-9.69631,0.913981,0.752516,0.7075,0.65417,0.22972
1700753599171875,-9.71031,0.904981,0.743516,0.825,0.61017,0.19672
1700753599179687,-9.70731,0.910981,0.745516,0.2675,0.49317,0.8172
1700753599187500,-9.70331,0.907981,0.765516,0.10375,0.49817,0.21372
1700753599195312,-9.69631,0.909981,0.772516,0.10275,0.51417,0.16472
1700753599203125,-9.71231,0.890981,0.781516,0.12575,0.44517,0.19472
1700753599210937,-9.70831,0.887981,0.788516,0.5475,0.46717,0.19772
1700753599218750,-9.72331,0.890981,0.788516,0.12675,0.49617,0.14572
1700753599226562,-9.72331,0.897981,0.799516,0.8875,0.51717,0.21272
1700753599234375,-9.72531,0.895981,0.810516,0.10775,0.50417,0.24372
1700753599242187,-9.72131,0.897981,0.819516,0.10675,0.52017,0.19572
1700753599250000,-9.72331,0.902981,0.828516,0.7275,0.47017,0.18072
1700753599257812,-9.72331,0.908981,0.842516,0.9375,0.51117,0.8172
1700753599265625,-9.73431,0.917981,0.846516,0.10575,0.59817,0.13172
1700753599273437,-9.74631,0.910981,0.846516,0.11975,0.56017,0.21372
1700753599281250,-9.73431,0.910981,0.837516,0.7275,0.53317,0.16472
1700753599289062,-9.72331,0.917981,0.826516,0.7175,0.64217,0.14872
1700753599296875,-9.72631,0.911981,0.817516,0.5275,0.60417,0.19872
1700753599304687,-9.72331,0.915981,0.826516,0.10975,0.49217,0.21072
1700753599312500,-9.73231,0.913981,0.831516,0.10475,0.59517,0.21272
1700753599320312,-9.74031,0.909981,0.828516,0.12875,0.67617,0.23272
1700753599328125,-9.73231,0.917981,0.813516,0.11875,0.65417,0.21372
1700753599335937,-9.71431,0.911981,0.808516,0.10075,0.60417,0.19872
1700753599343750,-9.70731,0.911981,0.801516,0.12275,0.58217,0.21172
1700753599351562,-9.70731,0.908981,0.804516,0.10775,0.58617,0.16272
1700753599359375,-9.72131,0.911981,0.797516,0.8775,0.58017,0.11672
1700753599367187,-9.72631,0.904981,0.788516,0.8575,0.56117,0.11672
1700753599375000,-9.71831,0.904981,0.801516,0.2575,0.55117,0.17972
1700753599382812,-9.70731,0.913981,0.801516,0.1175,0.61617,0.21072
1700753599390625,-9.70531,0.913981,0.785516,0.10075,0.60417,0.18272
1700753599398437,-9.70231,0.912981,0.785516,0.2675,0.63517,0.25172
1700753599406250,-9.70331,0.911981,0.772516,0.8675,0.62217,0.24572
1700753599414062,-9.71431,0.906981,0.776516,0.8775,0.54517,0.24572
1700753599421875,-9.71831,0.917981,0.794516,0.5875,0.56617,0.24372
1700753599429687,-9.73031,0.912981,0.803516,0.4275,0.56617,0.22772
1700753599437500,-9.73131,0.921981,0.810516,0.4475,0.55417,0.21072
1700753599445312,-9.72831,0.917981,0.813516,0.7075,0.56117,0.16572
1700753599453125,-9.71631,0.917981,0.808516,0.12075,0.59517,0.21272
1700753599460937,-9.71831,0.906981,0.810516,0.7475,0.61317,0.21172
1700753599468750,-9.71031,0.902981,0.806516,0.6975,0.54217,0.23072
1700753599476562,-9.71531,0.893981,0.822516,0.8675,0.57617,0.18172
1700753599484375,-9.72131,0.902981,0.826516,0.12275,0.62917,0.17972
1700753599492187,-9.71731,0.902981,0.828516,0.6775,0.63517,0.18272
1700753599500000,-9.72431,0.895981,0.828516,0.6875,0.58817,0.21472
1700753599507812,-9.72331,0.908981,0.808516,0.12075,0.62617,0.21272
1700753599515625,-9.71931,0.917981,0.806516,0.13475,0.65417,0.22972
1700753599523437,-9.72831,0.915981,0.819516,0.13475,0.68517,0.18172
1700753599531250,-9.72831,0.911981,0.824516,0.6675,0.67917,0.21572
1700753599539062,-9.71431,0.918981,0.801516,0.7075,0.62317,0.22972
1700753599546875,-9.70731,0.911981,0.790516,0.13975,0.56717,0.22772
1700753599554687,-9.70131,0.909981,0.785516,0.5275,0.54217,0.21472
1700753599562500,-9.70531,0.911981,0.799516,0.3875,0.62217,0.22972
1700753599570312,-9.71231,0.908981,0.794516,0.12275,0.62917,0.17972
1700753599578125,-9.71931,0.911981,0.792516,0.10175,0.58817,0.23072
1700753599585937,-9.72631,0.914981,0.804516,0.8175,0.53517,0.24872
1700753599593750,-9.72131,0.909981,0.808516,0.2275,0.56017,0.27772
1700753599601562,-9.71231,0.909981,0.781516,0.3875,0.56017,0.22972
1700753599609375,-9.70931,0.911981,0.781516,0.625,0.61317,0.24372
1700753599617187,-9.71431,0.899981,0.788516,0.4675,0.61917,0.25772
1700753599625000,-9.71431,0.897981,0.804516,0.2475,0.56317,0.22872
1700753599632812,-9.71231,0.907981,0.790516,0.7075,0.56017,0.21372
1700753599640625,-9.71431,0.906981,0.804516,0.5475,0.54517,0.19772
1700753599648437,-9.71031,0.897981,0.792516,0.5625,0.53217,0.19672
1700753599656250,-9.70831,0.893981,0.797516,0.2175,0.62217,0.22972
1700753599664062,-9.72531,0.885981,0.804516,0.7975,0.59117,0.17672
1700753599671875,-9.72931,0.894981,0.835516,0.11375,0.56117,0.20872
1700753599679687,-9.73431,0.896981,0.835516,0.7975,0.57517,0.22472
1700753599687500,-9.71431,0.894981,0.831516,0.12775,0.63717,0.22472
1700753599695312,-9.70531,0.895981,0.794516,0.4275,0.66417,0.13072
1700753599703125,-9.70431,0.906981,0.770516,0.4675,0.59117,0.17672
1700753599710937,-9.72131,0.910981,0.783516,0.9075,0.55117,0.21172
1700753599718750,-9.73131,0.921981,0.803516,0.9475,0.57317,0.24172
1700753599726562,-9.72931,0.918981,0.792516,0.12875,0.51317,0.22472
1700753599734375,-9.73031,0.928981,0.792516,0.10375,0.48317,0.18072
1700753599742187,-9.71131,0.933981,0.794516,0.9075,0.55117,0.21172
1700753599750000,-9.70531,0.915981,0.792516,0.7675,0.58517,0.21072
1700753599757812,-9.69631,0.910981,0.799516,0.1375,0.57317,0.22572
1700753599765625,-9.69531,0.912981,0.801516,0.8075,0.59117,0.22472
1700753599773437,-9.71231,0.910981,0.785516,0.7775,0.44517,0.22672
1700753599781250,-9.72431,0.914981,0.792516,0.0,0.45017,0.25672
1700753599789062,-9.73331,0.920981,0.824516,0.3275,0.43617,0.19272
1700753599796875,-9.74731,0.909981,0.860516,0.8075,0.46617,0.20872
1700753599804687,-9.74531,0.916981,0.858516,0.6425,0.52817,0.24072
1700753599812500,-9.74231,0.916981,0.849516,0.3375,0.59217,0.25672
1700753599820312,-9.73431,0.910981,0.837516,0.3925,0.69117,0.21172
1700753599828125,-9.72331,0.906981,0.808516,0.575,0.62217,0.22972
1700753599835937,-9.70531,0.902981,0.801516,0.1025,0.63817,0.21372
1700753599843750,-9.69631,0.902981,0.788516,0.2425,0.65717,0.22872
1700753599851562,-9.69131,0.911981,0.788516,0.1175,0.63217,0.21072
1700753599859375,-9.69431,0.911981,0.790516,0.1175,0.60117,0.22672
1700753599867187,-9.70531,0.907981,0.790516,0.7075,0.62317,0.21372
1700753599875000,-9.72531,0.899981,0.797516,0.9275,0.57017,0.21072
1700753599882812,-9.72731,0.899981,0.824516,0.10975,0.47617,0.21072
1700753599890625,-9.72831,0.895981,0.835516,0.12275,0.58217,0.22772
1700753599898437,-9.72831,0.897981,0.828516,0.7475,0.58217,0.21172
1700753599906250,-9.71731,0.895981,0.788516,0.4075,0.62617,0.22872
1700753599914062,-9.70131,0.895981,0.763516,0.12275,0.64417,0.21172
1700753599921875,-9.69231,0.897981,0.761516,0.10875,0.57017,0.17872
1700753599929687,-9.69831,0.911981,0.779516,0.5675,0.57917,0.19672
1700753599937500,-9.70531,0.917981,0.788516,0.1275,0.42917,0.22672
1700753599945312,-9.70831,0.911981,0.797516,0.8375,0.49217,0.21472
1700753599953125,-9.71231,0.911981,0.819516,0.13675,0.40517,0.22872
1700753599960937,-9.73231,0.915981,0.835516,0.4175,0.43917,0.26072
1700753599968750,-9.73631,0.912981,0.833516,0.5975,0.42617,0.24372
1700753599976562,-9.74531,0.899981,0.831516,0.7575,0.45717,0.27572
1700753599984375,-9.73431,0.899981,0.824516,0.7375,0.50117,0.26072
1700753599992187,-9.72131,0.902981,0.824516,0.8975,0.53217,0.26072
1700753600000000,-9.71831,0.912981,0.826516,0.12775,0.43317,0.24172
1700753600007812,-9.72131,0.904981,0.835516,0.10275,0.56017,0.21372
1700753600015625,-9.73231,0.899981,0.844516,0.12275,0.59817,0.22772
1700753600023437,-9.72131,0.922981,0.842516,0.7275,0.59517,0.21272
1700753600031250,-9.72031,0.912981,0.837516,0.3075,0.55717,0.22572
1700753600039062,-9.71431,0.915981,0.815516,0.4175,0.56717,0.19572
1700753600046875,-9.70331,0.913981,0.819516,0.10275,0.54517,0.19772
1700753600054687,-9.71231,0.917981,0.824516,0.9075,0.50517,0.16372
1700753600062500,-9.70731,0.924981,0.826516,0.4475,0.57017,0.22672
1700753600070312,-9.72531,0.917981,0.835516,0.3975,0.57917,0.19672
1700753600078125,-9.72231,0.921981,0.822516,0.1375,0.55717,0.22572
1700753600085937,-9.72531,0.912981,0.835516,0.1825,0.55717,0.24172
1700753600093750,-9.73031,0.908981,0.831516,0.5825,0.56017,0.21372
1700753600101562,-9.72831,0.908981,0.819516,0.5625,0.57917,0.22872
1700753600109375,-9.70831,0.902981,0.817516,0.5575,0.57917,0.18072
1700753600117187,-9.69831,0.906981,0.810516,0.625,0.67517,0.24372
1700753600125000,-9.73131,0.887981,0.785516,0.4425,0.61917,0.26272
1700753600132812,-9.71731,0.895981,0.790516,0.925,0.45117,0.21372
1700753600140625,-9.71431,0.906981,0.794516,0.7375,0.51717,0.22872
1700753600148437,-9.73031,0.908981,0.817516,0.7275,0.50117,0.21272
1700753600156250,-9.72831,0.920981,0.831516,0.1025,0.49817,0.18172
1700753600164062,-9.72931,0.910981,0.844516,0.4575,0.54217,0.17772
1700753600171875,-9.72731,0.916981,0.824516,0.1675,0.51217,0.27272
1700753600179687,-9.73031,0.915981,0.822516,0.2125,0.55117,0.24372
1700753600187500,-9.72331,0.915981,0.833516,0.4075,0.50117,0.21272
1700753600195312,-9.71431,0.913981,0.833516,0.2675,0.50417,0.19572
1700753600203125,-9.73031,0.926981,0.828516,0.2625,0.56017,0.21372
1700753600210937,-9.72831,0.927981,0.835516,0.4875,0.47417,0.16772
1700753600218750,-9.72831,0.917981,0.844516,0.575,0.49917,0.13272
1700753600226562,-9.73231,0.911981,0.842516,0.3875,0.54517,0.19772
1700753600234375,-9.73031,0.912981,0.833516,0.4275,0.48917,0.21172
1700753600242187,-9.72831,0.918981,0.831516,0.4975,0.50417,0.23172
1700753600250000,-9.72131,0.902981,0.833516,0.6875,0.55717,0.21472
1700753600257812,-9.70831,0.895981,0.817516,0.825,0.57917,0.22872
1700753600265625,-9.70531,0.901981,0.826516,0.3175,0.57517,0.20872
1700753600273437,-9.70331,0.909981,0.835516,0.10175,0.58817,0.29472
1700753600281250,-9.69831,0.920981,0.842516,0.3775,0.63817,0.19772
1700753600289062,-9.73731,0.904981,0.810516,0.675,0.63817,0.27772
1700753600296875,-9.72831,0.895981,0.794516,0.3675,0.58817,0.24672
1700753600304687,-9.71631,0.897981,0.799516,0.4675,0.55717,0.22572
1700753600312500,-9.72231,0.907981,0.817516,0.12775,0.53317,0.20072
1700753600320312,-9.72331,0.906981,0.833516,0.10275,0.56117,0.14972
1700753600328125,-9.73131,0.912981,0.819516,0.10975,0.54517,0.20172
1700753600335937,-9.71031,0.916981,0.828516,0.275,0.53817,0.24772
1700753600343750,-9.71931,0.911981,0.824516,0.3925,0.56317,0.29272
1700753600351562,-9.72531,0.910981,0.835516,0.325,0.50717,0.25872
1700753600359375,-9.72531,0.915981,0.831516,0.2525,0.45117,0.24572
1700753600367187,-9.73031,0.908981,0.828516,0.525,0.47317,0.24372
1700753600375000,-9.72631,0.907981,0.828516,0.5375,0.54117,0.27872
1700753600382812,-9.73231,0.909981,0.840516,0.2175,0.46417,0.23072
1700753600390625,-9.72331,0.910981,0.849516,0.5875,0.55117,0.21172
1700753600398437,-9.72931,0.899981,0.851516,0.12775,0.51117,0.20972
1700753600406250,-9.73231,0.913981,0.846516,0.7175,0.56417,0.16472
1700753600414062,-9.72331,0.915981,0.835516,0.12075,0.61017,0.21272
1700753600421875,-9.71131,0.910981,0.826516,0.10875,0.60117,0.22672
1700753600429687,-9.71631,0.906981,0.817516,0.12275,0.56717,0.19572
1700753600437500,-9.71131,0.910981,0.806516,0.7975,0.52917,0.14472
1700753600445312,-9.71631,0.910981,0.831516,0.3075,0.58817,0.24172
1700753600453125,-9.72231,0.912981,0.833516,0.11075,0.62217,0.14472
1700753600460937,-9.72731,0.919981,0.846516,0.7475,0.53617,0.17972
1700753600468750,-9.72931,0.912981,0.842516,0.1275,0.43017,0.19472
1700753600476562,-9.72131,0.919981,0.846516,0.5675,0.57917,0.19672
1700753600484375,-9.72331,0.903981,0.835516,0.325,0.68117,0.22572
1700753600492187,-9.72731,0.908981,0.835516,0.7775,0.63517,0.19372
1700753600500000,-9.72831,0.910981,0.842516,0.775,0.56417,0.19672
1700753600507812,-9.70731,0.926981,0.851516,0.2625,0.59217,0.18172
1700753600515625,-9.72831,0.904981,0.840516,0.4225,0.62217,0.21372
1700753600523437,-9.72831,0.904981,0.824516,0.825,0.62517,0.26072
1700753600531250,-9.71931,0.918981,0.810516,0.6225,0.67817,0.24772
1700753600539062,-9.72931,0.919981,0.792516,0.8625,0.65917,0.30772
