time,Acceleration X (m/s^2),Acceleration Y (m/s^2),Acceleration Z (m/s^2),Angular Velocity X (rad/s),Angular Velocity Y (rad/s),Angular Velocity Z (rad/s)
1694639812531250,-9.524231,-2.202328,-0.128828,,,
1694639812539062,-9.568231,-2.186328,0.529464,0.119728,0.10041,0.7607
1694639812546875,-9.688231,-2.153328,0.501464,0.121328,0.5241,0.1207
1694639812554687,-9.789231,-2.155328,0.504464,0.120328,0.6441,0.3693
1694639812562500,-9.791231,-2.211328,0.538464,0.112628,0.14141,0.14393
1694639812570312,-9.741231,-2.243328,0.556464,0.103928,0.18641,0.37893
1694639812585937,-9.543231,-2.288328,0.602464,0.96728,0.12641,0.56993
1694639812593750,-9.484231,-2.316328,0.602464,0.81328,0.2841,0.55693
1694639812601562,-9.500231,-2.273328,0.627464,0.72228,0.7059,0.59093
1694639812609375,-9.485231,-2.258328,0.647464,0.73528,0.18659,0.57693
1694639812632812,-9.156231,-2.358328,0.522464,0.63928,0.45259,0.53593
1694639812640625,-9.102231,-2.385328,0.466464,0.54728,0.66459,0.36993
1694639812648437,-9.173231,-2.391328,0.436464,0.48228,0.85159,0.24793
1694639812656250,-9.295231,-2.394328,0.397464,0.36928,0.93859,0.2993
1694639812664062,-9.364231,-2.357328,0.363464,0.23128,0.100759,0.6107
1694639812671875,-9.366231,-2.303328,0.301464,0.9428,0.101359,0.18507
1694639812679687,-9.353231,-2.265328,0.215464,0.16828,0.96859,0.31207
1694639812687500,-9.437231,-2.215328,0.115464,0.4528,0.105359,0.37207
1694639812695312,-9.552231,-2.151328,0.64464,0.11828,0.106959,0.40407
1694639812703125,-9.586231,-2.133328,0.39464,0.24028,0.110659,0.42007
1694639812710937,-9.488231,-2.180328,0.28536,0.24328,0.109359,0.40307
1694639812718750,-9.499231,-2.203328,0.156536,0.24028,0.110759,0.43607
1694639812726562,-9.547231,-2.220328,0.219536,0.25628,0.123859,0.32307
1694639812734375,-9.609231,-2.323328,0.235536,0.41128,0.125659,0.24507
1694639812742187,-9.788231,-2.308328,0.274536,0.35028,0.114359,0.9107
1694639812750000,-9.934231,-2.232328,0.249536,0.35528,0.96059,0.1507
1694639812757812,-9.940231,-2.324328,0.267536,0.50928,0.82059,0.12093
1694639812765625,-9.823231,-2.471328,0.338536,0.59028,0.59259,0.36593
1694639812773437,-9.673231,-2.589328,0.433536,0.56928,0.63659,0.68293
1694639812781250,-9.570231,-2.702328,0.542536,0.47928,0.77459,0.93693
1694639812789062,-9.468231,-2.765328,0.576536,0.49728,0.84159,0.126693
1694639812796875,-9.440231,-2.791328,0.644536,0.42728,0.90359,0.150593
1694639812804687,-9.385231,-2.818328,0.753536,0.26028,0.85959,0.159893
1694639812812500,-9.319231,-2.888328,0.890536,0.18228,0.95859,0.158593
1694639812820312,-9.400231,-2.889328,-1.10536,0.1628,0.106059,0.157493
1694639812828125,-9.490231,-2.843328,-1.72536,0.25072,0.112559,0.135693
1694639812835937,-9.657231,-2.834328,-1.161536,0.36072,0.133659,0.112693
1694639812843750,-9.911231,-2.779328,-1.211536,0.60872,0.124059,0.85993
1694639812851562,-10.219231,-2.653328,-1.214536,0.91972,0.115759,0.59193
1694639812859375,-10.695231,-2.444328,-1.169536,0.101372,0.101759,0.30793
1694639812867187,-11.199231,-2.177328,-1.31536,0.118772,0.79259,0.8807
1694639812875000,-11.491231,-1.990328,0.822536,0.105472,0.35659,0.50707
1694639812882812,-11.241231,-2.328,0.626536,0.76272,0.16241,0.73807
1694639812890625,-10.602231,-2.60328,0.514536,0.59672,0.73941,0.98707
1694639812898437,-9.971231,-1.977328,0.436536,0.47372,0.140541,0.114407
1694639812906250,-9.613231,-1.813328,0.311536,0.20172,0.181241,0.137507
1694639812914062,-9.579231,-1.712328,0.86536,0.6628,0.191241,0.175607
1694639812921875,-9.632231,-1.733328,0.141464,0.40028,0.218041,0.198307
1694639812929687,-9.882231,-1.710328,0.293464,0.63128,0.236041,0.197307
1694639812937500,-10.195231,-1.629328,0.509464,0.89528,0.264741,0.180807
1694639812945312,-10.350231,-1.719328,0.703464,0.129828,0.294141,0.144107
1694639812953125,-10.289231,-1.914328,0.853464,0.162628,0.313741,0.100807
1694639812960937,-10.94231,-2.76328,0.931464,0.174528,0.339741,0.60407
1694639812968750,-9.888231,-2.168328,0.966464,0.179728,0.344141,0.27507
1694639812976562,-9.604231,-2.291328,1.62464,0.193628,0.338141,0.5607
1694639812984375,-9.370231,-2.374328,1.121464,0.192128,0.326641,0.607
1694639812992187,-9.314231,-2.308328,1.142464,0.170828,0.322441,0.7393
1694639813000000,-9.422231,-2.166328,1.166464,0.172028,0.305241,0.4807
1694639813007812,-9.421231,-2.73328,1.239464,0.170028,0.292741,0.25007
1694639813015625,-9.386231,-2.15328,1.212464,0.185028,0.291441,0.47007
1694639813023437,-9.292231,-1.941328,1.157464,0.213728,0.287541,0.50307
1694639813031250,-9.183231,-1.928328,1.95464,0.236628,0.276441,0.56407
1694639813039062,-9.135231,-1.994328,1.36464,0.260428,0.260041,0.81407
1694639813046875,-9.161231,-2.94328,1.14464,0.286128,0.237641,0.82707
1694639813054687,-9.199231,-2.180328,0.964464,0.292228,0.216141,0.71307
1694639813062500,-9.367231,-2.213328,0.891464,0.292328,0.182341,0.65807
1694639813070312,-9.512231,-2.274328,0.829464,0.290628,0.161041,0.57507
1694639813078125,-9.612231,-2.395328,0.768464,0.289228,0.130941,0.47407
1694639813085937,-9.692231,-2.485328,0.652464,0.280228,0.121241,0.39207
1694639813093750,-9.749231,-2.522328,0.584464,0.266428,0.107141,0.27907
1694639813101562,-9.753231,-2.537328,0.525464,0.251328,0.90741,0.21107
1694639813109375,-9.690231,-2.541328,0.450464,0.228128,0.86541,0.22607
1694639813117187,-9.695231,-2.570328,0.379464,0.218728,0.63441,0.20607
1694639813125000,-9.737231,-2.566328,0.315464,0.200928,0.66341,0.21807
1694639813132812,-9.704231,-2.495328,0.322464,0.191628,0.56441,0.23107
1694639813140625,-9.684231,-2.451328,0.272464,0.177928,0.48541,0.19707
1694639813148437,-9.662231,-2.429328,0.290464,0.168628,0.40241,0.21107
1694639813156250,-9.594231,-2.421328,0.340464,0.170028,0.37141,0.19507
1694639813164062,-9.511231,-2.378328,0.349464,0.168528,0.39041,0.16507
1694639813171875,-9.418231,-2.329328,0.352464,0.177828,0.29641,0.24007
1694639813179687,-9.555231,-2.272328,0.358464,0.174628,0.20941,0.31607
1694639813187500,-9.728231,-2.212328,0.451464,0.186528,0.10341,0.42507
1694639813195312,-9.859231,-2.222328,0.501464,0.212228,0.15341,0.41407
1694639813203125,-9.954231,-2.203328,0.524464,0.224828,0.17141,0.24107
1694639813210937,-9.979231,-2.205328,0.551464,0.243528,0.22541,0.5507
1694639813218750,-9.942231,-2.281328,0.563464,0.263528,0.7141,0.5693
1694639813226562,-9.826231,-2.356328,0.574464,0.268128,0.6241,0.19693
1694639813234375,-9.732231,-2.420328,0.531464,0.269828,0.8959,0.23293
1694639813242187,-9.631231,-2.504328,0.518464,0.268128,0.22359,0.21993
1694639813250000,-9.448231,-2.637328,0.509464,0.258628,0.44759,0.5293
1694639813257812,-9.328231,-2.657328,0.450464,0.232228,0.46259,0.8707
1694639813265625,-9.395231,-2.594328,0.352464,0.198328,0.54159,0.21007
1694639813273437,-9.481231,-2.552328,0.313464,0.172128,0.74859,0.40707
1694639813281250,-9.574231,-2.602328,0.268464,0.155128,0.71059,0.45407
1694639813289062,-9.435231,-2.617328,0.208464,0.130528,0.69459,0.59407
1694639813296875,-9.333231,-2.509328,0.69464,0.87528,0.72459,0.74807
1694639813304687,-9.522231,-2.425328,0.42536,0.70228,0.77459,0.92007
1694639813312500,-9.680231,-2.399328,0.7536,0.69028,0.81359,0.91707
1694639813320312,-9.733231,-2.383328,0.46536,0.46228,0.65159,0.82507
1694639813328125,-9.609231,-2.341328,0.122536,0.21928,0.67259,0.69807
1694639813335937,-9.630231,-2.313328,0.167536,0.20728,0.67359,0.61807
1694639813343750,-9.659231,-2.272328,0.103536,0.1772,0.69959,0.47407
1694639813351562,-9.642231,-2.239328,0.69536,0.4772,0.72559,0.34907
1694639813359375,-9.577231,-2.180328,0.99536,0.10372,0.71759,0.14407
1694639813367187,-9.535231,-2.106328,0.115536,0.8572,0.69459,0.2793
1694639813375000,-9.526231,-2.75328,0.145536,0.472,0.66759,0.32493
1694639813382812,-9.490231,-2.76328,0.190536,0.10328,0.67459,0.52793
1694639813390625,-9.397231,-2.102328,0.265536,0.25728,0.68659,0.69893
1694639813398437,-9.351231,-2.178328,0.340536,0.40028,0.68659,0.88793
1694639813406250,-9.356231,-2.284328,0.401536,0.54028,0.79059,0.96793
1694639813414062,-9.436231,-2.415328,0.406536,0.50928,0.86859,0.104793
1694639813421875,-9.532231,-2.483328,0.399536,0.44828,0.94659,0.114393
1694639813429687,-9.659231,-2.504328,0.408536,0.31228,0.95959,0.117693
1694639813437500,-9.759231,-2.548328,0.440536,0.23328,0.83359,0.120393
1694639813445312,-9.851231,-2.573328,0.408536,0.26328,0.78659,0.112493
1694639813453125,-9.901231,-2.563328,0.374536,0.15928,0.67459,0.104593
1694639813460937,-9.917231,-2.588328,0.404536,0.18728,0.43959,0.97693
1694639813468750,-9.891231,-2.637328,0.397536,0.29428,0.33959,0.95793
1694639813476562,-9.841231,-2.673328,0.383536,0.20328,0.12559,0.84493
1694639813484375,-9.759231,-2.684328,0.415536,0.20128,0.10659,0.81193
1694639813492187,-9.789231,-2.692328,0.453536,0.17128,0.4341,0.79393
1694639813500000,-9.741231,-2.673328,0.405536,0.6428,0.18841,0.63493
1694639813507812,-9.653231,-2.685328,0.435536,0.3128,0.28841,0.52193
1694639813515625,-9.624231,-2.648328,0.513536,0.9672,0.25141,0.28793
1694639813523437,-9.605231,-2.568328,0.540536,0.22272,0.26641,0.13093
1694639813531250,-9.621231,-2.533328,0.604536,0.18972,0.32341,0.2093
1694639813539062,-9.587231,-2.507328,0.652536,0.26872,0.32241,0.7307
1694639813546875,-9.483231,-2.406328,0.720536,0.29972,0.36041,0.4307
1694639813554687,-9.418231,-2.340328,0.816536,0.38872,0.41341,0.1993
1694639813562500,-9.387231,-2.296328,0.864536,0.42272,0.37741,0.9007
1694639813570312,-9.341231,-2.271328,0.837536,0.54072,0.39341,0.5607
1694639813578125,-9.389231,-2.264328,0.841536,0.56972,0.56641,0.1793
1694639813585937,-9.530231,-2.229328,0.753536,0.70672,0.60841,0.9593
1694639813593750,-9.522231,-2.231328,0.650536,0.74972,0.78841,0.6293
1694639813601562,-9.746231,-2.137328,0.623536,0.74772,0.99141,0.7393
1694639813609375,-10.90231,-1.986328,0.528536,0.67272,0.105941,0.8693
1694639813617187,-10.214231,-2.16328,0.332536,0.45972,0.117441,0.5093
1694639813625000,-10.202231,-2.63328,0.209536,0.32372,0.120541,0.4893
1694639813632812,-9.993231,-1.981328,0.134536,0.35272,0.142341,0.2893
1694639813640625,-9.780231,-1.921328,0.95536,0.18472,0.149741,0.8307
1694639813648437,-9.827231,-1.843328,0.54536,0.6572,0.133941,0.19007
1694639813656250,-9.938231,-1.795328,0.86464,0.11228,0.124241,0.44107
1694639813664062,-9.992231,-1.832328,0.181464,0.37128,0.126941,0.47407
1694639813671875,-10.53231,-1.832328,0.224464,0.58428,0.125041,0.46007
1694639813679687,-10.122231,-1.800328,0.240464,0.72428,0.130341,0.30507
1694639813687500,-10.254231,-1.872328,0.211464,0.103028,0.129841,0.26007
1694639813695312,-10.278231,-1.951328,0.207464,0.116928,0.132941,0.21407
1694639813703125,-10.210231,-1.986328,0.177464,0.123128,0.126841,0.7207
1694639813710937,-10.212231,-1.997328,0.100464,0.135828,0.127341,0.16293
1694639813718750,-10.186231,-2.66328,0.107464,0.163428,0.128541,0.20793
1694639813726562,-10.3231,-2.150328,0.93464,0.168128,0.139341,0.9693
1694639813734375,-9.868231,-2.159328,0.20464,0.156928,0.144141,0.10807
1694639813742187,-9.740231,-2.183328,0.21464,0.148828,0.144941,0.39107
1694639813750000,-9.658231,-2.126328,0.61464,0.143728,0.155941,0.67607
1694639813757812,-9.638231,-2.48328,0.98464,0.129628,0.148041,0.95507
1694639813765625,-9.680231,-2.6328,0.157464,0.118128,0.140941,0.125207
1694639813773437,-9.805231,-1.935328,0.229464,0.119428,0.141641,0.145707
1694639813781250,-9.745231,-1.858328,0.343464,0.119228,0.136141,0.156507
1694639813789062,-9.668231,-1.719328,0.377464,0.115628,0.135241,0.184807
1694639813796875,-9.706231,-1.558328,0.436464,0.124628,0.132841,0.195707
1694639813804687,-9.641231,-1.453328,0.516464,0.150828,0.134941,0.202007
1694639813812500,-9.562231,-1.419328,0.536464,0.176528,0.127141,0.211407
1694639813820312,-9.528231,-1.406328,0.497464,0.191628,0.118441,0.213007
1694639813828125,-9.471231,-1.420328,0.497464,0.206928,0.108341,0.208207
1694639813835937,-9.476231,-1.449328,0.475464,0.217328,0.78241,0.203007
1694639813843750,-9.485231,-1.467328,0.465464,0.214228,0.55141,0.196207
1694639813851562,-9.453231,-1.503328,0.413464,0.215828,0.50541,0.185207
1694639813859375,-9.424231,-1.504328,0.340464,0.214328,0.31441,0.164407
1694639813867187,-9.458231,-1.508328,0.228464,0.211428,0.26941,0.153307
1694639813875000,-9.564231,-1.526328,0.172464,0.201028,0.3741,0.140107
1694639813882812,-9.668231,-1.517328,0.135464,0.192228,0.12541,0.130707
1694639813890625,-9.731231,-1.555328,0.55464,0.192128,0.3741,0.110307
1694639813898437,-9.753231,-1.626328,0.28536,0.185128,0.3141,0.81907
1694639813906250,-9.770231,-1.712328,0.68536,0.168628,0.4259,0.64407
1694639813914062,-9.758231,-1.752328,0.118536,0.158328,0.159,0.47107
1694639813921875,-9.709231,-1.813328,0.198536,0.145128,0.2541,0.25007
1694639813929687,-9.682231,-1.869328,0.268536,0.129928,0.6741,0.15607
1694639813937500,-9.636231,-1.894328,0.325536,0.114828,0.7341,0.7707
1694639813945312,-9.623231,-1.906328,0.398536,0.102628,0.259,0.293
1694639813953125,-9.634231,-1.912328,0.453536,0.95128,0.8359,0.6893
1694639813960937,-9.624231,-1.903328,0.487536,0.72428,0.11359,0.10293
1694639813968750,-9.602231,-1.915328,0.514536,0.70828,0.15359,0.25893
1694639813976562,-9.647231,-1.927328,0.555536,0.74128,0.13859,0.30693
1694639813984375,-9.697231,-1.910328,0.551536,0.73028,0.13159,0.51093
1694639813992187,-9.749231,-1.903328,0.544536,0.73028,0.7659,0.57193
1694639814000000,-9.842231,-1.875328,0.562536,0.72028,0.2941,0.75893
1694639814007812,-9.924231,-1.847328,0.530536,0.74028,0.6841,0.94693
1694639814015625,-9.924231,-1.865328,0.514536,0.81828,0.25741,0.105193
1694639814023437,-9.903231,-1.903328,0.510536,0.94428,0.39641,0.122093
1694639814031250,-9.874231,-1.908328,0.480536,0.102228,0.53341,0.131093
1694639814039062,-9.841231,-1.939328,0.475536,0.120828,0.64241,0.129393
1694639814046875,-9.831231,-2.4328,0.436536,0.123928,0.69241,0.130793
1694639814054687,-9.810231,-2.61328,0.398536,0.125228,0.84741,0.128793
1694639814062500,-9.810231,-2.124328,0.380536,0.123628,0.100141,0.128393
1694639814070312,-9.797231,-2.129328,0.355536,0.122128,0.103941,0.131393
1694639814078125,-9.827231,-2.153328,0.343536,0.123928,0.108641,0.134493
1694639814085937,-9.856231,-2.192328,0.318536,0.122628,0.110441,0.142393
1694639814093750,-9.831231,-2.228328,0.295536,0.127128,0.107441,0.148593
1694639814101562,-9.819231,-2.251328,0.300536,0.124228,0.111141,0.154893
1694639814109375,-9.776231,-2.249328,0.288536,0.124728,0.114741,0.170593
1694639814117187,-9.760231,-2.271328,0.283536,0.123328,0.120141,0.176793
1694639814125000,-9.828231,-2.239328,0.279536,0.132528,0.121541,0.176693
1694639814132812,-9.919231,-2.187328,0.231536,0.130828,0.122841,0.165693
1694639814140625,-9.902231,-2.176328,0.224536,0.141128,0.123741,0.148293
1694639814148437,-9.874231,-2.147328,0.172536,0.147328,0.141241,0.133793
1694639814156250,-9.880231,-2.80328,0.104536,0.162428,0.162441,0.120693
1694639814164062,-9.844231,-2.70328,0.42536,0.166628,0.171641,0.99993
1694639814171875,-9.757231,-2.129328,0.10536,0.187728,0.194141,0.80493
1694639814179687,-9.654231,-2.197328,0.28464,0.196828,0.191641,0.69593
1694639814187500,-9.619231,-2.215328,0.28464,0.191928,0.179141,0.51093
1694639814195312,-9.645231,-2.213328,0.64464,0.197828,0.172641,0.52693
1694639814203125,-9.667231,-2.244328,0.142464,0.187128,0.165641,0.45093
1694639814210937,-9.689231,-2.262328,0.180464,0.176328,0.162341,0.42093
1694639814218750,-9.737231,-2.214328,0.162464,0.177828,0.157341,0.42193
1694639814226562,-9.824231,-2.215328,0.139464,0.170028,0.150641,0.36093
1694639814234375,-9.884231,-2.239328,0.182464,0.185328,0.143541,0.39293
1694639814242187,-9.828231,-2.335328,0.167464,0.176428,0.154041,0.46993
1694639814250000,-9.780231,-2.376328,0.96464,0.168928,0.159341,0.50093
1694639814257812,-9.712231,-2.414328,0.58464,0.172028,0.149241,0.53493
1694639814265625,-9.663231,-2.477328,0.26464,0.161228,0.134241,0.52293
1694639814273437,-9.675231,-2.505328,0.1464,0.145728,0.136741,0.53793
1694639814281250,-9.720231,-2.506328,0.12464,0.126128,0.133441,0.52493
1694639814289062,-9.772231,-2.505328,0.26464,0.120128,0.135241,0.54093
1694639814296875,-9.801231,-2.509328,0.17464,0.106528,0.145441,0.52393
1694639814304687,-9.802231,-2.483328,0.21464,0.98628,0.142741,0.53993
1694639814312500,-9.750231,-2.432328,0.51464,0.86428,0.139541,0.54193
1694639814320312,-9.744231,-2.379328,0.55464,0.72828,0.156641,0.53893
1694639814328125,-9.785231,-2.333328,0.83464,0.74428,0.158141,0.53893
1694639814335937,-9.783231,-2.313328,0.135464,0.76028,0.168141,0.53693
1694639814343750,-9.754231,-2.308328,0.185464,0.74428,0.181941,0.53293
1694639814351562,-9.696231,-2.293328,0.210464,0.74528,0.188541,0.53193
1694639814359375,-9.639231,-2.280328,0.217464,0.74628,0.193441,0.51593
1694639814367187,-9.578231,-2.265328,0.242464,0.89828,0.189841,0.53093
1694639814375000,-9.521231,-2.291328,0.276464,0.91128,0.176441,0.51693
1694639814382812,-9.496231,-2.293328,0.276464,0.88228,0.176441,0.53393
1694639814390625,-9.462231,-2.318328,0.281464,0.77428,0.169941,0.51993
1694639814398437,-9.416231,-2.330328,0.290464,0.83628,0.144641,0.58793
1694639814406250,-9.390231,-2.333328,0.285464,0.72628,0.140341,0.60393
1694639814414062,-9.374231,-2.331328,0.274464,0.74028,0.128541,0.59093
1694639814421875,-9.360231,-2.338328,0.253464,0.72628,0.116941,0.67193
1694639814429687,-9.380231,-2.364328,0.226464,0.74328,0.106441,0.67593
1694639814437500,-9.457231,-2.338328,0.215464,0.69728,0.98441,0.72393
1694639814445312,-9.503231,-2.300328,0.203464,0.69628,0.97941,0.61493
1694639814453125,-9.564231,-2.278328,0.199464,0.74328,0.95941,0.61593
1694639814460937,-9.637231,-2.267328,0.196464,0.74228,0.101241,0.62993
1694639814468750,-9.598231,-2.303328,0.205464,0.81928,0.101241,0.67593
1694639814476562,-9.579231,-2.350328,0.176464,0.91128,0.97941,0.72293
1694639814484375,-9.574231,-2.367328,0.192464,0.88328,0.96141,0.77193
1694639814492187,-9.603231,-2.387328,0.206464,0.94328,0.89341,0.75693
1694639814500000,-9.580231,-2.432328,0.201464,0.86828,0.89141,0.72693
1694639814507812,-9.598231,-2.456328,0.204464,0.72928,0.94941,0.75693
1694639814515625,-9.630231,-2.431328,0.208464,0.75928,0.99441,0.66193
1694639814523437,-9.641231,-2.461328,0.194464,0.83428,0.93141,0.73993
1694639814531250,-9.707231,-2.485328,0.185464,0.74328,0.91941,0.77193
1694639814539062,-9.765231,-2.506328,0.208464,0.77528,0.93741,0.84993
1694639814546875,-9.773231,-2.543328,0.199464,0.74928,0.107541,0.97393
1694639814554687,-9.742231,-2.571328,0.197464,0.73528,0.113141,0.108193
1694639814562500,-9.698231,-2.603328,0.192464,0.75228,0.120641,0.123693
1694639814570312,-9.657231,-2.645328,0.204464,0.75528,0.123841,0.128393
1694639814578125,-9.652231,-2.659328,0.204464,0.75528,0.124141,0.133093
1694639814585937,-9.661231,-2.676328,0.231464,0.74128,0.125841,0.136293
1694639814593750,-9.622231,-2.700328,0.254464,0.70928,0.124441,0.136193
1694639814601562,-9.604231,-2.693328,0.254464,0.72928,0.129541,0.145593
1694639814609375,-9.577231,-2.658328,0.277464,0.74228,0.136041,0.137593
1694639814617187,-9.566231,-2.624328,0.256464,0.78628,0.135741,0.129693
1694639814625000,-9.583231,-2.591328,0.268464,0.86128,0.141941,0.120093
1694639814632812,-9.533231,-2.578328,0.286464,0.91928,0.156241,0.99293
1694639814640625,-9.501231,-2.576328,0.309464,0.102528,0.155241,0.86793
1694639814648437,-9.545231,-2.536328,0.336464,0.112928,0.149841,0.78893
1694639814656250,-9.547231,-2.533328,0.379464,0.128328,0.170641,0.67493
1694639814664062,-9.538231,-2.576328,0.429464,0.121628,0.167241,0.51793
1694639814671875,-9.568231,-2.613328,0.450464,0.137228,0.180241,0.56193
1694639814679687,-9.585231,-2.641328,0.514464,0.129528,0.191141,0.60593
1694639814687500,-9.582231,-2.654328,0.575464,0.143128,0.176041,0.65493
1694639814695312,-9.646231,-2.658328,0.591464,0.149328,0.175941,0.66993
1694639814703125,-9.657231,-2.662328,0.641464,0.160128,0.172241,0.71793
1694639814710937,-9.624231,-2.705328,0.680464,0.172528,0.177641,0.82593
1694639814718750,-9.585231,-2.743328,0.680464,0.174328,0.177741,0.93593
1694639814726562,-9.533231,-2.762328,0.680464,0.173028,0.173041,0.103193
1694639814734375,-9.472231,-2.787328,0.673464,0.182128,0.173341,0.109293
1694639814742187,-9.446231,-2.814328,0.667464,0.191428,0.162841,0.112693
1694639814750000,-9.376231,-2.836328,0.671464,0.194328,0.156541,0.115893
1694639814757812,-9.309231,-2.881328,0.626464,0.200428,0.150941,0.111293
1694639814765625,-9.291231,-2.921328,0.601464,0.197128,0.140841,0.106793
1694639814773437,-9.313231,-2.936328,0.581464,0.195628,0.125141,0.99393
1694639814781250,-9.358231,-2.991328,0.542464,0.196828,0.118541,0.94693
1694639814789062,-9.380231,-3.27328,0.514464,0.192128,0.110341,0.96493
1694639814796875,-9.428231,-3.44328,0.489464,0.186028,0.110441,0.94893
1694639814804687,-9.450231,-3.46328,0.460464,0.175328,0.100341,0.92093
1694639814812500,-9.479231,-3.43328,0.453464,0.170728,0.93241,0.86093
1694639814820312,-9.521231,-3.45328,0.444464,0.168928,0.95341,0.84293
1694639814828125,-9.534231,-3.31328,0.414464,0.152428,0.98341,0.79793
1694639814835937,-9.547231,-3.31328,0.367464,0.158428,0.96641,0.78193
1694639814843750,-9.638231,-3.14328,0.348464,0.150528,0.83041,0.69093
1694639814851562,-9.706231,-3.8328,0.353464,0.141328,0.79641,0.64593
1694639814859375,-9.724231,-3.19328,0.357464,0.126128,0.91841,0.65993
1694639814867187,-9.764231,-2.955328,0.348464,0.121128,0.90041,0.54993
1694639814875000,-9.805231,-2.871328,0.375464,0.119828,0.93041,0.53393
1694639814882812,-9.785231,-2.840328,0.423464,0.116828,0.113241,0.49893
1694639814890625,-9.695231,-2.842328,0.418464,0.107528,0.119841,0.38793
1694639814898437,-9.552231,-2.825328,0.382464,0.96928,0.118141,0.38993
1694639814906250,-9.503231,-2.793328,0.307464,0.95228,0.113541,0.40493
1694639814914062,-9.504231,-2.761328,0.298464,0.94928,0.104741,0.29693
1694639814921875,-9.497231,-2.728328,0.343464,0.79728,0.92841,0.25493
1694639814929687,-9.484231,-2.683328,0.327464,0.84228,0.92141,0.16093
1694639814937500,-9.448231,-2.641328,0.297464,0.86928,0.96741,0.1407
1694639814945312,-9.365231,-2.625328,0.307464,0.94228,0.95641,0.23307
1694639814953125,-9.360231,-2.627328,0.295464,0.96828,0.90141,0.39007
1694639814960937,-9.400231,-2.585328,0.313464,0.88828,0.90141,0.51607
1694639814968750,-9.463231,-2.559328,0.311464,0.90328,0.88041,0.56207
1694639814976562,-9.495231,-2.537328,0.329464,0.97728,0.90841,0.70507
1694639814984375,-9.503231,-2.501328,0.336464,0.94828,0.99441,0.66007
1694639814992187,-9.498231,-2.491328,0.343464,0.99728,0.101041,0.58107
1694639815000000,-9.514231,-2.496328,0.349464,0.99428,0.107641,0.66107
1694639815007812,-9.539231,-2.489328,0.388464,0.107328,0.118041,0.55407
1694639815015625,-9.507231,-2.501328,0.404464,0.118328,0.118141,0.42907
1694639815023437,-9.556231,-2.524328,0.375464,0.121628,0.105041,0.28507
1694639815031250,-9.625231,-2.531328,0.415464,0.120128,0.117941,0.11607
1694639815039062,-9.658231,-2.555328,0.441464,0.129528,0.117841,0.3707
1694639815046875,-9.669231,-2.584328,0.434464,0.135928,0.118841,0.21193
1694639815054687,-9.612231,-2.636328,0.434464,0.140728,0.124241,0.30493
1694639815062500,-9.554231,-2.710328,0.414464,0.147128,0.119541,0.47893
1694639815070312,-9.530231,-2.770328,0.403464,0.143028,0.122741,0.54293
1694639815078125,-9.527231,-2.823328,0.416464,0.141428,0.117741,0.52793
1694639815085937,-9.504231,-2.866328,0.409464,0.126228,0.120241,0.62193
1694639815093750,-9.526231,-2.895328,0.371464,0.129428,0.115241,0.68593
1694639815101562,-9.551231,-2.915328,0.373464,0.121828,0.108941,0.71893
1694639815109375,-9.603231,-2.918328,0.391464,0.120328,0.114041,0.73393
1694639815117187,-9.626231,-2.889328,0.398464,0.106528,0.117841,0.73393
1694639815125000,-9.599231,-2.890328,0.382464,0.106428,0.122841,0.70093
1694639815132812,-9.583231,-2.923328,0.359464,0.115628,0.132441,0.63593
1694639815140625,-9.551231,-2.971328,0.380464,0.101728,0.137941,0.61893
1694639815148437,-9.522231,-2.958328,0.405464,0.97228,0.141741,0.68093
1694639815156250,-9.486231,-2.923328,0.400464,0.98728,0.146041,0.55493
1694639815164062,-9.490231,-2.904328,0.432464,0.98828,0.147341,0.52393
1694639815171875,-9.523231,-2.858328,0.487464,0.98628,0.162341,0.42593
1694639815179687,-9.557231,-2.824328,0.532464,0.98328,0.175441,0.28193
1694639815187500,-9.605231,-2.803328,0.535464,0.97128,0.190141,0.26393
1694639815195312,-9.575231,-2.792328,0.589464,0.101628,0.195241,0.27793
1694639815203125,-9.532231,-2.833328,0.605464,0.98528,0.195741,0.30893
1694639815210937,-9.462231,-2.850328,0.639464,0.106328,0.195841,0.38693
1694639815218750,-9.380231,-2.887328,0.671464,0.118528,0.192541,0.44893
1694639815226562,-9.361231,-2.938328,0.676464,0.114028,0.182341,0.45193
1694639815234375,-9.412231,-2.989328,0.712464,0.114028,0.169341,0.54893
1694639815242187,-9.479231,-3.16328,0.767464,0.97728,0.162441,0.58493
1694639815250000,-9.549231,-3.38328,0.786464,0.99228,0.158041,0.71093
1694639815257812,-9.589231,-3.43328,0.797464,0.94428,0.164241,0.80193
1694639815265625,-9.633231,-3.42328,0.808464,0.95028,0.165941,0.94393
1694639815273437,-9.663231,-3.68328,0.824464,0.99628,0.171241,0.98893
1694639815281250,-9.635231,-3.78328,0.854464,0.98228,0.168241,0.108393
1694639815289062,-9.537231,-3.121328,0.859464,0.107628,0.171241,0.113093
1694639815296875,-9.473231,-3.178328,0.836464,0.107428,0.176641,0.111293
1694639815304687,-9.436231,-3.241328,0.831464,0.112028,0.164841,0.113093
1694639815312500,-9.388231,-3.295328,0.854464,0.114828,0.149541,0.110293
1694639815320312,-9.310231,-3.336328,0.866464,0.97928,0.142941,0.102693
1694639815328125,-9.321231,-3.360328,0.816464,0.100928,0.135941,0.99693
1694639815335937,-9.373231,-3.366328,0.805464,0.90228,0.125741,0.95293
1694639815343750,-9.419231,-3.351328,0.841464,0.78928,0.117141,0.74993
1694639815351562,-9.451231,-3.309328,0.839464,0.79128,0.119641,0.68893
1694639815359375,-9.430231,-3.298328,0.802464,0.75828,0.120841,0.53193
1694639815367187,-9.374231,-3.324328,0.789464,0.83128,0.120241,0.38993
1694639815375000,-9.333231,-3.329328,0.791464,0.84428,0.131541,0.22993
1694639815382812,-9.272231,-3.327328,0.789464,0.75028,0.134241,0.5793
1694639815390625,-9.231231,-3.324328,0.816464,0.74528,0.135241,0.17907
1694639815398437,-9.204231,-3.335328,0.843464,0.72928,0.131341,0.27107
1694639815406250,-9.226231,-3.353328,0.861464,0.68128,0.121241,0.33207
1694639815414062,-9.281231,-3.336328,0.886464,0.48228,0.119741,0.39307
1694639815421875,-9.300231,-3.306328,0.893464,0.43428,0.110441,0.33007
1694639815429687,-9.383231,-3.266328,0.884464,0.28628,0.107341,0.23207
1694639815437500,-9.364231,-3.233328,0.909464,0.24028,0.109141,0.21707
1694639815445312,-9.357231,-3.245328,0.875464,0.31428,0.109641,0.18807
1694639815453125,-9.362231,-3.235328,0.888464,0.33128,0.116241,0.17307
1694639815460937,-9.343231,-3.269328,0.900464,0.31728,0.119241,0.20407
1694639815468750,-9.327231,-3.305328,0.902464,0.28528,0.112741,0.18707
1694639815476562,-9.317231,-3.300328,0.927464,0.24128,0.117541,0.21807
1694639815484375,-9.286231,-3.298328,0.941464,0.16428,0.112741,0.20107
1694639815492187,-9.288231,-3.292328,0.977464,0.672,0.102941,0.27707
1694639815500000,-9.336231,-3.252328,1.41464,0.8272,0.104641,0.30807
1694639815507812,-9.380231,-3.215328,1.82464,0.17472,0.99841,0.30707
1694639815515625,-9.374231,-3.142328,1.118464,0.25372,0.108041,0.43407
1694639815523437,-9.336231,-3.98328,1.138464,0.20972,0.102741,0.49607
1694639815531250,-9.316231,-3.89328,1.150464,0.23972,0.96841,0.61907
1694639815539062,-9.292231,-3.61328,1.179464,0.27672,0.93841,0.73007
1694639815546875,-9.268231,-3.24328,1.188464,0.28072,0.91441,0.93407
1694639815554687,-9.259231,-2.979328,1.191464,0.26672,0.85041,0.115107
1694639815562500,-9.282231,-2.932328,1.182464,0.31472,0.76241,0.125907
1694639815570312,-9.362231,-2.852328,1.170464,0.30272,0.68841,0.141407
1694639815578125,-9.451231,-2.760328,1.190464,0.30172,0.60641,0.138107
1694639815585937,-9.486231,-2.693328,1.217464,0.28772,0.67041,0.144507
1694639815593750,-9.496231,-2.632328,1.201464,0.25572,0.75241,0.144707
1694639815601562,-9.646231,-2.536328,1.172464,0.11572,0.86841,0.137107
1694639815609375,-9.784231,-2.445328,1.208464,0.2128,0.96941,0.135907
1694639815617187,-9.770231,-2.468328,1.310464,0.20728,0.118541,0.128607
1694639815625000,-9.688231,-2.507328,1.353464,0.20928,0.137741,0.118107
1694639815632812,-9.588231,-2.512328,1.374464,0.39828,0.137541,0.100807
1694639815640625,-9.551231,-2.538328,1.408464,0.59728,0.134641,0.83707
1694639815648437,-9.528231,-2.583328,1.495464,0.68928,0.136141,0.82207
1694639815656250,-9.549231,-2.567328,1.575464,0.72028,0.131641,0.71207
1694639815664062,-9.545231,-2.521328,1.615464,0.73728,0.132141,0.60207
1694639815671875,-9.494231,-2.491328,1.640464,0.81328,0.129041,0.54007
1694639815679687,-9.435231,-2.462328,1.672464,0.112028,0.118141,0.49207
1694639815687500,-9.374231,-2.423328,1.693464,0.119528,0.121941,0.43107
1694639815695312,-9.326231,-2.405328,1.693464,0.147428,0.112741,0.33507
1694639815703125,-9.242231,-2.451328,1.668464,0.171928,0.110341,0.35207
1694639815710937,-9.173231,-2.533328,1.629464,0.182128,0.93641,0.38207
1694639815718750,-9.100231,-2.634328,1.602464,0.197128,0.62941,0.42307
1694639815726562,-9.78231,-2.703328,1.543464,0.188028,0.52941,0.40407
1694639815734375,-9.153231,-2.745328,1.488464,0.186128,0.31441,0.41707
1694639815742187,-9.168231,-2.829328,1.436464,0.177028,0.8041,0.37907
1694639815750000,-9.152231,-2.924328,1.348464,0.168128,0.11859,0.26307
1694639815757812,-9.125231,-2.907328,1.264464,0.148428,0.32759,0.11607
1694639815765625,-9.46231,-2.876328,1.154464,0.125728,0.52459,0.4707
1694639815773437,-9.80231,-2.841328,1.11464,0.121328,0.80759,0.8593
1694639815781250,-9.309231,-2.745328,0.887464,0.97928,0.94959,0.5693
1694639815789062,-9.775231,-2.619328,0.787464,0.100728,0.118559,0.1493
1694639815796875,-10.203231,-2.513328,0.697464,0.110828,0.147759,0.13707
1694639815804687,-10.270231,-2.502328,0.632464,0.114128,0.153459,0.15107
1694639815812500,-10.57231,-2.536328,0.491464,0.115728,0.140259,0.18507
1694639815820312,-9.815231,-2.517328,0.342464,0.114328,0.131259,0.7707
1694639815828125,-9.634231,-2.503328,0.231464,0.120528,0.124759,0.7807
1694639815835937,-9.588231,-2.525328,0.190464,0.135728,0.127259,0.17307
1694639815843750,-9.601231,-2.602328,0.206464,0.147728,0.110659,0.24107
1694639815851562,-9.630231,-2.650328,0.204464,0.144628,0.102559,0.32107
1694639815859375,-9.704231,-2.660328,0.213464,0.144828,0.87259,0.26107
1694639815867187,-9.763231,-2.682328,0.270464,0.140228,0.76859,0.26307
1694639815875000,-9.799231,-2.695328,0.343464,0.128228,0.66359,0.20207
1694639815882812,-9.760231,-2.723328,0.386464,0.129828,0.52659,0.15807
1694639815890625,-9.605231,-2.754328,0.452464,0.121128,0.31859,0.2007
1694639815898437,-9.522231,-2.697328,0.489464,0.121528,0.22759,0.16593
1694639815906250,-9.383231,-2.603328,0.575464,0.120028,0.6359,0.6893
1694639815914062,-9.238231,-2.591328,0.646464,0.118428,0.3059,0.5293
1694639815921875,-9.200231,-2.561328,0.698464,0.116728,0.11259,0.2193
1694639815929687,-9.167231,-2.495328,0.762464,0.115128,0.11459,0.2507
1694639815937500,-9.122231,-2.488328,0.769464,0.118228,0.17159,0.8507
1694639815945312,-9.159231,-2.437328,0.782464,0.119628,0.20559,0.11607
1694639815953125,-9.196231,-2.405328,0.796464,0.133028,0.30759,0.14707
1694639815960937,-9.213231,-2.445328,0.764464,0.152728,0.34759,0.21107
1694639815968750,-9.267231,-2.473328,0.723464,0.168128,0.30259,0.21207
1694639815976562,-9.348231,-2.528328,0.677464,0.167728,0.36859,0.29007
1694639815984375,-9.472231,-2.618328,0.607464,0.180028,0.45559,0.25707
1694639815992187,-9.561231,-2.678328,0.562464,0.183428,0.52459,0.16107
1694639816000000,-9.631231,-2.742328,0.482464,0.175828,0.46859,0.11507
1694639816007812,-9.684231,-2.806328,0.398464,0.166628,0.39659,0.8507
1694639816015625,-9.662231,-2.874328,0.309464,0.170928,0.42159,0.793
1694639816023437,-9.631231,-2.925328,0.234464,0.162428,0.51959,0.18493
1694639816031250,-9.604231,-2.934328,0.148464,0.135128,0.49359,0.26493
1694639816039062,-9.628231,-2.935328,0.45464,0.123028,0.65859,0.33193
1694639816046875,-9.690231,-2.926328,0.43536,0.113628,0.73559,0.34893
1694639816054687,-9.724231,-2.907328,0.72536,0.95728,0.74759,0.46093
1694639816062500,-9.693231,-2.883328,0.125536,0.94328,0.65659,0.58393
1694639816070312,-9.711231,-2.865328,0.200536,0.88328,0.64159,0.56893
1694639816078125,-9.763231,-2.857328,0.232536,0.88628,0.60759,0.63193
1694639816085937,-9.720231,-2.869328,0.198536,0.73528,0.48159,0.73993
1694639816093750,-9.665231,-2.856328,0.191536,0.72228,0.31459,0.75293
1694639816101562,-9.628231,-2.790328,0.170536,0.73728,0.12759,0.74793
1694639816109375,-9.608231,-2.743328,0.109536,0.73628,0.6359,0.66793
1694639816117187,-9.618231,-2.706328,0.25536,0.71928,0.18541,0.52093
1694639816125000,-9.648231,-2.648328,0.72464,0.76428,0.39741,0.37493
1694639816132812,-9.698231,-2.575328,0.165464,0.87128,0.62041,0.19793
1694639816140625,-9.681231,-2.531328,0.268464,0.94528,0.69741,0.5493
1694639816148437,-9.633231,-2.516328,0.329464,0.97428,0.74141,0.8707
1694639816156250,-9.590231,-2.501328,0.370464,0.108328,0.89441,0.1307
1694639816164062,-9.525231,-2.490328,0.393464,0.123328,0.89741,0.4693
1694639816171875,-9.502231,-2.493328,0.418464,0.142128,0.67441,0.16193
1694639816179687,-9.509231,-2.514328,0.425464,0.145228,0.59441,0.27293
1694639816187500,-9.531231,-2.551328,0.429464,0.162228,0.49841,0.47793
1694639816195312,-9.537231,-2.604328,0.414464,0.171628,0.48041,0.55693
1694639816203125,-9.559231,-2.655328,0.361464,0.171828,0.35041,0.70093
1694639816210937,-9.574231,-2.738328,0.316464,0.176328,0.32541,0.82593
1694639816218750,-9.578231,-2.816328,0.241464,0.176628,0.38141,0.98193
1694639816226562,-9.610231,-2.886328,0.200464,0.181628,0.31841,0.117193
1694639816234375,-9.587231,-2.949328,0.155464,0.178828,0.33741,0.124993
1694639816242187,-9.550231,-3.37328,0.107464,0.171128,0.41341,0.132693
1694639816250000,-9.551231,-3.86328,0.109464,0.172828,0.36441,0.142193
1694639816257812,-9.540231,-3.104328,0.127464,0.171428,0.55441,0.146493
1694639816265625,-9.501231,-3.100328,0.134464,0.173028,0.61441,0.136993
1694639816273437,-9.477231,-3.85328,0.171464,0.171228,0.86741,0.126893
1694639816281250,-9.509231,-3.78328,0.205464,0.172328,0.98141,0.110893
1694639816289062,-9.533231,-3.88328,0.260464,0.170928,0.110041,0.87293
1694639816296875,-9.562231,-3.124328,0.335464,0.166128,0.131741,0.74293
1694639816304687,-9.533231,-3.107328,0.433464,0.153628,0.146641,0.56693
1694639816312500,-9.460231,-3.101328,0.474464,0.147728,0.161341,0.51793
1694639816320312,-9.490231,-3.85328,0.494464,0.146228,0.179941,0.51393
1694639816328125,-9.597231,-3.32328,0.597464,0.140228,0.178141,0.48393
1694639816335937,-9.627231,-3.46328,0.733464,0.129428,0.184041,0.52893
1694639816343750,-9.535231,-3.103328,0.763464,0.123428,0.200741,0.51093
1694639816351562,-9.389231,-3.163328,0.738464,0.122128,0.194641,0.66893
1694639816359375,-9.311231,-3.206328,0.722464,0.121128,0.163541,0.97493
1694639816367187,-9.302231,-3.247328,0.741464,0.104428,0.144941,0.121493
1694639816375000,-9.313231,-3.270328,0.752464,0.98828,0.133641,0.139093
1694639816382812,-9.341231,-3.260328,0.729464,0.84928,0.119641,0.150393
1694639816390625,-9.346231,-3.269328,0.693464,0.91128,0.102141,0.172593
1694639816398437,-9.347231,-3.299328,0.661464,0.76228,0.103841,0.177493
1694639816406250,-9.390231,-3.294328,0.618464,0.83928,0.98641,0.179193
1694639816414062,-9.394231,-3.327328,0.611464,0.88428,0.96941,0.180693
1694639816421875,-9.412231,-3.338328,0.581464,0.97728,0.99941,0.179093
1694639816429687,-9.463231,-3.382328,0.586464,0.100628,0.106541,0.174193
1694639816437500,-9.476231,-3.444328,0.607464,0.100528,0.115741,0.156793
1694639816445312,-9.421231,-3.481328,0.650464,0.97328,0.129241,0.150193
1694639816453125,-9.339231,-3.509328,0.652464,0.89528,0.130441,0.136093
1694639816460937,-9.282231,-3.516328,0.705464,0.75628,0.133441,0.121993
1694639816468750,-9.242231,-3.499328,0.784464,0.75128,0.124641,0.104893
1694639816476562,-9.240231,-3.434328,0.837464,0.74828,0.133441,0.76493
1694639816484375,-9.203231,-3.378328,0.882464,0.72828,0.141741,0.62093
1694639816492187,-9.178231,-3.387328,0.907464,0.75728,0.134641,0.54293
1694639816500000,-9.212231,-3.375328,0.934464,0.74228,0.133941,0.43493
1694639816507812,-9.258231,-3.350328,0.959464,0.80028,0.125041,0.29493
1694639816515625,-9.298231,-3.354328,0.953464,0.80028,0.116241,0.26593
1694639816523437,-9.312231,-3.374328,0.925464,0.91928,0.104241,0.21993
1694639816531250,-9.296231,-3.392328,0.912464,0.88828,0.94441,0.23793
1694639816539062,-9.239231,-3.402328,0.857464,0.80928,0.67741,0.22793
1694639816546875,-9.207231,-3.381328,0.803464,0.75128,0.45341,0.23493
1694639816554687,-9.203231,-3.345328,0.752464,0.76228,0.23341,0.17593
1694639816562500,-9.217231,-3.321328,0.672464,0.71328,0.9741,0.6893
1694639816570312,-9.270231,-3.259328,0.618464,0.69828,0.3959,0.5693
1694639816578125,-9.321231,-3.212328,0.567464,0.72528,0.12459,0.3607
1694639816585937,-9.380231,-3.149328,0.510464,0.76928,0.11459,0.16207
1694639816593750,-9.462231,-3.121328,0.476464,0.86128,0.16859,0.16107
1694639816601562,-9.497231,-3.119328,0.465464,0.91928,0.4559,0.15007
1694639816609375,-9.497231,-3.67328,0.451464,0.101328,0.6741,0.15307
1694639816617187,-9.493231,-3.34328,0.426464,0.110528,0.14741,0.20207
1694639816625000,-9.500231,-3.7328,0.414464,0.133328,0.29341,0.23807
1694639816632812,-9.554231,-2.997328,0.417464,0.147228,0.35641,0.22407
1694639816640625,-9.615231,-3.21328,0.430464,0.167028,0.36741,0.25707
1694639816648437,-9.556231,-3.39328,0.449464,0.170128,0.48441,0.27507
1694639816656250,-9.425231,-3.53328,0.433464,0.171428,0.52141,0.27807
1694639816664062,-9.360231,-3.76328,0.403464,0.174328,0.52441,0.24707
1694639816671875,-9.359231,-3.89328,0.394464,0.183528,0.38441,0.29107
1694639816679687,-9.422231,-3.82328,0.424464,0.180328,0.32941,0.38407
1694639816687500,-9.495231,-3.56328,0.421464,0.175828,0.38041,0.38507
1694639816695312,-9.534231,-3.40328,0.396464,0.194128,0.37741,0.38607
1694639816703125,-9.516231,-3.49328,0.373464,0.195528,0.35841,0.41707
1694639816710937,-9.436231,-3.68328,0.357464,0.195628,0.39441,0.37007
1694639816718750,-9.369231,-3.53328,0.326464,0.191028,0.41441,0.34007
1694639816726562,-9.330231,-3.53328,0.292464,0.203528,0.37741,0.27607
1694639816734375,-9.312231,-3.60328,0.276464,0.197228,0.29041,0.38307
1694639816742187,-9.280231,-3.72328,0.282464,0.204528,0.25441,0.46207
1694639816750000,-9.214231,-3.87328,0.248464,0.207428,0.22241,0.44707
1694639816757812,-9.173231,-3.82328,0.205464,0.190628,0.8741,0.48907
1694639816765625,-9.165231,-3.80328,0.169464,0.193328,0.6959,0.64307
1694639816773437,-9.178231,-3.57328,0.162464,0.191728,0.17359,0.68707
1694639816781250,-9.224231,-3.26328,0.148464,0.187128,0.19059,0.70207
1694639816789062,-9.290231,-2.992328,0.100464,0.180828,0.25259,0.68607
1694639816796875,-9.352231,-2.989328,0.82464,0.168528,0.24959,0.70107
1694639816804687,-9.387231,-3.8328,0.86464,0.171928,0.21859,0.67007
1694639816812500,-9.448231,-3.29328,0.66464,0.169128,0.5959,0.51607
1694639816820312,-9.503231,-3.44328,0.73464,0.169528,0.1759,0.31307
1694639816828125,-9.556231,-3.79328,0.98464,0.168228,0.11941,0.22107
1694639816835937,-9.613231,-3.99328,0.98464,0.166928,0.9541,0.4907
1694639816843750,-9.678231,-3.118328,0.102464,0.148828,0.6841,0.6293
1694639816851562,-9.753231,-3.133328,0.127464,0.144628,0.19341,0.23293
1694639816859375,-9.785231,-3.128328,0.141464,0.144928,0.32341,0.46493
1694639816867187,-9.784231,-3.168328,0.137464,0.146928,0.42341,0.57393
1694639816875000,-9.742231,-3.220328,0.141464,0.139428,0.54341,0.58793
1694639816882812,-9.670231,-3.252328,0.134464,0.130128,0.62041,0.64793
1694639816890625,-9.626231,-3.279328,0.132464,0.124528,0.79341,0.80293
1694639816898437,-9.597231,-3.280328,0.130464,0.121528,0.85941,0.78593
1694639816906250,-9.517231,-3.321328,0.144464,0.123128,0.101041,0.78293
1694639816914062,-9.431231,-3.322328,0.153464,0.119928,0.106241,0.74993
1694639816921875,-9.359231,-3.298328,0.183464,0.121628,0.112641,0.73293
1694639816929687,-9.307231,-3.301328,0.205464,0.122828,0.110241,0.54493
1694639816937500,-9.304231,-3.304328,0.265464,0.122828,0.120441,0.54293
1694639816945312,-9.307231,-3.270328,0.319464,0.121428,0.134841,0.43093
1694639816953125,-9.321231,-3.237328,0.349464,0.136228,0.134241,0.28793
1694639816960937,-9.351231,-3.221328,0.399464,0.148228,0.138741,0.17593
1694639816968750,-9.351231,-3.226328,0.465464,0.149428,0.143441,0.4893
1694639816976562,-9.358231,-3.199328,0.488464,0.148028,0.141441,0.3393
1694639816984375,-9.364231,-3.183328,0.506464,0.163328,0.147141,0.7707
1694639816992187,-9.384231,-3.209328,0.535464,0.172528,0.148741,0.6207
1694639817000000,-9.373231,-3.225328,0.570464,0.169328,0.147141,0.7807
1694639817007812,-9.300231,-3.264328,0.572464,0.170828,0.143641,0.9307
1694639817015625,-9.252231,-3.287328,0.545464,0.167528,0.138541,0.15507
1694639817023437,-9.240231,-3.312328,0.547464,0.164528,0.123141,0.18207
1694639817031250,-9.243231,-3.339328,0.538464,0.167228,0.117241,0.12007
1694639817039062,-9.274231,-3.372328,0.508464,0.156828,0.102141,0.5207
1694639817046875,-9.307231,-3.404328,0.479464,0.143228,0.95541,0.3307
1694639817054687,-9.312231,-3.427328,0.468464,0.124928,0.76341,0.9693
1694639817062500,-9.403231,-3.404328,0.442464,0.118728,0.71941,0.14493
1694639817070312,-9.553231,-3.337328,0.442464,0.108028,0.76941,0.8193
1694639817078125,-9.610231,-3.345328,0.465464,0.108028,0.90541,0.9393
1694639817085937,-9.577231,-3.401328,0.449464,0.109828,0.102541,0.16993
1694639817093750,-9.464231,-3.418328,0.410464,0.99328,0.101441,0.28093
1694639817101562,-9.368231,-3.433328,0.367464,0.97928,0.100041,0.35993
1694639817109375,-9.360231,-3.438328,0.347464,0.93328,0.95441,0.39193
1694639817117187,-9.382231,-3.444328,0.408464,0.77728,0.88841,0.29993
1694639817125000,-9.389231,-3.451328,0.447464,0.73128,0.88341,0.20693
1694639817132812,-9.386231,-3.446328,0.456464,0.72928,0.89141,0.1893
1694639817140625,-9.403231,-3.431328,0.467464,0.71028,0.92341,0.10807
1694639817148437,-9.419231,-3.424328,0.501464,0.66228,0.103941,0.23707
1694639817156250,-9.376231,-3.425328,0.526464,0.50628,0.93941,0.32807
1694639817164062,-9.321231,-3.405328,0.508464,0.46328,0.101941,0.36007
1694639817171875,-9.288231,-3.365328,0.495464,0.47628,0.93141,0.45207
1694639817179687,-9.272231,-3.338328,0.511464,0.46128,0.87741,0.51307
1694639817187500,-9.291231,-3.307328,0.515464,0.35128,0.87741,0.62307
1694639817195312,-9.296231,-3.258328,0.522464,0.27528,0.75541,0.68107
1694639817203125,-9.242231,-3.212328,0.538464,0.28828,0.67541,0.66507
1694639817210937,-9.211231,-3.163328,0.508464,0.31928,0.58241,0.75607
1694639817218750,-9.198231,-3.134328,0.512464,0.34728,0.54941,0.77207
1694639817226562,-9.189231,-3.137328,0.542464,0.46828,0.47841,0.80307
1694639817234375,-9.185231,-3.94328,0.551464,0.45328,0.36141,0.80007
1694639817242187,-9.172231,-3.68328,0.542464,0.48128,0.34441,0.83207
1694639817250000,-9.252231,-3.50328,0.537464,0.47928,0.31241,0.86407
1694639817257812,-9.325231,-3.43328,0.565464,0.52928,0.25041,0.89107
1694639817265625,-9.359231,-3.45328,0.556464,0.62028,0.11641,0.84207
1694639817273437,-9.374231,-3.36328,0.533464,0.69528,0.11941,0.82807
1694639817281250,-9.351231,-3.45328,0.510464,0.66328,0.8641,0.84307
1694639817289062,-9.386231,-3.64328,0.483464,0.59028,0.5341,0.77807
1694639817296875,-9.425231,-3.57328,0.471464,0.66628,0.6459,0.74507
1694639817304687,-9.452231,-3.75328,0.446464,0.63528,0.17759,0.68007
1694639817312500,-9.495231,-3.85328,0.396464,0.68228,0.11359,0.69707
1694639817320312,-9.497231,-3.79328,0.362464,0.56028,0.19159,0.63207
1694639817328125,-9.506231,-3.89328,0.324464,0.62628,0.17759,0.52107
1694639817335937,-9.540231,-3.93328,0.289464,0.62528,0.5659,0.50807
1694639817343750,-9.537231,-3.99328,0.271464,0.58228,0.459,0.46207
1694639817351562,-9.510231,-3.90328,0.237464,0.66028,0.2459,0.43007
1694639817359375,-9.515231,-3.63328,0.189464,0.69028,0.859,0.44607
1694639817367187,-9.577231,-3.16328,0.196464,0.72128,0.12641,0.43307
1694639817375000,-9.574231,-3.16328,0.223464,0.70728,0.20741,0.48207
1694639817382812,-9.586231,-3.45328,0.209464,0.71928,0.33041,0.48607
1694639817390625,-9.527231,-3.32328,0.205464,0.73728,0.36141,0.47007
1694639817398437,-9.498231,-3.37328,0.191464,0.79628,0.41141,0.50407
1694639817406250,-9.495231,-3.41328,0.203464,0.72128,0.37541,0.51707
1694639817414062,-9.515231,-3.37328,0.232464,0.73628,0.52741,0.55307
1694639817421875,-9.541231,-3.22328,0.241464,0.72028,0.54841,0.50707
1694639817429687,-9.537231,-2.993328,0.253464,0.73628,0.59741,0.50707
1694639817437500,-9.526231,-2.946328,0.278464,0.90328,0.64241,0.57207
1694639817445312,-9.512231,-2.924328,0.298464,0.95028,0.75741,0.59007
1694639817453125,-9.481231,-2.913328,0.314464,0.104028,0.92141,0.67307
1694639817460937,-9.449231,-2.924328,0.321464,0.119328,0.89741,0.72007
1694639817468750,-9.406231,-2.921328,0.321464,0.120728,0.101241,0.81707
1694639817476562,-9.393231,-2.919328,0.309464,0.119028,0.89941,0.78407
1694639817484375,-9.363231,-2.941328,0.316464,0.126628,0.87641,0.83107
1694639817492187,-9.358231,-2.952328,0.328464,0.145028,0.83741,0.83007
1694639817500000,-9.363231,-2.957328,0.332464,0.146428,0.77441,0.78307
1694639817507812,-9.356231,-2.975328,0.330464,0.144828,0.70741,0.79707
1694639817515625,-9.380231,-2.999328,0.314464,0.143228,0.73541,0.90707
1694639817523437,-9.427231,-3.61328,0.321464,0.144828,0.64841,0.92107
1694639817531250,-9.453231,-3.107328,0.346464,0.145028,0.60141,0.80907
1694639817539062,-9.455231,-3.143328,0.342464,0.135928,0.60641,0.76207
1694639817546875,-9.442231,-3.132328,0.324464,0.129728,0.57841,0.69907
1694639817554687,-9.440231,-3.150328,0.319464,0.121928,0.53141,0.71407
1694639817562500,-9.441231,-3.167328,0.326464,0.119128,0.49041,0.77407
1694639817570312,-9.426231,-3.150328,0.326464,0.117628,0.51441,0.64907
1694639817578125,-9.437231,-3.128328,0.292464,0.103928,0.45341,0.58507
1694639817585937,-9.458231,-3.116328,0.280464,0.99428,0.47541,0.50707
1694639817593750,-9.445231,-3.78328,0.266464,0.93528,0.46141,0.44307
1694639817601562,-9.463231,-3.58328,0.255464,0.85828,0.39741,0.41007
1694639817609375,-9.522231,-3.30328,0.257464,0.93928,0.53441,0.25607
1694639817617187,-9.554231,-3.32328,0.264464,0.96928,0.65241,0.27507
1694639817625000,-9.547231,-3.55328,0.253464,0.92228,0.68641,0.30707
1694639817632812,-9.548231,-3.94328,0.239464,0.75528,0.69741,0.44607
1694639817640625,-9.582231,-3.128328,0.248464,0.72328,0.75141,0.46307
1694639817648437,-9.662231,-3.140328,0.271464,0.70728,0.83641,0.46607
1694639817656250,-9.598231,-3.99328,0.287464,0.72328,0.96641,0.53007
1694639817664062,-9.465231,-3.78328,0.267464,0.70528,0.94341,0.70307
1694639817671875,-9.418231,-3.56328,0.257464,0.72028,0.88741,0.76407
1694639817679687,-9.493231,-3.13328,0.301464,0.70128,0.83341,0.92007
1694639817687500,-9.540231,-3.5328,0.317464,0.88328,0.82341,0.103007
1694639817695312,-9.546231,-2.963328,0.314464,0.97428,0.87141,0.107907
1694639817703125,-9.508231,-2.906328,0.312464,0.100228,0.85441,0.112707
1694639817710937,-9.474231,-2.886328,0.316464,0.112328,0.83041,0.120507
1694639817718750,-9.461231,-2.846328,0.314464,0.118428,0.89541,0.123907
1694639817726562,-9.494231,-2.811328,0.318464,0.118128,0.84341,0.133207
1694639817734375,-9.460231,-2.793328,0.348464,0.122828,0.84241,0.130107
1694639817742187,-9.395231,-2.740328,0.348464,0.118128,0.88741,0.142607
1694639817750000,-9.445231,-2.672328,0.355464,0.124328,0.88841,0.136407
1694639817757812,-9.446231,-2.622328,0.382464,0.119828,0.87741,0.128607
1694639817765625,-9.410231,-2.591328,0.384464,0.121128,0.90741,0.138107
1694639817773437,-9.434231,-2.551328,0.393464,0.125728,0.90841,0.136607
1694639817781250,-9.456231,-2.516328,0.425464,0.119728,0.85341,0.141007
1694639817789062,-9.461231,-2.510328,0.416464,0.124428,0.87341,0.131707
1694639817796875,-9.490231,-2.548328,0.391464,0.122728,0.82741,0.130107
1694639817804687,-9.610231,-2.568328,0.418464,0.119628,0.77641,0.131507
1694639817812500,-9.621231,-2.602328,0.470464,0.118328,0.87941,0.123907
1694639817820312,-9.694231,-2.710328,0.459464,0.118428,0.81241,0.120507
1694639817828125,-9.770231,-2.758328,0.455464,0.94328,0.67441,0.98107
1694639817835937,-9.682231,-2.752328,0.427464,0.71828,0.62041,0.75907
1694639817843750,-9.542231,-2.809328,0.336464,0.70128,0.50241,0.53907
1694639817851562,-9.526231,-2.831328,0.275464,0.71728,0.40541,0.44207
1694639817859375,-9.562231,-2.835328,0.247464,0.53528,0.27341,0.40607
1694639817867187,-9.626231,-2.793328,0.218464,0.46028,0.23941,0.38907
1694639817875000,-9.638231,-2.733328,0.193464,0.47728,0.33941,0.37507
1694639817882812,-9.622231,-2.733328,0.156464,0.46428,0.52441,0.36307
1694639817890625,-9.709231,-2.780328,0.131464,0.48228,0.63141,0.19207
1694639817898437,-9.789231,-2.762328,0.154464,0.51628,0.85541,0.7207
1694639817906250,-9.739231,-2.785328,0.172464,0.62428,0.102541,0.1407
1694639817914062,-9.775231,-2.812328,0.179464,0.57728,0.123041,0.5107
1694639817921875,-9.835231,-2.764328,0.293464,0.51628,0.139941,0.6907
1694639817929687,-9.848231,-2.739328,0.370464,0.59728,0.145941,0.5407
1694639817937500,-9.903231,-2.694328,0.418464,0.61028,0.171241,0.12307
1694639817945312,-9.899231,-2.698328,0.518464,0.63728,0.196341,0.27107
1694639817953125,-9.763231,-2.661328,0.639464,0.53328,0.217241,0.41407
1694639817960937,-9.593231,-2.507328,0.702464,0.42228,0.225441,0.58907
1694639817968750,-9.515231,-2.386328,0.770464,0.61428,0.221841,0.96607
1694639817976562,-9.548231,-2.330328,0.905464,0.73228,0.218841,0.121707
1694639817984375,-9.604231,-2.306328,1.7464,0.87028,0.211541,0.124707
1694639817992187,-9.608231,-2.244328,1.64464,0.108228,0.211341,0.123407
1694639818000000,-9.557231,-2.161328,1.95464,0.129328,0.207741,0.125107
1694639818007812,-9.509231,-2.137328,1.98464,0.158428,0.186841,0.121607
1694639818015625,-9.487231,-2.129328,1.116464,0.176628,0.180241,0.115407
1694639818023437,-9.427231,-2.187328,1.109464,0.196528,0.168041,0.112107
1694639818031250,-9.370231,-2.246328,1.52464,0.211728,0.152941,0.105607
1694639818039062,-9.319231,-2.284328,0.996464,0.221128,0.134141,0.98907
1694639818046875,-9.247231,-2.321328,0.957464,0.230028,0.112241,0.97007
1694639818054687,-9.384231,-2.393328,0.889464,0.236128,0.94241,0.87307
1694639818062500,-9.392231,-2.418328,0.844464,0.242728,0.65141,0.75407
1694639818070312,-9.385231,-2.433328,0.748464,0.243028,0.56041,0.51707
1694639818078125,-9.544231,-2.454328,0.634464,0.241228,0.44641,0.50007
1694639818085937,-9.705231,-2.522328,0.600464,0.243228,0.34841,0.30807
1694639818093750,-9.769231,-2.502328,0.534464,0.228228,0.41041,0.15207
1694639818101562,-9.758231,-2.493328,0.447464,0.216028,0.49541,0.18507
1694639818109375,-9.737231,-2.556328,0.406464,0.218728,0.34441,0.23007
1694639818117187,-9.714231,-2.605328,0.390464,0.190828,0.27741,0.39907
1694639818125000,-9.739231,-2.627328,0.352464,0.168028,0.24341,0.45907
1694639818132812,-9.768231,-2.629328,0.322464,0.146628,0.24941,0.45807
1694639818140625,-9.802231,-2.633328,0.338464,0.134528,0.13541,0.40807
1694639818148437,-9.777231,-2.636328,0.347464,0.120728,0.22641,0.36207
1694639818156250,-9.801231,-2.607328,0.322464,0.117628,0.21641,0.28407
1694639818164062,-9.795231,-2.513328,0.313464,0.107328,0.28841,0.15907
1694639818171875,-9.802231,-2.488328,0.292464,0.121328,0.48541,0.14807
1694639818179687,-9.777231,-2.446328,0.317464,0.118528,0.60841,0.4007
1694639818187500,-9.728231,-2.433328,0.344464,0.130928,0.89741,0.4593
1694639818195312,-9.673231,-2.447328,0.356464,0.149428,0.95841,0.4393
1694639818203125,-9.583231,-2.479328,0.369464,0.166128,0.106841,0.19593
1694639818210937,-9.487231,-2.508328,0.381464,0.171128,0.104841,0.29193
1694639818218750,-9.463231,-2.566328,0.420464,0.171128,0.103441,0.32293
1694639818226562,-9.481231,-2.642328,0.459464,0.168228,0.98841,0.43393
1694639818234375,-9.435231,-2.660328,0.495464,0.153228,0.99541,0.54593
1694639818242187,-9.349231,-2.664328,0.495464,0.147028,0.89541,0.53193
1694639818250000,-9.326231,-2.651328,0.507464,0.122628,0.70041,0.60093
1694639818257812,-9.340231,-2.657328,0.534464,0.119628,0.58541,0.65093
1694639818265625,-9.331231,-2.649328,0.532464,0.102728,0.57341,0.63593
1694639818273437,-9.339231,-2.604328,0.513464,0.98028,0.37541,0.67093
1694639818281250,-9.366231,-2.538328,0.479464,0.89128,0.26641,0.62893
1694639818289062,-9.378231,-2.505328,0.459464,0.88728,0.13141,0.53693
1694639818296875,-9.374231,-2.467328,0.425464,0.99528,0.659,0.57093
1694639818304687,-9.378231,-2.444328,0.374464,0.94728,0.959,0.46193
1694639818312500,-9.451231,-2.470328,0.311464,0.110928,0.16659,0.30593
1694639818320312,-9.532231,-2.507328,0.261464,0.120028,0.35859,0.24793
1694639818328125,-9.551231,-2.584328,0.245464,0.121628,0.36559,0.15393
1694639818335937,-9.591231,-2.642328,0.215464,0.121528,0.35859,0.24793
1694639818343750,-9.576231,-2.649328,0.186464,0.121428,0.37359,0.23093
1694639818351562,-9.534231,-2.698328,0.143464,0.121628,0.39559,0.23293
1694639818359375,-9.576231,-2.771328,0.127464,0.121528,0.34359,0.19993
1694639818367187,-9.569231,-2.827328,0.150464,0.112328,0.30559,0.23093
1694639818375000,-9.555231,-2.884328,0.161464,0.101628,0.18259,0.24393
1694639818382812,-9.545231,-2.888328,0.129464,0.86528,0.11559,0.22893
1694639818390625,-9.573231,-2.847328,0.138464,0.72828,0.10059,0.16693
1694639818398437,-9.582231,-2.850328,0.163464,0.72428,0.8159,0.10193
1694639818406250,-9.593231,-2.849328,0.170464,0.69428,0.559,0.3907
1694639818414062,-9.594231,-2.808328,0.195464,0.49128,0.15041,0.18407
1694639818421875,-9.561231,-2.795328,0.183464,0.47528,0.13541,0.18407
1694639818429687,-9.535231,-2.797328,0.195464,0.50928,0.22841,0.23207
1694639818437500,-9.595231,-2.767328,0.206464,0.46028,0.27841,0.31207
1694639818445312,-9.643231,-2.733328,0.220464,0.44428,0.26441,0.31207
1694639818453125,-9.602231,-2.758328,0.231464,0.44428,0.31241,0.34407
1694639818460937,-9.549231,-2.745328,0.220464,0.35528,0.39041,0.40607
1694639818468750,-9.452231,-2.722328,0.225464,0.21728,0.35941,0.43607
1694639818476562,-9.366231,-2.680328,0.204464,0.23128,0.20741,0.44907
1694639818484375,-9.349231,-2.621328,0.183464,0.10728,0.19341,0.49607
1694639818492187,-9.364231,-2.547328,0.195464,0.18128,0.16841,0.65207
1694639818500000,-9.405231,-2.499328,0.192464,0.22828,0.33141,0.70207
1694639818507812,-9.458231,-2.472328,0.169464,0.20928,0.31441,0.81307
1694639818515625,-9.553231,-2.467328,0.144464,0.28428,0.31541,0.78307
1694639818523437,-9.682231,-2.503328,0.183464,0.34628,0.41341,0.80107
1694639818531250,-9.827231,-2.504328,0.212464,0.39228,0.38541,0.69107
1694639818539062,-9.913231,-2.484328,0.217464,0.32028,0.47141,0.59707
1694639818546875,-9.863231,-2.481328,0.242464,0.41328,0.47441,0.48807
1694639818554687,-9.859231,-2.490328,0.253464,0.38328,0.58141,0.42807
1694639818562500,-9.923231,-2.426328,0.294464,0.31028,0.68341,0.35007
1694639818570312,-9.891231,-2.400328,0.367464,0.47728,0.67541,0.44507
1694639818578125,-9.870231,-2.427328,0.370464,0.48028,0.79841,0.29107
1694639818585937,-9.830231,-2.427328,0.370464,0.46828,0.80541,0.11807
1694639818593750,-9.791231,-2.489328,0.335464,0.62128,0.88041,0.3493
1694639818601562,-9.874231,-2.509328,0.342464,0.74828,0.66141,0.22793
1694639818609375,-9.941231,-2.533328,0.386464,0.72228,0.77341,0.49293
1694639818617187,-9.913231,-2.607328,0.402464,0.80328,0.94141,0.59993
1694639818625000,-9.879231,-2.614328,0.422464,0.80528,0.106641,0.73793
1694639818632812,-9.838231,-2.650328,0.454464,0.90028,0.125041,0.81193
1694639818640625,-9.807231,-2.737328,0.514464,0.101028,0.140241,0.90293
1694639818648437,-9.741231,-2.790328,0.596464,0.98028,0.149241,0.97893
1694639818656250,-9.573231,-2.790328,0.632464,0.111928,0.163841,0.97493
1694639818664062,-9.406231,-2.813328,0.660464,0.105428,0.172241,0.84693
1694639818671875,-9.267231,-2.825328,0.724464,0.116128,0.176341,0.72093
1694639818679687,-9.204231,-2.804328,0.769464,0.117328,0.177341,0.54793
1694639818687500,-9.164231,-2.781328,0.812464,0.125928,0.180341,0.37293
1694639818695312,-9.114231,-2.801328,0.867464,0.129928,0.167141,0.6193
1694639818703125,-9.103231,-2.780328,0.901464,0.132628,0.158141,0.11007
1694639818710937,-9.98231,-2.761328,0.922464,0.135428,0.143741,0.27907
1694639818718750,-9.119231,-2.755328,0.915464,0.137628,0.109641,0.47707
1694639818726562,-9.165231,-2.737328,0.926464,0.141928,0.90641,0.58307
1694639818734375,-9.235231,-2.727328,0.885464,0.143128,0.66641,0.68807
1694639818742187,-9.287231,-2.708328,0.821464,0.145928,0.47541,0.81007
1694639818750000,-9.347231,-2.676328,0.771464,0.130028,0.24041,0.96207
1694639818757812,-9.409231,-2.635328,0.684464,0.126628,0.1341,0.116007
1694639818765625,-9.469231,-2.647328,0.568464,0.131228,0.11059,0.120407
1694639818773437,-9.558231,-2.632328,0.472464,0.129528,0.24459,0.123307
1694639818781250,-9.663231,-2.598328,0.377464,0.114028,0.33859,0.123107
1694639818789062,-9.827231,-2.553328,0.272464,0.114028,0.42159,0.118207
1694639818796875,-10.19231,-2.536328,0.217464,0.114528,0.47059,0.103807
1694639818804687,-10.167231,-2.533328,0.199464,0.102428,0.47359,0.83407
1694639818812500,-10.166231,-2.539328,0.174464,0.91128,0.24259,0.50807
1694639818820312,-10.32231,-2.599328,0.149464,0.92828,0.17159,0.41507
1694639818828125,-9.882231,-2.643328,0.167464,0.79328,0.741,0.26207
1694639818835937,-9.762231,-2.652328,0.208464,0.70628,0.23141,0.14007
1694639818843750,-9.651231,-2.646328,0.245464,0.70828,0.26841,0.4707
1694639818851562,-9.600231,-2.583328,0.267464,0.47728,0.19241,0.4407
1694639818859375,-9.574231,-2.503328,0.310464,0.47728,0.30541,0.14107
1694639818867187,-9.535231,-2.481328,0.361464,0.46128,0.38141,0.29907
1694639818875000,-9.542231,-2.445328,0.390464,0.49128,0.52541,0.42707
1694639818882812,-9.561231,-2.380328,0.406464,0.53628,0.54241,0.41207
1694639818890625,-9.575231,-2.351328,0.406464,0.65728,0.57541,0.41407
1694639818898437,-9.555231,-2.367328,0.422464,0.73528,0.66041,0.35407
1694639818906250,-9.541231,-2.341328,0.417464,0.70628,0.59741,0.27407
1694639818914062,-9.499231,-2.310328,0.381464,0.90428,0.59241,0.29107
1694639818921875,-9.501231,-2.296328,0.376464,0.101328,0.56841,0.28907
1694639818929687,-9.515231,-2.289328,0.390464,0.114828,0.51941,0.27507
1694639818937500,-9.494231,-2.302328,0.369464,0.127328,0.47941,0.24207
1694639818945312,-9.462231,-2.305328,0.335464,0.137928,0.49941,0.19707
1694639818953125,-9.492231,-2.293328,0.326464,0.153328,0.44541,0.13307
1694639818960937,-9.545231,-2.324328,0.333464,0.164228,0.41041,0.7007
1694639818968750,-9.611231,-2.336328,0.308464,0.173728,0.41141,0.5593
1694639818976562,-9.658231,-2.360328,0.297464,0.178228,0.36641,0.14993
1694639818984375,-9.721231,-2.419328,0.249464,0.187828,0.25141,0.34093
1694639818992187,-9.751231,-2.510328,0.229464,0.188028,0.34241,0.49493
1694639819000000,-9.689231,-2.594328,0.220464,0.186428,0.26541,0.57493
1694639819007812,-9.650231,-2.661328,0.174464,0.172828,0.25441,0.65393
1694639819015625,-9.641231,-2.706328,0.147464,0.171228,0.27641,0.71593
1694639819023437,-9.654231,-2.735328,0.133464,0.154528,0.27541,0.65493
1694639819031250,-9.662231,-2.764328,0.140464,0.146728,0.28741,0.52993
1694639819039062,-9.683231,-2.763328,0.143464,0.131328,0.38941,0.43393
1694639819046875,-9.700231,-2.783328,0.131464,0.119028,0.50141,0.25993
1694639819054687,-9.694231,-2.761328,0.134464,0.102028,0.54941,0.11893
1694639819062500,-9.672231,-2.719328,0.138464,0.98828,0.61241,0.707
1694639819070312,-9.646231,-2.688328,0.133464,0.87628,0.62941,0.18107
1694639819078125,-9.659231,-2.657328,0.170464,0.78428,0.67741,0.27507
1694639819085937,-9.676231,-2.624328,0.181464,0.82828,0.79141,0.38807
1694639819093750,-9.676231,-2.583328,0.181464,0.76728,0.72641,0.33907
1694639819101562,-9.664231,-2.528328,0.181464,0.76628,0.74041,0.41807
1694639819109375,-9.655231,-2.488328,0.174464,0.70428,0.79341,0.41907
1694639819117187,-9.651231,-2.455328,0.167464,0.82628,0.75741,0.41907
1694639819125000,-9.630231,-2.465328,0.165464,0.78328,0.78741,0.41807
1694639819132812,-9.621231,-2.473328,0.151464,0.75128,0.82441,0.43607
1694639819140625,-9.635231,-2.472328,0.151464,0.72128,0.82441,0.41907
1694639819148437,-9.646231,-2.486328,0.160464,0.70428,0.75941,0.41907
1694639819156250,-9.628231,-2.500328,0.162464,0.71728,0.71041,0.45007
1694639819164062,-9.582231,-2.486328,0.156464,0.69028,0.72241,0.44807
1694639819171875,-9.575231,-2.488328,0.128464,0.55228,0.62341,0.46107
1694639819179687,-9.607231,-2.486328,0.147464,0.47628,0.67741,0.44607
1694639819187500,-9.677231,-2.501328,0.151464,0.44528,0.67941,0.43007
1694639819195312,-9.686231,-2.496328,0.178464,0.34028,0.68241,0.38207
1694639819203125,-9.582231,-2.471328,0.185464,0.25228,0.82341,0.24307
1694639819210937,-9.445231,-2.410328,0.169464,0.22228,0.74141,0.21007
1694639819218750,-9.464231,-2.358328,0.146464,0.20728,0.62341,0.19107
1694639819226562,-9.529231,-2.391328,0.183464,0.23628,0.62541,0.16107
1694639819234375,-9.491231,-2.367328,0.210464,0.23728,0.66341,0.8307
1694639819242187,-9.562231,-2.299328,0.176464,0.24128,0.74941,0.993
1694639819250000,-9.619231,-2.289328,0.199464,0.39628,0.81941,0.16393
1694639819257812,-9.627231,-2.332328,0.210464,0.56628,0.92141,0.27093
1694639819265625,-9.604231,-2.361328,0.221464,0.63028,0.97241,0.37993
1694639819273437,-9.572231,-2.404328,0.224464,0.66028,0.97941,0.48793
1694639819281250,-9.551231,-2.458328,0.228464,0.78328,0.93041,0.55093
1694639819289062,-9.539231,-2.523328,0.256464,0.78328,0.92841,0.53593
1694639819296875,-9.532231,-2.554328,0.270464,0.78328,0.82841,0.56893
1694639819304687,-9.597231,-2.573328,0.277464,0.81428,0.84341,0.55293
1694639819312500,-9.635231,-2.631328,0.320464,0.73628,0.91341,0.53593
1694639819320312,-9.627231,-2.711328,0.322464,0.76828,0.94641,0.55093
1694639819328125,-9.590231,-2.756328,0.284464,0.70828,0.92841,0.55193
1694639819335937,-9.556231,-2.811328,0.234464,0.61528,0.79141,0.71093
1694639819343750,-9.558231,-2.853328,0.209464,0.67828,0.70541,0.77593
1694639819351562,-9.555231,-2.866328,0.241464,0.51228,0.64341,0.85693
1694639819359375,-9.551231,-2.853328,0.220464,0.48228,0.76141,0.83893
1694639819367187,-9.555231,-2.837328,0.222464,0.48228,0.75941,0.80793
1694639819375000,-9.599231,-2.842328,0.261464,0.49428,0.82741,0.72693
1694639819382812,-9.664231,-2.850328,0.313464,0.47928,0.90941,0.69393
1694639819390625,-9.686231,-2.831328,0.377464,0.52628,0.110041,0.54993
1694639819398437,-9.673231,-2.829328,0.418464,0.48228,0.121841,0.54793
1694639819406250,-9.635231,-2.826328,0.455464,0.57128,0.133741,0.51193
1694639819414062,-9.574231,-2.799328,0.491464,0.64528,0.129641,0.38693
1694639819421875,-9.531231,-2.769328,0.539464,0.61428,0.133241,0.38593
1694639819429687,-9.535231,-2.723328,0.569464,0.75528,0.131641,0.27793
1694639819437500,-9.518231,-2.663328,0.612464,0.78528,0.129841,0.26293
1694639819445312,-9.473231,-2.631328,0.641464,0.85728,0.124341,0.13693
1694639819453125,-9.442231,-2.616328,0.659464,0.116128,0.116741,0.7393
1694639819460937,-9.393231,-2.570328,0.664464,0.122128,0.111441,0.2793
1694639819468750,-9.362231,-2.528328,0.648464,0.138528,0.100741,0.6607
1694639819476562,-9.375231,-2.545328,0.646464,0.164428,0.79841,0.6307
1694639819484375,-9.367231,-2.578328,0.650464,0.173528,0.64041,0.12207
1694639819492187,-9.304231,-2.615328,0.609464,0.187028,0.56941,0.18507
1694639819500000,-9.283231,-2.635328,0.543464,0.191328,0.41541,0.24507
1694639819507812,-9.335231,-2.672328,0.489464,0.194128,0.30641,0.39907
1694639819515625,-9.404231,-2.724328,0.450464,0.194228,0.15041,0.44207
1694639819523437,-9.458231,-2.755328,0.412464,0.190828,0.3641,0.45607
1694639819531250,-9.519231,-2.759328,0.343464,0.181528,0.12859,0.45207
1694639819539062,-9.580231,-2.760328,0.266464,0.172428,0.19759,0.48107
1694639819546875,-9.654231,-2.769328,0.216464,0.169528,0.23559,0.51007
1694639819554687,-9.687231,-2.763328,0.166464,0.169328,0.20059,0.52707
1694639819562500,-9.712231,-2.754328,0.111464,0.160128,0.21159,0.49607
1694639819570312,-9.717231,-2.731328,0.56464,0.143528,0.10659,0.44907
1694639819578125,-9.712231,-2.729328,0.6464,0.142028,0.7259,0.45007
1694639819585937,-9.744231,-2.711328,0.25536,0.143428,0.1241,0.48407
1694639819593750,-9.785231,-2.681328,0.25536,0.120928,0.9941,0.43607
1694639819601562,-9.794231,-2.676328,0.14536,0.120728,0.21641,0.51807
1694639819609375,-9.826231,-2.658328,0.9536,0.119428,0.34941,0.50407
1694639819617187,-9.829231,-2.642328,0.22464,0.114928,0.48941,0.44507
1694639819625000,-9.803231,-2.619328,0.27464,0.121528,0.58541,0.38307
1694639819632812,-9.791231,-2.575328,0.49464,0.112328,0.60841,0.33607
1694639819640625,-9.796231,-2.574328,0.106464,0.109128,0.82041,0.26407
1694639819648437,-9.791231,-2.558328,0.140464,0.100328,0.93841,0.23307
1694639819656250,-9.774231,-2.517328,0.181464,0.98728,0.100841,0.22007
1694639819664062,-9.713231,-2.484328,0.233464,0.108028,0.113541,0.26907
1694639819671875,-9.684231,-2.505328,0.283464,0.109328,0.132341,0.30607
1694639819679687,-9.691231,-2.485328,0.311464,0.112228,0.131641,0.46307
1694639819687500,-9.648231,-2.465328,0.372464,0.118228,0.143141,0.52907
1694639819695312,-9.605231,-2.464328,0.370464,0.121328,0.149541,0.56107
1694639819703125,-9.621231,-2.452328,0.383464,0.119628,0.152141,0.73407
1694639819710937,-9.621231,-2.443328,0.424464,0.128528,0.153441,0.81407
1694639819718750,-9.609231,-2.484328,0.422464,0.135928,0.151141,0.95507
1694639819726562,-9.575231,-2.495328,0.420464,0.140428,0.140941,0.93807
1694639819734375,-9.548231,-2.500328,0.393464,0.140528,0.135841,0.93607
1694639819742187,-9.543231,-2.520328,0.393464,0.121828,0.129141,0.106007
1694639819750000,-9.532231,-2.525328,0.406464,0.121828,0.117541,0.102607
1694639819757812,-9.545231,-2.468328,0.386464,0.118928,0.110541,0.102307
1694639819765625,-9.544231,-2.453328,0.368464,0.120228,0.102041,0.106907
1694639819773437,-9.523231,-2.448328,0.368464,0.118828,0.96841,0.105107
1694639819781250,-9.506231,-2.396328,0.358464,0.120128,0.103741,0.108507
1694639819789062,-9.502231,-2.340328,0.349464,0.120028,0.91541,0.117707
1694639819796875,-9.522231,-2.315328,0.349464,0.120028,0.91141,0.122307
1694639819804687,-9.586231,-2.267328,0.354464,0.120028,0.89541,0.120707
1694639819812500,-9.628231,-2.233328,0.372464,0.119928,0.101441,0.122607
1694639819820312,-9.656231,-2.206328,0.390464,0.118428,0.99841,0.121007
1694639819828125,-9.637231,-2.175328,0.408464,0.123228,0.107941,0.122707
1694639819835937,-9.628231,-2.207328,0.388464,0.133928,0.119641,0.119907
1694639819843750,-9.669231,-2.231328,0.387464,0.138428,0.108641,0.105707
1694639819851562,-9.700231,-2.273328,0.424464,0.134028,0.112341,0.101007
1694639819859375,-9.670231,-2.315328,0.452464,0.125328,0.112941,0.82007
1694639819867187,-9.638231,-2.336328,0.461464,0.119228,0.99941,0.73907
1694639819875000,-9.579231,-2.377328,0.454464,0.122528,0.95541,0.58107
1694639819882812,-9.576231,-2.404328,0.456464,0.104528,0.99741,0.43907
1694639819890625,-9.597231,-2.381328,0.470464,0.95428,0.95241,0.35907
1694639819898437,-9.579231,-2.366328,0.474464,0.89428,0.99441,0.23507
1694639819906250,-9.590231,-2.353328,0.463464,0.78928,0.91541,0.15407
1694639819914062,-9.627231,-2.316328,0.461464,0.80728,0.84441,0.12007
1694639819921875,-9.616231,-2.292328,0.474464,0.91528,0.84741,0.1107
1694639819929687,-9.648231,-2.269328,0.467464,0.90028,0.84941,0.3593
1694639819937500,-9.689231,-2.250328,0.488464,0.96328,0.78341,0.13193
1694639819945312,-9.691231,-2.239328,0.501464,0.94828,0.87041,0.16093
1694639819953125,-9.714231,-2.228328,0.520464,0.97928,0.88841,0.19093
1694639819960937,-9.696231,-2.233328,0.524464,0.114528,0.85241,0.19093
1694639819968750,-9.691231,-2.257328,0.520464,0.122428,0.90041,0.22093
1694639819976562,-9.663231,-2.284328,0.540464,0.122428,0.84841,0.22293
1694639819984375,-9.631231,-2.333328,0.541464,0.133228,0.84341,0.20693
1694639819992187,-9.630231,-2.354328,0.529464,0.142228,0.87441,0.15793
1694639820000000,-9.617231,-2.372328,0.515464,0.143328,0.65741,0.11493
1694639820007812,-9.576231,-2.406328,0.488464,0.140628,0.70841,0.17693
1694639820015625,-9.587231,-2.403328,0.472464,0.144828,0.55141,0.5493
1694639820023437,-9.621231,-2.396328,0.420464,0.138728,0.50141,0.4093
1694639820031250,-9.652231,-2.436328,0.365464,0.143228,0.46841,0.4093
1694639820039062,-9.730231,-2.413328,0.349464,0.141528,0.53441,0.2407
1694639820046875,-9.808231,-2.374328,0.390464,0.141328,0.51841,0.5607
1694639820054687,-9.761231,-2.408328,0.377464,0.146128,0.59741,0.7207
1694639820062500,-9.652231,-2.497328,0.342464,0.142828,0.66841,0.10607
1694639820070312,-9.563231,-2.526328,0.329464,0.143028,0.65141,0.7407
1694639820078125,-9.541231,-2.536328,0.299464,0.125928,0.47241,0.7007
1694639820085937,-9.586231,-2.535328,0.311464,0.122928,0.45041,0.16207
1694639820093750,-9.610231,-2.523328,0.345464,0.104628,0.46441,0.23907
1694639820101562,-9.636231,-2.526328,0.347464,0.87428,0.46641,0.36507
1694639820109375,-9.673231,-2.461328,0.351464,0.78228,0.56841,0.42907
1694639820117187,-9.657231,-2.409328,0.358464,0.81428,0.62941,0.49207
1694639820125000,-9.634231,-2.420328,0.361464,0.89028,0.69341,0.52607
1694639820132812,-9.621231,-2.396328,0.363464,0.73728,0.74641,0.54207
1694639820140625,-9.614231,-2.385328,0.367464,0.75328,0.76141,0.55707
1694639820148437,-9.612231,-2.410328,0.381464,0.73528,0.58141,0.50707
1694639820156250,-9.603231,-2.419328,0.388464,0.72128,0.55141,0.42807
1694639820164062,-9.623231,-2.419328,0.358464,0.68928,0.41541,0.47207
1694639820171875,-9.667231,-2.407328,0.338464,0.61528,0.31941,0.37507
1694639820179687,-9.686231,-2.431328,0.311464,0.53928,0.20141,0.37207
1694639820187500,-9.687231,-2.406328,0.263464,0.47828,0.12241,0.29107
1694639820195312,-9.691231,-2.402328,0.206464,0.47828,0.15541,0.30707
1694639820203125,-9.714231,-2.401328,0.153464,0.37128,0.4041,0.28907
1694639820210937,-9.751231,-2.375328,0.110464,0.29128,0.2641,0.36807
1694639820218750,-9.770231,-2.366328,0.71464,0.25728,0.6141,0.44807
1694639820226562,-9.805231,-2.369328,0.58464,0.23028,0.8941,0.46207
1694639820234375,-9.826231,-2.378328,0.39464,0.26128,0.30741,0.48307
1694639820242187,-9.819231,-2.378328,0.48464,0.21528,0.37441,0.51607
1694639820250000,-9.773231,-2.400328,0.60464,0.23228,0.45541,0.53207
1694639820257812,-9.748231,-2.412328,0.85464,0.7828,0.52241,0.64307
1694639820265625,-9.714231,-2.406328,0.115464,0.2872,0.57841,0.59707
1694639820273437,-9.703231,-2.390328,0.153464,0.8772,0.67841,0.59807
1694639820281250,-9.706231,-2.366328,0.183464,0.11972,0.78241,0.61607
1694639820289062,-9.719231,-2.346328,0.219464,0.22472,0.91541,0.64907
1694639820296875,-9.740231,-2.310328,0.278464,0.23972,0.91441,0.64907
1694639820304687,-9.715231,-2.290328,0.317464,0.31172,0.108741,0.54207
1694639820312500,-9.715231,-2.265328,0.363464,0.34172,0.117141,0.54307
1694639820320312,-9.700231,-2.212328,0.422464,0.27772,0.130641,0.45207
1694639820328125,-9.719231,-2.167328,0.454464,0.32272,0.135641,0.46807
1694639820335937,-9.709231,-2.101328,0.519464,0.23272,0.144241,0.45507
1694639820343750,-9.629231,-2.95328,0.588464,0.23072,0.147441,0.45507
1694639820351562,-9.579231,-2.136328,0.606464,0.6372,0.143641,0.45607
1694639820359375,-9.505231,-2.122328,0.624464,0.1772,0.141241,0.31607
1694639820367187,-9.432231,-2.152328,0.627464,0.1428,0.144841,0.23807
1694639820375000,-9.438231,-2.167328,0.618464,0.10828,0.126341,0.10807
1694639820382812,-9.499231,-2.166328,0.629464,0.21528,0.112641,0.9007
1694639820390625,-9.515231,-2.173328,0.649464,0.22928,0.104541,0.5807
1694639820398437,-9.506231,-2.177328,0.615464,0.41328,0.109141,0.4407
1694639820406250,-9.501231,-2.195328,0.604464,0.53428,0.99041,0.393
1694639820414062,-9.492231,-2.213328,0.579464,0.67328,0.88741,0.5293
1694639820421875,-9.499231,-2.224328,0.561464,0.71728,0.85541,0.6793
1694639820429687,-9.528231,-2.230328,0.547464,0.82428,0.69841,0.3993
1694639820437500,-9.541231,-2.261328,0.524464,0.96128,0.71341,0.5493
1694639820445312,-9.571231,-2.265328,0.508464,0.100728,0.67841,0.3893
1694639820453125,-9.630231,-2.272328,0.490464,0.108028,0.68141,0.5293
1694639820460937,-9.670231,-2.303328,0.488464,0.114028,0.67741,0.1007
1694639820468750,-9.699231,-2.319328,0.495464,0.123528,0.66941,0.2407
1694639820476562,-9.728231,-2.330328,0.502464,0.120428,0.67541,0.5293
1694639820484375,-9.721231,-2.368328,0.500464,0.129828,0.66941,0.3793
1694639820492187,-9.728231,-2.386328,0.493464,0.126528,0.65641,0.3793
1694639820500000,-9.774231,-2.384328,0.479464,0.129528,0.66341,0.13093
1694639820507812,-9.800231,-2.378328,0.472464,0.128228,0.60641,0.8593
1694639820515625,-9.789231,-2.392328,0.472464,0.140528,0.70941,0.16093
1694639820523437,-9.775231,-2.424328,0.458464,0.143328,0.64341,0.14593
1694639820531250,-9.766231,-2.428328,0.454464,0.140328,0.67741,0.16093
1694639820539062,-9.759231,-2.426328,0.438464,0.147928,0.69141,0.12893
1694639820546875,-9.752231,-2.419328,0.429464,0.144928,0.74041,0.9693
1694639820554687,-9.730231,-2.426328,0.422464,0.157028,0.66941,0.6693
1694639820562500,-9.697231,-2.447328,0.424464,0.155528,0.71741,0.3493
1694639820570312,-9.672231,-2.471328,0.429464,0.160328,0.73241,0.4993
1694639820578125,-9.616231,-2.454328,0.418464,0.154028,0.66241,0.4207
1694639820585937,-9.568231,-2.446328,0.418464,0.147528,0.62541,0.18207
1694639820593750,-9.544231,-2.442328,0.425464,0.145828,0.62441,0.24507
1694639820601562,-9.549231,-2.400328,0.424464,0.140828,0.58741,0.41807
1694639820609375,-9.556231,-2.342328,0.438464,0.128628,0.55441,0.46307
1694639820617187,-9.609231,-2.285328,0.426464,0.120728,0.58541,0.60507
1694639820625000,-9.635231,-2.227328,0.438464,0.120728,0.51341,0.66507
1694639820632812,-9.596231,-2.225328,0.431464,0.119028,0.66241,0.74707
1694639820640625,-9.617231,-2.191328,0.392464,0.123528,0.64641,0.74807
1694639820648437,-9.649231,-2.153328,0.371464,0.118928,0.64041,0.85607
1694639820656250,-9.685231,-2.183328,0.372464,0.132628,0.60441,0.84107
1694639820664062,-9.713231,-2.193328,0.365464,0.126428,0.51241,0.73007
1694639820671875,-9.726231,-2.228328,0.349464,0.131128,0.54741,0.68407
1694639820679687,-9.725231,-2.283328,0.328464,0.123928,0.50141,0.52407
1694639820687500,-9.710231,-2.303328,0.326464,0.119528,0.50041,0.50707
1694639820695312,-9.720231,-2.322328,0.312464,0.119328,0.40841,0.41307
1694639820703125,-9.733231,-2.345328,0.283464,0.98328,0.34641,0.29907
1694639820710937,-9.710231,-2.363328,0.265464,0.95528,0.43141,0.25307
1694639820718750,-9.701231,-2.341328,0.217464,0.93828,0.35341,0.18907
1694639820726562,-9.697231,-2.321328,0.203464,0.84828,0.38541,0.20507
1694639820734375,-9.693231,-2.310328,0.183464,0.72628,0.42341,0.18907
1694639820742187,-9.732231,-2.294328,0.169464,0.77028,0.52441,0.23907
1694639820750000,-9.734231,-2.258328,0.178464,0.72428,0.63441,0.39807
1694639820757812,-9.759231,-2.233328,0.162464,0.72328,0.73341,0.44707
1694639820765625,-9.737231,-2.227328,0.185464,0.70828,0.91941,0.46707
1694639820773437,-9.780231,-2.200328,0.212464,0.69428,0.105241,0.48507
1694639820781250,-9.865231,-2.143328,0.280464,0.72328,0.116941,0.55107
1694639820789062,-9.874231,-2.141328,0.353464,0.70528,0.131741,0.69607
1694639820796875,-9.794231,-2.189328,0.419464,0.72428,0.143641,0.60407
1694639820804687,-9.662231,-2.216328,0.431464,0.72428,0.142441,0.52607
1694639820812500,-9.569231,-2.237328,0.426464,0.71128,0.137341,0.49207
1694639820820312,-9.578231,-2.234328,0.454464,0.54428,0.130841,0.45807
1694639820828125,-9.626231,-2.202328,0.488464,0.52728,0.120941,0.47207
1694639820835937,-9.677231,-2.137328,0.517464,0.48328,0.119941,0.34607
1694639820843750,-9.722231,-2.91328,0.515464,0.50028,0.121041,0.36107
1694639820851562,-9.750231,-2.60328,0.531464,0.63728,0.129341,0.36407
1694639820859375,-9.757231,-2.63328,0.535464,0.71328,0.127841,0.31807
1694639820867187,-9.734231,-2.58328,0.535464,0.83628,0.134541,0.27307
1694639820875000,-9.696231,-2.79328,0.531464,0.94328,0.132941,0.22607
1694639820882812,-9.677231,-2.110328,0.533464,0.100728,0.134341,0.16307
1694639820890625,-9.674231,-2.144328,0.567464,0.108428,0.131441,0.5407
1694639820898437,-9.692231,-2.164328,0.567464,0.119128,0.127741,0.6907
1694639820906250,-9.690231,-2.186328,0.574464,0.118928,0.112741,0.5107
1694639820914062,-9.687231,-2.197328,0.604464,0.117628,0.119541,0.507
1694639820921875,-9.637231,-2.191328,0.604464,0.122028,0.113841,0.12907
1694639820929687,-9.587231,-2.202328,0.581464,0.120528,0.108441,0.17407
1694639820937500,-9.574231,-2.223328,0.563464,0.121628,0.94941,0.25107
1694639820945312,-9.598231,-2.225328,0.558464,0.121528,0.96041,0.37607
1694639820953125,-9.615231,-2.225328,0.547464,0.121128,0.94541,0.44007
1694639820960937,-9.615231,-2.196328,0.531464,0.120928,0.74041,0.49807
1694639820968750,-9.649231,-2.180328,0.490464,0.119428,0.63541,0.55807
1694639820976562,-9.708231,-2.159328,0.469464,0.114728,0.62241,0.54207
1694639820984375,-9.771231,-2.144328,0.469464,0.114728,0.59841,0.63507
1694639820992187,-9.788231,-2.120328,0.462464,0.117628,0.61741,0.65207
1694639821000000,-9.780231,-2.101328,0.442464,0.109728,0.63641,0.70007
1694639821007812,-9.781231,-2.129328,0.422464,0.120828,0.71341,0.68507
1694639821015625,-9.797231,-2.128328,0.424464,0.107228,0.80141,0.65407
1694639821023437,-9.802231,-2.134328,0.433464,0.100828,0.89041,0.68907
1694639821031250,-9.797231,-2.147328,0.451464,0.102528,0.92141,0.67307
1694639821039062,-9.781231,-2.149328,0.449464,0.96528,0.104641,0.58207
1694639821046875,-9.749231,-2.159328,0.426464,0.95228,0.99841,0.48607
1694639821054687,-9.747231,-2.168328,0.453464,0.96728,0.95241,0.42307
1694639821062500,-9.763231,-2.138328,0.460464,0.75828,0.102641,0.29707
1694639821070312,-9.725231,-2.72328,0.474464,0.71328,0.109541,0.26707
1694639821078125,-9.662231,-2.53328,0.476464,0.72928,0.119741,0.22207
1694639821085937,-9.651231,-2.53328,0.483464,0.72728,0.116541,0.25307
1694639821093750,-9.649231,-2.29328,0.526464,0.71328,0.123341,0.23907
1694639821101562,-9.667231,-2.31328,0.526464,0.77328,0.114641,0.26907
1694639821109375,-9.696231,-2.18328,0.553464,0.79228,0.126141,0.22307
1694639821117187,-9.733231,-2.28328,0.608464,0.82128,0.119941,0.16007
1694639821125000,-9.755231,-2.43328,0.640464,0.90028,0.123241,0.8207
1694639821132812,-9.764231,-2.41328,0.683464,0.87028,0.135241,0.5307
1694639821140625,-9.739231,-2.41328,0.731464,0.94628,0.133341,0.6907
1694639821148437,-9.701231,-2.44328,0.772464,0.97628,0.138741,0.4007
1694639821156250,-9.685231,-2.44328,0.801464,0.97628,0.135241,0.5507
1694639821164062,-9.663231,-2.27328,0.824464,0.96128,0.135341,0.5507
1694639821171875,-9.651231,-2.33328,0.820464,0.97628,0.131541,0.10007
1694639821179687,-9.658231,-2.52328,0.815464,0.106628,0.126441,0.11607
1694639821187500,-9.650231,-2.58328,0.806464,0.109928,0.121141,0.6707
1694639821195312,-9.655231,-2.65328,0.786464,0.117528,0.109841,0.2793
1694639821203125,-9.655231,-2.62328,0.781464,0.120528,0.104441,0.207
1694639821210937,-9.644231,-2.71328,0.749464,0.123328,0.92541,0.4707
1694639821218750,-9.639231,-2.83328,0.699464,0.121628,0.81041,0.6107
1694639821226562,-9.638231,-2.109328,0.665464,0.121728,0.66941,0.10307
1694639821234375,-9.604231,-2.141328,0.599464,0.135428,0.55241,0.2407
1694639821242187,-9.606231,-2.156328,0.533464,0.127628,0.51941,0.7007
1694639821250000,-9.617231,-2.167328,0.476464,0.121528,0.46541,0.14607
1694639821257812,-9.665231,-2.185328,0.458464,0.122728,0.40241,0.14607
1694639821265625,-9.708231,-2.159328,0.435464,0.118328,0.50041,0.17907
1694639821273437,-9.747231,-2.127328,0.419464,0.107628,0.49841,0.24007
1694639821281250,-9.764231,-2.123328,0.403464,0.101228,0.53541,0.30507
1694639821289062,-9.764231,-2.85328,0.424464,0.96728,0.63541,0.33807
1694639821296875,-9.764231,-2.56328,0.421464,0.96628,0.74941,0.41907
1694639821304687,-9.764231,-2.49328,0.448464,0.92028,0.88341,0.46807
1694639821312500,-9.760231,-2.30328,0.467464,0.93528,0.98641,0.47107
1694639821320312,-9.742231,-2.14328,0.519464,0.78828,0.110741,0.36207
1694639821328125,-9.729231,-1.992328,0.558464,0.72528,0.109441,0.34607
1694639821335937,-9.718231,-1.986328,0.585464,0.75828,0.118041,0.26907
1694639821343750,-9.701231,-2.6328,0.601464,0.72828,0.113441,0.19007
1694639821351562,-9.692231,-2.46328,0.608464,0.73128,0.115541,0.4907
1694639821359375,-9.691231,-2.68328,0.606464,0.71828,0.98841,0.3393
1694639821367187,-9.688231,-2.95328,0.601464,0.73528,0.90841,0.16093
1694639821375000,-9.668231,-2.119328,0.592464,0.66128,0.94941,0.30193
1694639821382812,-9.656231,-2.112328,0.549464,0.66228,0.82841,0.28993
1694639821390625,-9.636231,-2.116328,0.542464,0.70628,0.76841,0.38393
1694639821398437,-9.595231,-2.140328,0.501464,0.59828,0.76541,0.29093
1694639821406250,-9.638231,-2.129328,0.467464,0.66028,0.73141,0.32293
1694639821414062,-9.716231,-2.101328,0.483464,0.73428,0.72741,0.24393
1694639821421875,-9.755231,-2.90328,0.490464,0.71728,0.86141,0.16193
1694639821429687,-9.767231,-2.93328,0.489464,0.74328,0.89841,0.7993
1694639821437500,-9.736231,-2.90328,0.492464,0.79428,0.100441,0.4893
1694639821445312,-9.725231,-2.103328,0.494464,0.86928,0.99841,0.4507
1694639821453125,-9.743231,-2.89328,0.496464,0.91328,0.101341,0.10907
1694639821460937,-9.738231,-2.112328,0.535464,0.97228,0.104341,0.20507
1694639821468750,-9.706231,-2.130328,0.554464,0.95828,0.110641,0.26807
1694639821476562,-9.686231,-2.139328,0.560464,0.97328,0.122541,0.24007
1694639821484375,-9.643231,-2.136328,0.579464,0.95428,0.120241,0.44407
1694639821492187,-9.622231,-2.161328,0.567464,0.96828,0.113441,0.45807
1694639821500000,-9.656231,-2.158328,0.588464,0.92328,0.115041,0.47307
1694639821507812,-9.695231,-2.139328,0.581464,0.86328,0.105041,0.45507
1694639821515625,-9.715231,-2.155328,0.549464,0.73828,0.98941,0.45407
1694639821523437,-9.806231,-2.158328,0.549464,0.70828,0.95441,0.45207
1694639821531250,-9.934231,-2.101328,0.590464,0.72328,0.94241,0.39007
1694639821539062,-9.963231,-2.74328,0.651464,0.72628,0.112841,0.34707
1694639821546875,-9.861231,-2.133328,0.660464,0.71128,0.129641,0.35007
1694639821554687,-9.683231,-2.214328,0.631464,0.72728,0.135141,0.27407
1694639821562500,-9.522231,-2.222328,0.622464,0.62428,0.130241,0.17607
1694639821570312,-9.495231,-2.227328,0.604464,0.53228,0.125541,0.17507
1694639821578125,-9.515231,-2.191328,0.670464,0.33128,0.113341,0.34307
1694639821585937,-9.548231,-2.133328,0.708464,0.35928,0.109641,0.43707
1694639821593750,-9.575231,-2.121328,0.708464,0.31228,0.119741,0.50207
1694639821601562,-9.636231,-2.100328,0.706464,0.21928,0.112541,0.62507
1694639821609375,-9.698231,-2.68328,0.713464,0.23428,0.117041,0.70407
1694639821617187,-9.737231,-2.82328,0.715464,0.21528,0.114241,0.72107
1694639821625000,-9.747231,-2.67328,0.701464,0.18928,0.115441,0.70307
1694639821632812,-9.789231,-2.47328,0.713464,0.17228,0.117241,0.72007
1694639821640625,-9.800231,-2.29328,0.715464,0.17428,0.119241,0.62607
1694639821648437,-9.832231,-1.999328,0.717464,0.14528,0.129441,0.61207
1694639821656250,-9.851231,-2.9328,0.744464,0.23328,0.126141,0.64507
1694639821664062,-9.789231,-2.40328,0.792464,0.22028,0.124441,0.59607
1694639821671875,-9.727231,-2.74328,0.825464,0.22128,0.118941,0.62507
1694639821679687,-9.617231,-2.174328,0.813464,0.11328,0.112941,0.59307
1694639821687500,-9.620231,-2.317328,0.770464,0.3528,0.86241,0.57107
1694639821695312,-9.816231,-2.363328,0.732464,0.11572,0.67841,0.53407
1694639821703125,-9.883231,-2.311328,0.720464,0.37672,0.70341,0.54907
1694639821710937,-9.823231,-2.329328,0.663464,0.49772,0.69041,0.50107
1694639821718750,-9.762231,-2.339328,0.559464,0.59072,0.83941,0.62907
1694639821726562,-9.781231,-2.290328,0.501464,0.76072,0.93741,0.80307
1694639821734375,-9.773231,-2.218328,0.504464,0.74872,0.89541,0.99007
1694639821742187,-9.740231,-2.147328,0.558464,0.76572,0.110741,0.116707
1694639821750000,-9.718231,-2.85328,0.613464,0.75172,0.116441,0.137207
1694639821757812,-9.743231,-2.106328,0.695464,0.75672,0.117841,0.154607
1694639821765625,-9.721231,-2.204328,0.772464,0.81972,0.121741,0.179707
1694639821773437,-9.727231,-2.217328,0.843464,0.104972,0.125241,0.187407
1694639821781250,-9.765231,-2.108328,0.925464,0.124972,0.138041,0.183007
1694639821789062,-9.726231,-2.10328,0.947464,0.126172,0.143341,0.173607
1694639821796875,-9.748231,-2.30328,0.927464,0.124472,0.142341,0.159607
1694639821804687,-9.909231,-2.15328,0.940464,0.125772,0.144741,0.142307
1694639821812500,-9.966231,-1.976328,1.15464,0.123472,0.146441,0.96807
1694639821820312,-9.901231,-1.949328,1.43464,0.144172,0.148441,0.57507
1694639821828125,-9.704231,-1.928328,1.77464,0.147972,0.154241,0.30807
1694639821835937,-9.672231,-1.958328,1.82464,0.158572,0.146541,0.19607
1694639821843750,-9.522231,-1.962328,1.143464,0.170772,0.144941,0.22607
1694639821851562,-9.444231,-1.860328,1.179464,0.192672,0.130841,0.48807
1694639821859375,-9.602231,-1.772328,1.165464,0.197672,0.114341,0.53307
1694639821867187,-9.508231,-1.679328,1.240464,0.195972,0.115341,0.59507
1694639821875000,-9.477231,-1.616328,1.179464,0.180572,0.109941,0.56307
1694639821882812,-9.531231,-1.584328,1.120464,0.162372,0.94141,0.59107
1694639821890625,-9.572231,-1.606328,1.177464,0.147172,0.73941,0.54107
1694639821898437,-9.635231,-1.628328,1.172464,0.129172,0.65541,0.52607
1694639821906250,-9.649231,-1.662328,1.161464,0.122972,0.67441,0.46507
1694639821914062,-9.601231,-1.656328,1.192464,0.124672,0.60441,0.54107
1694639821921875,-9.581231,-1.670328,1.224464,0.123572,0.61641,0.71507
1694639821929687,-9.634231,-1.715328,1.288464,0.123772,0.53441,0.97907
1694639821937500,-9.584231,-1.762328,1.338464,0.126072,0.56541,0.121707
1694639821945312,-9.588231,-1.763328,1.295464,0.124472,0.55241,0.140307
1694639821953125,-9.684231,-1.758328,1.286464,0.145072,0.50841,0.154507
1694639821960937,-9.733231,-1.748328,1.329464,0.149572,0.37841,0.169607
1694639821968750,-9.823231,-1.678328,1.333464,0.160672,0.51341,0.185707
1694639821976562,-9.835231,-1.577328,1.338464,0.166472,0.49641,0.180807
1694639821984375,-9.778231,-1.518328,1.301464,0.156072,0.54441,0.187307
1694639821992187,-9.776231,-1.462328,1.272464,0.149472,0.62741,0.176407
1694639822000000,-9.772231,-1.393328,1.208464,0.154072,0.63241,0.171807
1694639822007812,-9.814231,-1.319328,1.182464,0.155672,0.59941,0.171707
1694639822015625,-9.825231,-1.216328,1.187464,0.142072,0.51541,0.170107
1694639822023437,-9.819231,-1.129328,1.191464,0.134272,0.46441,0.163707
1694639822031250,-9.828231,-1.68328,1.168464,0.123272,0.49841,0.151207
1694639822039062,-9.872231,-1.28328,1.166464,0.112672,0.41241,0.149507
1694639822046875,-9.941231,0.996328,1.161464,0.100672,0.31341,0.148007
1694639822054687,-10.52231,0.963328,1.127464,0.89772,0.37641,0.146507
1694639822062500,-10.100231,0.913328,1.154464,0.83372,0.39641,0.132407
1694639822070312,-10.41231,0.932328,1.106464,0.64772,0.34841,0.115207
1694639822078125,-9.954231,0.968328,1.43464,0.37172,0.36341,0.104407
1694639822085937,-9.891231,-1.30328,1.41464,0.24672,0.39241,0.74807
1694639822093750,-9.883231,-1.79328,1.38464,0.28772,0.43041,0.59107
1694639822101562,-9.932231,-1.85328,1.98464,0.14772,0.41241,0.49707
1694639822109375,-9.973231,-1.140328,1.141464,0.5672,0.55041,0.43907
1694639822117187,-9.949231,-1.183328,1.194464,0.672,0.43441,0.27807
1694639822125000,-9.934231,-1.172328,1.244464,0.2072,0.44441,0.10707
1694639822132812,-9.848231,-1.117328,1.328464,0.4428,0.55841,0.7707
1694639822140625,-9.709231,-1.55328,1.405464,0.17928,0.52341,0.9307
1694639822148437,-9.556231,-1.43328,1.435464,0.31828,0.53141,0.14107
1694639822156250,-9.457231,-1.63328,1.474464,0.57228,0.50941,0.25307
1694639822164062,-9.487231,-1.44328,1.485464,0.75328,0.41241,0.44007
1694639822171875,-9.537231,0.968328,1.503464,0.89128,0.35541,0.47007
1694639822179687,-9.612231,0.978328,1.521464,0.114628,0.27841,0.61207
1694639822187500,-9.759231,-1.9328,1.526464,0.142028,0.28641,0.69307
1694639822195312,-9.893231,0.973328,1.539464,0.158728,0.45641,0.65107
1694639822203125,-9.886231,0.936328,1.576464,0.183628,0.53441,0.55907
1694639822210937,-9.796231,0.951328,1.537464,0.214128,0.76641,0.55107
1694639822218750,-9.665231,-1.24328,1.478464,0.240328,0.81141,0.49007
1694639822226562,-9.517231,-1.147328,1.399464,0.264628,0.84441,0.46207
1694639822234375,-9.423231,-1.253328,1.315464,0.267528,0.75941,0.47707
1694639822242187,-9.456231,-1.296328,1.196464,0.273528,0.51941,0.51807
1694639822250000,-9.472231,-1.323328,1.101464,0.268428,0.44741,0.72107
1694639822257812,-9.446231,-1.372328,1.23464,0.266828,0.45741,0.84607
1694639822265625,-9.609231,-1.414328,0.889464,0.263428,0.47541,0.92607
1694639822273437,-9.773231,-1.347328,0.884464,0.237728,0.51041,0.94007
1694639822281250,-9.827231,-1.292328,0.884464,0.236728,0.66241,0.81607
1694639822289062,-9.961231,-1.286328,0.845464,0.242928,0.75541,0.67807
1694639822296875,-10.44231,-1.232328,0.916464,0.243428,0.88541,0.36707
1694639822304687,-10.86231,-1.194328,0.959464,0.241128,0.107641,0.11393
1694639822312500,-10.88231,-1.260328,1.3464,0.260428,0.111241,0.45993
1694639822320312,-10.117231,-1.332328,1.60464,0.274528,0.119041,0.75493
1694639822328125,-10.176231,-1.340328,1.155464,0.273928,0.122641,0.124093
1694639822335937,-10.100231,-1.363328,1.192464,0.302128,0.121541,0.161593
1694639822343750,-9.960231,-1.435328,1.158464,0.320628,0.126341,0.194193
1694639822351562,-9.885231,-1.531328,1.131464,0.328828,0.120941,0.206993
1694639822359375,-9.594231,-1.633328,1.101464,0.346928,0.103641,0.202593
1694639822367187,-9.376231,-1.700328,0.976464,0.343228,0.76141,0.179593
1694639822375000,-9.535231,-1.695328,0.844464,0.342428,0.25741,0.142993
1694639822382812,-9.739231,-1.693328,0.840464,0.346328,0.4941,0.122993
1694639822390625,-9.808231,-1.747328,0.794464,0.345928,0.28159,0.101793
1694639822398437,-9.842231,-1.756328,0.660464,0.340628,0.48959,0.75493
1694639822406250,-9.838231,-1.753328,0.528464,0.326628,0.64559,0.58693
1694639822414062,-9.872231,-1.744328,0.455464,0.315428,0.74759,0.41593
1694639822421875,-9.958231,-1.758328,0.402464,0.318228,0.74159,0.22793
1694639822429687,-9.938231,-1.816328,0.389464,0.307428,0.76759,0.507
1694639822437500,-9.868231,-1.878328,0.364464,0.282228,0.76259,0.17807
1694639822445312,-9.800231,-1.905328,0.325464,0.264028,0.61659,0.33607
1694639822453125,-9.723231,-1.902328,0.284464,0.233028,0.66459,0.50707
1694639822460937,-9.627231,-1.839328,0.280464,0.183528,0.80059,0.83107
1694639822468750,-9.537231,-1.708328,0.289464,0.150728,0.90159,0.135907
1694639822476562,-9.526231,-1.591328,0.297464,0.114828,0.93559,0.167107
1694639822484375,-9.717231,-1.458328,0.288464,0.86928,0.107959,0.199507
1694639822492187,-9.949231,-1.415328,0.315464,0.64828,0.107059,0.237107
1694639822500000,-9.847231,-1.396328,0.343464,0.46528,0.102859,0.257307
1694639822507812,-9.663231,-1.267328,0.272464,0.29228,0.95759,0.270107
1694639822515625,-9.649231,0.975328,0.205464,0.15528,0.104659,0.280707
1694639822523437,-9.797231,0.766328,0.275464,0.34828,0.100359,0.298307
1694639822531250,-9.867231,0.801328,0.375464,0.64928,0.93359,0.320707
1694639822539062,-9.802231,0.846328,0.453464,0.72828,0.65959,0.333707
1694639822546875,-9.674231,0.915328,0.462464,0.97328,0.37459,0.329807
1694639822554687,-9.549231,0.968328,0.487464,0.92828,0.25359,0.326907
1694639822562500,-9.637231,-1.7328,0.546464,0.90328,0.12259,0.297407
1694639822570312,-9.758231,-1.93328,0.651464,0.92628,0.1159,0.264607
1694639822578125,-9.872231,-1.187328,0.743464,0.75628,0.8541,0.192407
1694639822585937,-9.978231,-1.201328,0.829464,0.66628,0.26641,0.112607
1694639822593750,-10.6231,-1.177328,0.841464,0.46328,0.43741,0.42307
1694639822601562,-10.4231,-1.157328,0.813464,0.45828,0.61641,0.23193
1694639822609375,-9.968231,-1.198328,0.800464,0.49628,0.68141,0.63793
1694639822617187,-9.781231,-1.288328,0.825464,0.51628,0.69741,0.99793
1694639822625000,-9.654231,-1.309328,0.786464,0.50728,0.73641,0.121793
1694639822632812,-9.604231,-1.316328,0.770464,0.49328,0.87141,0.123093
1694639822640625,-9.649231,-1.363328,0.820464,0.67528,0.75541,0.132593
1694639822648437,-9.836231,-1.443328,0.855464,0.85728,0.68441,0.127893
1694639822656250,-10.11231,-1.554328,0.889464,0.96528,0.80241,0.135393
1694639822664062,-10.113231,-1.669328,0.873464,0.107528,0.95141,0.139793
1694639822671875,-10.90231,-1.687328,0.873464,0.101328,0.99941,0.130293
1694639822679687,-10.61231,-1.654328,0.862464,0.116528,0.92641,0.127293
1694639822687500,-10.57231,-1.651328,0.892464,0.123628,0.107941,0.90793
1694639822695312,-10.108231,-1.700328,0.933464,0.126128,0.106541,0.56293
1694639822703125,-10.128231,-1.733328,1.15464,0.139528,0.107341,0.41993
1694639822710937,-10.89231,-1.732328,1.42464,0.143828,0.124841,0.16493
1694639822718750,-10.56231,-1.685328,1.31464,0.145328,0.112841,0.15193
1694639822726562,-10.34231,-1.673328,1.49464,0.152628,0.103041,0.15193
1694639822734375,-10.6231,-1.722328,1.51464,0.162028,0.97841,0.23193
1694639822742187,-9.942231,-1.729328,1.3464,0.148428,0.88041,0.28293
1694639822750000,-9.839231,-1.697328,0.942464,0.153028,0.76541,0.36293
1694639822757812,-9.827231,-1.723328,0.876464,0.150028,0.54941,0.43093
1694639822765625,-9.842231,-1.736328,0.840464,0.128328,0.43041,0.29393
1694639822773437,-9.846231,-1.667328,0.776464,0.115928,0.42841,0.16893
1694639822781250,-9.817231,-1.600328,0.744464,0.97328,0.45641,0.5007
1694639822789062,-9.779231,-1.541328,0.689464,0.95328,0.51541,0.30307
1694639822796875,-9.769231,-1.458328,0.618464,0.92028,0.56041,0.47607
1694639822804687,-9.785231,-1.367328,0.645464,0.73128,0.64341,0.72907
1694639822812500,-9.742231,-1.300328,0.654464,0.76028,0.72841,0.101207
1694639822820312,-9.730231,-1.214328,0.652464,0.70928,0.89141,0.125207
1694639822828125,-9.780231,-1.180328,0.686464,0.69228,0.89041,0.131507
1694639822835937,-9.753231,-1.160328,0.763464,0.69228,0.88841,0.133007
1694639822843750,-9.713231,-1.130328,0.770464,0.60228,0.94041,0.131507
1694639822851562,-9.677231,-1.70328,0.756464,0.34128,0.82641,0.135807
1694639822859375,-9.675231,-1.27328,0.772464,0.26828,0.63841,0.133607
1694639822867187,-9.760231,0.977328,0.790464,0.21928,0.61341,0.127407
1694639822875000,-9.821231,0.909328,0.808464,0.8528,0.45941,0.126807
1694639822882812,-9.778231,0.923328,0.774464,0.15928,0.56041,0.131907
1694639822890625,-9.742231,0.991328,0.672464,0.21828,0.41141,0.128507
1694639822898437,-9.876231,-1.48328,0.588464,0.20728,0.39541,0.115807
1694639822906250,-10.28231,-1.44328,0.556464,0.23928,0.28341,0.101507
1694639822914062,-10.108231,-1.98328,0.524464,0.29028,0.18541,0.80807
1694639822921875,-10.135231,-1.208328,0.469464,0.19628,0.27941,0.74807
1694639822929687,-10.68231,-1.280328,0.467464,0.9228,0.33741,0.60707
1694639822937500,-10.67231,-1.349328,0.452464,0.972,0.36441,0.37107
1694639822945312,-10.146231,-1.408328,0.456464,0.24772,0.40041,0.4107
1694639822953125,-10.28231,-1.385328,0.500464,0.43772,0.43541,0.38393
1694639822960937,-9.917231,-1.357328,0.472464,0.58572,0.57941,0.56993
1694639822968750,-9.903231,-1.257328,0.467464,0.73572,0.61941,0.66493
1694639822976562,-9.848231,-1.154328,0.576464,0.75172,0.62541,0.74293
1694639822984375,-9.758231,-1.70328,0.624464,0.73172,0.73141,0.91293
1694639822992187,-9.635231,0.998328,0.665464,0.56372,0.84441,0.87793
1694639823000000,-9.611231,0.899328,0.719464,0.31972,0.97741,0.90493
1694639823007812,-9.653231,0.784328,0.794464,0.21272,0.103841,0.87193
1694639823015625,-9.740231,0.752328,0.879464,0.22928,0.114441,0.80393
1694639823023437,-9.791231,0.826328,0.947464,0.62828,0.124641,0.97093
1694639823031250,-9.753231,0.994328,0.997464,0.91628,0.117441,0.96993
1694639823039062,-9.754231,-1.119328,0.998464,0.106828,0.113841,0.98493
1694639823046875,-9.709231,-1.208328,1.43464,0.116128,0.98741,0.106693
1694639823054687,-9.749231,-1.299328,1.28464,0.125428,0.90341,0.116293
1694639823062500,-9.823231,-1.403328,1.9464,0.122328,0.79241,0.124293
1694639823070312,-9.836231,-1.527328,0.964464,0.127128,0.63841,0.130993
1694639823078125,-9.897231,-1.578328,0.928464,0.127028,0.54341,0.138893
1694639823085937,-9.957231,-1.608328,0.912464,0.122828,0.46141,0.150193
1694639823093750,-9.961231,-1.650328,0.862464,0.124428,0.44241,0.150293
1694639823101562,-9.920231,-1.716328,0.805464,0.124128,0.46241,0.146993
1694639823109375,-9.837231,-1.776328,0.733464,0.124328,0.42841,0.151893
1694639823117187,-9.785231,-1.839328,0.642464,0.122528,0.37341,0.139393
1694639823125000,-9.801231,-1.875328,0.564464,0.102328,0.34241,0.128493
1694639823132812,-9.843231,-1.852328,0.535464,0.89928,0.28241,0.105293
1694639823140625,-9.923231,-1.797328,0.548464,0.77228,0.35941,0.76893
1694639823148437,-10.17231,-1.738328,0.569464,0.72428,0.48641,0.56293
1694639823156250,-9.993231,-1.631328,0.600464,0.73928,0.64841,0.44993
1694639823164062,-9.976231,-1.587328,0.600464,0.72228,0.75941,0.29093
1694639823171875,-10.12231,-1.539328,0.643464,0.73828,0.92341,0.19393
1694639823179687,-9.871231,-1.475328,0.723464,0.72228,0.112341,0.12593
1694639823187500,-9.717231,-1.447328,0.714464,0.79528,0.117941,0.11107
1694639823195312,-9.699231,-1.399328,0.741464,0.94228,0.108441,0.33007
1694639823203125,-9.703231,-1.341328,0.793464,0.113728,0.102741,0.45607
1694639823210937,-9.641231,-1.312328,0.793464,0.130628,0.85041,0.46807
1694639823218750,-9.603231,-1.311328,0.777464,0.153428,0.62741,0.44907
1694639823226562,-9.565231,-1.282328,0.746464,0.168728,0.57241,0.46407
1694639823234375,-9.547231,-1.314328,0.668464,0.177328,0.32141,0.49207
1694639823242187,-9.684231,-1.363328,0.595464,0.192428,0.18441,0.49007
1694639823250000,-9.834231,-1.371328,0.572464,0.192028,0.10341,0.53707
1694639823257812,-9.967231,-1.382328,0.525464,0.193828,0.8141,0.53507
1694639823265625,-9.998231,-1.445328,0.479464,0.198728,0.18041,0.49007
1694639823273437,-9.986231,-1.533328,0.445464,0.193928,0.18741,0.46007
1694639823281250,-10.48231,-1.604328,0.388464,0.181828,0.20841,0.41207
1694639823289062,-10.113231,-1.661328,0.393464,0.162128,0.36341,0.41407
1694639823296875,-10.108231,-1.719328,0.425464,0.136428,0.40441,0.35007
1694639823304687,-10.21231,-1.740328,0.434464,0.98528,0.51441,0.28707
1694639823312500,-9.956231,-1.692328,0.423464,0.61828,0.52241,0.30007
1694639823320312,-9.976231,-1.569328,0.452464,0.22128,0.58341,0.28407
1694639823328125,-10.4231,-1.456328,0.497464,0.1972,0.58441,0.28107
1694639823335937,-9.982231,-1.373328,0.511464,0.23672,0.66541,0.23607
1694639823343750,-9.937231,-1.287328,0.513464,0.35572,0.76941,0.15907
1694639823351562,-9.843231,-1.217328,0.526464,0.55172,0.84541,0.4907
1694639823359375,-9.744231,-1.164328,0.503464,0.73272,0.92241,0.7593
1694639823367187,-9.700231,-1.80328,0.492464,0.69872,0.85741,0.21893
1694639823375000,-9.675231,-1.34328,0.481464,0.71472,0.72641,0.26893
1694639823382812,-9.716231,-1.44328,0.472464,0.68372,0.68841,0.23793
1694639823390625,-9.725231,-1.22328,0.499464,0.71272,0.79341,0.29893
1694639823398437,-9.667231,0.982328,0.494464,0.74372,0.84041,0.20393
1694639823406250,-9.642231,-1.21328,0.458464,0.72972,0.89241,0.18693
1694639823414062,-9.697231,-1.73328,0.485464,0.72872,0.87341,0.20293
1694639823421875,-9.842231,-1.85328,0.506464,0.81772,0.82041,0.45593
1694639823429687,-9.850231,-1.34328,0.583464,0.90772,0.91041,0.53193
1694639823437500,-9.750231,-1.35328,0.633464,0.93672,0.75741,0.56793
1694639823445312,-9.636231,-1.47328,0.656464,0.95172,0.87441,0.54993
1694639823453125,-9.664231,-1.34328,0.711464,0.98272,0.77541,0.56793
1694639823460937,-9.746231,0.966328,0.763464,0.93772,0.72141,0.52193
1694639823468750,-9.786231,0.928328,0.824464,0.75772,0.73441,0.42493
1694639823476562,-9.845231,0.865328,0.863464,0.60472,0.77441,0.32993
1694639823484375,-9.880231,0.831328,0.878464,0.24272,0.68441,0.28193
1694639823492187,-9.872231,0.923328,0.897464,0.10728,0.66641,0.35693
1694639823500000,-9.818231,0.994328,0.902464,0.37228,0.56941,0.39193
1694639823507812,-9.838231,-1.48328,0.858464,0.58328,0.51941,0.40593
1694639823515625,-9.950231,-1.108328,0.841464,0.79828,0.37741,0.43993
1694639823523437,-9.968231,-1.186328,0.850464,0.94928,0.32741,0.46993
1694639823531250,-9.933231,-1.288328,0.797464,0.105528,0.19541,0.53493
1694639823539062,-9.913231,-1.396328,0.704464,0.116328,0.641,0.56993
1694639823546875,-9.931231,-1.505328,0.625464,0.110428,0.15759,0.68493
1694639823554687,-9.979231,-1.529328,0.582464,0.98428,0.28659,0.81393
1694639823562500,-10.28231,-1.587328,0.497464,0.84328,0.34459,0.81493
1694639823570312,-10.34231,-1.619328,0.404464,0.74128,0.27959,0.84693
1694639823578125,-10.44231,-1.595328,0.347464,0.67728,0.22359,0.82893
1694639823585937,-10.24231,-1.559328,0.290464,0.63228,0.3859,0.80993
1694639823593750,-9.963231,-1.540328,0.233464,0.63228,0.7541,0.74493
1694639823601562,-9.943231,-1.542328,0.222464,0.49528,0.32641,0.63093
1694639823609375,-9.897231,-1.576328,0.252464,0.44928,0.49341,0.56393
1694639823617187,-9.784231,-1.587328,0.252464,0.23628,0.61541,0.54793
1694639823625000,-9.706231,-1.628328,0.266464,0.25428,0.88241,0.55793
1694639823632812,-9.645231,-1.638328,0.338464,0.6928,0.109141,0.53793
1694639823640625,-9.600231,-1.605328,0.384464,0.5272,0.110441,0.42893
1694639823648437,-9.660231,-1.522328,0.438464,0.23772,0.112141,0.33593
1694639823656250,-9.713231,-1.389328,0.543464,0.31372,0.112741,0.14893
1694639823664062,-9.753231,-1.320328,0.647464,0.29872,0.134941,0.14393
1694639823671875,-9.749231,-1.243328,0.734464,0.23672,0.145441,0.23393
1694639823679687,-9.712231,-1.138328,0.784464,0.7972,0.157641,0.45093
1694639823687500,-9.677231,-1.90328,0.813464,0.16628,0.159241,0.55893
1694639823695312,-9.643231,-1.52328,0.852464,0.39628,0.155041,0.52793
1694639823703125,-9.598231,-1.55328,0.907464,0.67128,0.154941,0.61993
1694639823710937,-9.565231,-1.116328,0.939464,0.97628,0.149641,0.69693
1694639823718750,-9.556231,-1.165328,0.957464,0.122028,0.149441,0.74193
1694639823726562,-9.548231,-1.248328,0.978464,0.154128,0.146941,0.75593
1694639823734375,-9.549231,-1.339328,1.3464,0.170928,0.138541,0.80393
1694639823742187,-9.608231,-1.416328,1.21464,0.178828,0.133241,0.88393
1694639823750000,-9.681231,-1.478328,1.53464,0.189428,0.120341,0.101093
1694639823757812,-9.752231,-1.558328,1.49464,0.194128,0.100841,0.118693
1694639823765625,-9.828231,-1.640328,1.40464,0.197228,0.82841,0.129993
1694639823773437,-9.923231,-1.667328,1.40464,0.195928,0.61241,0.143093
1694639823781250,-10.13231,-1.715328,1.28464,0.205128,0.48941,0.165193
1694639823789062,-10.46231,-1.784328,0.997464,0.213128,0.33941,0.184393
1694639823796875,-9.976231,-1.796328,0.935464,0.219328,0.19541,0.200293
1694639823804687,-9.917231,-1.787328,0.869464,0.230428,0.16241,0.216093
1694639823812500,-9.910231,-1.843328,0.783464,0.234528,0.7441,0.200393
1694639823820312,-9.922231,-1.894328,0.712464,0.248128,0.9741,0.186193
1694639823828125,-9.897231,-1.921328,0.614464,0.250828,0.4141,0.170593
1694639823835937,-9.851231,-1.968328,0.526464,0.261328,0.11341,0.149993
1694639823843750,-9.846231,-2.30328,0.460464,0.248628,0.14441,0.131093
1694639823851562,-9.851231,-2.117328,0.440464,0.244128,0.18741,0.116993
1694639823859375,-9.807231,-2.247328,0.385464,0.236128,0.19741,0.95093
1694639823867187,-9.767231,-2.305328,0.356464,0.205428,0.21141,0.78093
1694639823875000,-9.702231,-2.270328,0.358464,0.173328,0.32041,0.74793
1694639823882812,-9.685231,-2.217328,0.328464,0.131828,0.47641,0.58993
1694639823890625,-9.690231,-2.128328,0.337464,0.96728,0.52941,0.51293
1694639823898437,-9.724231,-1.969328,0.364464,0.75328,0.64641,0.40293
1694639823906250,-9.792231,-1.834328,0.407464,0.73628,0.91341,0.25493
1694639823914062,-9.918231,-1.723328,0.439464,0.69028,0.104341,0.15893
1694639823921875,-9.969231,-1.605328,0.550464,0.70828,0.137841,0.15193
1694639823929687,-9.904231,-1.524328,0.627464,0.75528,0.156941,0.25693
1694639823937500,-9.848231,-1.504328,0.718464,0.98528,0.174641,0.20493
1694639823945312,-9.746231,-1.512328,0.807464,0.120228,0.181541,0.39093
1694639823953125,-9.616231,-1.574328,0.878464,0.135828,0.188241,0.49793
1694639823960937,-9.583231,-1.669328,0.940464,0.155428,0.167941,0.53193
1694639823968750,-9.648231,-1.769328,1.10464,0.170428,0.159541,0.51593
1694639823976562,-9.681231,-1.840328,1.56464,0.171928,0.146241,0.56593
1694639823984375,-9.664231,-1.918328,1.52464,0.172028,0.133141,0.67893
1694639823992187,-9.688231,-1.996328,1.22464,0.170628,0.118341,0.75993
1694639824000000,-9.723231,-2.28328,1.16464,0.172128,0.112841,0.69893
1694639824007812,-9.771231,-2.10328,0.995464,0.170428,0.112541,0.62093
1694639824015625,-9.801231,-1.998328,1.4464,0.171928,0.115441,0.52693
1694639824023437,-9.756231,-1.972328,1.6464,0.170228,0.105041,0.44993
1694639824031250,-9.663231,-1.920328,1.464,0.186728,0.108841,0.24493
1694639824039062,-9.625231,-1.894328,0.981464,0.191028,0.118641,0.11593
1694639824046875,-9.608231,-1.849328,0.967464,0.204528,0.114141,0.4007
1694639824054687,-9.647231,-1.793328,0.992464,0.207228,0.122241,0.18507
1694639824062500,-9.697231,-1.765328,1.20464,0.211928,0.106541,0.19607
1694639824070312,-9.754231,-1.745328,1.42464,0.216328,0.98041,0.22607
1694639824078125,-9.856231,-1.708328,1.58464,0.236428,0.91541,0.5307
1694639824085937,-9.902231,-1.700328,1.83464,0.242828,0.82041,0.15193
1694639824093750,-9.854231,-1.723328,1.104464,0.244728,0.63041,0.46993
1694639824101562,-9.830231,-1.752328,1.61464,0.243728,0.60141,0.65993
1694639824109375,-9.830231,-1.790328,1.20464,0.246928,0.44441,0.89793
1694639824117187,-9.758231,-1.859328,0.961464,0.251928,0.24441,0.109193
1694639824125000,-9.688231,-1.964328,0.833464,0.248828,0.16141,0.132693
1694639824132812,-9.717231,-2.19328,0.699464,0.247528,0.8241,0.150193
1694639824140625,-9.754231,-2.42328,0.592464,0.231228,0.1941,0.163093
1694639824148437,-9.802231,-2.79328,0.487464,0.226528,0.7959,0.163293
1694639824156250,-9.841231,-2.159328,0.410464,0.218928,0.3841,0.159993
1694639824164062,-9.831231,-2.123328,0.344464,0.197828,0.25041,0.170593
1694639824171875,-9.823231,-2.52328,0.273464,0.182528,0.41941,0.164093
1694639824179687,-9.836231,-2.54328,0.269464,0.170428,0.63341,0.149593
1694639824187500,-9.806231,-1.986328,0.339464,0.144228,0.95941,0.141093
1694639824195312,-9.746231,-1.869328,0.375464,0.122828,0.118341,0.135993
1694639824203125,-9.728231,-1.824328,0.453464,0.124528,0.141341,0.130893
1694639824210937,-9.717231,-1.818328,0.589464,0.123128,0.163341,0.131993
1694639824218750,-9.658231,-1.790328,0.733464,0.100528,0.167141,0.136793
1694639824226562,-9.561231,-1.762328,0.835464,0.100628,0.179041,0.139693
1694639824234375,-9.466231,-1.732328,0.931464,0.99328,0.171341,0.157193
1694639824242187,-9.424231,-1.700328,1.13464,0.101128,0.171741,0.171293
1694639824250000,-9.474231,-1.695328,1.65464,0.99928,0.157641,0.195093
1694639824257812,-9.533231,-1.681328,1.127464,0.118528,0.154941,0.220193
1694639824265625,-9.594231,-1.703328,1.154464,0.132228,0.145141,0.229593
1694639824273437,-9.594231,-1.807328,1.159464,0.154228,0.123741,0.262993
1694639824281250,-9.650231,-1.895328,1.100464,0.170028,0.112941,0.296093
1694639824289062,-9.653231,-2.21328,1.66464,0.185528,0.98941,0.329193
1694639824296875,-9.685231,-2.205328,0.977464,0.205728,0.74141,0.354793
1694639824304687,-9.789231,-2.335328,0.921464,0.200128,0.66941,0.383193
1694639824312500,-9.794231,-2.500328,0.869464,0.201828,0.47941,0.408693
1694639824320312,-9.794231,-2.658328,0.760464,0.200728,0.43141,0.422993
1694639824328125,-9.782231,-2.756328,0.644464,0.182628,0.48941,0.432393
1694639824335937,-9.760231,-2.850328,0.555464,0.168728,0.52741,0.430793
1694639824343750,-9.669231,-2.879328,0.483464,0.136928,0.57941,0.429393
1694639824351562,-9.570231,-2.874328,0.448464,0.112028,0.73241,0.408693
1694639824359375,-9.552231,-2.859328,0.398464,0.96428,0.79341,0.383593
1694639824367187,-9.600231,-2.814328,0.443464,0.78928,0.78641,0.350693
1694639824375000,-9.741231,-2.821328,0.489464,0.58528,0.94541,0.314393
1694639824382812,-9.821231,-2.853328,0.585464,0.46228,0.123841,0.287193
1694639824390625,-9.711231,-2.815328,0.667464,0.29328,0.138841,0.274393
1694639824398437,-9.505231,-2.784328,0.696464,0.26128,0.149541,0.252293
1694639824406250,-9.365231,-2.753328,0.730464,0.5528,0.147841,0.227193
1694639824414062,-9.294231,-2.689328,0.828464,0.3728,0.141941,0.206993
1694639824421875,-9.215231,-2.626328,0.894464,0.1728,0.129041,0.179093
1694639824429687,-9.154231,-2.595328,0.928464,0.172,0.117841,0.155793
1694639824437500,-9.156231,-2.575328,0.935464,0.2328,0.108241,0.126193
1694639824445312,-9.254231,-2.560328,0.958464,0.9228,0.91741,0.91893
1694639824453125,-9.428231,-2.580328,1.6464,0.21028,0.94941,0.57293
1694639824460937,-9.539231,-2.579328,1.49464,0.31728,0.106141,0.50693
1694639824468750,-9.559231,-2.623328,1.85464,0.52928,0.108741,0.42693
1694639824476562,-9.499231,-2.734328,1.63464,0.61828,0.113641,0.36193
1694639824484375,-9.489231,-2.776328,1.42464,0.65128,0.98741,0.49093
1694639824492187,-9.553231,-2.773328,1.45464,0.55828,0.95941,0.52293
1694639824500000,-9.607231,-2.777328,1.56464,0.55628,0.95841,0.44393
1694639824507812,-9.598231,-2.766328,1.90464,0.60128,0.90741,0.44393
1694639824515625,-9.517231,-2.734328,1.117464,0.70728,0.92041,0.39593
1694639824523437,-9.494231,-2.723328,1.111464,0.70528,0.71241,0.29093
1694639824531250,-9.524231,-2.738328,1.145464,0.73328,0.67541,0.19793
1694639824539062,-9.612231,-2.762328,1.163464,0.71528,0.61941,0.5793
1694639824546875,-9.708231,-2.798328,1.174464,0.73128,0.63341,0.993
1694639824554687,-9.776231,-2.820328,1.190464,0.71528,0.73741,0.2293
1694639824562500,-9.794231,-2.848328,1.172464,0.73528,0.82241,0.13193
1694639824570312,-9.746231,-2.878328,1.145464,0.72028,0.72641,0.22793
1694639824578125,-9.700231,-2.905328,1.104464,0.75228,0.76441,0.33693
1694639824585937,-9.680231,-2.939328,1.58464,0.73528,0.66741,0.38493
1694639824593750,-9.734231,-2.960328,1.20464,0.72228,0.71741,0.41693
1694639824601562,-9.754231,-2.949328,1.8464,0.75228,0.68541,0.43193
1694639824609375,-9.690231,-2.969328,0.995464,0.87828,0.82941,0.44593
1694639824617187,-9.631231,-2.981328,0.943464,0.86128,0.92641,0.31793
1694639824625000,-9.562231,-2.954328,0.949464,0.79728,0.106241,0.21993
1694639824632812,-9.480231,-2.946328,0.977464,0.91628,0.108241,0.3207
1694639824640625,-9.449231,-2.913328,0.999464,0.97228,0.100741,0.21907
1694639824648437,-9.388231,-2.864328,1.50464,0.77228,0.103241,0.46907
1694639824656250,-9.323231,-2.811328,1.84464,0.83228,0.107541,0.59507
1694639824664062,-9.335231,-2.767328,1.118464,0.90428,0.105541,0.73807
1694639824671875,-9.354231,-2.707328,1.197464,0.76628,0.105441,0.81507
1694639824679687,-9.335231,-2.625328,1.258464,0.80828,0.88641,0.86007
1694639824687500,-9.322231,-2.543328,1.301464,0.79428,0.85441,0.81207
1694639824695312,-9.289231,-2.461328,1.338464,0.85428,0.70041,0.80807
1694639824703125,-9.302231,-2.376328,1.354464,0.97628,0.56541,0.75907
1694639824710937,-9.385231,-2.259328,1.378464,0.97728,0.56841,0.69707
1694639824718750,-9.394231,-2.207328,1.401464,0.120628,0.35941,0.69307
1694639824726562,-9.323231,-2.162328,1.362464,0.138628,0.32241,0.74107
1694639824734375,-9.279231,-2.93328,1.326464,0.161228,0.16341,0.83407
1694639824742187,-9.272231,-2.95328,1.291464,0.182328,0.5141,0.97407
1694639824750000,-9.336231,-2.179328,1.244464,0.206428,0.5941,0.110207
1694639824757812,-9.360231,-2.247328,1.217464,0.217328,0.11359,0.106607
1694639824765625,-9.371231,-2.317328,1.146464,0.232428,0.24059,0.90907
1694639824773437,-9.395231,-2.381328,1.71464,0.241728,0.44559,0.87307
1694639824781250,-9.450231,-2.491328,1.12464,0.243328,0.54359,0.79307
1694639824789062,-9.506231,-2.551328,0.944464,0.241828,0.72359,0.67907
1694639824796875,-9.594231,-2.576328,0.848464,0.238928,0.79759,0.48907
1694639824804687,-9.647231,-2.626328,0.755464,0.219328,0.101259,0.38807
1694639824812500,-9.665231,-2.678328,0.671464,0.213328,0.100259,0.24807
1694639824820312,-9.696231,-2.728328,0.539464,0.194128,0.102559,0.593
1694639824828125,-9.684231,-2.770328,0.459464,0.183528,0.105059,0.13293
1694639824835937,-9.726231,-2.838328,0.357464,0.170328,0.97859,0.27493
1694639824843750,-9.764231,-2.885328,0.257464,0.162928,0.96659,0.47793
1694639824851562,-9.762231,-2.922328,0.216464,0.146328,0.87659,0.55593
1694639824859375,-9.740231,-2.962328,0.159464,0.140428,0.79159,0.58693
1694639824867187,-9.702231,-2.985328,0.89464,0.120628,0.70459,0.56993
1694639824875000,-9.697231,-2.994328,0.75464,0.115928,0.53159,0.56593
1694639824882812,-9.740231,-2.998328,0.54464,0.96328,0.39359,0.57993
1694639824890625,-9.788231,-2.961328,0.61464,0.99428,0.29859,0.49993
1694639824898437,-9.793231,-2.924328,0.75464,0.86928,0.5441,0.33593
1694639824906250,-9.823231,-2.879328,0.97464,0.80928,0.17041,0.27093
1694639824914062,-9.824231,-2.839328,0.141464,0.73128,0.45741,0.20193
1694639824921875,-9.861231,-2.788328,0.213464,0.76128,0.60341,0.7293
1694639824929687,-9.823231,-2.741328,0.304464,0.76328,0.88441,0.493
1694639824937500,-9.745231,-2.683328,0.409464,0.73228,0.132541,0.3707
1694639824945312,-9.616231,-2.629328,0.473464,0.79428,0.140841,0.2307
1694639824953125,-9.508231,-2.584328,0.550464,0.85528,0.159041,0.7507
1694639824960937,-9.495231,-2.559328,0.627464,0.93428,0.175541,0.4707
1694639824968750,-9.500231,-2.519328,0.743464,0.81328,0.179341,0.1507
1694639824976562,-9.469231,-2.448328,0.844464,0.89128,0.179441,0.7893
1694639824984375,-9.394231,-2.449328,0.910464,0.100028,0.179441,0.17293
1694639824992187,-9.339231,-2.515328,0.939464,0.100028,0.181541,0.21893
1694639825000000,-9.294231,-2.525328,0.983464,0.95328,0.175241,0.25093
1694639825007812,-9.302231,-2.542328,1.8464,0.92528,0.168541,0.33193
1694639825015625,-9.397231,-2.556328,1.19464,0.98828,0.158441,0.39693
1694639825023437,-9.499231,-2.567328,1.42464,0.97128,0.147341,0.47693
1694639825031250,-9.536231,-2.608328,1.49464,0.99028,0.140341,0.54193
1694639825039062,-9.513231,-2.653328,1.15464,0.97728,0.142641,0.68293
1694639825046875,-9.470231,-2.656328,0.999464,0.96228,0.126341,0.79593
1694639825054687,-9.409231,-2.665328,0.963464,0.96128,0.114541,0.78293
1694639825062500,-9.388231,-2.690328,0.924464,0.97728,0.99141,0.80293
1694639825070312,-9.436231,-2.691328,0.890464,0.99028,0.89041,0.75693
1694639825078125,-9.524231,-2.692328,0.840464,0.100328,0.73341,0.65093
1694639825085937,-9.574231,-2.701328,0.814464,0.113728,0.66341,0.58793
1694639825093750,-9.637231,-2.700328,0.783464,0.121328,0.67641,0.53993
1694639825101562,-9.696231,-2.722328,0.776464,0.122828,0.72941,0.55393
1694639825109375,-9.698231,-2.749328,0.773464,0.131828,0.84641,0.53493
1694639825117187,-9.635231,-2.779328,0.762464,0.141128,0.92941,0.54793
1694639825125000,-9.568231,-2.795328,0.776464,0.147328,0.95841,0.53193
1694639825132812,-9.520231,-2.829328,0.790464,0.145828,0.94141,0.54793
1694639825140625,-9.497231,-2.860328,0.801464,0.147428,0.101941,0.43793
1694639825148437,-9.494231,-2.905328,0.822464,0.154828,0.91441,0.37593
1694639825156250,-9.533231,-2.866328,0.856464,0.142428,0.91441,0.29793
1694639825164062,-9.606231,-2.794328,0.899464,0.136128,0.102541,0.10793
1694639825171875,-9.577231,-2.786328,0.935464,0.138828,0.88641,0.1507
1694639825179687,-9.486231,-2.784328,0.926464,0.125128,0.98741,0.6307
1694639825187500,-9.399231,-2.777328,0.894464,0.127828,0.92141,0.14107
1694639825195312,-9.363231,-2.711328,0.869464,0.124628,0.63141,0.19707
1694639825203125,-9.417231,-2.609328,0.855464,0.124428,0.52541,0.28907
1694639825210937,-9.530231,-2.536328,0.862464,0.118328,0.51841,0.42807
1694639825218750,-9.602231,-2.480328,0.871464,0.133128,0.48541,0.46207
1694639825226562,-9.639231,-2.444328,0.850464,0.149928,0.46541,0.44707
1694639825234375,-9.645231,-2.430328,0.859464,0.169928,0.49341,0.43207
1694639825242187,-9.598231,-2.443328,0.843464,0.169728,0.53141,0.43507
1694639825250000,-9.557231,-2.465328,0.823464,0.185028,0.56241,0.42007
1694639825257812,-9.527231,-2.477328,0.825464,0.198628,0.42341,0.44907
1694639825265625,-9.504231,-2.513328,0.823464,0.195528,0.35541,0.46407
1694639825273437,-9.536231,-2.523328,0.796464,0.195528,0.28941,0.44607
1694639825281250,-9.581231,-2.543328,0.780464,0.203028,0.8541,0.45807
1694639825289062,-9.583231,-2.551328,0.739464,0.207728,0.8141,0.47307
1694639825296875,-9.581231,-2.556328,0.693464,0.198428,0.6941,0.44207
1694639825304687,-9.585231,-2.526328,0.630464,0.203228,0.6741,0.42607
1694639825312500,-9.634231,-2.504328,0.572464,0.213828,0.2141,0.33207
1694639825320312,-9.642231,-2.508328,0.538464,0.218528,0.5241,0.31707
1694639825328125,-9.601231,-2.508328,0.491464,0.217228,0.18441,0.33507
1694639825335937,-9.561231,-2.504328,0.454464,0.218928,0.33541,0.32207
1694639825343750,-9.567231,-2.526328,0.438464,0.226428,0.23141,0.35207
1694639825351562,-9.557231,-2.586328,0.450464,0.228328,0.40041,0.26007
1694639825359375,-9.538231,-2.626328,0.446464,0.220728,0.42241,0.19807
1694639825367187,-9.516231,-2.652328,0.457464,0.214328,0.52841,0.24907
1694639825375000,-9.532231,-2.654328,0.461464,0.208328,0.54641,0.23307
1694639825382812,-9.593231,-2.678328,0.459464,0.196028,0.51941,0.18507
1694639825390625,-9.654231,-2.654328,0.466464,0.179928,0.54041,0.1007
1694639825398437,-9.675231,-2.652328,0.470464,0.169228,0.55141,0.13093
1694639825406250,-9.657231,-2.646328,0.454464,0.171028,0.58941,0.25593
1694639825414062,-9.634231,-2.621328,0.439464,0.160828,0.58041,0.46093
1694639825421875,-9.670231,-2.616328,0.411464,0.164228,0.69841,0.53793
1694639825429687,-9.722231,-2.636328,0.414464,0.173228,0.74941,0.53493
1694639825437500,-9.681231,-2.654328,0.425464,0.170528,0.87241,0.65893
1694639825445312,-9.613231,-2.670328,0.393464,0.172128,0.95741,0.70393
1694639825453125,-9.629231,-2.657328,0.384464,0.176528,0.101941,0.57693
1694639825460937,-9.594231,-2.710328,0.434464,0.185828,0.106341,0.54493
1694639825468750,-9.588231,-2.822328,0.432464,0.196428,0.111341,0.52593
1694639825476562,-9.540231,-2.881328,0.457464,0.185628,0.115341,0.54093
1694639825484375,-9.469231,-2.913328,0.451464,0.193228,0.111641,0.52593
1694639825492187,-9.462231,-2.972328,0.453464,0.182428,0.101841,0.52793
1694639825500000,-9.477231,-3.20328,0.462464,0.164228,0.95441,0.54693
1694639825507812,-9.479231,-3.45328,0.460464,0.148728,0.77341,0.53593
1694639825515625,-9.448231,-3.36328,0.462464,0.131928,0.70941,0.52293
1694639825523437,-9.427231,-3.23328,0.460464,0.118128,0.66041,0.49293
1694639825531250,-9.380231,-3.29328,0.464464,0.108528,0.52541,0.36993
1694639825539062,-9.310231,-3.12328,0.449464,0.94628,0.43941,0.29493
1694639825546875,-9.274231,-2.947328,0.405464,0.76228,0.42141,0.18693
1694639825554687,-9.275231,-2.914328,0.371464,0.60528,0.35441,0.3193
1694639825562500,-9.343231,-2.891328,0.350464,0.45128,0.36941,0.9307
1694639825570312,-9.412231,-2.843328,0.362464,0.26728,0.38241,0.21707
1694639825578125,-9.489231,-2.811328,0.398464,0.23628,0.36841,0.20107
1694639825585937,-9.528231,-2.770328,0.421464,0.13128,0.55441,0.20407
1694639825593750,-9.503231,-2.766328,0.443464,0.928,0.57641,0.17307
1694639825601562,-9.501231,-2.761328,0.462464,0.10972,0.59441,0.10807
1694639825609375,-9.510231,-2.746328,0.498464,0.26072,0.65341,0.0
1694639825617187,-9.573231,-2.712328,0.525464,0.24672,0.64541,0.9293
1694639825625000,-9.602231,-2.658328,0.587464,0.28672,0.83241,0.23193
1694639825632812,-9.602231,-2.651328,0.612464,0.22272,0.100441,0.35393
1694639825640625,-9.610231,-2.623328,0.636464,0.26772,0.116641,0.49093
1694639825648437,-9.652231,-2.608328,0.687464,0.11072,0.126241,0.55193
1694639825656250,-9.659231,-2.615328,0.744464,0.1428,0.141841,0.71993
1694639825664062,-9.650231,-2.629328,0.787464,0.18328,0.150441,0.82693
1694639825671875,-9.638231,-2.683328,0.821464,0.26428,0.157541,0.99793
1694639825679687,-9.562231,-2.753328,0.855464,0.42128,0.169941,0.122893
1694639825687500,-9.502231,-2.814328,0.899464,0.59128,0.154941,0.138893
1694639825695312,-9.497231,-2.919328,0.931464,0.69728,0.158441,0.143393
1694639825703125,-9.459231,-3.29328,0.968464,0.74528,0.155241,0.152893
1694639825710937,-9.390231,-3.99328,1.2464,0.74628,0.148641,0.157693
1694639825718750,-9.322231,-3.138328,0.986464,0.77428,0.130441,0.159593
1694639825726562,-9.303231,-3.176328,0.954464,0.80328,0.109741,0.152193
1694639825734375,-9.330231,-3.196328,0.934464,0.78328,0.98941,0.131993
1694639825742187,-9.348231,-3.197328,0.916464,0.88728,0.82541,0.113493
1694639825750000,-9.326231,-3.164328,0.875464,0.82128,0.68341,0.88793
1694639825757812,-9.335231,-3.143328,0.813464,0.92528,0.61941,0.65293
1694639825765625,-9.328231,-3.125328,0.765464,0.96928,0.54641,0.54493
1694639825773437,-9.316231,-3.93328,0.740464,0.97528,0.55741,0.24493
1694639825781250,-9.274231,-3.24328,0.724464,0.91028,0.53041,0.3707
1694639825789062,-9.239231,-2.995328,0.690464,0.97028,0.59941,0.27307
1694639825796875,-9.297231,-2.961328,0.651464,0.91828,0.62741,0.52507
1694639825804687,-9.359231,-2.927328,0.697464,0.76328,0.67441,0.69807
