time,Acceleration X (m/s^2),Acceleration Y (m/s^2),Acceleration Z (m/s^2),Angular Velocity X (rad/s),Angular Velocity Y (rad/s),Angular Velocity Z (rad/s)
1694639551531250,-9.703592,-0.481646,,,,
1694639551539062,-9.690592,0.472646,0.716362,0.385426,0.20482,0.178394
1694639551546875,-9.686592,0.453646,0.755362,0.388926,0.22882,0.156494
1694639551554687,-9.704592,0.464646,0.759362,0.395726,0.17082,0.121794
1694639551562500,-9.723592,0.499646,0.780362,0.416026,0.13882,0.74894
1694639551570312,-9.771592,0.523646,0.805362,0.414926,0.5882,0.57294
1694639551585937,-9.896592,0.579646,0.819362,0.439926,0.2482,0.8894
1694639551593750,-9.946592,0.594646,0.830362,0.458626,0.518,0.13106
1694639551601562,-9.944592,0.588646,0.823362,0.466526,0.2318,0.19406
1694639551609375,-9.876592,0.591646,0.816362,0.469826,0.10018,0.40006
1694639551632812,-9.630592,0.511646,0.771362,0.515826,0.18318,0.63306
1694639551640625,-9.649592,0.482646,0.739362,0.514726,0.9518,0.77406
1694639551648437,-9.773592,0.480646,0.727362,0.519426,0.318,0.92706
1694639551656250,-9.889592,0.488646,0.736362,0.541126,0.6018,0.99106
1694639551664062,-10.27592,0.506646,0.702362,0.542326,0.5582,0.87806
1694639551671875,-10.153592,0.538646,0.682362,0.557326,0.12318,0.72406
1694639551679687,-10.233592,0.598646,0.668362,0.562726,0.14518,0.50306
1694639551687500,-10.299592,0.656646,0.648362,0.574626,0.16518,0.15906
1694639551695312,-10.298592,0.717646,0.618362,0.587826,0.16718,0.21894
1694639551703125,-10.268592,0.752646,0.609362,0.594726,0.17818,0.53294
1694639551710937,-10.211592,0.791646,0.573362,0.606526,0.16118,0.84794
1694639551718750,-10.141592,0.821646,0.539362,0.612126,0.4418,0.122694
1694639551726562,-10.93592,0.864646,0.493362,0.623826,0.2218,0.149594
1694639551734375,-10.2592,0.876646,0.453362,0.640426,0.2082,0.162394
1694639551742187,-9.884592,0.875646,0.428362,0.644626,0.9882,0.181494
1694639551750000,-9.780592,0.899646,0.364362,0.653826,0.17582,0.187894
1694639551757812,-9.723592,0.894646,0.319362,0.643026,0.21782,0.183294
1694639551765625,-9.705592,0.904646,0.268362,0.647926,0.11282,0.176694
1694639551773437,-9.756592,0.918646,0.223362,0.634126,0.24382,0.164494
1694639551781250,-9.782592,0.934646,0.211362,0.631426,0.27482,0.162794
1694639551789062,-9.792592,0.936646,0.177362,0.637326,0.24282,0.164494
1694639551796875,-9.815592,0.937646,0.136362,0.627826,0.29082,0.177094
1694639551804687,-9.822592,0.967646,0.134362,0.619026,0.25282,0.179994
1694639551812500,-9.826592,0.947646,0.148362,0.614226,0.25682,0.179994
1694639551820312,-9.811592,0.925646,0.136362,0.608026,0.16982,0.187594
1694639551828125,-9.761592,0.938646,0.114362,0.595526,0.9182,0.187494
1694639551835937,-9.715592,0.977646,0.98362,0.566526,0.2118,0.188594
1694639551843750,-9.706592,-1.6646,0.66362,0.559126,0.418,0.185394
1694639551851562,-9.756592,-1.3646,0.39362,0.546926,0.3118,0.177394
1694639551859375,-9.888592,-1.7646,0.4638,0.541626,0.12282,0.160294
1694639551867187,-10.90592,-1.7646,0.17638,0.538326,0.20282,0.149594
1694639551875000,-10.269592,-1.36646,0.34638,0.535726,0.20582,0.135394
1694639551882812,-10.432592,-1.68646,0.54638,0.535626,0.23982,0.137094
1694639551890625,-10.564592,-1.60646,0.43638,0.537326,0.23882,0.132294
1694639551898437,-10.631592,-1.59646,0.38638,0.518926,0.10982,0.131894
1694639551906250,-10.648592,-1.68646,0.41638,0.509826,0.4218,0.129894
1694639551914062,-10.640592,-1.78646,0.24638,0.512726,0.24018,0.124894
1694639551921875,-10.598592,-1.66646,0.11362,0.500826,0.38618,0.110294
1694639551929687,-10.503592,-1.38646,0.50362,0.496326,0.55018,0.101994
1694639551937500,-10.390592,-1.13646,0.104362,0.505426,0.71218,0.87694
1694639551945312,-10.261592,0.993646,0.163362,0.488926,0.87318,0.73094
1694639551953125,-10.119592,0.986646,0.202362,0.492326,0.87018,0.58894
1694639551960937,-9.974592,0.999646,0.230362,0.478626,0.86618,0.55694
1694639551968750,-9.858592,0.983646,0.280362,0.481826,0.86218,0.44694
1694639551976562,-9.754592,0.932646,0.323362,0.475726,0.82118,0.35394
1694639551984375,-9.596592,0.939646,0.346362,0.463726,0.73418,0.32394
1694639551992187,-9.438592,0.939646,0.346362,0.464126,0.68118,0.21394
1694639552000000,-9.280592,0.929646,0.321362,0.461426,0.56118,0.10594
1694639552007812,-9.143592,0.941646,0.289362,0.450826,0.44918,0.3306
1694639552015625,-9.109592,0.945646,0.237362,0.446626,0.22218,0.18506
1694639552023437,-9.134592,0.925646,0.177362,0.466826,0.6918,0.35306
1694639552031250,-9.185592,0.950646,0.120362,0.459726,0.7882,0.39906
1694639552039062,-9.243592,0.950646,0.20362,0.464226,0.33482,0.39206
1694639552046875,-9.306592,0.942646,0.63638,0.468626,0.38882,0.40506
1694639552054687,-9.455592,0.917646,0.129638,0.472926,0.56982,0.27506
1694639552062500,-9.669592,0.877646,0.204638,0.474426,0.69782,0.13106
1694639552070312,-9.770592,0.902646,0.243638,0.489426,0.75882,0.1806
1694639552078125,-9.804592,0.951646,0.323638,0.489226,0.79282,0.27894
1694639552085937,-9.812592,-1.17646,0.439638,0.496326,0.93482,0.54994
1694639552093750,-9.844592,-1.79646,0.525638,0.514526,0.107082,0.77294
1694639552101562,-9.899592,-1.140646,0.568638,0.536826,0.123382,0.95294
1694639552109375,-9.978592,-1.153646,0.616638,0.561126,0.133782,0.112894
1694639552117187,-10.88592,-1.107646,0.660638,0.588426,0.137582,0.127294
1694639552125000,-10.153592,-1.83646,0.689638,0.609526,0.147182,0.133894
1694639552132812,-10.208592,-1.109646,0.694638,0.623326,0.143182,0.138594
1694639552140625,-10.253592,-1.106646,0.687638,0.655126,0.130582,0.143294
1694639552148437,-10.323592,-1.72646,0.710638,0.660826,0.125182,0.155794
1694639552156250,-10.423592,-1.44646,0.710638,0.665226,0.110982,0.168094
1694639552164062,-10.560592,-1.29646,0.674638,0.678826,0.96782,0.175694
1694639552171875,-10.663592,-1.20646,0.626638,0.681426,0.89982,0.186594
1694639552179687,-10.684592,0.996646,0.587638,0.682726,0.64482,0.190794
1694639552187500,-10.630592,0.994646,0.541638,0.677826,0.50482,0.206194
1694639552195312,-10.491592,-1.30646,0.466638,0.670226,0.26882,0.207094
1694639552203125,-10.328592,-1.50646,0.427638,0.656326,0.12382,0.203594
1694639552210937,-10.167592,-1.77646,0.407638,0.653426,0.3018,0.201594
1694639552218750,-10.24592,-1.90646,0.363638,0.650626,0.4018,0.185894
1694639552226562,-9.911592,-1.107646,0.311638,0.640226,0.6418,0.165294
1694639552234375,-9.833592,-1.97646,0.290638,0.635926,0.3118,0.137294
1694639552242187,-9.790592,-1.84646,0.265638,0.631626,0.1082,0.119994
1694639552250000,-9.762592,-1.85646,0.236638,0.641726,0.18382,0.90494
1694639552257812,-9.716592,-1.99646,0.236638,0.646526,0.17682,0.68594
1694639552265625,-9.664592,-1.97646,0.233638,0.657426,0.34682,0.56494
1694639552273437,-9.625592,-1.113646,0.238638,0.659426,0.52482,0.34894
1694639552281250,-9.632592,-1.127646,0.252638,0.664326,0.47582,0.20694
1694639552289062,-9.660592,-1.107646,0.270638,0.684426,0.58982,0.14694
1694639552296875,-9.701592,-1.82646,0.298638,0.692326,0.68882,0.8594
1694639552304687,-9.714592,-1.83646,0.309638,0.695326,0.74282,0.5694
1694639552312500,-9.753592,-1.69646,0.332638,0.709026,0.77382,0.5894
1694639552320312,-9.785592,-1.51646,0.359638,0.722626,0.71882,0.12094
1694639552328125,-9.848592,-1.12646,0.382638,0.731526,0.73182,0.23294
1694639552335937,-9.910592,-1.7646,0.377638,0.731426,0.66282,0.26294
1694639552343750,-9.948592,-1.33646,0.391638,0.735926,0.57082,0.35394
1694639552351562,-9.950592,-1.60646,0.391638,0.741826,0.43082,0.46094
1694639552359375,-9.895592,-1.114646,0.382638,0.740026,0.51482,0.54194
1694639552367187,-9.880592,-1.156646,0.391638,0.750426,0.37582,0.61894
1694639552375000,-9.873592,-1.181646,0.363638,0.753326,0.34282,0.64994
1694639552382812,-9.861592,-1.232646,0.342638,0.756026,0.28582,0.80594
1694639552390625,-9.860592,-1.295646,0.304638,0.764926,0.13982,0.97594
1694639552398437,-9.840592,-1.325646,0.276638,0.775626,0.7782,0.109994
1694639552406250,-9.810592,-1.385646,0.265638,0.778126,0.6218,0.130194
1694639552414062,-9.790592,-1.470646,0.237638,0.786926,0.3118,0.141394
1694639552421875,-9.792592,-1.533646,0.228638,0.806626,0.582,0.158794
1694639552429687,-9.806592,-1.585646,0.203638,0.815026,0.1618,0.182494
1694639552437500,-9.790592,-1.650646,0.187638,0.828526,0.7082,0.206294
1694639552445312,-9.737592,-1.741646,0.189638,0.846826,0.5282,0.226594
1694639552453125,-9.695592,-1.808646,0.184638,0.864726,0.18382,0.239694
1694639552460937,-9.601592,-1.887646,0.213638,0.884626,0.21182,0.238294
1694639552468750,-9.498592,-1.978646,0.236638,0.906126,0.42482,0.240394
1694639552476562,-9.405592,-2.24646,0.275638,0.947526,0.58482,0.236294
1694639552484375,-9.332592,-2.61646,0.348638,0.975326,0.80082,0.225894
1694639552492187,-9.286592,-2.83646,0.416638,1.9326,0.120582,0.209794
1694639552500000,-9.289592,-2.83646,0.488638,1.44826,0.149282,0.191794
1694639552507812,-9.362592,-2.53646,0.555638,1.91226,0.174382,0.167494
1694639552515625,-9.416592,-2.11646,0.616638,1.125026,0.208582,0.146594
1694639552523437,-9.475592,-2.13646,0.666638,1.151626,0.235282,0.128394
1694639552531250,-9.539592,-2.12646,0.714638,1.187326,0.252082,0.105394
1694639552539062,-9.586592,-2.33646,0.776638,1.227126,0.278682,0.96894
1694639552546875,-9.631592,-2.89646,0.812638,1.255126,0.310482,0.83594
1694639552554687,-9.718592,-2.161646,0.835638,1.293526,0.335282,0.73394
1694639552562500,-9.829592,-2.195646,0.898638,1.353326,0.363182,0.63394
1694639552570312,-9.965592,-2.167646,0.951638,1.407126,0.391082,0.50194
1694639552578125,-10.84592,-2.37646,0.990638,1.460626,0.408882,0.44694
1694639552585937,-10.155592,-1.856646,0.999638,1.495926,0.403182,0.35394
1694639552593750,-10.225592,-1.636646,-1.7638,1.509526,0.391582,0.30594
1694639552601562,-10.332592,-1.405646,0.989638,1.507826,0.351482,0.26594
1694639552609375,-10.399592,-1.203646,0.924638,1.483526,0.309182,0.26894
1694639552617187,-10.427592,-1.113646,0.833638,1.445126,0.248382,0.12794
1694639552625000,-10.386592,-1.124646,0.732638,1.406826,0.209582,0.794
1694639552632812,-10.309592,-1.162646,0.630638,1.364226,0.173882,0.12806
1694639552640625,-10.238592,-1.201646,0.509638,1.327426,0.136082,0.17006
1694639552648437,-10.118592,-1.216646,0.384638,1.298726,0.116582,0.28706
1694639552656250,-9.963592,-1.283646,0.270638,1.272526,0.85882,0.35706
1694639552664062,-9.837592,-1.372646,0.153638,1.240726,0.76982,0.51806
1694639552671875,-9.766592,-1.409646,0.42638,1.222626,0.69282,0.63106
1694639552679687,-9.692592,-1.408646,0.78362,1.206026,0.54582,0.71506
1694639552687500,-9.626592,-1.402646,0.149362,1.189426,0.52282,0.87306
1694639552695312,-9.574592,-1.412646,0.222362,1.177426,0.48482,0.107806
1694639552703125,-9.555592,-1.409646,0.286362,1.174626,0.41282,0.131506
1694639552710937,-9.605592,-1.380646,0.333362,1.170326,0.48282,0.139206
1694639552718750,-9.679592,-1.339646,0.376362,1.172326,0.63782,0.156206
1694639552726562,-9.756592,-1.300646,0.424362,1.175426,0.59282,0.165706
1694639552734375,-9.786592,-1.268646,0.451362,1.175326,0.62782,0.167106
1694639552742187,-9.806592,-1.235646,0.458362,1.176826,0.77882,0.162006
1694639552750000,-9.896592,-1.170646,0.471362,1.175426,0.71982,0.154506
1694639552757812,-10.49592,-1.65646,0.524362,1.178226,0.67982,0.140406
1694639552765625,-10.108592,-1.51646,0.605362,1.165826,0.59382,0.129706
1694639552773437,-10.117592,-1.127646,0.626362,1.153126,0.53482,0.101706
1694639552781250,-10.11592,-1.206646,0.629362,1.167726,0.47382,0.73406
1694639552789062,-9.844592,-1.297646,0.574362,1.171326,0.56082,0.27506
1694639552796875,-9.783592,-1.327646,0.543362,1.180026,0.70882,0.13694
1694639552804687,-9.817592,-1.338646,0.565362,1.197726,0.72282,0.52994
1694639552812500,-9.871592,-1.334646,0.572362,1.198426,0.77682,0.92494
1694639552820312,-9.911592,-1.345646,0.590362,1.213126,0.70782,0.128494
1694639552828125,-9.957592,-1.361646,0.611362,1.221726,0.67182,0.167694
1694639552835937,-9.959592,-1.369646,0.643362,1.217726,0.45682,0.207994
1694639552843750,-9.951592,-1.425646,0.641362,1.217226,0.36382,0.234594
1694639552851562,-9.922592,-1.468646,0.654362,1.216826,0.28082,0.265694
1694639552859375,-9.914592,-1.497646,0.677362,1.216026,0.29282,0.294094
1694639552867187,-9.927592,-1.506646,0.723362,1.223426,0.32982,0.317794
1694639552875000,-9.947592,-1.544646,0.780362,1.218326,0.15482,0.339294
1694639552882812,-9.961592,-1.577646,0.816362,1.215126,0.19682,0.356594
1694639552890625,-9.987592,-1.574646,0.841362,1.205526,0.6182,0.370494
1694639552898437,-10.29592,-1.581646,0.869362,1.198026,0.4218,0.371694
1694639552906250,-10.63592,-1.554646,0.912362,1.187126,0.2682,0.379594
1694639552914062,-10.81592,-1.556646,0.966362,1.167326,0.1482,0.377894
1694639552921875,-10.38592,-1.543646,1.14362,1.145926,0.1482,0.385594
1694639552929687,-9.942592,-1.566646,1.40362,1.113726,0.0,0.371394
1694639552937500,-9.858592,-1.610646,1.40362,1.82326,0.6282,0.347694
1694639552945312,-9.817592,-1.653646,1.90362,1.55626,0.19582,0.319494
1694639552953125,-9.751592,-1.668646,1.151362,1.35026,0.37782,0.288294
1694639552960937,-9.636592,-1.669646,1.144362,1.17326,0.49482,0.256994
1694639552968750,-9.541592,-1.671646,1.147362,0.987426,0.64682,0.227294
1694639552976562,-9.497592,-1.657646,1.145362,0.966726,0.80782,0.180494
1694639552984375,-9.464592,-1.631646,1.124362,0.944626,0.96082,0.142994
1694639552992187,-9.453592,-1.609646,1.78362,0.914826,0.118182,0.108694
1694639553000000,-9.490592,-1.591646,1.24362,0.900526,0.127882,0.70994
1694639553007812,-9.528592,-1.581646,0.987362,0.873326,0.146182,0.53994
1694639553015625,-9.562592,-1.583646,0.942362,0.853926,0.152782,0.27294
1694639553023437,-9.569592,-1.587646,0.894362,0.839226,0.160582,0.3794
1694639553031250,-9.539592,-1.606646,0.848362,0.825826,0.166282,0.8806
1694639553039062,-9.489592,-1.635646,0.828362,0.816826,0.170382,0.19706
1694639553046875,-9.515592,-1.683646,0.789362,0.817026,0.186282,0.31906
1694639553054687,-9.538592,-1.688646,0.787362,0.827826,0.179282,0.38306
1694639553062500,-9.561592,-1.699646,0.757362,0.837426,0.191382,0.55306
1694639553070312,-9.619592,-1.724646,0.712362,0.854126,0.197082,0.65806
1694639553078125,-9.671592,-1.706646,0.698362,0.868126,0.198582,0.73606
1694639553085937,-9.747592,-1.669646,0.678362,0.881926,0.188582,0.84806
1694639553093750,-9.849592,-1.625646,0.650362,0.884826,0.168482,0.86706
1694639553101562,-10.22592,-1.576646,0.655362,0.897026,0.149682,0.87106
1694639553109375,-10.75592,-1.531646,0.673362,0.904826,0.137882,0.96806
1694639553117187,-9.915592,-1.550646,0.691362,0.905926,0.114482,0.90806
1694639553125000,-9.726592,-1.556646,0.664362,0.908926,0.92082,0.88206
1694639553132812,-9.553592,-1.592646,0.643362,0.927226,0.96082,0.77106
1694639553140625,-9.444592,-1.633646,0.641362,0.931426,0.90982,0.67706
1694639553148437,-9.418592,-1.666646,0.648362,0.935626,0.93682,0.50306
1694639553156250,-9.396592,-1.694646,0.639362,0.955526,0.85282,0.34806
1694639553164062,-9.366592,-1.768646,0.641362,0.962626,0.85582,0.4906
1694639553171875,-9.433592,-1.807646,0.607362,0.968126,0.85782,0.32794
1694639553179687,-9.532592,-1.853646,0.587362,0.964526,0.78182,0.57794
1694639553187500,-9.631592,-1.907646,0.594362,0.960726,0.66982,0.93594
1694639553195312,-9.818592,-1.949646,0.598362,0.970826,0.53782,0.123294
1694639553203125,-10.72592,-1.971646,0.628362,0.958026,0.44182,0.159094
1694639553210937,-10.288592,-1.997646,0.678362,0.949826,0.21682,0.182094
1694639553218750,-10.397592,-2.52646,0.710362,0.935526,0.6318,0.212794
1694639553226562,-10.368592,-2.116646,0.717362,0.922626,0.23618,0.239094
1694639553234375,-10.273592,-2.158646,0.685362,0.908526,0.35818,0.255994
1694639553242187,-9.980592,-2.255646,0.697362,0.889926,0.46818,0.282294
1694639553250000,-9.543592,-2.357646,0.684362,0.874326,0.68418,0.286394
1694639553257812,-9.155592,-2.421646,0.586362,0.860326,0.59818,0.299194
1694639553265625,-8.973592,-2.491646,0.488362,0.842226,0.37618,0.297894
1694639553273437,-8.974592,-2.574646,0.409362,0.828526,0.1318,0.290894
1694639553281250,-9.95592,-2.646646,0.359362,0.810726,0.29782,0.277294
1694639553289062,-9.267592,-2.707646,0.318362,0.802126,0.53482,0.268194
1694639553296875,-9.411592,-2.769646,0.266362,0.800626,0.69482,0.259194
1694639553304687,-9.510592,-2.849646,0.209362,0.792126,0.85082,0.240494
1694639553312500,-9.578592,-2.954646,0.154362,0.792426,0.89482,0.218694
1694639553320312,-9.661592,-3.33646,0.84362,0.794026,0.89982,0.207694
1694639553328125,-9.679592,-3.75646,0.48362,0.806726,0.102382,0.184494
1694639553335937,-9.724592,-3.84646,0.6638,0.823926,0.104482,0.161094
1694639553343750,-9.769592,-3.81646,0.45638,0.832026,0.118482,0.140994
1694639553351562,-9.871592,-3.54646,0.95638,0.851726,0.133882,0.138494
1694639553359375,-9.947592,-3.12646,0.97638,0.858426,0.143882,0.122894
1694639553367187,-9.891592,-3.1646,0.122638,0.875226,0.141782,0.124494
1694639553375000,-9.816592,-2.975646,0.177638,0.879626,0.151682,0.131094
1694639553382812,-9.765592,-2.945646,0.218638,0.893526,0.146182,0.127894
1694639553390625,-9.772592,-2.909646,0.241638,0.902726,0.161482,0.125194
1694639553398437,-9.815592,-2.893646,0.232638,0.911926,0.164482,0.126794
1694639553406250,-9.865592,-2.869646,0.230638,0.934726,0.164382,0.122294
1694639553414062,-9.856592,-2.872646,0.223638,0.952926,0.161982,0.128694
1694639553421875,-9.796592,-2.931646,0.220638,0.975926,0.164882,0.127294
1694639553429687,-9.701592,-2.972646,0.225638,0.997226,0.172482,0.132294
1694639553437500,-9.553592,-3.3646,0.211638,1.30926,0.168482,0.127694
1694639553445312,-9.514592,-3.19646,0.266638,1.73526,0.188082,0.130094
1694639553453125,-9.661592,-2.903646,0.307638,1.101226,0.200782,0.128894
1694639553460937,-9.869592,-2.756646,0.216638,1.130326,0.196082,0.110194
1694639553468750,-10.128592,-2.675646,0.130638,1.161126,0.190682,0.97694
1694639553476562,-10.342592,-2.594646,0.94638,1.178226,0.182282,0.83394
1694639553484375,-10.334592,-2.538646,0.74638,1.196526,0.182182,0.77294
1694639553492187,-10.125592,-2.548646,0.87638,1.198026,0.166682,0.81594
1694639553500000,-9.995592,-2.485646,0.99638,1.220926,0.156082,0.78394
1694639553507812,-9.920592,-2.339646,0.81638,1.204226,0.160182,0.72094
1694639553515625,-9.891592,-2.236646,0.44638,1.198026,0.159182,0.65794
1694639553523437,-9.836592,-2.166646,0.9362,1.173926,0.156782,0.51494
1694639553531250,-9.692592,-2.101646,0.57362,1.165426,0.154682,0.19894
1694639553539062,-9.490592,-2.66646,0.77362,1.144226,0.162982,0.306
1694639553546875,-9.381592,-1.989646,0.66362,1.127926,0.165582,0.22406
1694639553554687,-9.329592,-1.947646,0.64362,1.113226,0.185882,0.53406
1694639553562500,-9.282592,-1.926646,0.68362,1.88226,0.212082,0.78406
1694639553570312,-9.261592,-1.901646,0.43362,1.77726,0.233982,0.102906
1694639553578125,-9.266592,-1.877646,0.32362,1.75126,0.254582,0.113506
1694639553585937,-9.258592,-1.873646,0.4638,1.58926,0.271882,0.130706
1694639553593750,-9.275592,-1.913646,0.65638,1.48226,0.277382,0.132206
1694639553601562,-9.336592,-1.972646,0.134638,1.49726,0.294282,0.130106
1694639553609375,-9.388592,-2.60646,0.158638,1.52626,0.307682,0.123506
1694639553617187,-9.510592,-2.109646,0.204638,1.69126,0.316382,0.99706
1694639553625000,-9.655592,-2.173646,0.252638,1.81126,0.319882,0.72906
1694639553632812,-9.748592,-2.294646,0.283638,1.100126,0.316482,0.33506
1694639553640625,-9.803592,-2.409646,0.313638,1.127026,0.312782,0.506
1694639553648437,-9.868592,-2.491646,0.354638,1.150726,0.308782,0.45094
1694639553656250,-9.963592,-2.530646,0.392638,1.171326,0.300082,0.84294
1694639553664062,-10.48592,-2.613646,0.390638,1.190626,0.283182,0.115394
1694639553671875,-10.58592,-2.686646,0.403638,1.217026,0.278082,0.159594
1694639553679687,-10.34592,-2.771646,0.435638,1.239426,0.254782,0.181194
1694639553687500,-10.7592,-2.860646,0.437638,1.247726,0.246882,0.215694
1694639553695312,-9.980592,-2.948646,0.414638,1.268826,0.233382,0.238994
1694639553703125,-9.936592,-3.41646,0.398638,1.288226,0.213182,0.265394
1694639553710937,-9.814592,-3.138646,0.375638,1.301426,0.195182,0.288594
1694639553718750,-9.634592,-3.261646,0.324638,1.316126,0.187482,0.312194
1694639553726562,-9.480592,-3.412646,0.308638,1.334126,0.176882,0.321494
1694639553734375,-9.338592,-3.557646,0.274638,1.370826,0.175882,0.320094
1694639553742187,-9.207592,-3.686646,0.212638,1.393926,0.191982,0.322094
1694639553750000,-9.104592,-3.750646,0.162638,1.439826,0.196082,0.317794
1694639553757812,-9.26592,-3.686646,0.150638,1.478426,0.218082,0.294994
1694639553765625,-9.79592,-3.599646,0.116638,1.530826,0.226682,0.264094
1694639553773437,-9.112592,-3.502646,0.69638,1.555626,0.243982,0.241094
1694639553781250,-9.203592,-3.427646,0.58638,1.571426,0.254682,0.216294
1694639553789062,-9.368592,-3.312646,0.60638,1.594826,0.263482,0.191494
1694639553796875,-9.522592,-3.203646,0.22638,1.595326,0.267282,0.171094
1694639553804687,-9.646592,-3.115646,0.27362,1.604926,0.268882,0.158494
1694639553812500,-9.737592,-3.17646,0.66362,1.606326,0.268382,0.144594
1694639553820312,-9.731592,-2.946646,0.90362,1.597326,0.260682,0.131794
1694639553828125,-9.754592,-2.919646,0.129362,1.585226,0.252782,0.125294
1694639553835937,-9.768592,-2.856646,0.186362,1.580726,0.250182,0.112694
1694639553843750,-9.696592,-2.838646,0.293362,1.565726,0.252582,0.98494
1694639553851562,-9.596592,-2.792646,0.352362,1.559626,0.256282,0.96994
1694639553859375,-9.509592,-2.731646,0.397362,1.548026,0.262082,0.74894
1694639553867187,-9.504592,-2.681646,0.436362,1.537326,0.278582,0.62894
1694639553875000,-9.494592,-2.604646,0.477362,1.537926,0.309482,0.43094
1694639553882812,-9.401592,-2.508646,0.500362,1.541726,0.331882,0.18294
1694639553890625,-9.198592,-2.425646,0.472362,1.528526,0.344982,0.8206
1694639553898437,-9.592,-2.310646,0.454362,1.518226,0.364582,0.28206
1694639553906250,-8.934592,-2.154646,0.428362,1.507726,0.378982,0.42006
1694639553914062,-9.16592,-2.17646,0.396362,1.480826,0.388182,0.54706
1694639553921875,-9.200592,-1.932646,0.421362,1.453226,0.391082,0.60906
1694639553929687,-9.428592,-1.858646,0.457362,1.419926,0.378382,0.71006
1694639553937500,-9.598592,-1.807646,0.496362,1.383126,0.366982,0.62006
1694639553945312,-9.720592,-1.864646,0.555362,1.347826,0.358782,0.51506
1694639553953125,-9.795592,-1.920646,0.610362,1.306026,0.340982,0.33106
1694639553960937,-9.809592,-1.990646,0.694362,1.278426,0.321282,0.8906
1694639553968750,-9.778592,-2.75646,0.758362,1.251826,0.304582,0.14294
1694639553976562,-9.741592,-2.145646,0.790362,1.222326,0.286882,0.46594
1694639553984375,-9.748592,-2.158646,0.820362,1.203526,0.288282,0.68494
1694639553992187,-9.775592,-2.169646,0.863362,1.182226,0.278182,0.72794
1694639554000000,-9.801592,-2.180646,0.902362,1.172526,0.278382,0.85494
1694639554007812,-9.822592,-2.161646,0.922362,1.166226,0.276882,0.90194
1694639554015625,-9.801592,-2.137646,0.934362,1.140226,0.270582,0.91394
1694639554023437,-9.786592,-2.129646,0.920362,1.125326,0.262582,0.80094
1694639554031250,-9.759592,-2.141646,0.911362,1.113326,0.254482,0.73494
1694639554039062,-9.818592,-2.153646,0.893362,1.91926,0.246982,0.68494
1694639554046875,-9.833592,-2.175646,0.911362,1.78226,0.245382,0.69894
1694639554054687,-9.810592,-2.229646,0.934362,1.65926,0.242482,0.68294
1694639554062500,-9.743592,-2.264646,0.952362,1.51726,0.228082,0.71194
1694639554070312,-9.686592,-2.292646,0.948362,1.34826,0.213082,0.76994
1694639554078125,-9.647592,-2.342646,0.977362,1.27226,0.212282,0.87794
1694639554085937,-9.524592,-2.390646,1.30362,1.14626,0.214182,0.98794
1694639554093750,-9.538592,-2.359646,1.37362,0.999326,0.206882,0.112594
1694639554101562,-9.660592,-2.271646,1.64362,0.996226,0.203482,0.115694
1694639554109375,-9.669592,-2.271646,1.146362,0.968826,0.202382,0.113894
1694639554117187,-9.614592,-2.315646,1.166362,0.946026,0.189282,0.111794
1694639554125000,-9.482592,-2.325646,1.185362,0.921226,0.181482,0.119394
1694639554132812,-9.321592,-2.385646,1.164362,0.901526,0.181482,0.120794
1694639554140625,-9.261592,-2.470646,1.183362,0.884826,0.195782,0.114794
1694639554148437,-9.201592,-2.536646,1.194362,0.878926,0.202982,0.105494
1694639554156250,-9.246592,-2.529646,1.183362,0.877426,0.208082,0.103994
1694639554164062,-9.408592,-2.475646,1.183362,0.861026,0.214182,0.88294
1694639554171875,-9.531592,-2.452646,1.192362,0.843126,0.209882,0.70794
1694639554179687,-9.559592,-2.475646,1.199362,0.833826,0.210882,0.61394
1694639554187500,-9.493592,-2.507646,1.139362,0.821926,0.209482,0.54994
1694639554195312,-9.462592,-2.502646,1.46362,0.805426,0.203182,0.45194
1694639554203125,-9.514592,-2.480646,0.978362,0.790026,0.208082,0.31294
1694639554210937,-9.637592,-2.434646,0.982362,0.776726,0.220582,0.17294
1694639554218750,-9.671592,-2.393646,0.991362,0.770826,0.209382,0.2794
1694639554226562,-9.666592,-2.324646,0.971362,0.751126,0.206782,0.6806
1694639554234375,-9.632592,-2.275646,0.920362,0.725526,0.214682,0.22506
1694639554242187,-9.624592,-2.245646,0.895362,0.702926,0.205182,0.33906
1694639554250000,-9.640592,-2.226646,0.870362,0.687726,0.202582,0.41906
1694639554257812,-9.663592,-2.201646,0.829362,0.669326,0.201682,0.45106
1694639554265625,-9.747592,-2.151646,0.777362,0.649726,0.203682,0.49906
1694639554273437,-9.826592,-2.154646,0.763362,0.626626,0.197782,0.48506
1694639554281250,-9.872592,-2.174646,0.761362,0.609926,0.192282,0.41106
1694639554289062,-9.876592,-2.189646,0.745362,0.592726,0.173882,0.28906
1694639554296875,-9.905592,-2.214646,0.729362,0.568226,0.171782,0.12006
1694639554304687,-9.900592,-2.231646,0.727362,0.540226,0.160282,0.3394
1694639554312500,-9.857592,-2.283646,0.743362,0.521826,0.155182,0.12594
1694639554320312,-9.809592,-2.298646,0.742362,0.515626,0.140882,0.26194
1694639554328125,-9.777592,-2.300646,0.745362,0.498426,0.132982,0.33894
1694639554335937,-9.777592,-2.275646,0.752362,0.474026,0.128482,0.33694
1694639554343750,-9.789592,-2.244646,0.770362,0.446626,0.110582,0.29894
1694639554351562,-9.823592,-2.188646,0.786362,0.422226,0.93582,0.10694
1694639554359375,-9.863592,-2.157646,0.808362,0.399626,0.72182,0.1106
1694639554367187,-9.843592,-2.124646,0.833362,0.378626,0.65082,0.21806
1694639554375000,-9.846592,-2.75646,0.874362,0.358926,0.34182,0.41406
1694639554382812,-9.857592,-2.18646,0.920362,0.330026,0.16182,0.68606
1694639554390625,-9.838592,-1.999646,0.988362,0.310726,0.3018,0.94306
1694639554398437,-9.772592,-1.991646,1.38362,0.294226,0.18718,0.113606
1694639554406250,-9.659592,-1.975646,1.86362,0.276026,0.18318,0.118506
1694639554414062,-9.537592,-2.8646,1.115362,0.265426,0.16518,0.117006
1694639554421875,-9.477592,-2.12646,1.123362,0.245326,0.14018,0.115306
1694639554429687,-9.480592,-1.991646,1.129362,0.231626,0.11418,0.99806
1694639554437500,-9.473592,-1.975646,1.122362,0.218826,0.218,0.72906
1694639554445312,-9.566592,-1.940646,1.102362,0.204726,0.7682,0.49206
1694639554453125,-9.628592,-1.922646,1.83362,0.177226,0.10682,0.32206
1694639554460937,-9.715592,-1.937646,1.11362,0.155126,0.11282,0.14806
1694639554468750,-9.824592,-1.997646,0.929362,0.133626,0.12082,0.8494
1694639554476562,-9.905592,-2.65646,0.860362,0.112026,0.6582,0.26994
1694639554484375,-9.924592,-2.117646,0.767362,0.99326,0.318,0.44094
1694639554492187,-9.886592,-2.143646,0.674362,0.85626,0.2018,0.47094
1694639554500000,-9.831592,-2.183646,0.599362,0.71926,0.5418,0.51594
1694639554507812,-9.681592,-2.214646,0.503362,0.62626,0.10218,0.52994
1694639554515625,-9.432592,-2.264646,0.431362,0.47826,0.12718,0.33994
1694639554523437,-9.227592,-2.268646,0.340362,0.50826,0.3618,0.26494
1694639554531250,-9.116592,-2.278646,0.210362,0.34526,0.9282,0.3094
1694639554539062,-9.177592,-2.329646,0.119362,0.41126,0.18182,0.15606
1694639554546875,-9.362592,-2.335646,0.64362,0.51826,0.40082,0.18106
1694639554554687,-9.520592,-2.373646,0.39362,0.47026,0.46182,0.794
1694639554562500,-9.667592,-2.409646,0.17638,0.49526,0.38782,0.21094
1694639554570312,-9.880592,-2.449646,0.53638,0.50926,0.27082,0.47394
1694639554578125,-10.12592,-2.527646,0.55638,0.45526,0.15982,0.83294
1694639554585937,-10.68592,-2.629646,0.48638,0.32626,0.4482,0.122194
1694639554593750,-10.59592,-2.704646,0.71638,0.28526,0.6318,0.159794
1694639554601562,-10.5592,-2.773646,0.89638,0.38726,0.18618,0.198694
1694639554609375,-9.981592,-2.810646,0.84638,0.22726,0.25618,0.225294
1694639554617187,-9.961592,-2.826646,0.84638,0.21226,0.37918,0.229694
1694639554625000,-9.870592,-2.853646,0.55638,0.22926,0.46518,0.229394
1694639554632812,-9.768592,-2.849646,0.59638,0.10926,0.46818,0.205794
1694639554640625,-9.693592,-2.832646,0.75638,0.2474,0.48918,0.183794
1694639554648437,-9.564592,-2.807646,0.36638,0.474,0.51018,0.150794
1694639554656250,-9.393592,-2.772646,0.16638,0.1174,0.38118,0.116394
1694639554664062,-9.165592,-2.699646,0.43638,0.1974,0.39418,0.67794
1694639554671875,-8.939592,-2.614646,0.73638,0.18174,0.27118,0.27194
1694639554679687,-8.788592,-2.540646,0.109638,0.23474,0.6918,0.13206
1694639554687500,-8.802592,-2.429646,0.164638,0.22474,0.9482,0.55406
1694639554695312,-8.982592,-2.337646,0.224638,0.32274,0.21982,0.108506
1694639554703125,-9.196592,-2.270646,0.238638,0.42174,0.36582,0.139806
1694639554710937,-9.319592,-2.221646,0.277638,0.44574,0.52882,0.169306
1694639554718750,-9.427592,-2.201646,0.347638,0.53674,0.45682,0.188206
1694639554726562,-9.500592,-2.199646,0.397638,0.68374,0.29782,0.213906
1694639554734375,-9.572592,-2.246646,0.438638,0.68474,0.20082,0.218806
1694639554742187,-9.690592,-2.267646,0.481638,0.65274,0.20082,0.221906
1694639554750000,-9.815592,-2.250646,0.520638,0.60674,0.12782,0.215806
1694639554757812,-9.918592,-2.255646,0.550638,0.47374,0.7982,0.214106
1694639554765625,-10.29592,-2.226646,0.582638,0.23074,0.12182,0.206006
1694639554773437,-10.165592,-2.134646,0.603638,0.20174,0.982,0.189106
1694639554781250,-10.265592,-2.29646,0.610638,0.19174,0.15918,0.178306
1694639554789062,-10.350592,-1.980646,0.612638,0.20674,0.18618,0.162806
1694639554796875,-10.414592,-1.918646,0.619638,0.19574,0.23918,0.150306
1694639554804687,-10.402592,-1.861646,0.590638,0.37974,0.34118,0.141206
1694639554812500,-10.329592,-1.833646,0.581638,0.47474,0.47918,0.127506
1694639554820312,-10.234592,-1.807646,0.553638,0.66174,0.61518,0.110606
1694639554828125,-10.166592,-1.799646,0.519638,0.72774,0.60318,0.88506
1694639554835937,-10.101592,-1.793646,0.492638,0.92774,0.65518,0.77806
1694639554843750,-9.994592,-1.826646,0.448638,0.103774,0.75718,0.65506
1694639554851562,-9.926592,-1.838646,0.423638,0.119174,0.83018,0.50206
1694639554859375,-9.883592,-1.819646,0.366638,0.128474,0.83018,0.42406
1694639554867187,-9.924592,-1.809646,0.319638,0.145474,0.91318,0.36406
1694639554875000,-9.905592,-1.863646,0.241638,0.163874,0.94118,0.34906
1694639554882812,-9.778592,-1.948646,0.191638,0.170074,0.108418,0.21306
1694639554890625,-9.638592,-2.26646,0.184638,0.181074,0.108918,0.4106
1694639554898437,-9.502592,-2.94646,0.202638,0.184174,0.104118,0.3894
1694639554906250,-9.389592,-2.176646,0.190638,0.188974,0.93918,0.11994
1694639554914062,-9.353592,-2.205646,0.165638,0.179774,0.76018,0.20194
1694639554921875,-9.315592,-2.202646,0.158638,0.170374,0.66318,0.18894
1694639554929687,-9.281592,-2.216646,0.158638,0.170074,0.73018,0.9194
1694639554937500,-9.260592,-2.231646,0.153638,0.168774,0.72018,0.0
1694639554945312,-9.230592,-2.274646,0.174638,0.171474,0.66118,0.21906
1694639554953125,-9.199592,-2.330646,0.215638,0.154274,0.63918,0.43706
1694639554960937,-9.154592,-2.367646,0.249638,0.141674,0.47518,0.48106
1694639554968750,-9.144592,-2.388646,0.303638,0.122174,0.48818,0.54106
1694639554976562,-9.187592,-2.392646,0.356638,0.115674,0.23618,0.59806
1694639554984375,-9.264592,-2.402646,0.406638,0.98674,0.11818,0.70406
1694639554992187,-9.377592,-2.411646,0.440638,0.88074,0.318,0.65406
1694639555000000,-9.440592,-2.413646,0.485638,0.66874,0.17282,0.53906
1694639555007812,-9.547592,-2.423646,0.540638,0.52774,0.29982,0.52106
1694639555015625,-9.710592,-2.407646,0.586638,0.39174,0.39582,0.43906
1694639555023437,-9.821592,-2.383646,0.618638,0.25774,0.44382,0.35706
1694639555031250,-9.852592,-2.336646,0.638638,0.12074,0.41882,0.27906
1694639555039062,-9.855592,-2.298646,0.673638,0.326,0.41182,0.26406
1694639555046875,-9.887592,-2.255646,0.691638,0.1626,0.36682,0.29506
1694639555054687,-9.953592,-2.232646,0.714638,0.3126,0.19982,0.34606
1694639555062500,-10.39592,-2.220646,0.709638,0.1626,0.7982,0.31706
1694639555070312,-10.227592,-2.208646,0.698638,0.0,0.14782,0.30006
1694639555078125,-10.401592,-2.233646,0.632638,0.1426,0.2782,0.27106
1694639555085937,-10.527592,-2.289646,0.568638,0.1674,0.7118,0.28906
1694639555093750,-10.624592,-2.319646,0.507638,0.2626,0.27418,0.24606
1694639555101562,-10.634592,-2.373646,0.438638,0.726,0.43018,0.10706
1694639555109375,-10.541592,-2.455646,0.381638,0.2226,0.55518,0.1706
1694639555117187,-10.375592,-2.447646,0.315638,0.0,0.75918,0.16894
1694639555125000,-10.150592,-2.445646,0.242638,0.126,0.110318,0.17494
1694639555132812,-9.859592,-2.455646,0.158638,0.1326,0.124118,0.29794
1694639555140625,-9.660592,-2.420646,0.99638,0.374,0.143918,0.24694
1694639555148437,-9.589592,-2.325646,0.42638,0.1126,0.162218,0.18094
1694639555156250,-9.586592,-2.234646,0.30362,0.7674,0.171418,0.1106
1694639555164062,-9.566592,-2.159646,0.130362,0.19674,0.184018,0.18706
1694639555171875,-9.503592,-2.108646,0.196362,0.31874,0.191618,0.26706
1694639555179687,-9.377592,-2.104646,0.255362,0.40574,0.203218,0.39706
1694639555187500,-9.282592,-2.91646,0.287362,0.60574,0.202518,0.39806
1694639555195312,-9.173592,-2.91646,0.317362,0.77274,0.205318,0.46206
1694639555203125,-9.130592,-2.130646,0.330362,0.73874,0.183618,0.49006
1694639555210937,-9.218592,-2.132646,0.326362,0.90674,0.156118,0.46806
1694639555218750,-9.365592,-2.151646,0.333362,0.96674,0.142618,0.46606
1694639555226562,-9.512592,-2.187646,0.328362,0.94674,0.116118,0.47706
1694639555234375,-9.682592,-2.165646,0.316362,0.97874,0.114718,0.38306
1694639555242187,-9.786592,-2.148646,0.278362,0.108774,0.102718,0.31806
1694639555250000,-9.861592,-2.187646,0.248362,0.121174,0.107818,0.24106
1694639555257812,-9.901592,-2.195646,0.241362,0.119874,0.116318,0.16406
1694639555265625,-9.892592,-2.179646,0.244362,0.136874,0.119918,0.4006
1694639555273437,-9.833592,-2.189646,0.241362,0.155474,0.135118,0.6494
1694639555281250,-9.754592,-2.195646,0.266362,0.172174,0.144818,0.4594
1694639555289062,-9.708592,-2.208646,0.298362,0.177074,0.143318,0.15694
1694639555296875,-9.679592,-2.218646,0.349362,0.196774,0.144318,0.10794
1694639555304687,-9.586592,-2.235646,0.385362,0.213474,0.149318,0.10494
1694639555312500,-9.504592,-2.251646,0.426362,0.219674,0.150318,0.5794
1694639555320312,-9.395592,-2.269646,0.460362,0.230174,0.150118,0.994
1694639555328125,-9.293592,-2.291646,0.478362,0.243674,0.143418,0.994
1694639555335937,-9.338592,-2.276646,0.479362,0.244874,0.132118,0.22306
1694639555343750,-9.463592,-2.246646,0.497362,0.246274,0.121618,0.29906
1694639555351562,-9.565592,-2.280646,0.517362,0.258174,0.122418,0.47306
1694639555359375,-9.644592,-2.273646,0.524362,0.262374,0.122118,0.59906
1694639555367187,-9.635592,-2.259646,0.510362,0.260974,0.110118,0.59606
1694639555375000,-9.569592,-2.289646,0.492362,0.262274,0.121618,0.69306
1694639555382812,-9.545592,-2.267646,0.494362,0.257674,0.118418,0.67606
1694639555390625,-9.568592,-2.234646,0.501362,0.257674,0.115118,0.67606
1694639555398437,-9.618592,-2.195646,0.519362,0.263874,0.113318,0.64406
1694639555406250,-9.673592,-2.174646,0.531362,0.266874,0.109918,0.64406
1694639555414062,-9.693592,-2.172646,0.542362,0.265474,0.112118,0.55006
1694639555421875,-9.659592,-2.194646,0.547362,0.267074,0.97018,0.50006
1694639555429687,-9.615592,-2.219646,0.524362,0.265974,0.96018,0.29506
1694639555437500,-9.624592,-2.221646,0.506362,0.269074,0.87618,0.24606
1694639555445312,-9.611592,-2.228646,0.485362,0.270674,0.74518,0.13306
1694639555453125,-9.617592,-2.237646,0.456362,0.270674,0.76418,0.11806
1694639555460937,-9.654592,-2.216646,0.433362,0.281274,0.66018,0.13206
1694639555468750,-9.678592,-2.220646,0.394362,0.293474,0.71918,0.21206
1694639555476562,-9.701592,-2.242646,0.362362,0.290474,0.78518,0.24506
1694639555484375,-9.726592,-2.248646,0.321362,0.291774,0.83218,0.35606
1694639555492187,-9.728592,-2.251646,0.285362,0.293074,0.98218,0.47006
1694639555500000,-9.755592,-2.259646,0.267362,0.296174,0.98018,0.47006
1694639555507812,-9.763592,-2.244646,0.266362,0.294274,0.101218,0.58106
1694639555515625,-9.767592,-2.234646,0.262362,0.291474,0.104018,0.64306
1694639555523437,-9.756592,-2.224646,0.248362,0.289774,0.117418,0.72506
1694639555531250,-9.736592,-2.191646,0.262362,0.280474,0.116118,0.72506
1694639555539062,-9.732592,-2.159646,0.276362,0.282074,0.120618,0.77206
1694639555546875,-9.726592,-2.124646,0.264362,0.275874,0.129518,0.77406
1694639555554687,-9.698592,-2.81646,0.260362,0.280874,0.127418,0.72506
1694639555562500,-9.706592,-2.32646,0.275362,0.274574,0.132518,0.77406
1694639555570312,-9.793592,-1.951646,0.325362,0.279374,0.157918,0.73306
1694639555578125,-9.891592,-1.894646,0.398362,0.288274,0.180818,0.88006
1694639555585937,-9.875592,-1.910646,0.448362,0.289974,0.194318,0.86706
1694639555593750,-9.793592,-1.991646,0.451362,0.299274,0.204118,0.85406
1694639555601562,-9.719592,-2.73646,0.435362,0.303874,0.219618,0.81106
1694639555609375,-9.666592,-2.145646,0.460362,0.291774,0.203118,0.74306
1694639555617187,-9.651592,-2.171646,0.463362,0.289074,0.188918,0.75306
1694639555625000,-9.629592,-2.174646,0.501362,0.269074,0.186218,0.75206
1694639555632812,-9.650592,-2.140646,0.517362,0.267374,0.186718,0.72206
1694639555640625,-9.690592,-2.69646,0.544362,0.264174,0.185218,0.73806
1694639555648437,-9.706592,-2.28646,0.585362,0.250474,0.186418,0.84606
1694639555656250,-9.752592,-1.970646,0.589362,0.258174,0.193118,0.81606
1694639555664062,-9.804592,-1.915646,0.610362,0.261274,0.191118,0.86306
1694639555671875,-9.841592,-1.902646,0.619362,0.265674,0.198118,0.85006
1694639555679687,-9.821592,-1.887646,0.644362,0.273174,0.211918,0.82306
1694639555687500,-9.819592,-1.871646,0.673362,0.285674,0.215018,0.76106
1694639555695312,-9.873592,-1.859646,0.721362,0.290474,0.219618,0.76106
1694639555703125,-9.882592,-1.868646,0.771362,0.298174,0.222918,0.74706
1694639555710937,-9.852592,-1.895646,0.817362,0.316474,0.232518,0.76606
1694639555718750,-9.834592,-1.880646,0.842362,0.315174,0.236018,0.70306
1694639555726562,-9.844592,-1.867646,0.856362,0.324074,0.226118,0.70306
1694639555734375,-9.852592,-1.862646,0.904362,0.335074,0.224118,0.62406
1694639555742187,-9.871592,-1.844646,0.953362,0.337774,0.225818,0.68806
1694639555750000,-9.822592,-1.811646,0.997362,0.347174,0.229218,0.61106
1694639555757812,-9.788592,-1.769646,1.6362,0.365474,0.231918,0.64306
1694639555765625,-9.758592,-1.744646,1.19362,0.365074,0.239018,0.69406
1694639555773437,-9.712592,-1.697646,1.40362,0.380574,0.233018,0.73906
1694639555781250,-9.681592,-1.639646,1.47362,0.394274,0.240718,0.82006
1694639555789062,-9.580592,-1.592646,1.78362,0.398474,0.244018,0.91606
1694639555796875,-9.526592,-1.557646,1.71362,0.427174,0.237818,0.104306
1694639555804687,-9.516592,-1.519646,1.46362,0.445374,0.235618,0.109006
1694639555812500,-9.590592,-1.507646,1.53362,0.460374,0.231418,0.123206
1694639555820312,-9.688592,-1.504646,1.51362,0.475374,0.226018,0.128006
1694639555828125,-9.734592,-1.510646,1.30362,0.489074,0.217718,0.121606
1694639555835937,-9.788592,-1.502646,1.19362,0.503074,0.208918,0.115106
1694639555843750,-9.835592,-1.502646,0.998362,0.516974,0.212318,0.107406
1694639555851562,-9.900592,-1.507646,0.989362,0.547874,0.214818,0.99706
1694639555859375,-9.976592,-1.494646,0.975362,0.559874,0.216018,0.82806
1694639555867187,-10.30592,-1.468646,0.975362,0.566274,0.210718,0.76306
1694639555875000,-9.984592,-1.472646,1.5362,0.597174,0.221418,0.76606
1694639555882812,-9.894592,-1.492646,0.994362,0.607674,0.230618,0.64506
1694639555890625,-9.824592,-1.463646,0.978362,0.624974,0.230318,0.51906
1694639555898437,-9.797592,-1.458646,0.957362,0.644574,0.233518,0.53806
1694639555906250,-9.767592,-1.475646,0.960362,0.666174,0.232818,0.50706
1694639555914062,-9.758592,-1.466646,0.935362,0.683074,0.226018,0.44306
1694639555921875,-9.736592,-1.456646,0.932362,0.696674,0.226318,0.36706
1694639555929687,-9.722592,-1.456646,0.923362,0.725974,0.225618,0.32106
1694639555937500,-9.706592,-1.469646,0.905362,0.745874,0.228518,0.30706
1694639555945312,-9.700592,-1.463646,0.878362,0.765574,0.226818,0.27706
1694639555953125,-9.711592,-1.447646,0.857362,0.794674,0.221618,0.15206
1694639555960937,-9.736592,-1.465646,0.850362,0.817374,0.227618,0.26506
1694639555968750,-9.730592,-1.508646,0.832362,0.837474,0.229718,0.32806
1694639555976562,-9.725592,-1.548646,0.819362,0.849574,0.230818,0.39206
1694639555984375,-9.704592,-1.596646,0.801362,0.870774,0.233818,0.41006
1694639555992187,-9.694592,-1.642646,0.794362,0.881474,0.221418,0.45506
1694639556000000,-9.748592,-1.680646,0.771362,0.883074,0.206518,0.38906
1694639556007812,-9.796592,-1.699646,0.767362,0.887374,0.203218,0.40506
1694639556015625,-9.839592,-1.690646,0.760362,0.894874,0.196718,0.37306
1694639556023437,-9.878592,-1.665646,0.757362,0.902674,0.201718,0.32806
1694639556031250,-9.880592,-1.670646,0.762362,0.904174,0.203718,0.28106
1694639556039062,-9.915592,-1.631646,0.728362,0.918074,0.208518,0.23606
1694639556046875,-9.927592,-1.592646,0.736362,0.928674,0.214118,0.14506
1694639556054687,-9.902592,-1.594646,0.737362,0.948874,0.220318,0.9906
1694639556062500,-9.871592,-1.572646,0.732362,0.953674,0.229218,0.3894
1694639556070312,-9.846592,-1.543646,0.732362,0.985874,0.235218,0.8394
1694639556078125,-9.830592,-1.543646,0.743362,-1.2874,0.238918,0.22294
1694639556085937,-9.848592,-1.562646,0.757362,-1.16474,0.239218,0.29894
1694639556093750,-9.855592,-1.575646,0.766362,-1.45974,0.245818,0.46894
1694639556101562,-9.879592,-1.596646,0.764362,-1.64374,0.255118,0.41994
1694639556109375,-9.929592,-1.596646,0.768362,-1.87574,0.262118,0.58894
1694639556117187,-9.932592,-1.585646,0.780362,-1.107574,0.275918,0.72494
1694639556125000,-9.904592,-1.590646,0.757362,-1.136674,0.285618,0.79994
1694639556132812,-9.842592,-1.582646,0.748362,-1.165674,0.301118,0.91894
1694639556140625,-9.760592,-1.583646,0.725362,-1.210374,0.313318,0.96194
1694639556148437,-9.634592,-1.646646,0.703362,-1.247274,0.317418,0.100694
1694639556156250,-9.527592,-1.697646,0.684362,-1.285274,0.313918,0.108194
1694639556164062,-9.531592,-1.717646,0.675362,-1.314574,0.335218,0.113894
1694639556171875,-9.512592,-1.766646,0.678362,-1.349674,0.336218,0.113594
1694639556179687,-9.443592,-1.863646,0.683362,-1.381474,0.340218,0.102294
1694639556187500,-9.404592,-1.914646,0.667362,-1.406074,0.352818,0.100394
1694639556195312,-9.405592,-1.995646,0.656362,-1.428974,0.362318,0.96894
1694639556203125,-9.409592,-2.75646,0.667362,-1.459174,0.363518,0.93494
1694639556210937,-9.358592,-2.130646,0.690362,-1.469974,0.365118,0.96494
1694639556218750,-9.288592,-2.155646,0.658362,-1.486774,0.386718,0.95894
1694639556226562,-9.229592,-2.194646,0.640362,-1.507774,0.387518,0.81594
1694639556234375,-9.274592,-2.179646,0.679362,-1.518574,0.396418,0.68894
1694639556242187,-9.397592,-2.114646,0.690362,-1.532074,0.417918,0.57194
1694639556250000,-9.391592,-2.55646,0.710362,-1.548674,0.425018,0.38194
1694639556257812,-9.257592,-2.62646,0.701362,-1.579074,0.444018,0.21894
1694639556265625,-9.191592,-2.107646,0.667362,-1.606274,0.439518,0.9194
1694639556273437,-9.270592,-2.167646,0.667362,-1.624174,0.457118,0.11706
1694639556281250,-9.518592,-2.199646,0.699362,-1.640674,0.466218,0.27806
1694639556289062,-9.834592,-2.219646,0.770362,-1.657774,0.468518,0.32506
1694639556296875,-10.66592,-2.275646,0.833362,-1.658974,0.487618,0.33106
1694639556304687,-10.316592,-2.324646,0.861362,-1.667174,0.502518,0.23906
1694639556312500,-10.551592,-2.325646,0.886362,-1.667674,0.516418,0.6906
1694639556320312,-10.748592,-2.308646,0.895362,-1.678374,0.530018,0.4106
1694639556328125,-10.885592,-2.266646,0.917362,-1.685774,0.533018,0.12106
1694639556335937,-10.849592,-2.255646,0.981362,-1.684174,0.557618,0.26806
1694639556343750,-10.540592,-2.272646,1.9362,-1.683874,0.558018,0.53406
1694639556351562,-10.40592,-2.295646,0.988362,-1.661774,0.562918,0.81806
1694639556359375,-9.476592,-2.327646,0.952362,-1.661274,0.553618,0.106706
1694639556367187,-9.50592,-2.341646,0.889362,-1.640874,0.535718,0.142206
1694639556375000,-8.898592,-2.356646,0.789362,-1.629374,0.482618,0.170906
1694639556382812,-8.916592,-2.362646,0.729362,-1.587374,0.430018,0.202406
1694639556390625,-8.977592,-2.396646,0.693362,-1.551474,0.368518,0.213606
1694639556398437,-9.71592,-2.467646,0.588362,-1.521074,0.312018,0.202606
1694639556406250,-9.283592,-2.525646,0.488362,-1.472074,0.253118,0.188506
1694639556414062,-9.542592,-2.596646,0.441362,-1.429874,0.204218,0.157206
1694639556421875,-9.772592,-2.656646,0.393362,-1.373874,0.171418,0.121606
1694639556429687,-9.943592,-2.663646,0.331362,-1.332874,0.154218,0.81906
1694639556437500,-9.997592,-2.669646,0.270362,-1.283074,0.154418,0.56406
1694639556445312,-10.10592,-2.715646,0.197362,-1.242174,0.149118,0.38706
1694639556453125,-10.24592,-2.691646,0.158362,-1.202674,0.150518,0.27506
1694639556460937,-9.966592,-2.617646,0.133362,-1.157174,0.174918,0.26106
1694639556468750,-9.851592,-2.543646,0.112362,-1.112974,0.195718,0.34106
1694639556476562,-9.771592,-2.455646,0.94362,-1.77674,0.208918,0.56106
1694639556484375,-9.717592,-2.397646,0.133362,-1.50274,0.215618,0.66906
1694639556492187,-9.656592,-2.367646,0.174362,-1.28674,0.227418,0.81206
1694639556500000,-9.605592,-2.332646,0.212362,0.988874,0.256718,0.89506
1694639556507812,-9.526592,-2.336646,0.287362,0.972174,0.272518,0.85106
1694639556515625,-9.439592,-2.375646,0.347362,0.949574,0.266418,0.75306
1694639556523437,-9.355592,-2.387646,0.420362,0.904174,0.269518,0.60906
1694639556531250,-9.434592,-2.355646,0.486362,0.873974,0.268818,0.48106
1694639556539062,-9.530592,-2.287646,0.586362,0.848274,0.266318,0.38406
1694639556546875,-9.607592,-2.252646,0.663362,0.828774,0.264418,0.13106
1694639556554687,-9.685592,-2.227646,0.711362,0.806074,0.272218,0.2206
1694639556562500,-9.676592,-2.226646,0.752362,0.794374,0.290618,0.27294
1694639556570312,-9.624592,-2.227646,0.786362,0.777674,0.295118,0.42894
1694639556578125,-9.564592,-2.169646,0.834362,0.758274,0.297918,0.63394
1694639556585937,-9.396592,-2.165646,0.888362,0.755374,0.294918,0.71394
1694639556593750,-9.291592,-2.229646,0.897362,0.746174,0.296918,0.71294
1694639556601562,-9.245592,-2.267646,0.932362,0.737474,0.292418,0.90394
1694639556609375,-9.224592,-2.301646,0.932362,0.722174,0.272918,0.95594
1694639556617187,-9.218592,-2.437646,0.932362,0.709874,0.241618,0.104194
1694639556625000,-9.259592,-2.595646,0.937362,0.694574,0.212218,0.117494
1694639556632812,-9.320592,-2.746646,0.976362,0.668774,0.177418,0.126294
1694639556640625,-9.431592,-2.805646,0.985362,0.642874,0.156918,0.142594
1694639556648437,-9.533592,-2.803646,0.953362,0.612674,0.136318,0.160494
1694639556656250,-9.655592,-2.846646,0.933362,0.612874,0.125618,0.184294
1694639556664062,-9.683592,-2.920646,0.885362,0.595974,0.119418,0.184494
1694639556671875,-9.669592,-2.989646,0.799362,0.588474,0.113118,0.194094
1694639556679687,-9.636592,-3.62646,0.740362,0.573174,0.109518,0.184894
1694639556687500,-9.626592,-3.129646,0.667362,0.562274,0.101318,0.180394
1694639556695312,-9.605592,-3.201646,0.590362,0.533074,0.104418,0.161694
1694639556703125,-9.547592,-3.281646,0.549362,0.511274,0.85118,0.134094
1694639556710937,-9.499592,-3.330646,0.517362,0.490974,0.84218,0.127794
1694639556718750,-9.424592,-3.352646,0.483362,0.452474,0.73218,0.93794
1694639556726562,-9.354592,-3.360646,0.431362,0.411974,0.49318,0.58394
1694639556734375,-9.308592,-3.360646,0.397362,0.391874,0.43818,0.39894
1694639556742187,-9.274592,-3.336646,0.395362,0.351774,0.14618,0.10994
1694639556750000,-9.277592,-3.313646,0.374362,0.311374,0.2018,0.29206
1694639556757812,-9.300592,-3.300646,0.356362,0.277174,0.7882,0.50906
1694639556765625,-9.346592,-3.246646,0.340362,0.248974,0.22182,0.89606
1694639556773437,-9.392592,-3.167646,0.321362,0.216574,0.21082,0.117706
1694639556781250,-9.504592,-3.97646,0.273362,0.191874,0.24082,0.128506
1694639556789062,-9.591592,-3.42646,0.275362,0.164074,0.19382,0.150406
1694639556796875,-9.576592,-3.14646,0.277362,0.136174,0.22182,0.162806
1694639556804687,-9.560592,-2.987646,0.223362,0.96474,0.21682,0.168806
1694639556812500,-9.529592,-2.942646,0.209362,0.59774,0.24682,0.176306
1694639556820312,-9.441592,-2.932646,0.223362,0.27774,0.31282,0.183706
1694639556828125,-9.377592,-2.940646,0.207362,0.26126,0.55682,0.197106
1694639556835937,-9.327592,-2.942646,0.205362,0.69026,0.77282,0.208806
1694639556843750,-9.332592,-2.956646,0.186362,0.116726,0.96782,0.219106
1694639556851562,-9.304592,-2.990646,0.193362,0.176726,0.117782,0.235606
1694639556859375,-9.253592,-3.57646,0.180362,0.228626,0.140882,0.242506
1694639556867187,-9.271592,-3.61646,0.139362,0.303726,0.163482,0.257206
1694639556875000,-9.333592,-3.47646,0.86362,0.363326,0.182282,0.253306
1694639556882812,-9.480592,-3.40646,0.30362,0.424226,0.199982,0.257106
1694639556890625,-9.600592,-3.25646,0.25362,0.495926,0.209282,0.242406
1694639556898437,-9.589592,-3.8646,0.11362,0.558126,0.218882,0.218206
1694639556906250,-9.484592,-3.67646,0.65638,0.626326,0.226382,0.187806
1694639556914062,-9.473592,-3.178646,0.156638,0.697326,0.252182,0.149006
1694639556921875,-9.553592,-3.226646,0.195638,0.779526,0.272582,0.119906
1694639556929687,-9.627592,-3.209646,0.229638,0.876626,0.286782,0.96806
1694639556937500,-9.655592,-3.162646,0.277638,0.973826,0.305582,0.67506
1694639556945312,-9.726592,-3.108646,0.332638,1.55926,0.314182,0.37006
1694639556953125,-9.820592,-3.22646,0.346638,1.144226,0.314982,0.23906
1694639556960937,-9.839592,-2.912646,0.337638,1.221426,0.311282,0.4506
1694639556968750,-9.809592,-2.810646,0.362638,1.293026,0.309282,0.5294
1694639556976562,-9.723592,-2.687646,0.406638,1.352426,0.300482,0.19494
1694639556984375,-9.607592,-2.539646,0.445638,1.405726,0.292082,0.25894
1694639556992187,-9.552592,-2.363646,0.484638,1.451226,0.284882,0.24594
1694639557000000,-9.524592,-2.254646,0.497638,1.464926,0.286482,0.23194
1694639557007812,-9.554592,-2.228646,0.522638,1.477126,0.293082,0.21894
1694639557015625,-9.632592,-2.201646,0.489638,1.500226,0.288882,0.20294
1694639557023437,-9.672592,-2.216646,0.447638,1.513926,0.301982,0.25394
1694639557031250,-9.646592,-2.301646,0.452638,1.516726,0.320182,0.38394
1694639557039062,-9.568592,-2.384646,0.449638,1.540726,0.333882,0.65594
1694639557046875,-9.495592,-2.448646,0.474638,1.561926,0.366082,0.88394
1694639557054687,-9.514592,-2.505646,0.508638,1.578326,0.392482,0.104894
1694639557062500,-9.561592,-2.518646,0.494638,1.616626,0.424582,0.116694
1694639557070312,-9.663592,-2.543646,0.497638,1.645426,0.439182,0.123594
1694639557078125,-9.778592,-2.553646,0.551638,1.666726,0.447082,0.125494
1694639557085937,-9.794592,-2.580646,0.579638,1.700926,0.452982,0.111494
1694639557093750,-9.770592,-2.662646,0.615638,1.729926,0.456782,0.97794
1694639557101562,-9.832592,-2.742646,0.635638,1.759026,0.454682,0.90094
1694639557109375,-9.944592,-2.738646,0.597638,1.792826,0.452582,0.80794
1694639557117187,-10.46592,-2.699646,0.562638,1.827626,0.441982,0.82494
1694639557125000,-10.141592,-2.718646,0.499638,1.849026,0.439182,0.90294
1694639557132812,-10.148592,-2.691646,0.378638,1.870426,0.428882,0.83994
1694639557140625,-10.62592,-2.632646,0.251638,1.883726,0.423682,0.93494
1694639557148437,-9.934592,-2.579646,0.162638,1.898926,0.412682,0.99494
1694639557156250,-9.771592,-2.566646,0.53638,1.905226,0.418982,0.101194
1694639557164062,-9.626592,-2.617646,0.22362,1.908526,0.432782,0.90494
1694639557171875,-9.590592,-2.616646,0.74362,1.925626,0.446082,0.79894
1694639557179687,-9.638592,-2.550646,0.135362,1.928826,0.454682,0.75394
1694639557187500,-9.604592,-2.528646,0.172362,1.936726,0.467282,0.55394
1694639557195312,-9.540592,-2.628646,0.199362,1.937526,0.471682,0.20794
1694639557203125,-9.512592,-2.670646,0.238362,1.953026,0.470982,0.5706
1694639557210937,-9.478592,-2.650646,0.279362,1.962526,0.469882,0.24506
1694639557218750,-9.530592,-2.638646,0.277362,1.975226,0.471082,0.62006
1694639557226562,-9.572592,-2.569646,0.340362,1.986326,0.458382,0.87306
1694639557234375,-9.597592,-2.539646,0.356362,1.993926,0.440182,0.97006
1694639557242187,-9.611592,-2.477646,0.379362,2.12626,0.430482,0.120706
1694639557250000,-9.638592,-2.361646,0.442362,2.27926,0.417282,0.131806
1694639557257812,-9.693592,-2.300646,0.522362,2.14626,0.393082,0.157706
1694639557265625,-9.683592,-2.225646,0.613362,2.4026,0.358682,0.177306
1694639557273437,-9.695592,-2.194646,0.654362,1.989026,0.332282,0.190606
1694639557281250,-9.722592,-2.168646,0.702362,1.965926,0.311582,0.198906
1694639557289062,-9.822592,-2.137646,0.758362,1.944626,0.286182,0.195106
1694639557296875,-10.5592,-2.12646,0.787362,1.930726,0.259282,0.189506
1694639557304687,-10.173592,-1.909646,0.812362,1.893526,0.233382,0.182206
1694639557312500,-10.254592,-1.848646,0.921362,1.876726,0.208182,0.183006
1694639557320312,-10.465592,-1.979646,0.947362,1.834926,0.174682,0.160406
1694639557328125,-10.252592,-1.989646,1.40362,1.823626,0.149682,0.123406
1694639557335937,-9.930592,-1.902646,1.47362,1.809326,0.131582,0.87906
1694639557343750,-9.728592,-1.891646,1.24362,1.784426,0.141482,0.64206
1694639557351562,-9.690592,-1.824646,1.131362,1.765526,0.149482,0.34206
1694639557359375,-9.592592,-1.737646,1.201362,1.751826,0.149182,0.28106
1694639557367187,-9.425592,-1.711646,1.217362,1.723026,0.156482,0.29806
1694639557375000,-9.491592,-1.683646,1.204362,1.697026,0.159182,0.36106
1694639557382812,-9.550592,-1.593646,1.272362,1.689426,0.162882,0.37606
1694639557390625,-9.523592,-1.573646,1.285362,1.660326,0.158182,0.30006
1694639557398437,-9.409592,-1.496646,1.276362,1.638926,0.163682,0.28406
1694639557406250,-9.416592,-1.483646,1.260362,1.608526,0.167782,0.31706
1694639557414062,-9.427592,-1.491646,1.290362,1.587026,0.164782,0.27206
1694639557421875,-9.345592,-1.393646,1.290362,1.573226,0.172682,0.13106
1694639557429687,-9.301592,-1.386646,1.217362,1.541126,0.180582,0.17706
1694639557437500,-9.390592,-1.432646,1.212362,1.515626,0.194682,0.28706
1694639557445312,-9.458592,-1.413646,1.240362,1.497226,0.203782,0.28506
1694639557453125,-9.425592,-1.396646,1.246362,1.482426,0.220382,0.30006
1694639557460937,-9.469592,-1.418646,1.205362,1.464126,0.234582,0.31306
1694639557468750,-9.645592,-1.433646,1.251362,1.453326,0.241582,0.28006
1694639557476562,-9.666592,-1.442646,1.281362,1.433526,0.243482,0.26606
1694639557484375,-9.691592,-1.457646,1.219362,1.422826,0.256382,0.12306
1694639557492187,-9.696592,-1.402646,1.205362,1.399926,0.263482,0.7606
1694639557500000,-9.675592,-1.405646,1.169362,1.384126,0.280482,0.10094
1694639557507812,-9.678592,-1.413646,1.126362,1.368726,0.282882,0.33394
1694639557515625,-9.676592,-1.379646,1.87362,1.351926,0.292482,0.47594
1694639557523437,-9.651592,-1.370646,1.32362,1.330126,0.305982,0.68294
1694639557531250,-9.710592,-1.404646,0.968362,1.305926,0.320882,0.77694
1694639557539062,-9.729592,-1.447646,0.937362,1.291626,0.330782,0.99894
1694639557546875,-9.711592,-1.487646,0.925362,1.262126,0.330282,0.129594
1694639557554687,-9.695592,-1.501646,0.900362,1.248226,0.339982,0.145394
1694639557562500,-9.630592,-1.567646,0.912362,1.219026,0.328382,0.157494
1694639557570312,-9.586592,-1.663646,0.898362,1.185426,0.327182,0.160294
1694639557578125,-9.653592,-1.740646,0.864362,1.170126,0.317382,0.159994
1694639557585937,-9.782592,-1.750646,0.864362,1.151926,0.301482,0.146994
1694639557593750,-9.890592,-1.786646,0.876362,1.126126,0.288782,0.140294
1694639557601562,-9.817592,-1.899646,0.865362,1.95626,0.266282,0.130194
1694639557609375,-9.670592,-2.7646,0.815362,1.78826,0.240282,0.118494
1694639557617187,-9.663592,-2.86646,0.758362,1.60626,0.212182,0.108294
1694639557625000,-9.773592,-2.140646,0.783362,1.46926,0.203082,0.95594
1694639557632812,-9.990592,-2.144646,0.856362,1.36426,0.178982,0.74594
1694639557640625,-10.125592,-2.133646,0.909362,1.18026,0.157982,0.66194
1694639557648437,-10.118592,-2.209646,0.915362,1.2826,0.134282,0.67094
1694639557656250,-10.73592,-2.303646,0.943362,1.1026,0.122982,0.66894
1694639557664062,-9.983592,-2.336646,0.948362,1.1226,0.104082,0.64794
1694639557671875,-9.910592,-2.350646,0.902362,1.926,0.100782,0.69494
1694639557679687,-9.826592,-2.376646,0.893362,1.826,0.101982,0.80494
1694639557687500,-9.703592,-2.433646,0.893362,1.826,0.118682,0.85594
1694639557695312,-9.612592,-2.430646,0.811362,1.2326,0.138382,0.95394
1694639557703125,-9.547592,-2.397646,0.704362,1.3926,0.154782,0.103594
1694639557710937,-9.514592,-2.364646,0.627362,0.999226,0.171582,0.108694
1694639557718750,-9.583592,-2.283646,0.542362,0.985626,0.188182,0.116694
1694639557726562,-9.622592,-2.206646,0.449362,0.973526,0.205682,0.110794
1694639557734375,-9.561592,-2.231646,0.394362,0.947626,0.213082,0.109194
1694639557742187,-9.509592,-2.286646,0.374362,0.932626,0.211182,0.110494
1694639557750000,-9.503592,-2.316646,0.322362,0.918526,0.200482,0.107294
1694639557757812,-9.475592,-2.395646,0.315362,0.903426,0.197282,0.103894
1694639557765625,-9.407592,-2.576646,0.350362,0.901726,0.202582,0.107194
1694639557773437,-9.299592,-2.669646,0.372362,0.901726,0.200082,0.119594
1694639557781250,-9.120592,-2.752646,0.309362,0.912226,0.207582,0.133894
1694639557789062,-9.49592,-2.810646,0.195362,0.924326,0.228782,0.147094
1694639557796875,-9.92592,-2.807646,0.140362,0.939526,0.255082,0.155594
1694639557804687,-9.197592,-2.762646,0.115362,0.951726,0.269182,0.169994
1694639557812500,-9.360592,-2.674646,0.54362,0.969926,0.282582,0.170494
1694639557820312,-9.492592,-2.648646,0.23638,0.959126,0.295682,0.184894
1694639557828125,-9.597592,-2.665646,0.96638,0.951626,0.298382,0.194194
1694639557835937,-9.640592,-2.623646,0.189638,0.951026,0.295082,0.208394
1694639557843750,-9.553592,-2.662646,0.324638,0.926726,0.307082,0.213094
1694639557851562,-9.457592,-2.750646,0.462638,0.914526,0.312682,0.206894
1694639557859375,-9.412592,-2.766646,0.571638,0.902526,0.313282,0.197394
1694639557867187,-9.409592,-2.790646,0.715638,0.904526,0.336182,0.174394
1694639557875000,-9.495592,-2.822646,0.849638,0.895626,0.345082,0.163494
1694639557882812,-9.622592,-2.807646,0.931638,0.885426,0.354282,0.146394
1694639557890625,-9.744592,-2.794646,-1.6638,0.879526,0.365382,0.129294
1694639557898437,-9.837592,-2.799646,-1.109638,0.882826,0.357282,0.116594
1694639557906250,-9.919592,-2.798646,-1.161638,0.879826,0.357482,0.111894
1694639557914062,-9.946592,-2.804646,-1.207638,0.872426,0.351482,0.95994
1694639557921875,-9.868592,-2.852646,-1.239638,0.866426,0.329882,0.89194
1694639557929687,-9.795592,-2.869646,-1.298638,0.871026,0.305282,0.72994
1694639557937500,-9.737592,-2.881646,-1.332638,0.880526,0.298882,0.55594
1694639557945312,-9.694592,-2.863646,-1.341638,0.882526,0.278182,0.22194
1694639557953125,-9.731592,-2.827646,-1.348638,0.896626,0.260782,0.12606
1694639557960937,-9.797592,-2.775646,-1.318638,0.909126,0.258282,0.36106
1694639557968750,-9.959592,-2.684646,-1.294638,0.918726,0.238482,0.60106
1694639557976562,-10.213592,-2.613646,-1.260638,0.929526,0.229182,0.77406
1694639557984375,-10.397592,-2.566646,-1.187638,0.932326,0.213582,0.68306
1694639557992187,-10.501592,-2.561646,-1.103638,0.930526,0.191482,0.60906
1694639558000000,-10.506592,-2.537646,-1.5638,0.931626,0.163582,0.41106
1694639558007812,-10.386592,-2.536646,0.928638,0.918726,0.134082,0.10406
1694639558015625,-10.311592,-2.539646,0.855638,0.905826,0.118182,0.18994
1694639558023437,-10.277592,-2.540646,0.732638,0.893126,0.92482,0.38794
1694639558031250,-10.218592,-2.582646,0.595638,0.894326,0.79682,0.58894
1694639558039062,-10.120592,-2.608646,0.481638,0.878926,0.56182,0.64594
1694639558046875,-10.39592,-2.607646,0.385638,0.880326,0.46182,0.62794
1694639558054687,-9.941592,-2.630646,0.285638,0.877026,0.39782,0.64294
1694639558062500,-9.888592,-2.695646,0.214638,0.871126,0.30382,0.49894
1694639558070312,-9.842592,-2.723646,0.139638,0.877726,0.28982,0.30994
1694639558078125,-9.706592,-2.745646,0.71638,0.868826,0.21682,0.10394
1694639558085937,-9.579592,-2.765646,0.23638,0.873726,0.37082,0.206
1694639558093750,-9.497592,-2.766646,0.22362,0.876926,0.47682,0.12506
1694639558101562,-9.416592,-2.745646,0.58362,0.882226,0.65082,0.37306
1694639558109375,-9.323592,-2.735646,0.61362,0.893226,0.84582,0.60206
1694639558117187,-9.244592,-2.716646,0.95362,0.901226,0.106882,0.75406
1694639558125000,-9.188592,-2.703646,0.79362,0.914026,0.125982,0.100106
1694639558132812,-9.178592,-2.725646,0.54362,0.928126,0.149882,0.116806
1694639558140625,-9.214592,-2.783646,0.22362,0.954226,0.185082,0.120506
1694639558148437,-9.260592,-2.880646,0.52638,0.977326,0.200182,0.131006
1694639558156250,-9.358592,-2.977646,0.109638,1.14126,0.217782,0.132006
1694639558164062,-9.485592,-3.15646,0.140638,1.63126,0.238582,0.132806
1694639558171875,-9.590592,-2.965646,0.175638,1.101326,0.260882,0.122706
1694639558179687,-9.721592,-2.855646,0.223638,1.154626,0.250482,0.110106
1694639558187500,-9.767592,-2.757646,0.250638,1.186326,0.255082,0.103406
1694639558195312,-9.729592,-2.729646,0.266638,1.203026,0.247682,0.100306
1694639558203125,-9.614592,-2.681646,0.317638,1.223926,0.231782,0.86306
1694639558210937,-9.456592,-2.652646,0.364638,1.240826,0.237682,0.79906
1694639558218750,-9.406592,-2.652646,0.405638,1.248426,0.244482,0.82806
1694639558226562,-9.411592,-2.639646,0.405638,1.251826,0.243182,0.96906
1694639558234375,-9.415592,-2.625646,0.417638,1.270226,0.253382,0.106006
1694639558242187,-9.390592,-2.608646,0.440638,1.274726,0.248682,0.112306
1694639558250000,-9.345592,-2.619646,0.458638,1.275026,0.259082,0.121506
1694639558257812,-9.325592,-2.598646,0.478638,1.278326,0.252282,0.128006
1694639558265625,-9.376592,-2.530646,0.492638,1.281426,0.247382,0.134406
1694639558273437,-9.417592,-2.480646,0.490638,1.275326,0.242682,0.137606
1694639558281250,-9.479592,-2.446646,0.483638,1.267526,0.237582,0.131506
1694639558289062,-9.467592,-2.448646,0.454638,1.253726,0.236382,0.133106
1694639558296875,-9.375592,-2.475646,0.447638,1.229326,0.236282,0.122406
1694639558304687,-9.247592,-2.534646,0.469638,1.218426,0.234582,0.114606
1694639558312500,-9.171592,-2.680646,0.531638,1.216926,0.235882,0.108406
1694639558320312,-9.272592,-2.780646,0.562638,1.218726,0.258882,0.104806
1694639558328125,-9.416592,-2.822646,0.544638,1.237126,0.283682,0.102606
1694639558335937,-9.475592,-2.865646,0.567638,1.256626,0.304282,0.103306
1694639558343750,-9.483592,-2.848646,0.608638,1.288926,0.309382,0.97006
1694639558351562,-9.504592,-2.796646,0.656638,1.300926,0.317982,0.96606
1694639558359375,-9.520592,-2.768646,0.669638,1.316126,0.339882,0.95906
1694639558367187,-9.529592,-2.766646,0.660638,1.320926,0.333182,0.103906
1694639558375000,-9.505592,-2.735646,0.649638,1.351326,0.312182,0.102606
1694639558382812,-9.461592,-2.722646,0.640638,1.357226,0.300582,0.104306
1694639558390625,-9.557592,-2.706646,0.608638,1.371026,0.288282,0.103006
1694639558398437,-9.701592,-2.623646,0.517638,1.395226,0.269382,0.104706
1694639558406250,-9.812592,-2.603646,0.385638,1.395526,0.255682,0.108306
1694639558414062,-9.852592,-2.622646,0.269638,1.413526,0.244082,0.113006
1694639558421875,-9.835592,-2.571646,0.180638,1.420926,0.231882,0.105406
1694639558429687,-9.928592,-2.530646,0.153638,1.425526,0.234982,0.102106
1694639558437500,-10.12592,-2.547646,0.142638,1.440726,0.246282,0.97106
1694639558445312,-10.4592,-2.663646,0.153638,1.445826,0.279482,0.99606
1694639558453125,-9.905592,-2.762646,0.237638,1.471726,0.309482,0.97106
1694639558460937,-9.800592,-2.799646,0.321638,1.497726,0.337482,0.94806
1694639558468750,-9.799592,-2.745646,0.371638,1.520926,0.364282,0.105106
1694639558476562,-9.819592,-2.587646,0.358638,1.539726,0.381282,0.121906
1694639558484375,-9.873592,-2.448646,0.358638,1.543226,0.370082,0.144206
1694639558492187,-9.911592,-2.332646,0.377638,1.534226,0.352682,0.165006
1694639558500000,-9.868592,-2.274646,0.384638,1.503926,0.327882,0.197006
1694639558507812,-9.878592,-2.211646,0.413638,1.485926,0.302682,0.227406
1694639558515625,-9.881592,-2.103646,0.381638,1.462926,0.295582,0.238606
1694639558523437,-9.859592,-2.62646,0.361638,1.446626,0.284282,0.253206
1694639558531250,-9.806592,-1.998646,0.345638,1.437626,0.267882,0.264706
1694639558539062,-9.720592,-1.857646,0.305638,1.415126,0.250982,0.293406
1694639558546875,-9.601592,-1.722646,0.264638,1.400126,0.248282,0.304606
1694639558554687,-9.513592,-1.581646,0.207638,1.376126,0.229782,0.335006
1694639558562500,-9.453592,-1.400646,0.146638,1.355126,0.228582,0.369506
1694639558570312,-9.369592,-1.264646,0.135638,1.326926,0.223682,0.409206
1694639558578125,-9.312592,-1.180646,0.160638,1.303126,0.221382,0.433106
1694639558585937,-9.352592,-1.102646,0.186638,1.288326,0.219082,0.455306
1694639558593750,-9.436592,-1.21646,0.136638,1.264026,0.238482,0.461306
1694639558601562,-9.517592,0.926646,0.109638,1.256526,0.244182,0.470606
1694639558609375,-9.616592,0.816646,0.88638,1.244326,0.237282,0.467806
1694639558617187,-9.777592,0.758646,0.73638,1.219826,0.232782,0.463306
1694639558625000,-9.954592,0.751646,0.23638,1.205626,0.220682,0.446306
1694639558632812,-10.115592,0.740646,0.31362,1.203726,0.217682,0.415106
1694639558640625,-10.188592,0.704646,0.104362,1.190626,0.194682,0.376306
1694639558648437,-10.224592,0.678646,0.183362,1.179226,0.179382,0.354606
1694639558656250,-10.242592,0.678646,0.256362,1.169826,0.161882,0.339406
1694639558664062,-10.219592,0.672646,0.320362,1.151026,0.144682,0.316306
1694639558671875,-10.219592,0.717646,0.354362,1.123426,0.124182,0.302906
1694639558679687,-10.146592,0.805646,0.432362,1.101726,0.113882,0.286006
1694639558687500,-10.121592,0.894646,0.462362,1.84426,0.103682,0.265806
1694639558695312,-10.44592,0.945646,0.475362,1.73626,0.100082,0.256606
1694639558703125,-9.905592,-1.18646,0.492362,1.55026,0.97782,0.236506
1694639558710937,-9.772592,-1.79646,0.490362,1.53026,0.102782,0.222106
1694639558718750,-9.638592,-1.106646,0.476362,1.49826,0.107382,0.211006
1694639558726562,-9.586592,-1.111646,0.435362,1.38926,0.110382,0.195306
1694639558734375,-9.649592,-1.5646,0.417362,1.26526,0.110282,0.186006
1694639558742187,-9.755592,0.857646,0.421362,1.17526,0.112182,0.189206
1694639558750000,-9.820592,0.867646,0.421362,0.992926,0.94582,0.192806
1694639558757812,-9.837592,0.804646,0.405362,0.974626,0.86582,0.194606
1694639558765625,-9.760592,0.676646,0.420362,0.951926,0.65282,0.203206
1694639558773437,-9.613592,0.653646,0.377362,0.918526,0.67982,0.211206
1694639558781250,-9.644592,0.648646,0.339362,0.890726,0.53982,0.213106
1694639558789062,-9.686592,0.623646,0.398362,0.874226,0.52382,0.216506
1694639558796875,-9.724592,0.629646,0.391362,0.840326,0.44682,0.208906
1694639558804687,-9.792592,0.606646,0.375362,0.823426,0.37582,0.196706
1694639558812500,-9.824592,0.527646,0.393362,0.800126,0.39482,0.181006
1694639558820312,-9.875592,0.478646,0.429362,0.780026,0.44382,0.165306
1694639558828125,-9.945592,0.461646,0.456362,0.761826,0.44782,0.167006
1694639558835937,-9.977592,0.459646,0.491362,0.748226,0.54782,0.162306
1694639558843750,-9.969592,0.451646,0.520362,0.719426,0.53482,0.164206
1694639558851562,-10.35592,0.450646,0.488362,0.698026,0.52182,0.164306
1694639558859375,-10.89592,0.422646,0.493362,0.682926,0.63182,0.173606
1694639558867187,-10.84592,0.440646,0.477362,0.663126,0.61982,0.175306
1694639558875000,-10.77592,0.467646,0.431362,0.651226,0.64382,0.187906
1694639558882812,-10.89592,0.431646,0.385362,0.642226,0.67882,0.192706
1694639558890625,-10.119592,0.401646,0.351362,0.643526,0.64782,0.191106
1694639558898437,-10.132592,0.374646,0.354362,0.632926,0.75782,0.201806
1694639558906250,-10.104592,0.330646,0.331362,0.629926,0.68882,0.202006
1694639558914062,-10.51592,0.294646,0.333362,0.624126,0.71482,0.194406
1694639558921875,-9.994592,0.294646,0.335362,0.631626,0.71382,0.191106
1694639558929687,-9.974592,0.252646,0.335362,0.619126,0.71382,0.180206
1694639558937500,-9.961592,0.207646,0.346362,0.619126,0.72982,0.178606
1694639558945312,-9.994592,0.138646,0.344362,0.622226,0.71082,0.177006
1694639558953125,-10.63592,0.53646,0.387362,0.614626,0.62882,0.180406
1694639558960937,-10.90592,0.7354,0.416362,0.597626,0.44782,0.179306
1694639558968750,-10.13592,0.13354,0.423362,0.565626,0.44282,0.187306
1694639558976562,-9.908592,0.67646,0.364362,0.536526,0.39682,0.182906
1694639558984375,-9.820592,0.178646,0.337362,0.522626,0.43082,0.175006
1694639558992187,-9.747592,0.247646,0.331362,0.514926,0.43282,0.171906
1694639559000000,-9.688592,0.300646,0.294362,0.527226,0.51082,0.170206
1694639559007812,-9.660592,0.318646,0.272362,0.539526,0.54182,0.170006
1694639559015625,-9.667592,0.314646,0.267362,0.545626,0.41982,0.167206
1694639559023437,-9.728592,0.301646,0.235362,0.565026,0.38582,0.162206
1694639559031250,-9.837592,0.293646,0.212362,0.586426,0.39782,0.163706
1694639559039062,-10.7592,0.262646,0.217362,0.618026,0.14682,0.145206
1694639559046875,-10.123592,0.263646,0.239362,0.634726,0.1882,0.134406
1694639559054687,-10.156592,0.336646,0.253362,0.647826,0.26118,0.111406
1694639559062500,-10.100592,0.444646,0.235362,0.676126,0.42818,0.81706
1694639559070312,-9.969592,0.590646,0.220362,0.698126,0.61118,0.47206
1694639559078125,-9.932592,0.795646,0.161362,0.741826,0.63718,0.11006
1694639559085937,-9.910592,0.954646,0.164362,0.805226,0.64918,0.30294
1694639559093750,-9.855592,-1.38646,0.155362,0.871926,0.62818,0.63594
1694639559101562,-9.859592,-1.28646,0.125362,0.924726,0.55018,0.97194
1694639559109375,-9.962592,0.966646,0.116362,0.991026,0.52618,0.136994
1694639559117187,-10.102592,0.845646,0.109362,1.37826,0.57318,0.176294
1694639559125000,-10.237592,0.758646,0.92362,1.67826,0.67118,0.198294
1694639559132812,-10.244592,0.707646,0.63362,1.88526,0.80518,0.231194
1694639559140625,-10.159592,0.650646,0.29362,1.94326,0.92718,0.240394
1694639559148437,-10.109592,0.621646,0.5638,1.95526,0.111418,0.249494
1694639559156250,-10.103592,0.581646,0.6362,1.84626,0.125118,0.260094
1694639559164062,-10.157592,0.549646,0.31362,1.72426,0.124418,0.255294
1694639559171875,-10.289592,0.579646,0.60362,1.54426,0.129318,0.248694
1694639559179687,-10.422592,0.622646,0.119362,1.45226,0.126018,0.253394
1694639559187500,-10.396592,0.685646,0.183362,1.32926,0.129318,0.257994
1694639559195312,-10.198592,0.782646,0.220362,1.11626,0.129218,0.264094
1694639559203125,-9.991592,0.858646,0.213362,0.999226,0.128118,0.279694
1694639559210937,-9.936592,0.865646,0.220362,0.986826,0.115918,0.283094
1694639559218750,-9.838592,0.920646,0.246362,0.955026,0.91318,0.278694
1694639559226562,-9.709592,-1.59646,0.230362,0.932026,0.66918,0.280794
1694639559234375,-9.534592,-1.196646,0.178362,0.923226,0.50418,0.279294
1694639559242187,-9.307592,-1.316646,0.80362,0.921826,0.18218,0.280094
1694639559250000,-9.189592,-1.374646,0.16638,0.917426,0.10682,0.275994
1694639559257812,-9.241592,-1.393646,0.94638,0.914626,0.40982,0.276594
1694639559265625,-9.363592,-1.438646,0.130638,0.899526,0.64782,0.275394
1694639559273437,-9.557592,-1.444646,0.199638,0.902726,0.71582,0.272394
1694639559281250,-9.752592,-1.439646,0.244638,0.900626,0.74882,0.288294
1694639559289062,-9.857592,-1.498646,0.280638,0.886926,0.71482,0.292794
1694639559296875,-9.913592,-1.557646,0.328638,0.874426,0.64382,0.308294
1694639559304687,-9.888592,-1.612646,0.367638,0.875926,0.48382,0.318794
1694639559312500,-9.856592,-1.661646,0.403638,0.874326,0.23382,0.313594
1694639559320312,-9.886592,-1.772646,0.412638,0.874726,0.29182,0.294894
1694639559328125,-9.911592,-1.846646,0.364638,0.882226,0.38582,0.282694
1694639559335937,-9.873592,-1.900646,0.316638,0.916526,0.21382,0.255694
1694639559343750,-9.791592,-1.909646,0.311638,0.933426,0.13682,0.233694
1694639559351562,-9.735592,-1.935646,0.311638,0.958526,0.9082,0.200794
1694639559359375,-9.730592,-1.914646,0.314638,0.983126,0.4918,0.169394
1694639559367187,-9.724592,-1.906646,0.309638,1.17326,0.15118,0.142494
1694639559375000,-9.678592,-1.940646,0.334638,1.44926,0.19918,0.125394
1694639559382812,-9.625592,-1.933646,0.368638,1.83226,0.31418,0.103494
1694639559390625,-9.556592,-1.883646,0.400638,1.121626,0.42218,0.92394
1694639559398437,-9.496592,-1.847646,0.444638,1.160126,0.36518,0.87994
1694639559406250,-9.415592,-1.827646,0.478638,1.195226,0.31918,0.83694
1694639559414062,-9.513592,-1.745646,0.517638,1.231826,0.27418,0.82494
1694639559421875,-9.684592,-1.625646,0.526638,1.262126,0.24818,0.87494
1694639559429687,-9.873592,-1.580646,0.551638,1.269826,0.13818,0.98694
1694639559437500,-10.109592,-1.575646,0.565638,1.286126,0.14918,0.120794
1694639559445312,-10.265592,-1.571646,0.563638,1.296426,0.7918,0.147694
1694639559453125,-10.377592,-1.602646,0.608638,1.292626,0.518,0.187094
1694639559460937,-10.510592,-1.649646,0.652638,1.290326,0.10518,0.229294
1694639559468750,-10.652592,-1.723646,0.704638,1.288326,0.8418,0.259094
1694639559476562,-10.754592,-1.798646,0.733638,1.286526,0.4418,0.282694
1694639559484375,-10.872592,-1.840646,0.767638,1.281026,0.10318,0.320394
1694639559492187,-10.822592,-1.843646,0.731638,1.274426,0.27818,0.341894
1694639559500000,-10.691592,-1.890646,0.758638,1.256026,0.48418,0.352294
1694639559507812,-10.564592,-1.896646,0.767638,1.246926,0.65218,0.351794
1694639559515625,-10.443592,-1.908646,0.744638,1.242226,0.87618,0.335694
1694639559523437,-10.341592,-1.950646,0.710638,1.231826,0.95018,0.316594
1694639559531250,-10.235592,-1.952646,0.653638,1.223026,0.107518,0.291194
1694639559539062,-10.99592,-1.940646,0.564638,1.220326,0.116918,0.273594
1694639559546875,-9.919592,-1.978646,0.452638,1.206726,0.122318,0.253094
1694639559554687,-9.770592,-2.6646,0.327638,1.201126,0.128618,0.233994
1694639559562500,-9.669592,-1.969646,0.211638,1.202926,0.128318,0.221394
1694639559570312,-9.622592,-1.903646,0.109638,1.198526,0.122318,0.205894
1694639559578125,-9.622592,-1.883646,0.29638,1.183726,0.117418,0.177594
1694639559585937,-9.669592,-1.894646,0.47362,1.173326,0.128218,0.158494
1694639559593750,-9.661592,-1.977646,0.107362,1.152526,0.123718,0.134794
1694639559601562,-9.533592,-2.65646,0.146362,1.134326,0.128918,0.114294
1694639559609375,-9.397592,-2.138646,0.164362,1.122726,0.133018,0.88894
1694639559617187,-9.269592,-2.175646,0.162362,1.118426,0.128218,0.62394
1694639559625000,-9.218592,-2.234646,0.146362,1.109826,0.116518,0.29694
1694639559632812,-9.249592,-2.314646,0.128362,1.112026,0.101718,0.6106
1694639559640625,-9.311592,-2.357646,0.101362,1.115626,0.92118,0.37206
1694639559648437,-9.366592,-2.334646,0.71362,1.126726,0.91718,0.57606
1694639559656250,-9.373592,-2.335646,0.37362,1.130426,0.76018,0.82506
1694639559664062,-9.413592,-2.395646,0.18638,1.144326,0.71318,0.108806
1694639559671875,-9.485592,-2.444646,0.96638,1.161926,0.63018,0.132306
1694639559679687,-9.545592,-2.485646,0.173638,1.198726,0.74118,0.158806
1694639559687500,-9.679592,-2.510646,0.278638,1.226726,0.73818,0.188506
1694639559695312,-9.870592,-2.483646,0.333638,1.262326,0.70518,0.210206
1694639559703125,-10.109592,-2.357646,0.342638,1.296026,0.78818,0.227406
1694639559710937,-10.291592,-2.179646,0.304638,1.323426,0.106418,0.229406
1694639559718750,-10.353592,-2.22646,0.268638,1.320026,0.124918,0.221906
1694639559726562,-10.364592,-1.892646,0.236638,1.321326,0.148318,0.224006
1694639559734375,-10.296592,-1.789646,0.175638,1.313726,0.184218,0.220306
1694639559742187,-10.169592,-1.780646,0.118638,1.298226,0.195518,0.215806
1694639559750000,-10.42592,-1.833646,0.86638,1.296926,0.214218,0.221106
1694639559757812,-9.942592,-1.852646,0.13638,1.296926,0.220518,0.230606
1694639559765625,-9.929592,-1.804646,0.86362,1.300026,0.238518,0.241906
1694639559773437,-9.885592,-1.704646,0.224362,1.310626,0.248818,0.243606
1694639559781250,-9.831592,-1.593646,0.347362,1.306326,0.255918,0.267306
1694639559789062,-9.737592,-1.498646,0.450362,1.300026,0.257318,0.265706
1694639559796875,-9.675592,-1.411646,0.556362,1.298926,0.250818,0.270406
1694639559804687,-9.627592,-1.282646,0.675362,1.286626,0.243718,0.270306
1694639559812500,-9.609592,-1.87646,0.777362,1.262226,0.231618,0.265506
1694639559820312,-9.636592,0.959646,0.892362,1.231926,0.212418,0.268406
1694639559828125,-9.698592,0.870646,0.974362,1.184626,0.196718,0.257506
1694639559835937,-9.695592,0.803646,1.51362,1.144926,0.171418,0.241506
1694639559843750,-9.610592,0.844646,1.65362,1.93026,0.149818,0.242906
1694639559851562,-9.670592,0.919646,1.38362,1.44426,0.126818,0.245906
1694639559859375,-9.749592,0.930646,1.81362,1.8026,0.86018,0.239006
1694639559867187,-9.801592,0.967646,1.77362,0.984026,0.61718,0.246506
1694639559875000,-9.861592,0.978646,1.49362,0.949326,0.29818,0.241606
1694639559882812,-9.861592,0.942646,1.47362,0.915726,0.6618,0.245806
1694639559890625,-9.851592,0.937646,1.20362,0.892926,0.9282,0.248806
1694639559898437,-9.831592,0.919646,1.2362,0.880926,0.32082,0.260806
1694639559906250,-9.804592,0.931646,0.942362,0.858426,0.39182,0.267206
1694639559914062,-9.784592,0.924646,0.895362,0.838926,0.45582,0.287606
1694639559921875,-9.842592,0.830646,0.867362,0.823826,0.41182,0.297206
1694639559929687,-9.954592,0.762646,0.871362,0.798226,0.30682,0.318106
1694639559937500,-10.51592,0.754646,0.878362,0.784526,0.14382,0.324806
1694639559945312,-10.83592,0.696646,0.896362,0.764426,0.12318,0.319206
1694639559953125,-10.44592,0.627646,0.903362,0.731926,0.30918,0.301006
1694639559960937,-10.12592,0.576646,0.910362,0.703826,0.56418,0.275006
1694639559968750,-9.972592,0.554646,0.953362,0.674726,0.66518,0.262906
1694639559976562,-9.897592,0.569646,1.12362,0.656126,0.83518,0.249306
1694639559984375,-9.735592,0.545646,1.46362,0.629626,0.104218,0.223206
1694639559992187,-9.527592,0.501646,1.60362,0.614126,0.119618,0.211106
1694639560000000,-9.380592,0.478646,1.108362,0.603226,0.129418,0.206606
1694639560007812,-9.278592,0.443646,1.156362,0.589326,0.133918,0.206706
1694639560015625,-9.224592,0.386646,1.185362,0.577026,0.135418,0.205206
1694639560023437,-9.244592,0.301646,1.208362,0.554426,0.137918,0.218006
1694639560031250,-9.381592,0.181646,1.260362,0.545326,0.142718,0.221306
1694639560039062,-9.596592,0.56646,1.316362,0.530626,0.142918,0.251306
1694639560046875,-9.805592,0.66354,1.400362,0.507826,0.148218,0.270306
1694639560054687,-9.987592,0.167354,1.489362,0.494126,0.159318,0.276906
1694639560062500,-10.127592,0.240354,1.532362,0.474226,0.179118,0.279006
1694639560070312,-10.193592,0.283354,1.602362,0.446826,0.177218,0.272906
1694639560078125,-10.228592,0.336354,1.664362,0.423826,0.190218,0.273406
1694639560085937,-10.203592,0.358354,1.679362,0.394526,0.188918,0.250006
1694639560093750,-10.127592,0.386354,1.702362,0.377426,0.194718,0.226806
1694639560101562,-10.8592,0.392354,1.739362,0.343126,0.197618,0.203306
1694639560109375,-9.879592,0.356354,1.734362,0.324726,0.186318,0.186006
1694639560117187,-9.754592,0.339354,1.728362,0.297326,0.174218,0.181206
1694639560125000,-9.621592,0.226354,1.655362,0.260526,0.165118,0.173306
1694639560132812,-9.598592,0.94354,1.589362,0.242626,0.146618,0.174806
1694639560140625,-9.589592,0.14354,1.587362,0.233526,0.144018,0.187306
1694639560148437,-9.577592,0.83646,1.535362,0.222926,0.138918,0.185706
1694639560156250,-9.628592,0.152646,1.503362,0.224626,0.115718,0.180506
1694639560164062,-9.698592,0.166646,1.512362,0.223126,0.103218,0.191206
1694639560171875,-9.723592,0.171646,1.508362,0.224526,0.97218,0.177006
1694639560179687,-9.744592,0.139646,1.521362,0.223126,0.85718,0.172106
1694639560187500,-9.720592,0.80646,1.546362,0.222926,0.91418,0.158106
1694639560195312,-9.710592,0.6354,1.569362,0.222526,0.93418,0.143906
1694639560203125,-9.631592,0.88354,1.614362,0.224126,0.86418,0.148406
1694639560210937,-9.504592,0.200354,1.632362,0.213426,0.88118,0.145406
1694639560218750,-9.446592,0.351354,1.625362,0.199626,0.70618,0.145006
1694639560226562,-9.502592,0.486354,1.616362,0.187426,0.62018,0.143406
1694639560234375,-9.686592,0.633354,1.631362,0.157126,0.60018,0.145206
1694639560242187,-9.832592,0.751354,1.686362,0.135726,0.50818,0.146606
1694639560250000,-9.962592,0.790354,1.704362,0.106726,0.55318,0.145406
1694639560257812,-10.15592,0.797354,1.722362,0.85426,0.47518,0.129806
1694639560265625,-10.13592,0.753354,1.733362,0.63626,0.52118,0.118906
1694639560273437,-10.14592,0.644354,1.702362,0.34426,0.60418,0.106706
1694639560281250,-9.991592,0.554354,1.695362,0.17326,0.58018,0.78606
1694639560289062,-9.958592,0.469354,1.688362,0.2774,0.71518,0.66506
1694639560296875,-9.954592,0.380354,1.652362,0.4874,0.78518,0.49306
1694639560304687,-9.969592,0.322354,1.632362,0.11374,0.92418,0.32306
1694639560312500,-9.946592,0.284354,1.648362,0.22074,0.91018,0.24506
1694639560320312,-9.934592,0.242354,1.623362,0.26874,0.106018,0.23306
1694639560328125,-9.937592,0.178354,1.591362,0.25574,0.112518,0.20206
1694639560335937,-9.936592,0.152354,1.596362,0.40474,0.107818,0.18806
1694639560343750,-9.898592,0.114354,1.594362,0.37774,0.115818,0.18806
1694639560351562,-9.860592,0.60354,1.576362,0.34374,0.116118,0.25206
1694639560359375,-9.832592,0.66354,1.573362,0.26674,0.112518,0.31306
1694639560367187,-9.828592,0.90354,1.564362,0.22074,0.117818,0.31406
1694639560375000,-9.813592,0.130354,1.566362,0.20474,0.116018,0.36106
1694639560382812,-9.774592,0.144354,1.569362,0.3574,0.115618,0.48506
1694639560390625,-9.737592,0.189354,1.557362,0.6474,0.114318,0.47006
1694639560398437,-9.722592,0.261354,1.573362,0.1226,0.112718,0.46906
1694639560406250,-9.720592,0.321354,1.534362,0.3374,0.106918,0.56106
1694639560414062,-9.719592,0.368354,1.543362,0.1674,0.102018,0.59206
1694639560421875,-9.739592,0.398354,1.518362,0.21574,0.89318,0.63706
1694639560429687,-9.793592,0.458354,1.509362,0.19874,0.91618,0.59206
1694639560437500,-9.816592,0.517354,1.511362,0.26174,0.91518,0.52806
1694639560445312,-9.836592,0.546354,1.495362,0.36974,0.86418,0.46506
1694639560453125,-9.871592,0.566354,1.504362,0.47874,0.79918,0.33906
1694639560460937,-9.855592,0.581354,1.508362,0.60074,0.88718,0.26406
1694639560468750,-9.826592,0.574354,1.513362,0.72574,0.80818,0.4306
1694639560476562,-9.805592,0.527354,1.497362,0.91074,0.82618,0.8094
1694639560484375,-9.789592,0.512354,1.499362,0.97474,0.72818,0.22394
1694639560492187,-9.776592,0.465354,1.491362,0.117674,0.67618,0.36594
1694639560500000,-9.778592,0.416354,1.463362,0.123974,0.67518,0.41294
1694639560507812,-9.796592,0.410354,1.472362,0.137574,0.67218,0.39594
1694639560515625,-9.811592,0.403354,1.475362,0.140674,0.63618,0.38194
1694639560523437,-9.830592,0.408354,1.450362,0.163374,0.70218,0.37794
1694639560531250,-9.846592,0.419354,1.452362,0.170774,0.70218,0.34494
1694639560539062,-9.878592,0.439354,1.456362,0.180174,0.70218,0.43894
1694639560546875,-9.881592,0.491354,1.470362,0.206174,0.66018,0.40694
1694639560554687,-9.852592,0.521354,1.483362,0.221374,0.82818,0.43394
1694639560562500,-9.832592,0.535354,1.470362,0.242874,0.85418,0.41694
1694639560570312,-9.839592,0.532354,1.488362,0.267174,0.78718,0.47794
1694639560578125,-9.823592,0.539354,1.488362,0.288474,0.81618,0.45994
1694639560585937,-9.793592,0.521354,1.479362,0.311674,0.84318,0.50594
1694639560593750,-9.754592,0.507354,1.463362,0.331474,0.77018,0.50694
1694639560601562,-9.713592,0.484354,1.443362,0.348174,0.68518,0.52294
1694639560609375,-9.711592,0.475354,1.429362,0.364874,0.64918,0.53794
1694639560617187,-9.725592,0.477354,1.411362,0.382874,0.56418,0.52194
1694639560625000,-9.722592,0.473354,1.402362,0.399774,0.49118,0.52294
1694639560632812,-9.700592,0.506354,1.397362,0.422674,0.50318,0.53694
1694639560640625,-9.744592,0.598354,1.379362,0.448574,0.48018,0.51994
1694639560648437,-9.843592,0.680354,1.390362,0.482174,0.49318,0.56394
1694639560656250,-9.918592,0.721354,1.433362,0.506574,0.48418,0.51694
1694639560664062,-9.927592,0.723354,1.419362,0.554174,0.57918,0.63694
1694639560671875,-9.859592,0.682354,1.372362,0.598674,0.52618,0.80794
1694639560679687,-9.820592,0.637354,1.328362,0.641574,0.47218,0.96294
1694639560687500,-9.779592,0.623354,1.310362,0.682974,0.40718,0.118094
1694639560695312,-9.742592,0.589354,1.292362,0.719674,0.32118,0.130594
1694639560703125,-9.727592,0.532354,1.242362,0.750574,0.30818,0.130594
1694639560710937,-9.725592,0.500354,1.224362,0.782574,0.40818,0.137894
1694639560718750,-9.761592,0.440354,1.201362,0.814574,0.33618,0.140994
1694639560726562,-9.839592,0.408354,1.172362,0.854274,0.39518,0.142194
1694639560734375,-9.888592,0.361354,1.154362,0.880574,0.45218,0.143594
1694639560742187,-9.964592,0.260354,1.126362,0.901574,0.45318,0.143294
1694639560750000,-10.45592,0.185354,1.140362,0.936774,0.54118,0.161594
1694639560757812,-10.51592,0.124354,1.156362,0.955674,0.60318,0.172494
1694639560765625,-10.25592,0.94354,1.177362,0.972774,0.79218,0.190794
1694639560773437,-9.970592,0.65354,1.195362,-1.2274,0.81918,0.200094
1694639560781250,-9.893592,0.19354,1.202362,-1.26774,0.85518,0.213894
1694639560789062,-9.797592,0.68646,1.191362,-1.45174,0.77518,0.229594
1694639560796875,-9.719592,0.132646,1.187362,-1.58974,0.69218,0.239094
1694639560804687,-9.657592,0.206646,1.182362,-1.74474,0.53918,0.250394
1694639560812500,-9.640592,0.260646,1.171362,-1.79074,0.42418,0.258394
1694639560820312,-9.660592,0.302646,1.155362,-1.86674,0.39018,0.261594
1694639560828125,-9.679592,0.366646,1.121362,-1.97374,0.26718,0.258694
1694639560835937,-9.706592,0.439646,1.105362,-1.101974,0.27118,0.264894
1694639560843750,-9.766592,0.490646,1.74362,-1.100674,0.27418,0.275894
1694639560851562,-9.826592,0.542646,1.51362,-1.115974,0.30318,0.274194
1694639560859375,-9.838592,0.578646,1.46362,-1.117374,0.27318,0.277294
1694639560867187,-9.858592,0.621646,1.44362,-1.126674,0.36118,0.287994
1694639560875000,-9.826592,0.645646,1.47362,-1.125574,0.56618,0.300194
1694639560882812,-9.734592,0.711646,1.79362,-1.134674,0.65018,0.301494
1694639560890625,-9.678592,0.808646,1.72362,-1.148674,0.64818,0.307694
1694639560898437,-9.669592,0.839646,1.102362,-1.131774,0.55318,0.311194
1694639560906250,-9.644592,0.833646,1.143362,-1.137774,0.64818,0.299894
1694639560914062,-9.643592,0.877646,1.147362,-1.140674,0.70718,0.284094
1694639560921875,-9.639592,0.989646,1.155362,-1.144974,0.62818,0.260694
1694639560929687,-9.619592,-1.54646,1.166362,-1.129074,0.72518,0.233894
1694639560937500,-9.606592,-1.130646,1.157362,-1.125774,0.74718,0.207194
1694639560945312,-9.576592,-1.197646,1.162362,-1.120374,0.63618,0.172894
1694639560953125,-9.630592,-1.236646,1.162362,-1.95474,0.67518,0.135294
1694639560960937,-9.709592,-1.244646,1.189362,-1.79674,0.64818,0.100994
1694639560968750,-9.782592,-1.206646,1.219362,-1.62374,0.67718,0.74294
1694639560976562,-9.816592,-1.185646,1.234362,-1.43674,0.70518,0.49194
1694639560984375,-9.846592,-1.163646,1.268362,-1.23174,0.63418,0.24294
1694639560992187,-9.899592,-1.102646,1.314362,-1.4474,0.59318,0.2106
1694639561000000,-9.929592,-1.33646,1.382362,0.988774,0.79118,0.27606
1694639561007812,-9.916592,0.988646,1.432362,0.973674,0.81618,0.43106
1694639561015625,-9.930592,0.942646,1.473362,0.948774,0.90518,0.55906
1694639561023437,-9.974592,0.890646,1.509362,0.937974,0.97318,0.63806
1694639561031250,-10.20592,0.829646,1.539362,0.935074,0.97318,0.60606
1694639561039062,-10.94592,0.773646,1.554362,0.927574,0.118118,0.53206
1694639561046875,-10.128592,0.752646,1.584362,0.912374,0.127118,0.50206
1694639561054687,-10.141592,0.756646,1.584362,0.899274,0.130718,0.35906
1694639561062500,-10.143592,0.754646,1.584362,0.902674,0.136718,0.14106
1694639561070312,-10.100592,0.781646,1.586362,0.899974,0.144818,0.15494
1694639561078125,-10.31592,0.804646,1.573362,0.897574,0.150718,0.42194
1694639561085937,-10.6592,0.840646,1.557362,0.899074,0.129318,0.51994
1694639561093750,-9.995592,0.912646,1.525362,0.882274,0.130618,0.64494
1694639561101562,-10.9592,0.983646,1.512362,0.878074,0.129118,0.75694
1694639561109375,-10.84592,-1.29646,1.498362,0.876374,0.124518,0.78794
1694639561117187,-10.140592,-1.37646,1.478362,0.866074,0.121518,0.91594
1694639561125000,-10.173592,-1.58646,1.478362,0.861974,0.126818,0.102594
1694639561132812,-10.223592,-1.61646,1.459362,0.861674,0.135618,0.102294
1694639561140625,-10.308592,-1.1646,1.441362,0.864874,0.139018,0.106994
1694639561148437,-10.340592,0.961646,1.457362,0.876974,0.145018,0.94194
1694639561156250,-10.165592,-1.39646,1.480362,0.881174,0.159418,0.74994
1694639561164062,-9.928592,-1.100646,1.464362,0.895174,0.165518,0.74894
1694639561171875,-9.781592,-1.56646,1.433362,0.904474,0.152718,0.68994
1694639561179687,-9.713592,-1.35646,1.428362,0.902474,0.145418,0.47094
1694639561187500,-9.705592,-1.47646,1.435362,0.922974,0.125718,0.18994
1694639561195312,-9.699592,-1.14646,1.446362,0.925074,0.112918,0.17006
1694639561203125,-9.650592,0.966646,1.427362,0.933874,0.103718,0.34106
1694639561210937,-9.663592,0.913646,1.375362,0.953474,0.88318,0.60406
1694639561218750,-9.703592,0.844646,1.361362,0.963474,0.75618,0.85506
1694639561226562,-9.762592,0.783646,1.313362,0.973874,0.67618,0.108806
1694639561234375,-9.820592,0.720646,1.272362,0.990174,0.68618,0.124806
1694639561242187,-9.859592,0.657646,1.220362,-1.15974,0.67718,0.131206
1694639561250000,-9.876592,0.632646,1.188362,-1.43374,0.65118,0.137606
1694639561257812,-9.821592,0.648646,1.158362,-1.66274,0.74318,0.145706
1694639561265625,-9.748592,0.700646,1.124362,-1.84674,0.81318,0.135106
1694639561273437,-9.691592,0.736646,1.122362,-1.104674,0.70818,0.127106
1694639561281250,-9.659592,0.739646,1.88362,-1.124774,0.69018,0.117706
1694639561289062,-9.688592,0.756646,1.72362,-1.143274,0.70718,0.106906
1694639561296875,-9.709592,0.761646,1.90362,-1.150874,0.69618,0.94406
1694639561304687,-9.702592,0.783646,1.81362,-1.173874,0.67818,0.85106
1694639561312500,-9.718592,0.801646,1.29362,-1.186274,0.80218,0.69806
1694639561320312,-9.764592,0.802646,1.36362,-1.200574,0.84718,0.60406
1694639561328125,-9.821592,0.801646,1.24362,-1.228374,0.97618,0.54506
1694639561335937,-9.821592,0.819646,0.995362,-1.251374,0.109618,0.42506
1694639561343750,-9.706592,0.912646,0.947362,-1.278974,0.122918,0.35106
1694639561351562,-9.673592,0.992646,0.877362,-1.297874,0.132818,0.16506
1694639561359375,-9.610592,-1.26646,0.902362,-1.329674,0.140718,0.23206
1694639561367187,-9.527592,-1.135646,0.911362,-1.348074,0.152318,0.17306
1694639561375000,-9.546592,-1.203646,0.857362,-1.358774,0.158718,0.20706
1694639561382812,-9.736592,-1.153646,0.845362,-1.366174,0.174018,0.24306
1694639561390625,-9.878592,-1.175646,0.893362,-1.384374,0.181518,0.35606
1694639561398437,-9.919592,-1.270646,0.929362,-1.408974,0.196018,0.36006
1694639561406250,-10.10592,-1.260646,0.932362,-1.415474,0.221818,0.17806
1694639561414062,-10.119592,-1.270646,0.929362,-1.436874,0.240218,0.15206
1694639561421875,-10.293592,-1.301646,0.961362,-1.460274,0.268918,0.4494
1694639561429687,-10.437592,-1.351646,1.45362,-1.483374,0.294018,0.8394
1694639561437500,-10.475592,-1.375646,1.121362,-1.506774,0.323018,0.31194
1694639561445312,-10.393592,-1.405646,1.153362,-1.525574,0.347918,0.40094
1694639561453125,-10.269592,-1.436646,1.182362,-1.549974,0.366718,0.50394
1694639561460937,-10.109592,-1.472646,1.228362,-1.562474,0.388218,0.51394
1694639561468750,-9.884592,-1.514646,1.233362,-1.568574,0.394018,0.38794
1694639561476562,-9.667592,-1.560646,1.219362,-1.586674,0.403718,0.32094
1694639561484375,-9.474592,-1.569646,1.224362,-1.584574,0.395718,0.606
1694639561492187,-9.315592,-1.593646,1.222362,-1.579274,0.378718,0.45706
1694639561500000,-9.195592,-1.584646,1.201362,-1.563074,0.352918,0.78106
1694639561507812,-9.189592,-1.524646,1.149362,-1.556174,0.336418,0.117006
1694639561515625,-9.214592,-1.496646,1.78362,-1.538874,0.310318,0.146106
1694639561523437,-9.294592,-1.469646,1.3362,-1.525974,0.287918,0.170806
1694639561531250,-9.458592,-1.404646,0.941362,-1.501374,0.277318,0.189106
1694639561539062,-9.608592,-1.368646,0.893362,-1.484174,0.252318,0.199506
1694639561546875,-9.695592,-1.361646,0.802362,-1.464474,0.241718,0.180406
1694639561554687,-9.790592,-1.330646,0.734362,-1.457174,0.234018,0.164406
1694639561562500,-9.881592,-1.322646,0.645362,-1.437874,0.228918,0.131206
1694639561570312,-9.968592,-1.365646,0.579362,-1.434074,0.216718,0.91506
1694639561578125,-10.29592,-1.368646,0.554362,-1.413474,0.224918,0.60106
1694639561585937,-10.81592,-1.363646,0.504362,-1.411074,0.226618,0.20906
1694639561593750,-10.135592,-1.369646,0.474362,-1.391974,0.229018,0.27794
1694639561601562,-10.166592,-1.422646,0.463362,-1.392574,0.247018,0.58794
1694639561609375,-10.173592,-1.433646,0.481362,-1.388674,0.276718,0.84894
1694639561617187,-10.155592,-1.440646,0.495362,-1.389474,0.299518,0.115894
1694639561625000,-10.118592,-1.483646,0.522362,-1.394474,0.324118,0.140394
1694639561632812,-10.20592,-1.551646,0.563362,-1.390374,0.345018,0.158794
1694639561640625,-9.909592,-1.580646,0.602362,-1.379874,0.371818,0.178594
1694639561648437,-9.845592,-1.596646,0.661362,-1.371074,0.396918,0.178194
1694639561656250,-9.802592,-1.592646,0.741362,-1.368174,0.415018,0.170094
1694639561664062,-9.734592,-1.614646,0.841362,-1.363374,0.436718,0.156994
1694639561671875,-9.638592,-1.656646,0.917362,-1.352674,0.462118,0.153394
1694639561679687,-9.529592,-1.646646,0.980362,-1.346474,0.475018,0.138994
1694639561687500,-9.406592,-1.676646,1.42362,-1.351074,0.477818,0.131094
1694639561695312,-9.324592,-1.753646,1.95362,-1.346374,0.475818,0.121794
1694639561703125,-9.277592,-1.766646,1.165362,-1.344574,0.469618,0.124994
1694639561710937,-9.267592,-1.763646,1.225362,-1.346274,0.452418,0.125394
1694639561718750,-9.275592,-1.830646,1.263362,-1.344574,0.439218,0.127294
1694639561726562,-9.324592,-1.926646,1.284362,-1.349074,0.402518,0.137394
1694639561734375,-9.393592,-2.16646,1.268362,-1.356774,0.367918,0.158494
1694639561742187,-9.510592,-2.101646,1.255362,-1.344974,0.352218,0.184094
1694639561750000,-9.600592,-2.156646,1.232362,-1.346474,0.314418,0.202094
1694639561757812,-9.677592,-2.200646,1.182362,-1.343474,0.288418,0.221494
1694639561765625,-9.754592,-2.254646,1.103362,-1.340874,0.268318,0.236194
1694639561773437,-9.758592,-2.327646,1.34362,-1.345574,0.248418,0.247594
1694639561781250,-9.708592,-2.375646,0.959362,-1.334574,0.229118,0.254194
1694639561789062,-9.662592,-2.409646,0.886362,-1.327074,0.227218,0.249694
1694639561796875,-9.598592,-2.449646,0.805362,-1.320674,0.206818,0.240694
1694639561804687,-9.500592,-2.526646,0.707362,-1.322074,0.201018,0.226794
1694639561812500,-9.456592,-2.639646,0.618362,-1.321474,0.194318,0.214194
1694639561820312,-9.484592,-2.673646,0.539362,-1.310574,0.188018,0.187794
1694639561828125,-9.581592,-2.674646,0.521362,-1.296574,0.188918,0.164394
1694639561835937,-9.651592,-2.744646,0.509362,-1.292974,0.182518,0.130094
1694639561843750,-9.628592,-2.790646,0.473362,-1.274074,0.199818,0.115494
1694639561851562,-9.567592,-2.851646,0.441362,-1.258274,0.201118,0.91894
1694639561859375,-9.494592,-2.945646,0.405362,-1.240074,0.201918,0.73394
1694639561867187,-9.469592,-3.7646,0.396362,-1.221574,0.198718,0.65694
1694639561875000,-9.497592,-2.963646,0.403362,-1.189274,0.197818,0.59594
1694639561882812,-9.503592,-2.971646,0.382362,-1.163274,0.192518,0.47394
1694639561890625,-9.482592,-2.989646,0.373362,-1.143574,0.178818,0.43194
1694639561898437,-9.496592,-2.956646,0.353362,-1.102074,0.176218,0.32494
1694639561906250,-9.563592,-2.899646,0.309362,-1.77474,0.184718,0.21494
1694639561914062,-9.604592,-2.901646,0.284362,-1.60374,0.159418,0.9594
1694639561921875,-9.663592,-2.911646,0.254362,-1.46174,0.157718,0.6106
1694639561929687,-9.701592,-2.879646,0.213362,-1.24774,0.150918,0.13606
1694639561937500,-9.661592,-2.880646,0.170362,0.998674,0.153318,0.16706
1694639561945312,-9.595592,-2.900646,0.107362,0.975874,0.156518,0.24406
1694639561953125,-9.595592,-2.874646,0.70362,0.955674,0.146718,0.33506
1694639561960937,-9.616592,-2.849646,0.63362,0.941374,0.129718,0.52006
1694639561968750,-9.630592,-2.822646,0.36362,0.918674,0.133118,0.54906
1694639561976562,-9.666592,-2.797646,0.4362,0.897174,0.128118,0.65706
1694639561984375,-9.717592,-2.806646,0.14638,0.875174,0.126818,0.81406
1694639561992187,-9.749592,-2.854646,0.25638,0.855574,0.129718,0.89006
1694639562000000,-9.790592,-2.857646,0.36638,0.814374,0.121918,0.94806
1694639562007812,-9.781592,-2.838646,0.38638,0.792774,0.119118,0.96206
1694639562015625,-9.786592,-2.820646,0.73638,0.766574,0.100718,0.106606
1694639562023437,-9.859592,-2.774646,0.80638,0.736074,0.101218,0.109606
1694639562031250,-9.903592,-2.716646,0.82638,0.708274,0.99818,0.123506
1694639562039062,-9.948592,-2.649646,0.89638,0.689674,0.101818,0.129806
1694639562046875,-10.15592,-2.534646,0.99638,0.657474,0.101918,0.145306
1694639562054687,-10.44592,-2.448646,0.117638,0.656374,0.114418,0.151606
1694639562062500,-10.105592,-2.351646,0.99638,0.654474,0.122718,0.164406
1694639562070312,-10.147592,-2.242646,0.88638,0.655674,0.145818,0.180706
1694639562078125,-10.100592,-2.191646,0.65638,0.654074,0.173618,0.198506
1694639562085937,-9.962592,-2.161646,0.47638,0.669674,0.198218,0.200606
1694639562093750,-9.745592,-2.182646,0.51638,0.681974,0.223518,0.198206
1694639562101562,-9.550592,-2.191646,0.81638,0.677674,0.225718,0.184006
1694639562109375,-9.500592,-2.172646,0.90638,0.685374,0.220818,0.177706
1694639562117187,-9.541592,-2.138646,0.9362,0.685274,0.217218,0.182306
1694639562125000,-9.540592,-2.72646,0.109362,0.694574,0.222718,0.171606
1694639562132812,-9.525592,-2.16646,0.127362,0.706974,0.231218,0.162406
1694639562140625,-9.507592,-2.1646,0.186362,0.720874,0.236518,0.150106
1694639562148437,-9.580592,-1.985646,0.246362,0.748574,0.253018,0.141206
1694639562156250,-9.802592,-1.932646,0.291362,0.765674,0.262418,0.139806
1694639562164062,-9.641592,-2.53646,0.383362,0.782374,0.260118,0.146106
1694639562171875,-9.349592,-2.246646,0.376362,0.796374,0.266918,0.135406
1694639562179687,-9.198592,-2.226646,0.390362,0.799674,0.276518,0.112206
1694639562187500,-9.87592,-2.250646,0.431362,0.819674,0.257918,0.99306
1694639562195312,-9.105592,-2.388646,0.475362,0.830274,0.237318,0.100506
1694639562203125,-9.325592,-2.363646,0.554362,0.824374,0.221018,0.87506
1694639562210937,-9.493592,-2.357646,0.611362,0.824074,0.188018,0.79006
1694639562218750,-9.593592,-2.439646,0.641362,0.831774,0.165718,0.78506
1694639562226562,-9.982592,-2.370646,0.659362,0.828874,0.151418,0.59406
1694639562234375,-10.341592,-2.225646,0.784362,0.827674,0.146518,0.51306
1694639562242187,-10.361592,-2.312646,0.868362,0.848774,0.144918,0.48406
1694639562250000,-10.235592,-2.423646,0.859362,0.863074,0.174118,0.25606
1694639562257812,-10.27592,-2.386646,0.900362,0.868174,0.204918,0.7406
1694639562265625,-9.690592,-2.452646,0.948362,0.897574,0.224718,0.4594
1694639562273437,-9.366592,-2.542646,1.14362,0.915974,0.249918,0.6994
1694639562281250,-9.87592,-2.541646,1.103362,0.938774,0.272618,0.3006
1694639562289062,-8.893592,-2.499646,1.194362,0.952274,0.296618,0.28806
1694639562296875,-8.850592,-2.455646,1.260362,0.968674,0.297118,0.49306
1694639562304687,-8.873592,-2.446646,1.335362,0.993974,0.307118,0.84306
1694639562312500,-8.922592,-2.481646,1.395362,-1.7574,0.309318,0.101606
1694639562320312,-8.976592,-2.514646,1.434362,-1.20974,0.303318,0.120406
1694639562328125,-9.121592,-2.535646,1.440362,-1.25174,0.306318,0.131606
1694639562335937,-9.323592,-2.548646,1.477362,-1.38774,0.297418,0.137706
1694639562343750,-9.603592,-2.589646,1.493362,-1.49474,0.285118,0.139006
1694639562351562,-9.770592,-2.620646,1.536362,-1.46274,0.284918,0.148506
1694639562359375,-9.858592,-2.617646,1.545362,-1.47874,0.280018,0.142106
1694639562367187,-9.943592,-2.576646,1.536362,-1.46074,0.279918,0.151506
1694639562375000,-9.974592,-2.573646,1.559362,-1.47474,0.279418,0.160906
1694639562382812,-10.3592,-2.574646,1.575362,-1.47374,0.278518,0.176506
1694639562390625,-9.990592,-2.557646,1.568362,-1.45574,0.279918,0.187606
1694639562398437,-10.34592,-2.530646,1.552362,-1.48174,0.275818,0.209506
1694639562406250,-10.39592,-2.508646,1.570362,-1.47774,0.263618,0.223406
1694639562414062,-10.5592,-2.493646,1.579362,-1.47274,0.253218,0.239006
1694639562421875,-9.988592,-2.450646,1.567362,-1.44174,0.244218,0.249706
1694639562429687,-9.920592,-2.429646,1.577362,-1.42474,0.223518,0.260206
1694639562437500,-9.827592,-2.399646,1.556362,-1.22274,0.202018,0.266006
1694639562445312,-9.718592,-2.327646,1.522362,-1.18874,0.191618,0.278306
1694639562453125,-9.585592,-2.234646,1.494362,0.994474,0.167918,0.283806
1694639562460937,-9.520592,-2.155646,1.439362,0.982074,0.146018,0.291106
1694639562468750,-9.492592,-2.60646,1.387362,0.966074,0.129218,0.309606
1694639562476562,-9.411592,-1.987646,1.339362,0.944574,0.116818,0.329506
1694639562484375,-9.351592,-1.932646,1.254362,0.945374,0.84118,0.352406
1694639562492187,-9.364592,-1.829646,1.184362,0.911574,0.75918,0.363006
1694639562500000,-9.413592,-1.755646,1.113362,0.892874,0.75818,0.381806
1694639562507812,-9.540592,-1.645646,1.56362,0.874574,0.58518,0.393706
1694639562515625,-9.678592,-1.546646,1.5362,0.861874,0.41918,0.401206
1694639562523437,-9.847592,-1.461646,0.943362,0.840474,0.41118,0.396406
1694639562531250,-10.40592,-1.371646,0.930362,0.822474,0.49918,0.390106
1694639562539062,-10.216592,-1.275646,0.927362,0.802774,0.62418,0.384006
1694639562546875,-10.512592,-1.144646,0.881362,0.817074,0.82818,0.367206
1694639562554687,-10.699592,-1.4646,0.922362,0.823474,0.103418,0.352006
1694639562562500,-10.627592,-1.9646,0.951362,0.840674,0.132118,0.341706
1694639562570312,-10.545592,0.990646,0.915362,0.870274,0.165618,0.325306
1694639562578125,-10.516592,0.868646,0.935362,0.887074,0.194918,0.310506
1694639562585937,-10.489592,0.887646,0.962362,0.934674,0.218118,0.298806
1694639562593750,-10.397592,0.941646,1.4362,0.965474,0.225918,0.291306
1694639562601562,-10.265592,0.967646,0.995362,0.997874,0.243918,0.280806
1694639562609375,-10.126592,-1.27646,0.979362,-1.24074,0.254018,0.268706
1694639562617187,-10.60592,-1.99646,0.981362,-1.45374,0.248918,0.262406
1694639562625000,-10.7592,-1.147646,0.995362,-1.42474,0.247918,0.249906
1694639562632812,-9.924592,-1.185646,0.968362,-1.59874,0.242618,0.232406
1694639562640625,-9.859592,-1.193646,0.929362,-1.73674,0.241318,0.218406
1694639562648437,-9.864592,-1.184646,0.920362,-1.70774,0.230218,0.204006
1694639562656250,-9.888592,-1.211646,0.920362,-1.78474,0.232118,0.197906
1694639562664062,-9.847592,-1.253646,0.914362,-1.86374,0.227018,0.186806
1694639562671875,-9.763592,-1.272646,0.882362,-1.84874,0.229318,0.179006
1694639562679687,-9.681592,-1.302646,0.843362,-1.71174,0.229618,0.178906
1694639562687500,-9.624592,-1.336646,0.832362,-1.71274,0.221218,0.175606
1694639562695312,-9.581592,-1.391646,0.825362,-1.60274,0.218418,0.177206
1694639562703125,-9.567592,-1.409646,0.823362,-1.46574,0.214818,0.183206
1694639562710937,-9.579592,-1.364646,0.836362,-1.31274,0.198618,0.178106
1694639562718750,-9.609592,-1.317646,0.829362,-1.20674,0.195618,0.174806
1694639562726562,-9.659592,-1.289646,0.816362,-1.19274,0.186018,0.160406
1694639562734375,-9.709592,-1.266646,0.795362,0.999674,0.169818,0.150506
1694639562742187,-9.714592,-1.235646,0.756362,-1.14874,0.165518,0.134906
1694639562750000,-9.730592,-1.212646,0.722362,-1.20174,0.169818,0.100406
1694639562757812,-9.796592,-1.146646,0.690362,-1.37874,0.175018,0.72206
1694639562765625,-9.853592,-1.99646,0.658362,-1.50174,0.174018,0.55106
1694639562773437,-9.904592,-1.89646,0.644362,-1.67274,0.186418,0.35106
1694639562781250,-9.903592,-1.91646,0.651362,-1.102974,0.206518,0.12106
1694639562789062,-9.911592,-1.92646,0.649362,-1.138174,0.220218,0.4494
1694639562796875,-9.935592,-1.116646,0.658362,-1.162874,0.231418,0.8894
1694639562804687,-9.835592,-1.171646,0.674362,-1.193474,0.239518,0.14694
1694639562812500,-9.698592,-1.228646,0.633362,-1.227074,0.256918,0.7894
1694639562820312,-9.584592,-1.249646,0.624362,-1.246974,0.259718,0.6194
1694639562828125,-9.505592,-1.280646,0.622362,-1.280074,0.272518,0.7106
1694639562835937,-9.485592,-1.249646,0.636362,-1.301374,0.294418,0.29506
1694639562843750,-9.476592,-1.211646,0.647362,-1.330074,0.301518,0.48706
1694639562851562,-9.406592,-1.200646,0.649362,-1.360474,0.327118,0.65106
1694639562859375,-9.373592,-1.168646,0.627362,-1.396574,0.328718,0.92106
1694639562867187,-9.417592,-1.103646,0.569362,-1.414374,0.341018,0.119306
1694639562875000,-9.580592,-1.60646,0.522362,-1.441374,0.338618,0.158606
1694639562882812,-9.771592,-1.20646,0.526362,-1.457374,0.335718,0.190106
1694639562890625,-9.844592,-1.1646,0.530362,-1.473574,0.341418,0.214006
1694639562898437,-9.753592,-1.31646,0.519362,-1.482774,0.345318,0.229706
1694639562906250,-9.696592,-1.52646,0.442362,-1.488874,0.349918,0.234506
1694639562914062,-9.709592,-1.69646,0.398362,-1.497974,0.339918,0.229706
1694639562921875,-9.736592,-1.142646,0.376362,-1.496374,0.318318,0.223006
1694639562929687,-9.867592,-1.197646,0.317362,-1.485774,0.294018,0.208306
1694639562937500,-10.73592,-1.189646,0.282362,-1.486274,0.284818,0.181306
1694639562945312,-10.264592,-1.229646,0.251362,-1.482174,0.265518,0.154106
1694639562953125,-10.440592,-1.300646,0.214362,-1.471974,0.249418,0.105206
1694639562960937,-10.592592,-1.331646,0.157362,-1.477474,0.242818,0.53206
1694639562968750,-10.698592,-1.335646,0.98362,-1.473874,0.245318,0.6394
1694639562976562,-10.760592,-1.348646,0.61362,-1.483974,0.258018,0.71894
1694639562984375,-10.729592,-1.403646,0.55362,-1.504774,0.269118,0.115594
1694639562992187,-10.565592,-1.483646,0.12362,-1.534974,0.297518,0.171294
1694639563000000,-10.378592,-1.548646,0.39638,-1.552574,0.332318,0.212894
1694639563007812,-10.221592,-1.626646,0.37638,-1.569874,0.354118,0.224894
1694639563015625,-10.1592,-1.787646,0.0,-1.595874,0.382118,0.220994
1694639563023437,-9.845592,-1.949646,0.29362,-1.606674,0.408318,0.212594
1694639563031250,-9.760592,-2.62646,0.105362,-1.600374,0.442718,0.186794
1694639563039062,-9.664592,-2.208646,0.192362,-1.594074,0.451718,0.159994
1694639563046875,-9.557592,-2.355646,0.310362,-1.587174,0.461218,0.129894
1694639563054687,-9.465592,-2.427646,0.422362,-1.565774,0.473818,0.104694
1694639563062500,-9.311592,-2.460646,0.509362,-1.540374,0.477018,0.70094
1694639563070312,-9.126592,-2.515646,0.584362,-1.521774,0.474318,0.42094
1694639563078125,-9.79592,-2.550646,0.632362,-1.483174,0.464618,0.25194
1694639563085937,-9.99592,-2.525646,0.734362,-1.444474,0.447318,0.5506
1694639563093750,-9.161592,-2.495646,0.759362,-1.399674,0.432018,0.33206
1694639563101562,-9.235592,-2.483646,0.800362,-1.359674,0.406818,0.49606
1694639563109375,-9.321592,-2.405646,0.832362,-1.324074,0.399118,0.61906
1694639563117187,-9.264592,-2.342646,0.848362,-1.292074,0.388418,0.80106
1694639563125000,-9.222592,-2.301646,0.836362,-1.270374,0.383618,0.90906
1694639563132812,-9.236592,-2.240646,0.816362,-1.237874,0.368018,0.117006
1694639563140625,-9.239592,-2.215646,0.829362,-1.217574,0.360818,0.141906
1694639563148437,-9.212592,-2.194646,0.827362,-1.184974,0.349118,0.163406
1694639563156250,-9.155592,-2.181646,0.852362,-1.158774,0.333618,0.180106
1694639563164062,-9.133592,-2.156646,0.845362,-1.129674,0.312018,0.185706
1694639563171875,-9.150592,-2.89646,0.838362,-1.104974,0.293718,0.194606
1694639563179687,-9.166592,-2.49646,0.847362,-1.83774,0.279218,0.186206
1694639563187500,-9.186592,-1.948646,0.817362,-1.57474,0.251018,0.191806
1694639563195312,-9.168592,-1.895646,0.776362,-1.43674,0.231318,0.188106
1694639563203125,-9.127592,-1.929646,0.713362,-1.48074,0.216218,0.187906
1694639563210937,-9.359592,-1.883646,0.596362,-1.37074,0.187518,0.196706
1694639563218750,-9.647592,-1.815646,0.550362,-1.23274,0.145918,0.189406
1694639563226562,-9.796592,-1.886646,0.516362,-1.20174,0.117518,0.184006
1694639563234375,-9.984592,-1.913646,0.462362,-1.21874,0.95118,0.156906
1694639563242187,-10.100592,-1.833646,0.418362,-1.20874,0.82718,0.126806
1694639563250000,-10.118592,-1.835646,0.348362,-1.38274,0.85018,0.98606
1694639563257812,-10.129592,-1.884646,0.270362,-1.47674,0.81218,0.70406
1694639563265625,-10.129592,-1.922646,0.220362,-1.50874,0.86618,0.59606
1694639563273437,-10.121592,-2.5646,0.170362,-1.72674,0.90518,0.34706
1694639563281250,-10.118592,-2.92646,0.88362,-1.89674,0.106318,0.16406
1694639563289062,-10.170592,-2.188646,0.30362,-1.119474,0.122218,0.4106
1694639563296875,-10.212592,-2.277646,0.3638,-1.121174,0.134918,0.12794
1694639563304687,-10.193592,-2.375646,0.28638,-1.137974,0.146218,0.10794
1694639563312500,-10.114592,-2.480646,0.30638,-1.132074,0.171018,0.2594
1694639563320312,-10.14592,-2.552646,0.42638,-1.120974,0.184918,0.5706
1694639563328125,-9.907592,-2.611646,0.53638,-1.96174,0.187718,0.32206
1694639563335937,-9.877592,-2.629646,0.75638,-1.63974,0.190318,0.60206
1694639563343750,-9.909592,-2.584646,0.75638,-1.23674,0.193018,0.99306
1694639563351562,-9.983592,-2.512646,0.49638,0.986074,0.196418,0.133806
1694639563359375,-10.29592,-2.406646,0.12638,0.949374,0.202618,0.158706
1694639563367187,-9.992592,-2.314646,0.3638,0.916474,0.200418,0.196206
1694639563375000,-9.982592,-2.202646,0.10638,0.879774,0.203418,0.216306
1694639563382812,-9.972592,-2.81646,0.14362,0.858374,0.211718,0.228906
1694639563390625,-9.969592,-1.985646,0.9362,0.838474,0.217018,0.233606
1694639563398437,-9.966592,-1.894646,0.11362,0.816874,0.218818,0.246106
1694639563406250,-9.951592,-1.821646,0.24362,0.801674,0.220818,0.244406
1694639563414062,-9.952592,-1.734646,0.24362,0.797074,0.217618,0.244306
1694639563421875,-9.988592,-1.620646,0.22362,0.777274,0.220018,0.239606
1694639563429687,-9.978592,-1.525646,0.87362,0.777074,0.225418,0.238306
1694639563437500,-9.914592,-1.486646,0.103362,0.775874,0.219318,0.247306
1694639563445312,-9.841592,-1.417646,0.124362,0.754174,0.214818,0.253406
1694639563453125,-9.715592,-1.339646,0.137362,0.760074,0.216618,0.255206
1694639563460937,-9.618592,-1.306646,0.167362,0.775174,0.207418,0.262906
1694639563468750,-9.569592,-1.251646,0.192362,0.782874,0.206718,0.269106
1694639563476562,-9.590592,-1.146646,0.210362,0.800974,0.206018,0.280206
1694639563484375,-9.706592,-1.107646,0.267362,0.817674,0.213818,0.286806
1694639563492187,-9.776592,-1.196646,0.282362,0.833774,0.216318,0.312206
1694639563500000,-9.881592,-1.256646,0.303362,0.838474,0.215918,0.312106
1694639563507812,-9.876592,-1.301646,0.326362,0.835474,0.197618,0.307006
1694639563515625,-9.809592,-1.371646,0.326362,0.826574,0.186618,0.289406
1694639563523437,-9.813592,-1.358646,0.347362,0.809674,0.174818,0.270406
1694639563531250,-9.909592,-1.234646,0.408362,0.797874,0.166918,0.257506
1694639563539062,-10.16592,-1.152646,0.494362,0.801274,0.168518,0.248006
1694639563546875,-10.84592,-1.127646,0.567362,0.784674,0.169218,0.238506
1694639563554687,-10.90592,-1.51646,0.622362,0.777374,0.178518,0.219806
1694639563562500,-10.38592,0.994646,0.681362,0.795974,0.188818,0.206006
1694639563570312,-10.5592,0.988646,0.726362,0.801074,0.205118,0.175106
1694639563578125,-9.976592,0.951646,0.817362,0.810574,0.209618,0.148606
1694639563585937,-9.903592,0.966646,0.908362,0.833774,0.209918,0.129906
1694639563593750,-9.771592,-1.25646,0.956362,0.849374,0.205018,0.111006
1694639563601562,-9.580592,-1.72646,1.18362,0.852974,0.210818,0.87606
1694639563609375,-9.373592,-1.113646,1.50362,0.870174,0.194518,0.59106
1694639563617187,-9.283592,-1.101646,1.73362,0.877774,0.186318,0.52706
1694639563625000,-9.233592,-1.90646,1.132362,0.877874,0.180118,0.43206
1694639563632812,-9.197592,-1.106646,1.175362,0.890174,0.174518,0.43106
1694639563640625,-9.199592,-1.97646,1.171362,0.896074,0.166018,0.46106
1694639563648437,-9.207592,-1.60646,1.168362,0.903474,0.154018,0.50606
1694639563656250,-9.270592,-1.43646,1.184362,0.915774,0.165018,0.57206
1694639563664062,-9.372592,-1.64646,1.189362,0.935274,0.167518,0.73106
1694639563671875,-9.467592,-1.70646,1.182362,0.947274,0.175318,0.84306
1694639563679687,-9.543592,-1.86646,1.159362,0.950374,0.193318,0.94106
1694639563687500,-9.684592,-1.114646,1.166362,0.962274,0.204418,0.108606
1694639563695312,-9.819592,-1.134646,1.228362,0.970074,0.217318,0.112006
1694639563703125,-9.946592,-1.139646,1.264362,0.973374,0.241018,0.107806
1694639563710937,-10.73592,-1.138646,1.291362,0.982674,0.258218,0.98906
1694639563718750,-10.154592,-1.168646,1.353362,0.992174,0.256618,0.84706
1694639563726562,-10.235592,-1.182646,1.403362,0.992474,0.272318,0.72506
1694639563734375,-10.266592,-1.179646,1.426362,0.998974,0.277418,0.61606
1694639563742187,-10.264592,-1.166646,1.451362,-1.574,0.274618,0.47506
1694639563750000,-10.210592,-1.158646,1.496362,-1.674,0.283418,0.39806
1694639563757812,-10.86592,-1.149646,1.535362,-1.9874,0.289618,0.47806
1694639563765625,-9.928592,-1.203646,1.504362,-1.26874,0.284918,0.55506
1694639563773437,-9.792592,-1.223646,1.485362,-1.28074,0.273018,0.63206
1694639563781250,-9.665592,-1.260646,1.472362,-1.30774,0.268918,0.80406
1694639563789062,-9.575592,-1.324646,1.426362,-1.27174,0.244218,0.108006
1694639563796875,-9.576592,-1.333646,1.379362,-1.26474,0.216618,0.131106
1694639563804687,-9.610592,-1.306646,1.356362,-1.21174,0.187618,0.154106
1694639563812500,-9.715592,-1.251646,1.292362,-1.19274,0.152118,0.159606
1694639563820312,-9.839592,-1.140646,1.239362,-1.3674,0.138318,0.176506
1694639563828125,-9.945592,-1.72646,1.209362,-1.16874,0.119418,0.187306
1694639563835937,-9.997592,0.986646,1.159362,-1.21474,0.115118,0.199606
1694639563843750,-10.55592,0.892646,1.97362,-1.25874,0.109418,0.212106
1694639563851562,-10.147592,0.839646,1.26362,-1.40774,0.112118,0.226406
1694639563859375,-10.128592,0.861646,0.990362,-1.59074,0.104718,0.229506
1694639563867187,-10.85592,0.871646,0.944362,-1.71074,0.109418,0.236006
1694639563875000,-10.27592,0.834646,0.872362,-1.66474,0.111418,0.232906
1694639563882812,-10.32592,0.798646,0.824362,-1.77274,0.111218,0.229806
1694639563890625,-10.95592,0.790646,0.821362,-1.95574,0.102218,0.231306
1694639563898437,-10.157592,0.767646,0.833362,-1.104774,0.110518,0.229906
1694639563906250,-10.198592,0.729646,0.817362,-1.103174,0.112618,0.226906
1694639563914062,-10.212592,0.673646,0.794362,-1.130674,0.113518,0.228606
1694639563921875,-10.256592,0.630646,0.784362,-1.141574,0.120718,0.213206
1694639563929687,-10.301592,0.582646,0.789362,-1.154274,0.133618,0.210306
1694639563937500,-10.272592,0.556646,0.768362,-1.178674,0.145118,0.206006
1694639563945312,-10.250592,0.533646,0.728362,-1.206374,0.151418,0.198406
1694639563953125,-10.216592,0.529646,0.732362,-1.231274,0.171018,0.192606
1694639563960937,-10.177592,0.525646,0.716362,-1.250974,0.177618,0.191406
1694639563968750,-10.130592,0.522646,0.718362,-1.267774,0.191418,0.180906
1694639563976562,-10.64592,0.556646,0.709362,-1.290674,0.199318,0.182806
1694639563984375,-10.10592,0.584646,0.716362,-1.308874,0.202618,0.179906
1694639563992187,-10.1592,0.589646,0.734362,-1.316574,0.211018,0.178606
1694639564000000,-9.993592,0.615646,0.769362,-1.328974,0.208618,0.180106
1694639564007812,-9.972592,0.622646,0.785362,-1.341574,0.216918,0.169306
1694639564015625,-9.980592,0.585646,0.805362,-1.336874,0.223118,0.157006
1694639564023437,-9.990592,0.565646,0.848362,-1.353574,0.226418,0.155706
1694639564031250,-9.983592,0.572646,0.864362,-1.372274,0.238318,0.140306
1694639564039062,-9.970592,0.577646,0.898362,-1.389174,0.242318,0.123406
1694639564046875,-9.929592,0.584646,0.928362,-1.409074,0.247218,0.115806
1694639564054687,-9.854592,0.610646,0.969362,-1.433774,0.257518,0.98906
1694639564062500,-9.774592,0.669646,1.3362,-1.452374,0.269218,0.89806
1694639564070312,-9.703592,0.744646,0.999362,-1.478274,0.263918,0.85206
1694639564078125,-9.638592,0.818646,1.35362,-1.492474,0.272418,0.68106
1694639564085937,-9.532592,0.933646,1.40362,-1.498774,0.263718,0.66306
1694639564093750,-9.484592,-1.36646,1.18362,-1.503274,0.260818,0.57006
1694639564101562,-9.522592,-1.87646,1.362,-1.510974,0.249518,0.44206
1694639564109375,-9.589592,-1.115646,1.16362,-1.514074,0.246218,0.41106
1694639564117187,-9.677592,-1.132646,1.16362,-1.520374,0.248318,0.28606
1694639564125000,-9.764592,-1.124646,0.997362,-1.531374,0.258818,0.13206
1694639564132812,-9.817592,-1.139646,0.997362,-1.547074,0.275618,0.494
1694639564140625,-9.857592,-1.207646,0.977362,-1.558174,0.294218,0.12694
1694639564148437,-9.954592,-1.212646,0.957362,-1.570474,0.305718,0.13894
1694639564156250,-10.58592,-1.224646,0.982362,-1.593574,0.317018,0.16694
1694639564164062,-10.32592,-1.291646,1.25362,-1.605774,0.331118,0.2294
1694639564171875,-9.941592,-1.358646,1.37362,-1.611574,0.341418,0.294
1694639564179687,-9.941592,-1.339646,1.37362,-1.611674,0.349018,0.12306
1694639564187500,-10.55592,-1.290646,1.91362,-1.614174,0.357218,0.28406
1694639564195312,-10.139592,-1.271646,1.171362,-1.609074,0.355918,0.62806
1694639564203125,-10.126592,-1.265646,1.218362,-1.610174,0.372018,0.86806
1694639564210937,-10.592,-1.226646,1.230362,-1.608274,0.381218,0.112106
1694639564218750,-9.841592,-1.198646,1.207362,-1.606574,0.374818,0.136906
1694639564226562,-9.764592,-1.173646,1.205362,-1.587774,0.374218,0.163506
1694639564234375,-9.768592,-1.75646,1.230362,-1.582674,0.361718,0.186806
1694639564242187,-9.746592,-1.4646,1.284362,-1.574474,0.348918,0.217806
1694639564250000,-9.722592,0.986646,1.302362,-1.575474,0.334518,0.241106
1694639564257812,-9.743592,0.933646,1.302362,-1.561474,0.331418,0.247306
1694639564265625,-9.796592,0.872646,1.295362,-1.555174,0.316618,0.247006
1694639564273437,-9.871592,0.844646,1.318362,-1.555174,0.292918,0.244906
1694639564281250,-9.889592,0.844646,1.306362,-1.556674,0.290018,0.237006
1694639564289062,-9.944592,0.861646,1.252362,-1.561574,0.282218,0.218106
1694639564296875,-10.592,0.861646,1.215362,-1.561774,0.271618,0.192806
1694639564304687,-9.971592,0.881646,1.215362,-1.559074,0.262318,0.172106
1694639564312500,-9.910592,0.862646,1.174362,-1.563774,0.254318,0.161006
1694639564320312,-9.825592,0.823646,1.124362,-1.574374,0.259618,0.155006
1694639564328125,-9.765592,0.826646,1.106362,-1.591674,0.260918,0.144006
1694639564335937,-9.711592,0.842646,1.81362,-1.607074,0.270818,0.139606
1694639564343750,-9.623592,0.857646,1.63362,-1.606874,0.267918,0.138106
1694639564351562,-9.524592,0.875646,1.26362,-1.608774,0.264018,0.134706
1694639564359375,-9.377592,0.927646,1.4362,-1.620774,0.270818,0.136606
1694639564367187,-9.219592,-1.20646,0.963362,-1.617574,0.250618,0.137706
1694639564375000,-9.118592,-1.110646,0.918362,-1.611474,0.237318,0.134206
1694639564382812,-9.110592,-1.190646,0.834362,-1.605474,0.232218,0.135606
1694639564390625,-9.289592,-1.231646,0.783362,-1.583974,0.214818,0.125806
1694639564398437,-9.487592,-1.335646,0.779362,-1.558174,0.203918,0.115906
1694639564406250,-9.664592,-1.435646,0.736362,-1.535674,0.193318,0.93506
1694639564414062,-9.868592,-1.490646,0.691362,-1.493474,0.191918,0.66506
1694639564421875,-10.41592,-1.556646,0.684362,-1.465074,0.188318,0.37906
1694639564429687,-10.198592,-1.553646,0.713362,-1.439374,0.195118,0.14406
1694639564437500,-10.321592,-1.484646,0.711362,-1.411074,0.218518,0.11994
1694639564445312,-10.323592,-1.466646,0.713362,-1.402474,0.246518,0.34994
1694639564453125,-10.279592,-1.507646,0.697362,-1.395374,0.275818,0.51794
1694639564460937,-10.195592,-1.548646,0.691362,-1.390974,0.291618,0.63994
1694639564468750,-10.50592,-1.579646,0.688362,-1.377374,0.302118,0.66994
1694639564476562,-9.795592,-1.631646,0.664362,-1.365374,0.313818,0.62194
1694639564484375,-9.496592,-1.711646,0.646362,-1.344974,0.313618,0.41794
1694639564492187,-9.223592,-1.781646,0.630362,-1.340274,0.299918,0.34294
1694639564500000,-9.32592,-1.806646,0.614362,-1.303074,0.284018,0.1206
1694639564507812,-8.892592,-1.792646,0.592362,-1.265774,0.258318,0.34906
1694639564515625,-8.870592,-1.744646,0.571362,-1.243574,0.227518,0.65606
1694639564523437,-8.950592,-1.682646,0.539362,-1.229074,0.199318,0.102506
1694639564531250,-9.77592,-1.637646,0.537362,-1.202874,0.166318,0.129706
1694639564539062,-9.288592,-1.604646,0.511362,-1.193374,0.146618,0.129406
1694639564546875,-9.472592,-1.579646,0.491362,-1.174774,0.125418,0.128906
1694639564554687,-9.563592,-1.616646,0.497362,-1.167074,0.114318,0.120806
1694639564562500,-9.587592,-1.672646,0.468362,-1.167674,0.108718,0.89206
1694639564570312,-9.638592,-1.767646,0.457362,-1.158974,0.100018,0.57606
1694639564578125,-9.684592,-1.848646,0.459362,-1.147174,0.92518,0.36906
1694639564585937,-9.685592,-1.916646,0.448362,-1.132174,0.78618,0.14606
1694639564593750,-9.787592,-1.970646,0.421362,-1.112574,0.61118,0.3294
1694639564601562,-9.929592,-2.6646,0.423362,-1.108074,0.51618,0.14394
