time,Acceleration X (m/s^2),Acceleration Y (m/s^2),Acceleration Z (m/s^2),Angular Velocity X (rad/s),Angular Velocity Y (rad/s),Angular Velocity Z (rad/s)
1694638574125000,-9.45722,1.597076,-0.315359,,,
1694638574132812,-9.44422,1.610076,1.251993,0.334859,0.160241,0.33069
1694638574140625,-9.43722,1.610076,1.240993,0.347959,0.177941,0.31469
1694638574148437,-9.42722,1.647076,1.231993,0.366059,0.183141,0.33269
1694638574156250,-9.44522,1.683076,1.229993,0.396959,0.192541,0.31969
1694638574164062,-9.47722,1.684076,1.233993,0.404459,0.202641,0.41569
1694638574179687,-9.51522,1.671076,1.204993,0.458959,0.212741,0.46969
1694638574187500,-9.52922,1.609076,1.215993,0.471659,0.215941,0.45469
1694638574195312,-9.53122,1.580076,1.237993,0.492759,0.228841,0.53669
1694638574203125,-9.54722,1.554076,1.267993,0.506559,0.227441,0.60169
1694638574226562,-9.52722,1.420076,1.233993,0.548559,0.247441,0.71769
1694638574234375,-9.49522,1.411076,1.201993,0.571359,0.243941,0.78469
1694638574242187,-9.48222,1.430076,1.170993,0.573759,0.236041,0.72169
1694638574250000,-9.51922,1.412076,1.208993,0.591059,0.223841,0.72369
1694638574257812,-9.59422,1.311076,1.129993,0.603059,0.242241,0.83669
1694638574265625,-9.57222,1.283076,1.91993,0.620659,0.259141,0.86969
1694638574273437,-9.58422,1.243076,1.44993,0.625959,0.260641,0.91769
1694638574281250,-9.57122,1.223076,0.983993,0.646759,0.254041,0.98469
1694638574289062,-9.55022,1.201076,0.967993,0.668359,0.264141,0.106669
1694638574296875,-9.55522,1.201076,0.956993,0.686859,0.267541,0.106869
1694638574304687,-9.55622,1.179076,0.996993,0.708359,0.272141,0.116669
1694638574312500,-9.55222,1.167076,1.78993,0.723359,0.285641,0.121569
1694638574320312,-9.58422,1.104076,1.123993,0.762959,0.308441,0.125069
1694638574328125,-9.54122,1.74076,0.922993,0.811959,0.306641,0.124069
1694638574335937,-9.44122,1.97076,0.933993,0.796659,0.305441,0.120669
1694638574343750,-9.45322,1.166076,1.105993,0.792159,0.320041,0.114069
1694638574351562,-9.51022,1.265076,1.210993,0.800759,0.340941,0.112469
1694638574359375,-9.54922,1.299076,1.240993,0.818659,0.354341,0.104569
1694638574367187,-9.55722,1.359076,1.190993,0.843559,0.346241,0.103269
1694638574375000,-9.51222,1.336076,1.165993,0.876459,0.351241,0.106769
1694638574382812,-9.46022,1.337076,1.14993,0.919859,0.367241,0.105569
1694638574390625,-9.45522,1.286076,0.904993,0.925659,0.370641,0.105569
1694638574398437,-9.47122,1.186076,0.787993,0.943959,0.385641,0.110469
1694638574406250,-9.48822,1.237076,0.738993,0.958959,0.394241,0.113869
1694638574414062,-9.55122,1.252076,0.688993,0.986559,0.394041,0.126969
1694638574421875,-9.55822,1.270076,0.665993,-1.2359,0.384241,0.130469
1694638574429687,-9.54922,1.276076,0.690993,-1.22359,0.394141,0.122569
1694638574437500,-9.53622,1.296076,0.647993,-1.56959,0.410541,0.124469
1694638574445312,-9.49822,1.297076,0.740993,-1.70459,0.413941,0.114969
1694638574453125,-9.50722,1.342076,0.812993,-1.114359,0.435241,0.113669
1694638574460937,-9.54722,1.302076,0.780993,-1.151159,0.474841,0.107369
1694638574468750,-9.54022,1.274076,0.780993,-1.165859,0.489241,0.107469
1694638574476562,-9.51422,1.196076,0.674993,-1.193459,0.499141,0.88469
1694638574484375,-9.58322,1.8076,0.631993,-1.176859,0.475841,0.81969
1694638574492187,-9.48022,0.916076,0.681993,-1.171859,0.512041,0.88069
1694638574500000,-9.54122,0.946076,0.557993,-1.191859,0.522941,0.84969
1694638574507812,-9.36022,0.989076,0.519993,-1.211059,0.533441,0.97969
1694638574515625,-9.33822,1.4076,0.382993,-1.232059,0.550441,0.109369
1694638574523437,-9.30922,1.35076,0.316993,-1.233459,0.566341,0.130069
1694638574531250,-9.36522,0.975076,0.208993,-1.228159,0.571741,0.144469
1694638574539062,-9.36622,0.922076,0.147993,-1.207059,0.569841,0.157069
1694638574546875,-9.47022,0.864076,0.107993,-1.201459,0.558241,0.174769
1694638574554687,-9.62722,0.789076,0.23993,-1.201359,0.551941,0.187669
1694638574562500,-9.72122,0.768076,0.23007,-1.207959,0.545541,0.203769
1694638574570312,-9.82122,0.723076,0.95007,-1.204959,0.546441,0.206969
1694638574578125,-9.86922,0.671076,0.131007,-1.205259,0.533241,0.207069
1694638574585937,-9.85122,0.670076,0.188007,-1.198759,0.530041,0.208569
1694638574593750,-9.86222,0.602076,0.190007,-1.185959,0.512241,0.211769
1694638574601562,-9.89522,0.571076,0.244007,-1.178659,0.509441,0.216569
1694638574609375,-9.89522,0.531076,0.307007,-1.177359,0.484841,0.218369
1694638574617187,-9.92922,0.567076,0.379007,-1.180359,0.480041,0.221669
1694638574625000,-9.95022,0.600076,0.449007,-1.201059,0.465241,0.223569
1694638574632812,-9.92722,0.573076,0.476007,-1.204759,0.450341,0.222069
1694638574640625,-9.86722,0.522076,0.442007,-1.205259,0.443441,0.214169
1694638574648437,-9.84022,0.494076,0.455007,-1.202059,0.466841,0.196269
1694638574656250,-9.76122,0.444076,0.392007,-1.190959,0.471441,0.167269
1694638574664062,-9.63722,0.438076,0.343007,-1.184059,0.463241,0.144769
1694638574671875,-9.49622,0.516076,0.341007,-1.177859,0.446541,0.122369
1694638574679687,-9.49522,0.434076,0.388007,-1.182359,0.454741,0.115869
1694638574687500,-9.46022,0.391076,0.415007,-1.161059,0.462441,0.105969
1694638574695312,-9.41522,0.315076,0.449007,-1.127359,0.470841,0.100669
1694638574703125,-9.34422,0.276076,0.512007,-1.105259,0.466041,0.103669
1694638574710937,-9.21222,0.256076,0.532007,-1.99759,0.471241,0.102069
1694638574718750,-9.22522,0.258076,0.687007,-1.104159,0.489341,0.103569
1694638574726562,-9.36022,0.260076,0.818007,-1.100159,0.484141,0.100369
1694638574734375,-9.58022,0.246076,0.902007,-1.89559,0.480741,0.106669
1694638574742187,-9.72622,0.248076,0.987007,-1.76059,0.458141,0.100269
1694638574750000,-9.81222,0.276076,0.944007,-1.75259,0.425041,0.92469
1694638574757812,-9.85622,0.230076,-1.32007,-1.65459,0.436641,0.89069
1694638574765625,-9.93222,0.182076,-1.226007,-1.76459,0.434941,0.89169
1694638574773437,-10.2922,0.182076,-1.113007,-1.38559,0.425141,0.80769
1694638574781250,-10.1422,0.219076,0.831007,0.995759,0.420341,0.78769
1694638574789062,-9.94922,0.145076,-1.91007,0.978659,0.421741,0.65669
1694638574796875,-9.86422,0.126076,-1.289007,0.931259,0.401841,0.39669
1694638574804687,-9.87222,0.248076,-1.203007,0.868359,0.374041,0.34369
1694638574812500,-9.83022,0.283076,-1.64007,0.851059,0.367241,0.16569
1694638574820312,-9.69722,0.227076,-1.142007,0.856959,0.378941,0.26169
1694638574828125,-9.51822,0.174076,-1.228007,0.870459,0.349341,0.39369
1694638574835937,-9.54222,0.132076,-1.365007,0.870659,0.362541,0.53669
1694638574843750,-9.63122,0.62076,-1.521007,0.850059,0.361041,0.67969
1694638574851562,-9.75622,0.2924,-1.557007,0.825259,0.343041,0.75769
1694638574859375,-9.86722,0.23076,-1.514007,0.797759,0.328041,0.81969
1694638574867187,-9.95122,0.23924,-1.467007,0.781159,0.316441,0.89969
1694638574875000,-10.5222,0.46924,-1.393007,0.752559,0.311541,0.81669
1694638574882812,-10.12022,0.111924,-1.386007,0.726659,0.312641,0.73269
1694638574890625,-10.15222,0.106924,-1.379007,0.689459,0.309741,0.61669
1694638574898437,-10.8022,0.105924,-1.384007,0.660559,0.296141,0.54969
1694638574906250,-9.93422,0.87924,-1.408007,0.617459,0.275041,0.45069
1694638574914062,-9.80522,0.56924,-1.442007,0.576359,0.258741,0.43069
1694638574921875,-9.65222,0.46924,-1.478007,0.539659,0.259041,0.47469
1694638574929687,-9.57522,0.53924,-1.505007,0.503959,0.246641,0.50369
1694638574937500,-9.57922,0.82924,-1.544007,0.476159,0.246541,0.56469
1694638574945312,-9.59222,0.131924,-1.541007,0.444859,0.243941,0.59369
1694638574953125,-9.60922,0.179924,-1.516007,0.413959,0.240441,0.60669
1694638574960937,-9.54822,0.231924,-1.494007,0.399859,0.235441,0.60569
1694638574968750,-9.47522,0.243924,-1.501007,0.369759,0.236441,0.53769
1694638574976562,-9.36022,0.327924,-1.535007,0.335559,0.210741,0.47169
1694638574984375,-9.42922,0.177924,-1.571007,0.318859,0.187441,0.34269
1694638574992187,-9.37922,0.109924,-1.598007,0.307459,0.171241,0.29469
1694638575000000,-9.29222,0.80924,-1.597007,0.304959,0.165041,0.29469
1694638575007812,-9.26322,0.45924,-1.584007,0.265159,0.185741,0.28869
1694638575015625,-9.28622,0.36924,-1.573007,0.231059,0.194241,0.17269
1694638575023437,-9.24422,0.89924,-1.532007,0.197159,0.182441,0.10469
1694638575031250,-9.20622,0.101924,-1.498007,0.169559,0.185841,0.2631
1694638575039062,-9.17522,0.91924,-1.539007,0.129559,0.185941,0.22331
1694638575046875,-9.10822,0.58924,-1.631007,0.95559,0.184041,0.21131
1694638575054687,-9.7322,0.21924,-1.717007,0.62959,0.162641,0.19731
1694638575062500,-9.7722,0.0,-1.784007,0.19259,0.162441,0.23431
1694638575070312,-9.10122,0.22076,-1.836007,0.22641,0.169341,0.22331
1694638575078125,-9.10622,0.21076,-1.803007,0.53541,0.163541,0.21031
1694638575085937,-9.15422,0.39076,-1.888007,0.63541,0.162341,0.9931
1694638575093750,-9.22822,0.25076,-1.978007,0.85841,0.173641,0.23131
1694638575101562,-9.33822,0.42076,-1.875007,0.145341,0.183141,0.35031
1694638575109375,-9.42422,0.34076,-1.748007,0.190541,0.203241,0.38931
1694638575117187,-9.43522,0.26076,-1.611007,0.218141,0.228941,0.45831
1694638575125000,-9.38122,0.27076,-1.543007,0.233941,0.233841,0.49331
1694638575132812,-9.30722,0.46076,-1.564007,0.242641,0.258741,0.49531
1694638575140625,-9.23522,0.58076,-1.597007,0.270341,0.271441,0.51631
1694638575148437,-9.16622,0.81076,-1.579007,0.288041,0.276541,0.51831
1694638575156250,-9.8922,0.61076,-1.557007,0.307541,0.284341,0.47231
1694638575164062,-8.98822,0.41076,-1.568007,0.329241,0.285941,0.37931
1694638575171875,-8.86022,0.50076,-1.586007,0.331441,0.284641,0.36331
1694638575179687,-8.76422,0.69076,-1.670007,0.332841,0.287741,0.36331
1694638575187500,-8.78422,0.73076,-1.897007,0.323441,0.286141,0.37831
1694638575195312,-8.93222,0.33076,-2.82007,0.345941,0.278141,0.46031
1694638575203125,-9.11822,0.5076,-2.208007,0.387841,0.259741,0.54431
1694638575210937,-9.22322,0.75924,-2.165007,0.430941,0.237141,0.54731
1694638575218750,-9.22122,0.170924,-2.48007,0.465041,0.210641,0.62931
1694638575226562,-9.17522,0.237924,-1.962007,0.483341,0.207141,0.59931
1694638575234375,-9.9322,0.274924,-1.978007,0.502541,0.223541,0.65131
1694638575242187,-9.9922,0.248924,-2.41007,0.514141,0.227141,0.60431
1694638575250000,-9.13922,0.235924,-2.89007,0.536741,0.218541,0.63831
1694638575257812,-9.13222,0.238924,-2.93007,0.572441,0.216641,0.65831
1694638575265625,-9.2422,0.233924,-2.35007,0.585641,0.223341,0.77231
1694638575273437,-8.88222,0.235924,-1.954007,0.619741,0.221341,0.80831
1694638575281250,-8.78822,0.143924,-1.877007,0.655141,0.221641,0.89231
1694638575289062,-8.73522,0.69924,-1.852007,0.672841,0.241341,0.96031
1694638575296875,-8.67422,0.81924,-1.924007,0.684441,0.266141,0.85131
1694638575304687,-8.65622,0.117924,-1.974007,0.710841,0.277341,0.93531
1694638575312500,-8.66222,0.145924,-1.940007,0.731541,0.303441,0.110031
1694638575320312,-8.55922,0.227924,-1.922007,0.743841,0.308041,0.116531
1694638575328125,-8.47822,0.255924,-1.956007,0.774041,0.306241,0.137731
1694638575335937,-8.44422,0.131924,-1.942007,0.766441,0.288241,0.155231
1694638575343750,-8.49922,0.54924,-2.5007,0.743341,0.302941,0.171131
1694638575351562,-8.61722,0.22076,-2.156007,0.721241,0.296141,0.188431
1694638575359375,-8.76322,0.6076,-2.298007,0.718341,0.292841,0.199631
1694638575367187,-8.74622,0.49924,-2.316007,0.714241,0.274941,0.217131
1694638575375000,-8.76822,0.46924,-2.384007,0.732841,0.268141,0.226831
1694638575382812,-8.79322,0.101924,-2.352007,0.787241,0.268441,0.238731
1694638575390625,-8.82022,0.87924,-2.291007,0.843541,0.269841,0.241031
1694638575398437,-8.87422,0.71924,-2.158007,0.883141,0.261641,0.252631
1694638575406250,-8.78022,0.79924,-2.28007,0.887541,0.246941,0.244531
1694638575414062,-8.66522,0.67924,-2.71007,0.880441,0.266241,0.238131
1694638575421875,-8.52822,0.34924,-2.156007,0.883941,0.286141,0.227131
1694638575429687,-8.28622,0.33924,-2.158007,0.918341,0.284441,0.224231
1694638575437500,-8.13222,0.41076,-2.50007,0.963741,0.302841,0.237831
1694638575445312,-8.1522,0.172076,-1.976007,1.2241,0.351241,0.256231
1694638575453125,-7.91222,0.240076,-1.884007,0.997441,0.349441,0.262531
1694638575460937,-7.83722,0.270076,-1.850007,0.966741,0.333241,0.276531
1694638575468750,-7.80422,0.329076,-1.953007,0.908641,0.329941,0.282231
1694638575476562,-7.87622,0.312076,-2.135007,0.869041,0.338741,0.285131
1694638575484375,-8.7322,0.322076,-2.410007,0.839041,0.359841,0.289731
1694638575492187,-8.26722,0.367076,-2.741007,0.784641,0.350141,0.301931
1694638575500000,-8.39522,0.446076,-2.930007,0.776141,0.342241,0.319431
1694638575507812,-8.47222,0.503076,-3.61007,0.802041,0.361341,0.331031
1694638575515625,-8.56022,0.533076,-3.115007,0.827241,0.367641,0.344231
1694638575523437,-8.67122,0.552076,-3.106007,0.874041,0.374641,0.352831
1694638575531250,-8.80222,0.643076,-2.968007,0.908541,0.380941,0.361331
1694638575539062,-8.87522,0.685076,-2.757007,0.889541,0.393841,0.369231
1694638575546875,-8.94222,0.688076,-2.683007,0.854641,0.421441,0.372231
1694638575554687,-8.93322,0.654076,-2.628007,0.850541,0.442041,0.374031
1694638575562500,-8.94622,0.639076,-2.593007,0.812441,0.431541,0.368631
1694638575570312,-9.422,0.631076,-2.836007,0.754641,0.457841,0.369731
1694638575578125,-9.5422,0.647076,-3.124007,0.717141,0.481541,0.369531
1694638575585937,-9.9722,0.677076,-3.363007,0.691341,0.476041,0.390031
1694638575593750,-9.5622,0.665076,-3.426007,0.728241,0.494041,0.414631
1694638575601562,-9.5622,0.645076,-3.297007,0.787041,0.528041,0.450931
1694638575609375,-8.97822,0.699076,-3.52007,0.823441,0.560441,0.482031
1694638575617187,-8.93922,0.776076,-2.935007,0.824941,0.574041,0.496631
1694638575625000,-8.88622,0.817076,-2.980007,0.798541,0.583841,0.504431
1694638575632812,-8.87522,0.871076,-3.119007,0.765441,0.601741,0.508931
1694638575640625,-8.87322,0.888076,-3.259007,0.721141,0.575641,0.498631
1694638575648437,-8.82022,0.919076,-3.340007,0.657341,0.505141,0.494131
1694638575656250,-8.73322,0.968076,-3.446007,0.583141,0.431541,0.492831
1694638575664062,-8.72322,1.59076,-3.626007,0.531241,0.371141,0.493431
1694638575671875,-8.89122,1.204076,-3.858007,0.499341,0.346341,0.494431
1694638575679687,-9.8022,1.182076,-4.205007,0.482041,0.336841,0.473331
1694638575687500,-9.24322,1.142076,-4.443007,0.528441,0.341841,0.440131
1694638575695312,-9.43022,1.34076,-4.506007,0.574441,0.348341,0.400631
1694638575703125,-9.61422,1.4076,-4.371007,0.648941,0.377741,0.361531
1694638575710937,-9.40322,0.969076,-4.187007,0.647541,0.396141,0.332831
1694638575718750,-9.23422,1.12076,-4.85007,0.593041,0.371341,0.325531
1694638575726562,-9.30722,1.214076,-4.103007,0.524741,0.366941,0.318331
1694638575734375,-9.46122,1.441076,-4.423007,0.481041,0.342441,0.279131
1694638575742187,-9.56022,1.589076,-4.752007,0.463241,0.314941,0.237031
1694638575750000,-9.77322,1.403076,-5.159007,0.465741,0.295541,0.201631
1694638575757812,-9.89022,1.103076,-5.135007,0.558441,0.242841,0.176631
1694638575765625,-9.71522,0.981076,-4.921007,0.680241,0.216341,0.171331
1694638575773437,-9.49222,0.968076,-4.567007,0.758041,0.278741,0.163031
1694638575781250,-8.98422,0.772076,-4.295007,0.769441,0.378841,0.143031
1694638575789062,-8.64222,0.638076,-4.63007,0.702741,0.455641,0.171731
1694638575796875,-8.67622,0.643076,-4.59007,0.646441,0.498241,0.176231
1694638575804687,-8.55122,0.677076,-4.7007,0.649241,0.485141,0.168131
1694638575812500,-8.52922,0.754076,-3.959007,0.690241,0.481741,0.179831
1694638575820312,-8.38822,0.785076,-3.962007,0.720641,0.502941,0.201231
1694638575828125,-8.59322,0.984076,-4.232007,0.830041,0.546641,0.202731
1694638575835937,-8.22122,0.745076,-3.723007,0.869941,0.582841,0.201831
1694638575843750,-8.6822,0.412076,-4.270007,0.691841,0.494441,0.263431
1694638575851562,-8.7122,0.469076,-4.575007,0.782041,0.380941,0.286031
1694638575859375,-8.20222,0.651076,-4.406007,0.729041,0.323641,0.320331
1694638575867187,-8.36022,1.2076,-4.892007,0.599741,0.251941,0.350431
1694638575875000,-8.30222,1.308076,-5.11007,0.456741,0.133741,0.351131
1694638575882812,-8.68322,1.486076,-5.411007,0.382041,0.141441,0.292631
1694638575890625,-8.48822,1.452076,-5.653007,0.424741,0.102141,0.198131
1694638575898437,-8.26722,1.362076,-5.286007,0.463041,0.39441,0.207731
1694638575906250,-8.46522,1.396076,-5.362007,0.497441,0.162241,0.231431
1694638575914062,-8.33722,1.570076,-4.957007,0.573941,0.193041,0.283931
1694638575921875,-8.57722,1.838076,-4.531007,0.589241,0.349741,0.333331
1694638575929687,-8.86122,1.878076,-4.560007,0.581741,0.440041,0.364431
1694638575937500,-8.89222,1.572076,-4.687007,0.562841,0.467641,0.372431
1694638575945312,-9.822,1.320076,-5.236007,0.616441,0.453341,0.405131
1694638575953125,-9.3622,1.285076,-5.482007,0.661741,0.357741,0.457831
1694638575960937,-9.29022,1.300076,-5.844007,0.660441,0.315141,0.476731
1694638575968750,-9.60822,1.356076,-6.42007,0.636341,0.295641,0.455531
1694638575976562,-9.63922,1.294076,-6.254007,0.612041,0.281141,0.406931
1694638575984375,-9.77322,1.411076,-6.294007,0.603141,0.261841,0.352131
1694638575992187,-9.80322,1.355076,-6.216007,0.571841,0.260141,0.253831
1694638576000000,-9.46922,1.252076,-5.948007,0.549841,0.233641,0.226131
1694638576007812,-9.46522,1.383076,-5.599007,0.525741,0.273641,0.206931
1694638576015625,-9.12822,1.442076,-5.380007,0.503641,0.272041,0.203431
1694638576023437,-9.17022,1.507076,-4.964007,0.433841,0.271841,0.249231
1694638576031250,-9.47822,1.647076,-5.274007,0.378041,0.311241,0.269731
1694638576039062,-10.3822,1.565076,-5.668007,0.423841,0.394541,0.270831
1694638576046875,-10.21122,1.252076,-6.461007,0.486541,0.424141,0.247731
1694638576054687,-10.30722,1.125076,-7.18007,0.603841,0.369541,0.274331
1694638576062500,-10.18022,1.171076,-7.562007,0.726441,0.331841,0.278631
1694638576070312,-9.96022,1.278076,-7.733007,0.827141,0.250041,0.290431
1694638576078125,-9.82622,1.360076,-7.891007,0.825641,0.200941,0.296431
1694638576085937,-9.68722,1.376076,-7.842007,0.808641,0.97441,0.301931
1694638576093750,-9.45222,1.333076,-7.506007,0.765241,0.15559,0.294131
1694638576101562,-9.30622,1.293076,-7.62007,0.713341,0.95259,0.268931
1694638576109375,-8.95422,1.339076,-6.684007,0.689241,0.178659,0.260031
1694638576117187,-8.92522,1.487076,-6.139007,0.664541,0.262259,0.251131
1694638576125000,-9.3522,1.667076,-5.966007,0.580141,0.272359,0.232431
1694638576132812,-9.33722,1.720076,-6.112007,0.554541,0.319459,0.201331
1694638576140625,-9.50022,1.479076,-6.173007,0.541441,0.434159,0.153731
1694638576148437,-9.68822,1.311076,-6.288007,0.541641,0.499359,0.98731
1694638576156250,-9.74722,1.174076,-6.441007,0.526741,0.520059,0.34231
1694638576164062,-9.89022,1.116076,-6.653007,0.456041,0.552759,0.16569
1694638576171875,-10.11122,1.154076,-6.983007,0.403941,0.617659,0.57769
1694638576179687,-10.33122,1.187076,-7.29007,0.342241,0.694659,0.105569
1694638576187500,-10.62522,1.316076,-7.51007,0.275041,0.771659,0.122969
1694638576195312,-10.82322,1.485076,-6.970007,0.216241,0.861359,0.154769
1694638576203125,-10.80522,1.481076,-6.643007,0.210641,0.882459,0.193469
1694638576210937,-10.79422,1.445076,-6.269007,0.260141,0.829859,0.195769
1694638576218750,-10.93122,1.490076,-5.860007,0.330041,0.768159,0.197669
1694638576226562,-11.9922,1.424076,-5.454007,0.404141,0.704559,0.185169
1694638576234375,-11.10722,1.382076,-5.103007,0.448641,0.685059,0.162069
1694638576242187,-10.98522,1.225076,-4.844007,0.479541,0.647659,0.119669
1694638576250000,-10.66222,1.100076,-4.520007,0.532641,0.664059,0.67869
1694638576257812,-10.28222,1.19076,-4.27007,0.536941,0.698559,0.11969
1694638576265625,-10.8922,0.880076,-3.867007,0.478941,0.703459,0.45131
1694638576273437,-10.2622,0.744076,-3.957007,0.420741,0.685259,0.83131
1694638576281250,-10.10422,0.577076,-4.378007,0.371141,0.705659,0.120931
1694638576289062,-10.9022,0.432076,-4.604007,0.301741,0.815259,0.124131
1694638576296875,-9.86022,0.351076,-4.669007,0.218041,0.937659,0.111131
1694638576304687,-9.73422,0.324076,-4.637007,0.165641,0.996559,0.98831
1694638576312500,-9.59822,0.260076,-4.451007,0.143541,0.999459,0.72931
1694638576320312,-9.48922,0.208076,-4.205007,0.154841,0.975259,0.49131
1694638576328125,-9.46222,0.207076,-3.953007,0.172241,0.903059,0.29031
1694638576335937,-9.38122,0.166076,-3.604007,0.184741,0.852159,0.969
1694638576343750,-9.32222,0.121076,-3.253007,0.175541,0.805959,0.24769
1694638576351562,-9.28822,0.43924,-3.12007,0.207941,0.755159,0.59369
1694638576359375,-9.20722,0.44924,-2.654007,0.224941,0.735459,0.75069
1694638576367187,-9.13422,0.43076,-2.354007,0.190841,0.744959,0.85169
1694638576375000,-9.13622,0.123076,-2.235007,0.140241,0.779359,0.84369
1694638576382812,-9.11522,0.87076,-2.410007,0.83441,0.839759,0.91869
1694638576390625,-8.96022,0.6924,-2.588007,0.49241,0.923359,0.107369
1694638576398437,-8.79022,0.88924,-2.746007,0.67341,0.944859,0.113669
1694638576406250,-8.62922,0.217924,-2.746007,0.122941,0.929859,0.116169
1694638576414062,-8.48522,0.197924,-2.625007,0.158441,0.912159,0.126869
1694638576421875,-8.42622,0.143924,-2.469007,0.168241,0.882359,0.139369
1694638576429687,-8.45922,0.155924,-2.357007,0.161341,0.862859,0.155369
1694638576437500,-8.53622,0.188924,-2.257007,0.167241,0.842659,0.159969
1694638576445312,-8.60122,0.137924,-2.156007,0.180641,0.841359,0.159869
1694638576453125,-8.75522,0.68924,-2.79007,0.218641,0.849759,0.140169
1694638576460937,-8.88722,0.50076,-1.868007,0.241141,0.895659,0.109769
1694638576468750,-8.97622,0.132076,-1.712007,0.214641,0.938359,0.76669
1694638576476562,-9.1922,0.173076,-1.507007,0.186441,0.954959,0.57869
1694638576484375,-8.97322,0.187076,-1.464007,0.175241,0.884359,0.36669
1694638576492187,-9.7022,0.125076,-1.422007,0.194141,0.825759,0.21569
1694638576500000,-9.22722,0.218076,-1.336007,0.196441,0.770259,0.7831
1694638576507812,-9.28522,0.314076,-1.298007,0.202441,0.732359,0.29031
1694638576515625,-9.30922,0.408076,-1.190007,0.206041,0.745459,0.41731
1694638576523437,-9.36622,0.387076,-1.372007,0.173741,0.762159,0.49331
1694638576531250,-9.39222,0.456076,-1.489007,0.171241,0.804359,0.50631
1694638576539062,-9.30322,0.487076,-1.491007,0.208941,0.786359,0.46331
1694638576546875,-9.23322,0.437076,-1.325007,0.248541,0.751859,0.32631
1694638576554687,-9.27422,0.372076,-1.266007,0.285841,0.686659,0.28631
1694638576562500,-9.23822,0.331076,-1.88007,0.327741,0.653459,0.19731
1694638576570312,-9.33522,0.240076,-1.16007,0.321641,0.640859,0.11731
1694638576578125,-9.44822,0.124076,0.965007,0.306941,0.644259,0.3531
1694638576585937,-9.53222,0.21076,0.915007,0.276541,0.633859,0.6369
1694638576593750,-9.54122,0.100924,0.870007,0.274741,0.643659,0.14469
1694638576601562,-9.50422,0.214924,0.859007,0.273441,0.635559,0.3169
1694638576609375,-9.46422,0.250924,0.900007,0.272541,0.626259,0.4931
1694638576617187,-9.50822,0.221924,0.933007,0.275541,0.611059,0.16231
1694638576625000,-9.45022,0.177924,0.904007,0.258641,0.621259,0.11231
1694638576632812,-9.44022,0.237924,0.908007,0.219841,0.637459,0.15431
1694638576640625,-9.47022,0.352924,0.877007,0.224541,0.654959,0.33031
1694638576648437,-9.45222,0.328924,0.722007,0.223541,0.671859,0.45731
1694638576656250,-9.51822,0.269924,0.546007,0.230541,0.620859,0.38131
1694638576664062,-9.49522,0.327924,0.415007,0.251641,0.567159,0.24331
1694638576671875,-9.56022,0.446924,0.458007,0.242241,0.547459,0.19531
1694638576679687,-9.60522,0.467924,0.562007,0.252341,0.582059,0.11431
1694638576687500,-9.63622,0.403924,0.417007,0.256641,0.568259,0.6069
1694638576695312,-9.67022,0.442924,0.492007,0.202441,0.550559,0.8169
1694638576703125,-9.77922,0.497924,0.506007,0.203041,0.564059,0.9869
1694638576710937,-9.93022,0.391924,0.514007,0.262241,0.549059,0.531
1694638576718750,-10.4122,0.296924,0.409007,0.308841,0.541059,0.11769
1694638576726562,-10.3822,0.390924,0.431007,0.334841,0.535759,0.12969
1694638576734375,-9.89322,0.583924,0.582007,0.366541,0.581659,0.9531
1694638576742187,-9.88622,0.483924,0.584007,0.376241,0.621259,0.47831
1694638576750000,-9.79522,0.443924,0.586007,0.391141,0.620959,0.52831
1694638576757812,-9.87022,0.350924,0.390007,0.348441,0.623059,0.78031
1694638576765625,-9.87222,0.203924,0.596007,0.344541,0.639859,0.89031
1694638576773437,-9.76022,0.16924,0.341007,0.361041,0.695359,0.116131
1694638576781250,-9.56622,0.51076,0.226007,0.333341,0.692059,0.131831
1694638576789062,-9.61922,0.122076,0.152007,0.325941,0.678959,0.147931
1694638576796875,-9.47922,0.94076,0.278007,0.327341,0.647859,0.136931
1694638576804687,-9.32122,0.98076,0.251007,0.350341,0.633359,0.132531
1694638576812500,-9.27522,0.2924,0.282007,0.345541,0.587459,0.113531
1694638576820312,-9.24122,0.144924,0.436007,0.310841,0.592259,0.103431
1694638576828125,-9.31822,0.177924,0.314007,0.304241,0.601559,0.109731
1694638576835937,-9.51222,0.118924,0.226007,0.289941,0.575559,0.114631
1694638576843750,-9.63122,0.76924,0.221007,0.274241,0.568959,0.112831
1694638576851562,-9.70622,0.46924,0.262007,0.279941,0.552359,0.124331
1694638576859375,-9.81422,0.7924,0.370007,0.276441,0.549559,0.148331
1694638576867187,-9.89322,0.11076,0.366007,0.302841,0.546459,0.145431
1694638576875000,-9.83522,0.24076,0.330007,0.323441,0.526859,0.152231
1694638576882812,-9.68422,0.6924,0.177007,0.340741,0.535259,0.168431
1694638576890625,-9.71622,0.15924,0.75993,0.340241,0.513659,0.179831
1694638576898437,-9.83322,0.53076,0.176993,0.319541,0.502359,0.179631
1694638576906250,-9.81022,0.21076,0.277993,0.318241,0.482559,0.176531
1694638576914062,-9.71022,0.41924,0.354993,0.329141,0.482759,0.184731
1694638576921875,-9.59822,0.27924,0.550993,0.322741,0.499259,0.194131
1694638576929687,-9.52322,0.46076,0.629993,0.322641,0.475859,0.205531
1694638576937500,-9.77222,0.119076,0.584993,0.278041,0.477559,0.193831
1694638576945312,-10.922,0.207076,0.588993,0.240541,0.489159,0.214131
1694638576953125,-9.57922,0.169076,0.636993,0.213941,0.520159,0.215231
1694638576960937,-9.39622,0.151076,0.530993,0.233941,0.499159,0.223631
1694638576968750,-9.46222,0.298076,0.467993,0.291841,0.479259,0.242131
1694638576976562,-9.61522,0.456076,0.661993,0.301541,0.479259,0.247031
1694638576984375,-9.61422,0.527076,0.809993,0.270441,0.464459,0.253231
1694638576992187,-9.58722,0.573076,0.910993,0.215641,0.479559,0.242831
1694638577000000,-9.62422,0.620076,0.915993,0.170541,0.492259,0.231031
1694638577007812,-9.60022,0.678076,0.811993,0.126041,0.495659,0.222431
1694638577015625,-9.51722,0.636076,0.679993,0.79541,0.511659,0.223431
1694638577023437,-9.52022,0.723076,0.751993,0.54241,0.537659,0.208531
1694638577031250,-9.58422,0.773076,0.794993,0.32841,0.511759,0.195631
1694638577039062,-9.63322,0.746076,0.774993,0.7841,0.475059,0.197231
1694638577046875,-9.59022,0.684076,0.789993,0.10441,0.452259,0.187731
1694638577054687,-9.62622,0.605076,0.823993,0.14341,0.442859,0.187831
1694638577062500,-9.64222,0.581076,0.857993,0.2141,0.426259,0.176631
1694638577070312,-9.70522,0.624076,1.5993,0.141,0.421559,0.178231
1694638577078125,-9.74622,0.627076,1.199993,0.13159,0.409559,0.171731
1694638577085937,-9.71422,0.604076,1.318993,0.39059,0.409859,0.163431
1694638577093750,-9.70822,0.615076,1.348993,0.63459,0.420959,0.167931
1694638577101562,-9.66522,0.610076,1.404993,0.69659,0.420959,0.169431
1694638577109375,-9.61722,0.639076,1.482993,0.49259,0.434659,0.164731
1694638577117187,-9.58422,0.631076,1.546993,0.26259,0.435859,0.163431
1694638577125000,-9.54022,0.673076,1.624993,0.20259,0.429559,0.166731
1694638577132812,-9.46322,0.751076,1.645993,0.19459,0.434159,0.177931
1694638577140625,-9.37922,0.847076,1.618993,0.12859,0.416259,0.187831
1694638577148437,-9.36222,0.950076,1.606993,0.9841,0.397159,0.192931
1694638577156250,-9.38922,0.988076,1.690993,0.30041,0.380959,0.202931
1694638577164062,-9.35922,1.45076,1.746993,0.30641,0.356259,0.199931
1694638577171875,-9.38222,1.76076,1.758993,0.47141,0.329759,0.200331
1694638577179687,-9.45822,1.80076,1.904993,0.54541,0.323259,0.189231
1694638577187500,-9.52522,1.39076,2.23993,0.46141,0.289159,0.182931
1694638577195312,-9.59822,0.985076,2.73993,0.48041,0.282359,0.175031
1694638577203125,-9.65022,1.5076,2.201993,0.54441,0.301859,0.174931
1694638577210937,-9.66922,1.30076,2.309993,0.54641,0.309959,0.176431
1694638577218750,-9.62022,1.89076,2.350993,0.81141,0.318259,0.173531
1694638577226562,-9.55422,1.161076,2.282993,0.101541,0.323159,0.175331
1694638577234375,-9.48322,1.209076,2.226993,0.133641,0.334859,0.159531
1694638577242187,-9.40722,1.272076,2.210993,0.160441,0.342959,0.158131
1694638577250000,-9.39922,1.346076,2.334993,0.180041,0.339859,0.143931
1694638577257812,-9.35322,1.405076,2.487993,0.200841,0.306859,0.126831
1694638577265625,-9.30222,1.449076,2.532993,0.219241,0.279259,0.120731
1694638577273437,-9.27522,1.557076,2.550993,0.260341,0.259559,0.121431
1694638577281250,-9.24522,1.634076,2.575993,0.289041,0.244659,0.115431
1694638577289062,-9.22322,1.698076,2.598993,0.303041,0.218559,0.112531
1694638577296875,-9.25022,1.732076,2.553993,0.294141,0.205759,0.99731
1694638577304687,-9.29322,1.708076,2.487993,0.284941,0.203759,0.80331
1694638577312500,-9.26022,1.621076,2.429993,0.300641,0.201959,0.66131
1694638577320312,-9.18122,1.573076,2.415993,0.303341,0.198659,0.46931
1694638577328125,-9.9822,1.506076,2.431993,0.325841,0.190859,0.35931
1694638577335937,-9.2922,1.500076,2.526993,0.351741,0.187059,0.18631
1694638577343750,-8.91422,1.480076,2.591993,0.390541,0.154559,0.12931
1694638577351562,-8.82422,1.450076,2.679993,0.434441,0.133259,0.3931
1694638577359375,-8.71522,1.520076,2.722993,0.455041,0.93959,0.2831
1694638577367187,-8.68622,1.577076,2.717993,0.479841,0.58359,0.11431
1694638577375000,-8.76722,1.632076,2.739993,0.517141,0.25859,0.4031
1694638577382812,-8.84222,1.624076,2.823993,0.566741,0.5859,0.3131
1694638577390625,-8.94222,1.676076,2.848993,0.580141,0.30541,0.1269
1694638577398437,-9.6522,1.703076,2.676993,0.580641,0.67541,0.2231
1694638577406250,-9.25222,1.728076,2.571993,0.607941,0.79141,0.7431
1694638577414062,-9.36322,1.765076,2.472993,0.627141,0.61241,0.12331
1694638577421875,-9.47922,1.727076,2.442993,0.633241,0.44941,0.5831
1694638577429687,-9.58722,1.670076,2.280993,0.637041,0.53441,0.4331
1694638577437500,-9.69322,1.594076,2.100993,0.651341,0.16941,0.5369
1694638577445312,-9.66622,1.432076,2.111993,0.682141,0.33859,0.16669
1694638577453125,-9.69922,1.233076,2.152993,0.713641,0.20459,0.37069
1694638577460937,-9.67522,1.272076,2.152993,0.729441,0.11859,0.68869
1694638577468750,-9.60122,1.237076,2.62993,0.736041,0.0,0.97669
1694638577476562,-9.75022,1.173076,2.66993,0.773241,0.21859,0.121469
1694638577484375,-9.70422,1.97076,2.163993,0.803941,0.54559,0.143769
1694638577492187,-9.75322,1.118076,2.235993,0.823841,0.58059,0.145169
1694638577500000,-9.78322,1.122076,2.161993,0.820941,0.24759,0.132169
1694638577507812,-9.79422,1.263076,2.57993,0.790541,0.15259,0.124369
1694638577515625,-9.72322,1.339076,1.846993,0.751741,0.10259,0.116769
1694638577523437,-9.81022,1.416076,1.731993,0.685841,0.43059,0.95269
1694638577531250,-9.85022,1.489076,1.745993,0.706541,0.50959,0.56569
1694638577539062,-9.83422,1.570076,1.859993,0.691541,0.108959,0.13869
1694638577546875,-9.85822,1.677076,1.949993,0.571241,0.168059,0.35731
1694638577554687,-9.80122,1.733076,1.828993,0.481141,0.172659,0.55531
1694638577562500,-9.78922,1.795076,1.765993,0.412141,0.192259,0.64231
1694638577570312,-9.71022,1.809076,1.688993,0.374541,0.205259,0.66931
1694638577578125,-9.57622,1.834076,1.751993,0.337041,0.231359,0.74331
1694638577585937,-9.44522,1.808076,1.740993,0.292741,0.233159,0.75431
1694638577593750,-9.38922,1.829076,1.645993,0.258941,0.208359,0.78431
1694638577601562,-9.49922,1.849076,1.720993,0.253941,0.185559,0.76931
1694638577609375,-9.48722,1.893076,1.929993,0.231841,0.219859,0.70031
1694638577617187,-9.39322,1.916076,1.965993,0.176641,0.237759,0.64431
1694638577625000,-9.30022,1.894076,1.769993,0.158241,0.212859,0.53231
1694638577632812,-9.26022,1.909076,1.648993,0.160441,0.175659,0.47031
1694638577640625,-9.20622,1.926076,1.697993,0.194141,0.147559,0.42831
1694638577648437,-9.19022,1.890076,1.758993,0.203741,0.117959,0.31931
1694638577656250,-9.23522,1.864076,1.756993,0.202441,0.104759,0.33631
1694638577664062,-9.31722,1.792076,1.875993,0.203741,0.106459,0.32031
1694638577671875,-9.30122,1.779076,2.46993,0.182941,0.88559,0.23831
1694638577679687,-9.30222,1.694076,2.24993,0.153641,0.48859,0.2931
1694638577687500,-9.35222,1.604076,1.994993,0.117041,0.45559,0.15069
1694638577695312,-9.33122,1.542076,2.138993,0.117641,0.76859,0.26569
1694638577703125,-9.21322,1.460076,2.28993,0.123041,0.45459,0.27869
1694638577710937,-9.24522,1.398076,1.726993,0.146141,0.4759,0.40069
1694638577718750,-9.36722,1.393076,1.720993,0.190441,0.11159,0.38069
1694638577726562,-9.49022,1.362076,1.895993,0.202941,0.11359,0.31469
1694638577734375,-9.64222,1.316076,2.62993,0.199641,0.4841,0.21769
1694638577742187,-9.69922,1.388076,1.927993,0.185841,0.30941,0.4069
1694638577750000,-9.62022,1.333076,1.909993,0.159041,0.23441,0.6069
1694638577757812,-9.62522,1.262076,1.945993,0.146741,0.27841,0.6169
1694638577765625,-9.61122,1.253076,1.965993,0.145341,0.21241,0.231
1694638577773437,-9.60922,1.236076,2.10993,0.145741,0.22941,0.8231
1694638577781250,-9.62122,1.267076,1.960993,0.136941,0.9941,0.20831
1694638577789062,-9.63722,1.298076,1.868993,0.133541,0.0,0.22331
1694638577796875,-9.61022,1.278076,1.816993,0.117741,0.14959,0.42931
1694638577804687,-9.50522,1.302076,1.875993,0.104541,0.39159,0.52231
1694638577812500,-9.52722,1.319076,1.904993,0.88141,0.60859,0.67931
1694638577820312,-9.61222,1.395076,1.940993,0.72941,0.80259,0.75631
1694638577828125,-9.62922,1.365076,1.850993,0.76441,0.77359,0.61231
1694638577835937,-9.61222,1.338076,1.818993,0.79141,0.97159,0.56331
1694638577843750,-9.56322,1.332076,1.841993,0.83341,0.106459,0.57931
1694638577851562,-9.62522,1.391076,1.895993,0.96441,0.101259,0.48531
1694638577859375,-9.53922,1.370076,1.891993,0.101341,0.94959,0.22931
1694638577867187,-9.48122,1.355076,1.931993,0.120241,0.102959,0.10231
1694638577875000,-9.48522,1.362076,1.924993,0.128941,0.96559,0.4069
1694638577882812,-9.49222,1.369076,1.978993,0.144441,0.83459,0.21469
1694638577890625,-9.48822,1.396076,2.66993,0.145741,0.80159,0.34269
1694638577898437,-9.51122,1.427076,2.93993,0.146241,0.73059,0.56669
1694638577906250,-9.51522,1.425076,2.136993,0.140541,0.73359,0.71169
1694638577914062,-9.53622,1.443076,2.170993,0.133941,0.61759,0.88769
1694638577921875,-9.57422,1.464076,2.213993,0.130241,0.53759,0.100069
1694638577929687,-9.56222,1.490076,2.208993,0.133941,0.46859,0.106369
1694638577937500,-9.55722,1.512076,2.271993,0.124341,0.58459,0.103369
1694638577945312,-9.52622,1.532076,2.291993,0.119541,0.55259,0.96969
1694638577953125,-9.48822,1.515076,2.195993,0.99541,0.58259,0.98769
1694638577960937,-9.44422,1.495076,2.120993,0.98441,0.66959,0.95669
1694638577968750,-9.45722,1.451076,2.161993,0.94241,0.79959,0.87769
1694638577976562,-9.48422,1.458076,2.228993,0.76841,0.83259,0.81569
1694638577984375,-9.49822,1.478076,2.278993,0.66541,0.76459,0.86469
1694638577992187,-9.49122,1.485076,2.366993,0.50541,0.53659,0.86469
1694638578000000,-9.40122,1.446076,2.427993,0.33041,0.53559,0.97869
1694638578007812,-9.32922,1.422076,2.341993,0.3441,0.68359,0.82269
1694638578015625,-9.27922,1.419076,2.269993,0.5441,0.61659,0.74169
1694638578023437,-9.26622,1.408076,2.278993,0.21241,0.47159,0.64269
1694638578031250,-9.32222,1.433076,2.251993,0.15241,0.40459,0.62669
1694638578039062,-9.33622,1.409076,2.242993,0.2141,0.22059,0.62769
1694638578046875,-9.33322,1.376076,2.285993,0.4741,0.15759,0.57869
1694638578054687,-9.35022,1.331076,2.327993,0.12459,0.12459,0.61169
1694638578062500,-9.37422,1.296076,2.321993,0.25159,0.4259,0.67669
1694638578070312,-9.36722,1.274076,2.318993,0.26559,0.4259,0.61269
1694638578078125,-9.36522,1.267076,2.300993,0.29959,0.3841,0.67669
1694638578085937,-9.37122,1.239076,2.269993,0.36059,0.22041,0.75669
1694638578093750,-9.40922,1.225076,2.235993,0.33959,0.20741,0.80469
1694638578101562,-9.44522,1.195076,2.213993,0.24459,0.27041,0.67469
1694638578109375,-9.47422,1.175076,2.204993,0.27159,0.33841,0.72269
1694638578117187,-9.47322,1.160076,2.219993,0.32959,0.33241,0.59469
1694638578125000,-9.47522,1.151076,2.231993,0.24559,0.33541,0.62669
1694638578132812,-9.48922,1.154076,2.235993,0.27759,0.30141,0.54669
1694638578140625,-9.50022,1.154076,2.249993,0.38959,0.30041,0.56369
1694638578148437,-9.52122,1.163076,2.213993,0.47859,0.46641,0.54769
1694638578156250,-9.53422,1.155076,2.203993,0.49959,0.39941,0.56469
1694638578164062,-9.52722,1.150076,2.194993,0.48759,0.44641,0.54769
1694638578171875,-9.50522,1.158076,2.150993,0.54159,0.43341,0.56469
1694638578179687,-9.48722,1.151076,2.138993,0.49259,0.46641,0.49969
1694638578187500,-9.50522,1.145076,2.145993,0.47359,0.45041,0.43569
1694638578195312,-9.50422,1.143076,2.152993,0.48259,0.49541,0.45069
1694638578203125,-9.51122,1.132076,2.154993,0.40259,0.49641,0.45069
1694638578210937,-9.50422,1.121076,2.147993,0.27859,0.56141,0.46469
1694638578218750,-9.50122,1.96076,2.122993,0.24459,0.56141,0.44769
1694638578226562,-9.51722,1.81076,2.129993,0.19759,0.53041,0.52769
1694638578234375,-9.51922,1.65076,2.118993,0.12759,0.63141,0.54269
1694638578242187,-9.52122,1.65076,2.95993,0.2541,0.61241,0.50869
1694638578250000,-9.51222,1.56076,2.80993,0.6741,0.62741,0.52469
1694638578257812,-9.51222,1.52076,2.71993,0.19741,0.61241,0.50669
1694638578265625,-9.48922,1.30076,2.73993,0.25041,0.55941,0.53869
1694638578273437,-9.47422,1.36076,2.68993,0.26041,0.53041,0.50669
1694638578281250,-9.47122,1.27076,2.93993,0.39041,0.56341,0.39269
1694638578289062,-9.49622,1.10076,2.109993,0.44641,0.56141,0.50469
1694638578296875,-9.53422,0.988076,2.98993,0.42241,0.63041,0.47169
1694638578304687,-9.57422,0.981076,2.100993,0.51941,0.66341,0.43869
1694638578312500,-9.59422,0.967076,2.113993,0.52841,0.67741,0.45469
1694638578320312,-9.58722,0.944076,2.136993,0.51041,0.62741,0.43869
1694638578328125,-9.54422,0.915076,2.120993,0.52641,0.70941,0.45469
1694638578335937,-9.50722,0.885076,2.75993,0.48441,0.56441,0.50369
1694638578343750,-9.48622,0.863076,2.43993,0.47541,0.49541,0.45669
1694638578351562,-9.49722,0.870076,2.34993,0.48541,0.44241,0.39269
1694638578359375,-9.52122,0.901076,2.82993,0.49241,0.42841,0.29669
1694638578367187,-9.52122,0.924076,2.115993,0.55241,0.47641,0.32769
1694638578375000,-9.50622,0.943076,2.113993,0.44841,0.52741,0.27969
1694638578382812,-9.49922,0.970076,2.89993,0.33741,0.54441,0.36169
1694638578390625,-9.50622,0.990076,2.197993,0.27241,0.72341,0.37669
1694638578398437,-9.45922,0.978076,2.163993,0.8041,0.86041,0.42569
1694638578406250,-9.44822,0.993076,2.100993,0.19259,0.87541,0.52569
1694638578414062,-9.39022,0.999076,2.102993,0.42759,0.90841,0.51169
1694638578421875,-9.33222,1.7076,1.886993,0.42459,0.112141,0.46169
1694638578429687,-9.33122,1.21076,1.690993,0.9059,0.109741,0.32969
1694638578437500,-9.34122,1.70076,1.829993,0.39141,0.99641,0.24469
1694638578445312,-9.38722,1.113076,2.84993,0.59141,0.127641,0.8069
1694638578453125,-9.49122,1.167076,2.143993,0.50441,0.145941,0.3169
1694638578460937,-9.54922,1.164076,2.134993,0.31341,0.154041,0.9769
1694638578468750,-9.52722,1.68076,2.59993,0.8941,0.149141,0.18069
1694638578476562,-9.52422,0.974076,1.962993,0.3341,0.138041,0.26269
1694638578484375,-9.54322,0.902076,1.906993,0.1159,0.140741,0.24669
1694638578492187,-9.57022,0.869076,1.890993,0.13841,0.144441,0.29269
1694638578500000,-9.61722,0.881076,1.897993,0.26341,0.134541,0.25969
1694638578507812,-9.63322,0.897076,1.897993,0.28941,0.130941,0.19569
1694638578515625,-9.66922,0.897076,1.870993,0.40841,0.123141,0.17869
1694638578523437,-9.69822,0.886076,1.843993,0.50141,0.111641,0.19469
1694638578531250,-9.72722,0.864076,1.793993,0.53041,0.105041,0.17869
1694638578539062,-9.74322,0.871076,1.834993,0.54241,0.103241,0.22669
1694638578546875,-9.72222,0.860076,1.852993,0.59241,0.104941,0.17769
1694638578554687,-9.71322,0.857076,1.868993,0.62841,0.96941,0.14669
1694638578562500,-9.72722,0.887076,1.915993,0.76441,0.88441,0.6469
1694638578570312,-9.69622,0.890076,1.938993,0.73841,0.83841,0.9769
1694638578578125,-9.68322,0.897076,1.944993,0.64541,0.77441,0.14769
1694638578585937,-9.64922,0.881076,1.904993,0.54841,0.75741,0.14869
1694638578593750,-9.60422,0.878076,1.852993,0.51541,0.73941,0.11669
1694638578601562,-9.61222,0.872076,1.820993,0.57541,0.80241,0.8369
1694638578609375,-9.61322,0.871076,1.839993,0.71041,0.64241,0.1231
1694638578617187,-9.61522,0.896076,1.854993,0.61541,0.62541,0.7531
1694638578625000,-9.59522,0.904076,1.852993,0.62441,0.57941,0.10731
1694638578632812,-9.57422,0.904076,1.823993,0.52741,0.47341,0.8931
1694638578640625,-9.57022,0.920076,1.793993,0.52741,0.48941,0.12231
1694638578648437,-9.56822,0.935076,1.773993,0.56541,0.47641,0.12231
1694638578656250,-9.58022,0.947076,1.784993,0.60641,0.39241,0.7431
1694638578664062,-9.58722,0.973076,1.798993,0.72341,0.44441,0.7531
1694638578671875,-9.60422,1.15076,1.791993,0.77541,0.46241,0.6031
1694638578679687,-9.61922,1.34076,1.787993,0.76341,0.50741,0.4431
1694638578687500,-9.59722,1.37076,1.764993,0.82241,0.44641,0.7631
1694638578695312,-9.61322,1.56076,1.785993,0.87541,0.50841,0.2931
1694638578703125,-9.61222,1.41076,1.859993,0.101041,0.63541,0.0
1694638578710937,-9.58122,0.982076,1.818993,0.85441,0.62841,0.6569
1694638578718750,-9.54222,0.963076,1.724993,0.91141,0.69041,0.1669
1694638578726562,-9.45722,0.960076,1.724993,0.106941,0.73941,0.1731
1694638578734375,-9.40722,0.977076,1.760993,0.117841,0.81941,0.8331
1694638578742187,-9.44422,1.11076,1.787993,0.122541,0.98241,0.11731
1694638578750000,-9.45322,1.51076,1.847993,0.119141,0.104541,0.19731
1694638578757812,-9.44222,1.60076,1.872993,0.115041,0.104841,0.14931
1694638578765625,-9.44922,1.49076,1.861993,0.102141,0.106341,0.19631
1694638578773437,-9.46722,1.22076,1.861993,0.104741,0.106841,0.16431
1694638578781250,-9.47522,0.978076,1.789993,0.82741,0.131341,0.17931
1694638578789062,-9.45522,0.966076,1.733993,0.100541,0.136441,0.19831
1694638578796875,-9.44822,0.980076,1.739993,0.104141,0.134241,0.19831
1694638578804687,-9.44622,0.998076,1.735993,0.104541,0.140841,0.24731
1694638578812500,-9.47822,1.25076,1.717993,0.110741,0.152341,0.21631
1694638578820312,-9.53522,1.70076,1.694993,0.107641,0.154041,0.21631
1694638578828125,-9.57522,1.100076,1.694993,0.107141,0.152141,0.19931
1694638578835937,-9.63022,1.118076,1.676993,0.94741,0.153941,0.16631
1694638578843750,-9.67922,1.126076,1.652993,0.83641,0.145741,0.11631
1694638578851562,-9.72622,1.144076,1.622993,0.67541,0.132641,0.6531
1694638578859375,-9.73122,1.151076,1.584993,0.51341,0.130841,0.1531
1694638578867187,-9.78022,1.116076,1.548993,0.26841,0.121341,0.369
1694638578875000,-9.80722,1.137076,1.471993,0.7241,0.106341,0.831
1694638578882812,-9.82822,1.161076,1.453993,0.359,0.78541,0.10231
1694638578890625,-9.86622,1.166076,1.426993,0.14941,0.65241,0.18331
1694638578898437,-9.82122,1.165076,1.499993,0.9541,0.52541,0.22931
1694638578906250,-9.80922,1.146076,1.564993,0.2541,0.50541,0.21231
1694638578914062,-9.80022,1.132076,1.593993,0.10741,0.52441,0.13331
1694638578921875,-9.76922,1.134076,1.537993,0.13141,0.48841,0.11731
1694638578929687,-9.75822,1.54076,1.534993,0.26641,0.40441,0.7031
1694638578937500,-9.74522,1.13076,1.564993,0.30741,0.45741,0.8731
1694638578945312,-9.74222,1.5076,1.541993,0.36341,0.47041,0.8731
1694638578953125,-9.71922,0.987076,1.516993,0.49641,0.50541,0.21831
1694638578960937,-9.72422,0.993076,1.505993,0.53841,0.50841,0.29831
1694638578968750,-9.72822,1.9076,1.476993,0.50841,0.40441,0.29731
1694638578976562,-9.71822,1.24076,1.492993,0.53141,0.37441,0.31331
1694638578984375,-9.68422,1.37076,1.496993,0.49841,0.29241,0.28031
1694638578992187,-9.62822,1.39076,1.471993,0.50441,0.25641,0.28031
1694638579000000,-9.60822,1.40076,1.444993,0.45041,0.6141,0.42231
1694638579007812,-9.59222,1.24076,1.404993,0.32941,0.6659,0.45231
1694638579015625,-9.55422,1.13076,1.377993,0.32641,0.5159,0.40431
1694638579023437,-9.54922,0.981076,1.366993,0.29541,0.14959,0.45131
1694638579031250,-9.56222,0.993076,1.393993,0.29941,0.21359,0.48331
1694638579039062,-9.59922,1.18076,1.422993,0.28141,0.6859,0.51631
1694638579046875,-9.59022,1.42076,1.474993,0.26741,0.16459,0.43531
1694638579054687,-9.60822,1.55076,1.555993,0.25441,0.13059,0.45131
1694638579062500,-9.62422,1.74076,1.593993,0.17541,0.1559,0.33931
1694638579070312,-9.62922,1.67076,1.564993,0.12841,0.10141,0.21131
1694638579078125,-9.61322,1.62076,1.528993,0.11841,0.26741,0.19631
1694638579085937,-9.61722,1.49076,1.501993,0.13541,0.22941,0.8331
1694638579093750,-9.60422,1.31076,1.521993,0.15241,0.23041,0.5131
1694638579101562,-9.61522,1.43076,1.546993,0.25641,0.32541,0.6931
1694638579109375,-9.61522,1.49076,1.510993,0.27841,0.49141,0.7131
1694638579117187,-9.60422,1.60076,1.494993,0.24641,0.49141,0.5431
1694638579125000,-9.61622,1.85076,1.586993,0.12441,0.55841,0.6931
1694638579132812,-9.59122,1.82076,1.568993,0.11559,0.65541,0.1931
1694638579140625,-9.60422,1.82076,1.489993,0.30459,0.77041,0.6169
1694638579148437,-9.62022,1.94076,1.598993,0.30559,0.57341,0.1569
1694638579156250,-9.57722,1.73076,1.535993,0.31959,0.73941,0.11069
1694638579164062,-9.55522,1.54076,1.251993,0.7659,0.87241,0.7469
1694638579171875,-9.55322,1.77076,1.246993,0.20641,0.74041,0.2469
1694638579179687,-9.59022,1.142076,1.474993,0.49041,0.77241,0.4331
1694638579187500,-9.71222,1.190076,1.652993,0.54941,0.78641,0.10831
1694638579195312,-9.80422,1.185076,1.703993,0.40641,0.81841,0.12331
1694638579203125,-9.78922,1.123076,1.611993,0.12841,0.72241,0.11931
1694638579210937,-9.71822,1.42076,1.469993,0.5141,0.75741,0.7031
1694638579218750,-9.65922,0.972076,1.375993,0.2741,0.62341,0.3731
1694638579226562,-9.64522,0.954076,1.384993,0.26141,0.60541,0.8731
1694638579234375,-9.67522,0.992076,1.429993,0.30741,0.55741,0.4069
1694638579242187,-9.70222,1.17076,1.442993,0.37041,0.50841,0.2369
1694638579250000,-9.72722,1.33076,1.406993,0.33841,0.47441,0.5531
1694638579257812,-9.73822,1.49076,1.354993,0.32141,0.31041,0.5431
1694638579265625,-9.73922,1.55076,1.312993,0.29541,0.26241,0.13331
1694638579273437,-9.74122,1.66076,1.314993,0.43741,0.14941,0.8631
1694638579281250,-9.73022,1.57076,1.343993,0.51041,0.6541,0.7031
1694638579289062,-9.72622,1.48076,1.393993,0.56841,0.3741,0.8731
1694638579296875,-9.73422,1.49076,1.411993,0.56841,0.9541,0.5531
1694638579304687,-9.71422,1.59076,1.422993,0.57841,0.1359,0.631
1694638579312500,-9.70022,1.48076,1.422993,0.53541,0.3041,0.969
1694638579320312,-9.69122,1.53076,1.417993,0.50641,0.8141,0.4169
1694638579328125,-9.68322,1.50076,1.420993,0.51241,0.3441,0.4169
1694638579335937,-9.66422,1.52076,1.424993,0.52341,0.1659,0.2669
1694638579343750,-9.66922,1.50076,1.399993,0.49241,0.1641,0.4269
1694638579351562,-9.67422,1.68076,1.406993,0.50941,0.141,0.9069
1694638579359375,-9.68922,1.77076,1.417993,0.50841,0.3259,0.1069
1694638579367187,-9.68522,1.72076,1.409993,0.53441,0.1159,0.5869
1694638579375000,-9.66522,1.61076,1.415993,0.55641,0.9759,0.5869
1694638579382812,-9.65522,1.45076,1.426993,0.56741,0.19759,0.2669
1694638579390625,-9.64822,1.18076,1.431993,0.62041,0.14659,0.5431
1694638579398437,-9.64422,1.7076,1.442993,0.75441,0.12659,0.869
1694638579406250,-9.63522,1.18076,1.438993,0.76241,0.8059,0.5569
1694638579414062,-9.63922,1.20076,1.411993,0.72841,0.9759,0.7269
1694638579421875,-9.62622,1.9076,1.402993,0.77541,0.16159,0.15269
1694638579429687,-9.61622,1.12076,1.397993,0.80041,0.18259,0.2469
1694638579437500,-9.60822,1.16076,1.426993,0.72741,0.16459,0.731
1694638579445312,-9.61322,1.31076,1.508993,0.71641,0.8059,0.869
1694638579453125,-9.60622,1.29076,1.521993,0.63341,0.1659,0.2469
1694638579460937,-9.57022,1.48076,1.413993,0.51741,0.6159,0.2131
1694638579468750,-9.52422,1.74076,1.395993,0.77041,0.1359,0.10531
1694638579476562,-9.53722,1.112076,1.426993,0.76041,0.3041,0.12131
1694638579484375,-9.59422,1.133076,1.404993,0.79941,0.18141,0.13831
1694638579492187,-9.62122,1.138076,1.427993,0.67541,0.10041,0.13631
1694638579500000,-9.63622,1.120076,1.462993,0.51141,0.14741,0.8731
1694638579507812,-9.64922,1.96076,1.478993,0.52841,0.11541,0.7131
1694638579515625,-9.65822,1.63076,1.474993,0.51341,0.23041,0.5531
1694638579523437,-9.67122,1.52076,1.465993,0.53341,0.13341,0.5531
1694638579531250,-9.68722,1.59076,1.460993,0.51841,0.21541,0.7131
1694638579539062,-9.70122,1.70076,1.451993,0.53641,0.10341,0.2331
1694638579546875,-9.69222,1.85076,1.442993,0.51741,0.8641,0.4169
1694638579554687,-9.67622,1.79076,1.454993,0.61141,0.10041,0.7231
1694638579562500,-9.66122,1.78076,1.460993,0.64441,0.10141,0.5631
1694638579570312,-9.64022,1.65076,1.442993,0.60441,0.1541,0.8731
1694638579578125,-9.63522,1.58076,1.440993,0.73441,0.11441,0.13731
1694638579585937,-9.64922,1.69076,1.451993,0.78341,0.1741,0.18531
1694638579593750,-9.65322,1.76076,1.507993,0.79341,0.259,0.23331
1694638579601562,-9.63622,1.73076,1.521993,0.78841,0.5141,0.16931
1694638579609375,-9.63122,1.62076,1.494993,0.77041,0.3159,0.20131
1694638579617187,-9.61522,1.47076,1.501993,0.77841,0.1541,0.16931
1694638579625000,-9.63322,1.49076,1.496993,0.71941,0.8141,0.18531
1694638579632812,-9.64222,1.47076,1.521993,0.62841,0.11541,0.23231
1694638579640625,-9.63122,1.42076,1.535993,0.56741,0.10041,0.21531
1694638579648437,-9.63122,1.54076,1.526993,0.52141,0.18241,0.23231
1694638579656250,-9.62422,1.53076,1.501993,0.53941,0.11741,0.24731
1694638579664062,-9.61522,1.47076,1.471993,0.50941,0.11141,0.21531
1694638579671875,-9.60422,1.49076,1.456993,0.53141,0.1641,0.23031
1694638579679687,-9.61322,1.47076,1.442993,0.51541,0.1759,0.32631
1694638579687500,-9.61522,1.58076,1.442993,0.53241,0.0,0.27831
1694638579695312,-9.61822,1.60076,1.436993,0.57141,0.341,0.23131
1694638579703125,-9.63122,1.56076,1.431993,0.54341,0.6341,0.24731
1694638579710937,-9.62622,1.58076,1.422993,0.54941,0.9941,0.23131
1694638579718750,-9.62922,1.62076,1.420993,0.63941,0.9841,0.13631
1694638579726562,-9.63222,1.82076,1.409993,0.71041,0.16641,0.18531
1694638579734375,-9.62722,1.87076,1.413993,0.77041,0.21441,0.13831
1694638579742187,-9.62322,1.111076,1.406993,0.76641,0.18041,0.15431
1694638579750000,-9.60022,1.113076,1.409993,0.81641,0.21341,0.20331
1694638579757812,-9.58922,1.113076,1.393993,0.81141,0.21141,0.15531
1694638579765625,-9.58022,1.97076,1.377993,0.78341,0.22941,0.20331
1694638579773437,-9.58622,1.95076,1.402993,0.82841,0.24441,0.23531
1694638579781250,-9.60722,1.99076,1.460993,0.77841,0.23441,0.18731
1694638579789062,-9.61422,1.98076,1.499993,0.75441,0.23041,0.21931
1694638579796875,-9.61222,1.111076,1.478993,0.64841,0.25041,0.8931
1694638579804687,-9.59622,1.102076,1.440993,0.59541,0.32741,0.20131
1694638579812500,-9.59322,1.95076,1.395993,0.68641,0.29341,0.17031
1694638579820312,-9.58022,1.93076,1.363993,0.61341,0.31241,0.18531
1694638579828125,-9.58222,1.80076,1.372993,0.71641,0.27641,0.21831
1694638579835937,-9.61622,1.71076,1.384993,0.80841,0.29841,0.20431
1694638579843750,-9.63822,1.63076,1.361993,0.68541,0.29441,0.12231
1694638579851562,-9.65422,1.83076,1.384993,0.64141,0.31241,0.5731
1694638579859375,-9.66922,1.86076,1.489993,0.57241,0.32641,0.7331
1694638579867187,-9.65522,1.86076,1.453993,0.31241,0.38841,0.2231
1694638579875000,-9.66922,1.81076,1.395993,0.13441,0.36141,0.1169
1694638579882812,-9.64422,1.58076,1.463993,0.20141,0.31341,0.431
1694638579890625,-9.58322,1.33076,1.269993,0.16841,0.39441,0.431
1694638579898437,-9.56122,1.46076,1.59993,0.49941,0.27841,0.13631
1694638579906250,-9.58022,1.128076,1.237993,0.89641,0.11441,0.30031
1694638579914062,-9.67822,1.217076,1.478993,0.104841,0.16041,0.38231
1694638579921875,-9.76922,1.254076,1.548993,0.76541,0.17741,0.33131
1694638579929687,-9.77322,1.189076,1.515993,0.57241,0.5341,0.24731
1694638579937500,-9.71922,1.84076,1.424993,0.34241,0.4859,0.21231
1694638579945312,-9.68022,0.999076,1.321993,0.25041,0.4659,0.11531
1694638579953125,-9.67022,0.983076,1.309993,0.41041,0.11159,0.14831
1694638579960937,-9.66822,1.34076,1.366993,0.52441,0.5059,0.11831
1694638579968750,-9.66822,1.96076,1.409993,0.57741,0.11359,0.13431
1694638579976562,-9.65022,1.145076,1.395993,0.59041,0.11459,0.11831
1694638579984375,-9.62622,1.153076,1.361993,0.66741,0.17959,0.7031
1694638579992187,-9.62122,1.154076,1.350993,0.77341,0.13259,0.5631
1694638580000000,-9.62822,1.140076,1.352993,0.79341,0.13059,0.7231
1694638580007812,-9.61422,1.133076,1.363993,0.77941,0.9659,0.4031
1694638580015625,-9.61822,1.127076,1.368993,0.76241,0.13059,0.5531
1694638580023437,-9.61622,1.122076,1.366993,0.87041,0.3359,0.7331
1694638580031250,-9.64522,1.129076,1.379993,0.91941,0.0,0.5831
1694638580039062,-9.65922,1.131076,1.395993,0.95841,0.5241,0.7531
1694638580046875,-9.66222,1.140076,1.406993,0.83041,0.1459,0.5731
1694638580054687,-9.65522,1.134076,1.370993,0.76441,0.4959,0.13631
1694638580062500,-9.64822,1.138076,1.352993,0.77941,0.3259,0.10531
1694638580070312,-9.65222,1.154076,1.343993,0.76241,0.14859,0.18431
1694638580078125,-9.66122,1.147076,1.348993,0.69541,0.19859,0.11831
1694638580085937,-9.67322,1.150076,1.370993,0.68241,0.18059,0.11831
1694638580093750,-9.66622,1.131076,1.368993,0.70841,0.14359,0.7131
1694638580101562,-9.67222,1.134076,1.386993,0.71641,0.9859,0.10331
1694638580109375,-9.67022,1.119076,1.395993,0.69841,0.13159,0.11931
1694638580117187,-9.65922,1.118076,1.382993,0.76641,0.12859,0.5631
1694638580125000,-9.65522,1.109076,1.393993,0.77041,0.12659,0.4031
1694638580132812,-9.65022,1.116076,1.413993,0.72941,0.11559,0.10331
1694638580140625,-9.65022,1.123076,1.420993,0.78241,0.11359,0.16831
1694638580148437,-9.65222,1.141076,1.413993,0.73441,0.6559,0.23231
1694638580156250,-9.65222,1.138076,1.422993,0.76641,0.9759,0.13631
1694638580164062,-9.62822,1.131076,1.420993,0.77141,0.11159,0.20031
1694638580171875,-9.60122,1.135076,1.427993,0.78641,0.14459,0.15231
1694638580179687,-9.58722,1.113076,1.440993,0.65941,0.9459,0.7131
1694638580187500,-9.55222,1.63076,1.352993,0.49641,0.13059,0.10131
1694638580195312,-9.53722,1.110076,1.343993,0.68741,0.23559,0.15031
1694638580203125,-9.53122,1.148076,1.415993,0.93041,0.8559,0.15431
1694638580210937,-9.56122,1.170076,1.451993,0.101341,0.1759,0.17131
1694638580218750,-9.64022,1.194076,1.460993,0.93941,0.1541,0.23531
1694638580226562,-9.68522,1.194076,1.483993,0.95041,0.159,0.13931
1694638580234375,-9.71122,1.175076,1.467993,0.82541,0.1659,0.7331
1694638580242187,-9.70422,1.137076,1.462993,0.79141,0.1759,0.4131
1694638580250000,-9.69222,1.130076,1.431993,0.76841,0.359,0.769
1694638580257812,-9.67722,1.141076,1.411993,0.74041,0.5059,0.3969
1694638580265625,-9.66622,1.150076,1.399993,0.76141,0.1559,0.2369
1694638580273437,-9.66222,1.181076,1.384993,0.76941,0.5159,0.3969
1694638580281250,-9.66822,1.195076,1.393993,0.74941,0.5359,0.2369
1694638580289062,-9.66422,1.199076,1.408993,0.76841,0.5259,0.769
1694638580296875,-9.65322,1.192076,1.435993,0.81441,0.15159,0.831
1694638580304687,-9.64422,1.192076,1.444993,0.87841,0.13559,0.7331
1694638580312500,-9.63722,1.187076,1.458993,0.100041,0.13759,0.9031
1694638580320312,-9.62822,1.180076,1.454993,0.98141,0.26259,0.7331
1694638580328125,-9.59922,1.184076,1.449993,0.94841,0.14859,0.10631
1694638580335937,-9.60122,1.171076,1.435993,0.88241,0.13459,0.12131
1694638580343750,-9.59822,1.156076,1.422993,0.75441,0.8559,0.10431
1694638580351562,-9.61422,1.153076,1.424993,0.79341,0.9959,0.13631
1694638580359375,-9.61722,1.167076,1.424993,0.70941,0.11759,0.10331
1694638580367187,-9.61622,1.169076,1.426993,0.73941,0.2059,0.12031
1694638580375000,-9.61722,1.174076,1.422993,0.69341,0.13359,0.11931
1694638580382812,-9.61422,1.169076,1.415993,0.72641,0.11759,0.15131
1694638580390625,-9.59022,1.151076,1.395993,0.78041,0.12959,0.7231
1694638580398437,-9.58922,1.142076,1.384993,0.76241,0.8159,0.7231
1694638580406250,-9.59822,1.124076,1.379993,0.76641,0.9559,0.4031
1694638580414062,-9.59622,1.110076,1.397993,0.80341,0.441,0.5731
1694638580421875,-9.61022,1.117076,1.393993,0.84741,0.1359,0.4131
1694638580429687,-9.61422,1.124076,1.390993,0.87141,0.0,0.669
1694638580437500,-9.62322,1.136076,1.381993,0.83641,0.5159,0.7331
1694638580445312,-9.61722,1.153076,1.366993,0.93241,0.5059,0.5831
1694638580453125,-9.61922,1.169076,1.372993,0.95141,0.4959,0.7431
1694638580460937,-9.61222,1.176076,1.366993,0.88041,0.1959,0.2631
1694638580468750,-9.59222,1.177076,1.359993,0.92041,0.141,0.3769
1694638580476562,-9.57422,1.179076,1.375993,0.91641,0.5059,0.2631
1694638580484375,-9.57622,1.159076,1.368993,0.95041,0.1659,0.4231
1694638580492187,-9.58522,1.151076,1.381993,0.93141,0.4741,0.4331
1694638580500000,-9.59422,1.140076,1.402993,0.82441,0.1641,0.931
1694638580507812,-9.61122,1.129076,1.429993,0.86541,0.259,0.931
1694638580515625,-9.61822,1.111076,1.422993,0.76141,0.1559,0.2369
1694638580523437,-9.61622,1.113076,1.411993,0.75041,0.11741,0.5469
1694638580531250,-9.61622,1.115076,1.388993,0.78041,0.1359,0.7169
1694638580539062,-9.62022,1.116076,1.361993,0.75441,0.259,0.2369
1694638580546875,-9.62722,1.143076,1.381993,0.76741,0.4541,0.5569
1694638580554687,-9.63522,1.153076,1.422993,0.77941,0.1841,0.3969
1694638580562500,-9.63022,1.158076,1.436993,0.80841,0.3341,0.2269
1694638580570312,-9.61422,1.140076,1.370993,0.68941,0.9541,0.3969
1694638580578125,-9.62322,1.122076,1.390993,0.72841,0.8241,0.11969
1694638580585937,-9.66122,1.132076,1.523993,0.61641,0.22941,0.15169
1694638580593750,-9.68822,1.99076,1.472993,0.41641,0.29741,0.21769
1694638580601562,-9.68122,1.97076,1.478993,0.14341,0.29541,0.22069
1694638580609375,-9.62022,1.82076,1.476993,0.6841,0.29741,0.26969
1694638580617187,-9.55822,1.41076,1.170993,0.3341,0.42641,0.25369
1694638580625000,-9.51922,1.76076,1.75993,0.54041,0.32741,0.10369
1694638580632812,-9.59022,1.184076,1.354993,0.113541,0.26041,0.1769
1694638580640625,-9.72622,1.289076,1.593993,0.113441,0.30741,0.4731
1694638580648437,-9.79922,1.314076,1.638993,0.93941,0.29541,0.6131
1694638580656250,-9.75822,1.249076,1.566993,0.62341,0.21441,0.3969
1694638580664062,-9.69122,1.141076,1.440993,0.46241,0.19841,0.13769
1694638580671875,-9.63122,1.80076,1.334993,0.49841,0.21641,0.15369
1694638580679687,-9.60422,1.60076,1.325993,0.52441,0.18141,0.18569
1694638580687500,-9.61822,1.109076,1.359993,0.59441,0.19341,0.15269
1694638580695312,-9.63922,1.161076,1.395993,0.76641,0.12841,0.15069
1694638580703125,-9.62622,1.176076,1.384993,0.75541,0.9741,0.10269
1694638580710937,-9.61722,1.184076,1.364993,0.77841,0.6741,0.7069
1694638580718750,-9.61522,1.162076,1.334993,0.76341,0.6841,0.15169
1694638580726562,-9.60722,1.133076,1.327993,0.76941,0.3141,0.16769
1694638580734375,-9.59422,1.126076,1.330993,0.76241,0.11641,0.11869
1694638580742187,-9.60722,1.122076,1.354993,0.80141,0.11241,0.5469
1694638580750000,-9.61622,1.131076,1.384993,0.86741,0.19541,0.5269
1694638580757812,-9.64422,1.136076,1.395993,0.86041,0.21541,0.6869
1694638580765625,-9.67522,1.159076,1.406993,0.85241,0.26041,0.3669
1694638580773437,-9.66622,1.166076,1.417993,0.75241,0.7841,0.5469
1694638580781250,-9.65722,1.177076,1.415993,0.76141,0.20641,0.6969
1694638580789062,-9.65722,1.187076,1.402993,0.77541,0.11441,0.2269
1694638580796875,-9.65822,1.192076,1.368993,0.68141,0.8141,0.769
1694638580804687,-9.66822,1.179076,1.370993,0.67541,0.1441,0.4069
1694638580812500,-9.66722,1.167076,1.386993,0.70941,0.1059,0.4069
