time,Acceleration X (m/s^2),Acceleration Y (m/s^2),Acceleration Z (m/s^2),Angular Velocity X (rad/s),Angular Velocity Y (rad/s),Angular Velocity Z (rad/s)
1702325335929687,-7.872185,-2.45498,4.822364,-0.859194,,
1702325335937500,-7.964185,-2.87498,5.24364,0.788994,0.98332,0.459679
1702325335945312,-7.949185,-4.14298,5.143364,0.723794,0.83532,0.364979
1702325335953125,-7.778185,-5.35798,5.467364,0.620294,0.32168,0.169979
1702325335960937,-7.531185,-5.51998,6.16364,0.381794,0.30368,0.379
1702325335968750,-7.246185,-6.7598,6.602364,0.166894,0.4268,0.148921
1702325335984375,-7.842185,-3.57998,9.231364,0.203694,0.369068,0.361921
1702325335992187,-8.724185,0.74098,11.338364,0.529494,0.426768,0.493521
1702325336000000,-8.667185,0.79102,11.837364,0.973994,0.173868,0.614621
1702325336007812,-8.627185,0.97302,9.916364,-1.2094,0.702032,0.681021
1702325336031250,-9.15185,-1.66498,1.712364,0.276006,2.167332,0.886721
1702325336039062,-8.626185,-1.25598,0.120636,0.458006,1.587132,0.772721
1702325336046875,-7.546185,-1.28098,0.647636,0.517206,0.840532,0.532221
1702325336054687,-7.101185,0.55198,0.118364,0.297906,0.288532,0.207621
1702325336062500,-7.576185,0.49602,1.155364,0.207994,0.170132,0.13279
1702325336070312,-7.955185,1.59602,2.434364,0.524294,0.181032,0.190479
1702325336078125,-8.501185,2.89102,4.491364,0.533394,0.138632,0.356579
1702325336085937,-9.491185,3.65602,6.98364,0.452694,0.201732,0.529079
1702325336093750,-10.290185,3.41602,7.152364,0.288294,0.468132,0.662179
1702325336101562,-10.976185,3.17202,7.311364,0.104194,0.918732,0.788479
1702325336109375,-11.814185,2.80802,6.32364,0.68294,1.434632,0.837979
1702325336117187,-12.484185,2.25402,4.228364,0.106694,1.823132,0.819479
1702325336125000,-12.700185,1.29002,2.340364,0.192294,1.917132,0.768779
1702325336132812,-12.604185,0.2102,0.659364,0.172194,1.708732,0.724179
1702325336140625,-12.301185,0.92298,0.205636,0.72994,1.214932,0.693979
1702325336148437,-11.821185,-1.50998,0.156636,0.67506,0.694832,0.666179
1702325336156250,-11.129185,-1.74798,0.604364,0.163406,0.304132,0.672179
1702325336164062,-10.326185,-1.51898,1.338364,0.117006,0.48032,0.689479
1702325336171875,-9.558185,-1.17998,1.665364,0.24206,0.133968,0.664279
1702325336179687,-8.829185,0.64798,2.19364,0.101194,0.275868,0.626379
1702325336187500,-8.509185,0.18698,2.255364,0.167794,0.216368,0.595079
1702325336195312,-8.543185,0.36502,2.578364,0.174594,0.115068,0.589679
1702325336203125,-8.631185,0.81302,2.900364,0.183894,0.13968,0.572379
1702325336210937,-8.788185,0.97302,3.98364,0.218194,0.63432,0.548379
1702325336218750,-8.865185,1.10402,3.94364,0.252794,0.80432,0.527279
1702325336226562,-8.806185,0.93102,3.166364,0.256794,0.78632,0.491679
1702325336234375,-8.851185,0.34102,3.22364,0.264594,0.111732,0.477379
1702325336242187,-9.15185,0.20098,2.922364,0.282094,0.213732,0.456579
1702325336250000,-9.230185,0.41298,2.359364,0.338194,0.327732,0.421479
1702325336257812,-9.312185,0.46798,1.726364,0.301994,0.332832,0.349279
1702325336265625,-9.242185,0.62398,1.343364,0.214594,0.272432,0.272279
1702325336273437,-9.212185,0.85798,1.104364,0.104594,0.162832,0.242179
1702325336281250,-9.339185,0.91098,1.323364,0.11906,0.63932,0.231279
1702325336289062,-9.541185,0.70898,1.735364,0.72706,0.26268,0.217179
1702325336296875,-9.508185,0.47598,2.129364,0.57206,0.92968,0.190379
1702325336304687,-9.337185,0.31898,2.328364,0.26806,0.110268,0.156079
1702325336312500,-9.187185,0.398,2.380364,0.25706,0.115568,0.117179
1702325336320312,-9.105185,0.23602,2.427364,0.15206,0.119968,0.55779
1702325336328125,-9.43185,0.29802,2.474364,0.2706,0.110668,0.7521
1702325336335937,-9.83185,0.26502,2.537364,0.14306,0.97968,0.73221
1702325336343750,-9.119185,0.20702,2.612364,0.36906,0.105368,0.127721
1702325336351562,-9.120185,0.15502,2.560364,0.48306,0.88368,0.168121
1702325336359375,-9.75185,0.18302,2.323364,0.43306,0.55168,0.201721
1702325336367187,-8.990185,0.30502,2.64364,0.24206,0.33468,0.227621
1702325336375000,-8.753185,0.39002,1.778364,0.22206,0.35068,0.248621
1702325336382812,-8.539185,0.43802,1.576364,0.34306,0.54168,0.244021
1702325336390625,-8.486185,0.43502,1.533364,0.26706,0.81268,0.236021
1702325336398437,-8.605185,0.44102,1.659364,0.21594,0.81168,0.223721
1702325336406250,-8.836185,0.39802,1.794364,0.106194,0.79968,0.213421
1702325336414062,-9.47185,0.41202,1.968364,0.184394,0.77368,0.217321
1702325336421875,-9.211185,0.41102,2.287364,0.217694,0.111968,0.219621
1702325336429687,-9.533185,0.44502,2.925364,0.226794,0.226768,0.243321
1702325336437500,-8.468185,0.15198,4.87364,0.304394,0.488268,0.276721
1702325336445312,-7.83185,0.84398,4.935364,0.193294,0.466868,0.196421
1702325336453125,-6.971185,0.85298,5.97364,0.207006,0.170668,0.123321
1702325336460937,-7.851185,-1.24698,4.971364,0.340106,0.16332,0.125221
1702325336468750,-9.579185,-1.82498,3.340364,0.181806,0.403232,0.174221
1702325336476562,-11.37185,-1.74498,1.604364,0.36606,0.648232,0.132221
1702325336484375,-12.69185,-1.23698,0.859364,0.117194,0.468932,0.179
1702325336492187,-12.587185,0.64198,0.733364,0.229394,0.11868,0.100579
1702325336500000,-12.91185,0.11802,1.830364,0.164394,0.547968,0.161879
1702325336507812,-10.309185,1.4502,3.592364,0.67194,0.928568,0.218179
1702325336515625,-8.668185,1.4102,5.155364,0.80206,0.940068,0.218179
1702325336523437,-8.322185,0.18402,6.280364,0.187806,0.632468,0.173179
1702325336531250,-8.842185,0.55298,6.481364,0.130506,0.236168,0.128979
1702325336539062,-9.332185,-1.8898,5.521364,0.20306,0.35132,0.106879
1702325336546875,-9.527185,-1.30998,4.201364,0.8994,0.128832,0.97679
1702325336554687,-9.456185,-1.53398,3.178364,0.42806,0.119432,0.91879
1702325336562500,-9.353185,-1.61598,2.606364,0.104806,0.6032,0.99779
1702325336570312,-9.277185,-1.60298,2.906364,0.140706,0.200568,0.92079
1702325336578125,-9.251185,-1.55898,3.757364,0.117906,0.351468,0.101979
1702325336585937,-9.346185,-1.50398,4.350364,0.131906,0.409968,0.108279
1702325336593750,-9.358185,-1.46798,4.415364,0.134406,0.416968,0.85479
1702325336601562,-9.222185,-1.48998,4.3364,0.138206,0.421968,0.46679
1702325336609375,-9.204185,-1.22198,3.741364,0.160206,0.497468,0.4379
1702325336617187,-9.342185,-1.698,3.575364,0.163306,0.547768,0.62121
1702325336625000,-9.296185,-1.8198,3.701364,0.197506,0.651268,0.138121
1702325336632812,-9.238185,-1.19998,3.967364,0.252206,0.705668,0.196121
1702325336640625,-8.890185,0.98898,4.111364,0.319706,0.724768,0.244221
1702325336648437,-8.444185,0.25598,4.309364,0.364006,0.727268,0.238721
1702325336656250,-8.197185,0.26302,3.780364,0.395606,0.531568,0.199821
1702325336664062,-7.649185,0.11502,2.602364,0.445506,0.259968,0.223221
1702325336671875,-7.168185,0.2502,1.476364,0.457106,0.45268,0.261821
1702325336679687,-6.888185,0.21698,0.568364,0.430306,0.128632,0.327021
1702325336687500,-7.145185,0.35598,0.190364,0.432906,0.222732,0.392421
1702325336695312,-7.830185,0.35398,1.55364,0.428206,0.218132,0.466721
1702325336703125,-8.479185,0.39398,2.267364,0.441406,0.217932,0.507021
1702325336710937,-8.780185,0.25598,3.226364,0.469506,0.217932,0.513121
1702325336718750,-9.329185,0.27802,3.283364,0.433906,0.398832,0.487821
1702325336726562,-10.189185,0.52102,2.211364,0.301006,0.572532,0.450921
1702325336734375,-10.889185,1.1302,1.484364,0.154406,0.543432,0.410821
1702325336742187,-11.424185,1.49402,1.257364,0.59806,0.321432,0.350721
1702325336750000,-11.231185,1.91602,1.723364,0.38306,0.31332,0.333421
1702325336757812,-10.732185,2.6702,2.336364,0.13506,0.145268,0.317521
1702325336765625,-10.306185,1.72102,2.948364,0.49994,0.250568,0.312621
1702325336773437,-10.48185,1.19902,3.315364,0.127694,0.244268,0.276421
1702325336781250,-9.964185,0.66902,3.175364,0.257594,0.162868,0.235121
1702325336789062,-10.16185,0.24002,2.803364,0.373794,0.86168,0.190721
1702325336796875,-10.205185,0.1398,2.492364,0.430994,0.86468,0.144621
1702325336804687,-10.318185,0.39398,2.282364,0.410494,0.137668,0.117321
1702325336812500,-10.153185,0.87098,2.142364,0.348594,0.214468,0.106221
1702325336820312,-10.16185,-1.3998,2.210364,0.260494,0.298968,0.106921
1702325336828125,-9.871185,0.97098,2.350364,0.203094,0.414968,0.149421
1702325336835937,-9.626185,0.96098,2.489364,0.169494,0.523868,0.243321
1702325336843750,-9.266185,-1.198,2.622364,0.143894,0.613568,0.345421
1702325336851562,-8.888185,-1.3698,2.852364,0.89894,0.676868,0.446921
1702325336859375,-8.621185,-1.14498,3.64364,0.21594,0.728768,0.544921
1702325336867187,-8.690185,-1.32598,3.235364,0.59806,0.743068,0.628021
1702325336875000,-8.720185,-1.44098,3.401364,0.122506,0.744768,0.698421
1702325336882812,-8.736185,-1.55298,3.473364,0.176506,0.776168,0.725521
1702325336890625,-8.944185,-1.58298,3.424364,0.207506,0.807868,0.723921
1702325336898437,-9.220185,-1.47698,3.379364,0.209106,0.849168,0.704821
1702325336906250,-9.472185,-1.21598,3.519364,0.197206,0.882568,0.679221
1702325336914062,-9.376185,-1.1798,3.548364,0.190806,0.912368,0.671521
1702325336921875,-9.136185,0.79298,3.654364,0.195506,0.958768,0.649221
1702325336929687,-8.971185,0.47598,3.787364,0.199606,0.961668,0.608821
1702325336937500,-8.806185,0.18398,4.86364,0.221106,0.946168,0.548821
1702325336945312,-8.741185,0.21798,4.546364,0.296106,0.890468,0.508721
1702325336953125,-8.403185,0.41098,4.899364,0.397206,0.823868,0.484521
1702325336960937,-8.182185,0.28998,5.50364,0.522106,0.707868,0.471021
1702325336968750,-8.493185,0.39698,5.48364,0.576906,0.523968,0.467321
1702325336976562,-8.763185,0.90598,4.942364,0.550206,0.402468,0.483121
1702325336984375,-8.606185,-1.5998,4.987364,0.600806,0.387768,0.496621
1702325336992187,-8.248185,0.79698,4.881364,0.699406,0.400268,0.486121
1702325337000000,-7.731185,0.67498,4.568364,0.789706,0.356468,0.474821
1702325337007812,-7.329185,0.65198,3.967364,0.795006,0.254468,0.461321
1702325337015625,-7.50185,0.65898,3.347364,0.739606,0.150168,0.435421
1702325337023437,-6.899185,0.52198,3.100364,0.687606,0.67468,0.411021
1702325337031250,-6.837185,0.34298,3.280364,0.702506,0.9268,0.384721
1702325337039062,-6.973185,0.1498,3.686364,0.760706,0.6232,0.317521
1702325337046875,-7.332185,0.27402,3.888364,0.779906,0.59432,0.231521
1702325337054687,-7.773185,0.56702,3.803364,0.710406,0.155732,0.136321
1702325337062500,-8.208185,0.68902,3.454364,0.571206,0.250532,0.71021
1702325337070312,-8.353185,1.17502,3.646364,0.414206,0.128932,0.33521
1702325337078125,-8.432185,1.94402,5.419364,0.361106,0.239368,0.13279
1702325337085937,-8.219185,1.77402,8.680364,0.427006,0.812268,0.43879
1702325337093750,-8.104185,1.84802,14.623364,0.817806,-1.489068,0.128979
1702325337101562,-7.751185,0.34298,16.602364,0.949206,0.961368,0.258579
1702325337109375,-8.312185,-4.43798,8.429364,0.576206,0.428232,0.405179
1702325337117187,-9.1185,-6.94698,1.658364,0.735406,0.880032,0.525079
1702325337125000,-9.166185,-7.14598,-2.244636,0.734706,0.274032,0.705979
1702325337132812,-9.378185,-6.8098,-2.370636,0.469706,0.667168,0.773679
1702325337140625,-9.506185,-5.26498,1.920364,0.285406,-1.279568,0.779879
1702325337148437,-8.761185,-1.21498,5.883364,0.390106,-1.171068,1.40179
1702325337156250,-7.336185,1.65202,5.529364,0.571306,0.692768,1.74979
1702325337164062,-6.457185,1.65802,4.657364,0.574106,0.298568,0.772779
1702325337171875,-7.61185,0.86502,5.564364,0.392406,0.93832,0.431179
1702325337179687,-9.31185,0.79598,5.730364,0.168306,0.627432,0.177579
1702325337187500,-10.669185,-1.57198,4.498364,0.59006,0.930132,0.10779
1702325337195312,-11.711185,-2.6398,3.433364,0.48406,0.903532,0.99521
1702325337203125,-12.302185,-2.67198,3.18364,0.94506,0.717832,0.177721
1702325337210937,-12.264185,-3.39698,3.153364,0.133506,0.476832,0.177421
1702325337218750,-11.725185,-3.78898,3.382364,0.172506,0.266632,0.112421
1702325337226562,-11.94185,-3.58598,3.479364,0.189006,0.95632,0.10221
1702325337234375,-10.204185,-3.15798,3.675364,0.207106,0.63368,0.79279
1702325337242187,-9.160185,-2.33898,4.9364,0.253606,0.120168,0.131179
1702325337250000,-8.275185,-1.15298,4.316364,0.250006,0.54768,0.96079
1702325337257812,-7.902185,0.14698,4.542364,0.186806,0.103132,0.10979
1702325337265625,-8.135185,0.30202,4.558364,0.117206,0.276932,0.69321
1702325337273437,-8.605185,0.15202,4.411364,0.51906,0.382632,0.138921
1702325337281250,-9.143185,0.6998,4.195364,0.6594,0.407432,0.170021
1702325337289062,-9.432185,0.28998,3.902364,0.69994,0.353832,0.192121
1702325337296875,-9.465185,0.63698,3.755364,0.110594,0.241032,0.224021
1702325337304687,-9.239185,0.98898,3.773364,0.108494,0.130632,0.252121
1702325337312500,-8.918185,-1.42198,3.926364,0.92494,0.60332,0.291221
1702325337320312,-8.504185,-1.76598,3.973364,0.47994,0.47232,0.332721
1702325337328125,-8.411185,-1.77998,3.847364,0.2406,0.81532,0.331921
1702325337335937,-8.476185,-1.82198,3.719364,0.54706,0.88232,0.311821
1702325337343750,-8.389185,-1.84498,3.496364,0.100006,0.96332,0.292321
1702325337351562,-8.374185,-1.66998,3.259364,0.168806,0.127632,0.244321
1702325337359375,-8.426185,-1.37198,3.246364,0.217006,0.113132,0.190521
1702325337367187,-8.534185,0.91798,3.408364,0.235106,0.115932,0.143521
1702325337375000,-8.786185,0.49798,3.587364,0.239706,0.149332,0.97821
1702325337382812,-9.18185,0.20498,3.665364,0.214806,0.189432,0.88321
1702325337390625,-9.200185,0.6098,3.555364,0.188606,0.208032,0.81921
1702325337398437,-9.209185,0.3198,3.510364,0.158206,0.192332,0.89021
1702325337406250,-9.130185,0.6198,3.573364,0.139606,0.167532,0.95621
1702325337414062,-9.74185,0.6698,3.702364,0.95006,0.119832,0.109421
1702325337421875,-8.968185,0.19698,3.900364,0.88406,0.105232,0.120921
1702325337429687,-8.811185,0.47298,4.3364,0.81706,0.100632,0.146821
1702325337437500,-8.629185,0.75698,4.26364,0.65606,0.92032,0.153621
1702325337445312,-8.581185,0.96798,3.998364,0.54706,0.99332,0.137721
1702325337453125,-8.575185,-1.17598,3.969364,0.39106,0.96032,0.133121
1702325337460937,-8.579185,-1.25898,3.865364,0.27706,0.72732,0.94321
1702325337468750,-8.689185,-1.7898,3.771364,0.12106,0.41232,0.46721
1702325337476562,-8.899185,0.73398,3.872364,0.3394,0.5432,0.29321
1702325337484375,-8.925185,0.49498,3.936364,0.13994,0.15068,0.19721
1702325337492187,-8.974185,0.41398,3.924364,0.34494,0.13668,0.23221
1702325337500000,-9.71185,0.52598,3.994364,0.37594,0.9868,0.29621
1702325337507812,-9.193185,0.78098,3.944364,0.45694,0.3168,0.45821
1702325337515625,-9.283185,-1.9498,3.769364,0.37694,0.2532,0.53521
1702325337523437,-9.214185,-1.31098,3.679364,0.5394,0.27468,0.64821
1702325337531250,-9.80185,-1.41998,3.647364,0.42406,0.63768,0.87221
1702325337539062,-8.921185,-1.48398,3.584364,0.76406,0.72268,0.101521
1702325337546875,-8.845185,-1.47398,3.449364,0.101406,0.68668,0.112421
1702325337554687,-8.818185,-1.44998,3.336364,0.132506,0.64368,0.118621
1702325337562500,-8.872185,-1.35698,3.284364,0.140806,0.71568,0.110221
1702325337570312,-8.986185,-1.24198,3.300364,0.150106,0.92068,0.97621
1702325337578125,-9.116185,-1.9498,3.415364,0.150206,0.123268,0.78421
1702325337585937,-9.177185,0.96398,3.514364,0.138006,0.160668,0.56221
1702325337593750,-9.134185,0.83598,3.449364,0.118006,0.193568,0.25921
1702325337601562,-8.965185,0.70698,3.357364,0.81706,0.217268,0.17021
1702325337609375,-8.729185,0.57098,3.377364,0.45806,0.241268,0.9421
1702325337617187,-8.536185,0.57698,3.548364,0.35306,0.236868,0.6021
1702325337625000,-8.567185,0.88598,4.253364,0.63206,0.224568,0.13921
1702325337632812,-8.309185,-1.96498,5.360364,0.56106,0.249268,0.41721
1702325337640625,-6.999185,-2.78998,5.67364,0.67194,0.262568,0.6121
1702325337648437,-5.617185,-3.37098,4.328364,0.78494,0.315268,0.214679
1702325337656250,-5.111185,-2.34898,5.157364,0.83506,0.472868,0.463779
1702325337664062,-7.461185,0.77502,7.724364,0.272606,0.380768,0.571379
1702325337671875,-11.162185,2.6702,8.730364,0.115006,0.184832,0.394879
1702325337679687,-13.170185,1.45502,6.959364,0.227194,0.611832,0.12979
1702325337687500,-12.919185,0.24698,4.650364,0.330094,0.695932,0.384521
1702325337695312,-10.723185,-2.71098,3.457364,0.225794,0.467232,0.572321
1702325337703125,-8.847185,-4.25898,2.997364,0.3794,0.119332,0.559521
1702325337710937,-7.813185,-4.65798,3.897364,0.251606,0.138968,0.444321
1702325337718750,-7.996185,-3.61898,5.596364,0.155006,0.349468,0.291721
1702325337726562,-8.473185,-2.10698,6.171364,0.10894,0.424168,0.163621
1702325337734375,-8.526185,-1.27798,6.198364,0.68494,0.438668,0.69021
1702325337742187,-8.740185,0.40498,6.424364,0.111594,0.447968,0.40421
1702325337750000,-8.662185,0.17402,6.463364,0.166694,0.422668,0.69721
1702325337757812,-8.279185,0.11702,6.330364,0.201794,0.401968,0.119821
1702325337765625,-7.855185,0.22598,6.233364,0.210694,0.391468,0.157221
1702325337773437,-7.614185,0.75398,6.224364,0.216694,0.349068,0.179321
1702325337781250,-7.459185,-1.29298,6.309364,0.193494,0.306668,0.206221
1702325337789062,-7.443185,-1.69398,6.365364,0.161394,0.288068,0.233421
1702325337796875,-7.530185,-1.86298,6.205364,0.119694,0.288568,0.255721
1702325337804687,-7.617185,-1.79398,6.41364,0.108794,0.302168,0.273121
1702325337812500,-7.688185,-1.61698,6.315364,0.71994,0.329968,0.300421
1702325337820312,-7.948185,-1.49998,6.521364,0.43694,0.320968,0.314421
1702325337828125,-8.293185,-1.28598,6.863364,0.33594,0.366568,0.318121
1702325337835937,-8.727185,0.94698,6.584364,0.108794,0.369468,0.320521
1702325337843750,-9.126185,0.85598,5.723364,0.298794,0.418768,0.313521
1702325337851562,-8.976185,0.55998,5.316364,0.409094,0.565768,0.299621
1702325337859375,-8.625185,0.902,5.404364,0.447094,0.714568,0.273621
1702325337867187,-8.144185,0.48302,5.497364,0.448494,0.768168,0.227421
1702325337875000,-7.595185,0.42602,4.819364,0.528494,0.635268,0.204721
1702325337882812,-7.93185,0.20898,3.674364,0.637494,0.370068,0.198821
1702325337890625,-6.908185,0.85698,2.503364,0.778094,0.173968,0.153921
1702325337898437,-7.388185,-1.17798,1.750364,0.840294,0.143068,0.65621
1702325337906250,-8.120185,-1.50598,1.755364,0.766494,0.237568,0.58679
1702325337914062,-8.570185,-2.8198,2.182364,0.618694,0.355668,0.187179
1702325337921875,-8.676185,-2.78298,2.621364,0.435094,0.432068,0.306479
1702325337929687,-8.632185,-3.60598,2.918364,0.305494,0.448868,0.365879
1702325337937500,-8.657185,-4.4698,3.211364,0.201194,0.458768,0.404279
1702325337945312,-8.719185,-3.93898,3.596364,0.88394,0.489368,0.426079
1702325337953125,-8.878185,-3.55698,3.679364,0.12094,0.463168,0.391579
1702325337960937,-8.987185,-3.19198,3.538364,0.69806,0.399968,0.302779
1702325337968750,-9.166185,-2.80798,3.578364,0.183806,0.341568,0.199379
1702325337976562,-9.271185,-2.52498,3.509364,0.290206,0.274968,0.76979
1702325337984375,-9.158185,-2.29198,3.498364,0.363806,0.234868,0.28321
1702325337992187,-8.914185,-2.8298,3.514364,0.412306,0.210668,0.106821
1702325338000000,-8.732185,-1.80198,3.552364,0.442506,0.186168,0.166121
1702325338007812,-8.549185,-1.55598,3.644364,0.454406,0.166668,0.199821
1702325338015625,-8.487185,-1.34898,3.728364,0.452606,0.156268,0.223821
1702325338023437,-8.524185,-1.18598,3.751364,0.438506,0.132968,0.235121
1702325338031250,-8.707185,-1.6198,3.737364,0.399406,0.118468,0.233821
1702325338039062,-8.958185,-1.1098,3.789364,0.368306,0.120068,0.221321
1702325338046875,-9.168185,0.94998,3.881364,0.349906,0.122068,0.194121
1702325338054687,-9.313185,0.85698,3.890364,0.314306,0.149968,0.160821
1702325338062500,-9.354185,0.68098,3.909364,0.294806,0.198368,0.119221
1702325338070312,-9.278185,0.52298,3.951364,0.261006,0.223368,0.69821
1702325338078125,-9.62185,0.38198,4.201364,0.261406,0.277268,0.36221
1702325338085937,-8.877185,0.29398,4.593364,0.249006,0.305468,0.17321
1702325338093750,-8.557185,0.32498,4.855364,0.218006,0.328068,0.0
1702325338101562,-8.556185,0.51998,4.976364,0.180406,0.308968,0.7679
1702325338109375,-8.667185,0.74198,5.37364,0.156706,0.295768,0.7021
1702325338117187,-8.687185,-1.5398,5.138364,0.119906,0.293368,0.25421
1702325338125000,-8.702185,-1.39998,5.181364,0.93406,0.298468,0.41621
1702325338132812,-8.630185,-1.58498,5.111364,0.71006,0.316668,0.53321
1702325338140625,-8.353185,-1.64098,4.845364,0.41306,0.316068,0.58421
1702325338148437,-7.969185,-1.71098,4.638364,0.35106,0.347568,0.42621
1702325338156250,-7.699185,-1.76898,4.746364,0.37506,0.378868,0.10479
1702325338164062,-7.498185,-1.65198,4.829364,0.25006,0.355868,0.76779
1702325338171875,-7.302185,-1.43098,4.901364,0.13994,0.308268,0.146179
1702325338179687,-7.179185,-1.32398,4.924364,0.43494,0.245768,0.231579
1702325338187500,-7.188185,-1.29898,4.809364,0.82694,0.166568,0.297679
1702325338195312,-7.151185,-1.35998,4.624364,0.131794,0.94468,0.326679
1702325338203125,-7.268185,-1.38298,4.401364,0.177494,0.1032,0.347979
1702325338210937,-7.425185,-1.58398,4.86364,0.228194,0.103132,0.357979
1702325338218750,-7.574185,-1.97198,3.835364,0.218894,0.166532,0.340679
1702325338226562,-7.677185,-2.17298,4.304364,0.139494,0.118132,0.313979
1702325338234375,-7.675185,-2.39598,4.693364,0.132294,0.109732,0.292979
1702325338242187,-7.638185,-2.70698,4.486364,0.179094,0.182132,0.303879
1702325338250000,-7.650185,-2.73798,4.292364,0.210694,0.186932,0.339579
1702325338257812,-7.579185,-2.63498,4.290364,0.243994,0.119332,0.420879
1702325338265625,-7.503185,-2.36198,4.572364,0.265994,0.18032,0.520179
1702325338273437,-7.321185,-2.9798,5.59364,0.298894,0.45868,0.613079
1702325338281250,-7.90185,-1.72598,5.491364,0.351294,0.10768,0.664179
1702325338289062,-6.980185,-1.42698,5.777364,0.449294,0.99732,0.654279
1702325338296875,-7.65185,-1.21898,5.852364,0.524194,0.256132,0.609579
1702325338304687,-7.271185,-1.20498,5.865364,0.551494,0.422932,0.532879
1702325338312500,-7.705185,-2.11898,5.809364,0.509494,0.522132,0.396979
1702325338320312,-7.965185,-3.75498,6.328364,0.414094,0.479132,0.189179
1702325338328125,-8.142185,-4.78298,7.233364,0.363894,0.385632,0.23821
1702325338335937,-7.994185,-4.33398,8.632364,0.259994,0.199032,0.167821
1702325338343750,-7.421185,-2.43098,10.369364,0.256194,0.105732,0.254121
1702325338351562,-7.67185,0.50498,10.796364,0.502094,0.385232,0.343521
1702325338359375,-7.192185,0.52402,9.728364,0.856994,0.896332,0.523221
1702325338367187,-7.237185,0.6602,7.379364,-1.91894,1.524532,0.742121
1702325338375000,-7.333185,-1.29798,4.737364,0.930794,2.107432,0.870121
1702325338382812,-7.422185,-2.68098,2.745364,0.527394,2.451232,0.958221
1702325338390625,-7.259185,-3.40898,1.58364,0.5206,2.469432,0.898821
1702325338398437,-8.22185,-2.94098,0.612364,0.576806,2.163832,0.681421
1702325338406250,-8.845185,-2.21398,1.47364,0.634806,1.663832,0.423121
1702325338414062,-9.193185,-1.65198,1.462364,0.169706,1.75432,0.124321
1702325338421875,-9.712185,0.78098,1.931364,0.360694,0.699332,0.109179
1702325338429687,-9.813185,0.34502,2.382364,0.780994,0.592332,0.295679
1702325338437500,-9.934185,1.33402,3.117364,0.862194,0.562332,0.475279
1702325338445312,-10.262185,2.6402,4.104364,0.646494,0.527932,0.597179
1702325338453125,-10.972185,2.88802,5.406364,0.120694,0.608332,0.618079
1702325338460937,-11.784185,3.40202,6.573364,0.356106,0.944932,0.525779
1702325338468750,-12.369185,2.81802,5.737364,0.300706,1.493032,0.390479
1702325338476562,-12.715185,1.37502,3.964364,0.97306,1.895832,0.287579
1702325338484375,-12.513185,0.29598,1.868364,0.84094,2.9132,0.273479
1702325338492187,-11.921185,0.96698,0.140636,0.120794,1.692932,0.344979
1702325338500000,-10.891185,-1.11398,-1.91636,0.6694,1.65332,0.378779
1702325338507812,-9.747185,-1.57998,0.390636,0.166906,0.505232,0.384779
1702325338515625,-8.994185,-1.85198,1.225364,0.224306,0.262032,0.444879
1702325338523437,-8.576185,-1.85598,2.739364,0.194006,0.190532,0.507179
1702325338531250,-8.383185,-1.73498,3.782364,0.120106,0.176832,0.556579
1702325338539062,-8.543185,-1.36998,4.5364,0.5694,0.250832,0.613479
1702325338546875,-8.857185,0.87298,3.465364,0.125894,0.369332,0.664779
1702325338554687,-9.324185,0.41298,2.852364,0.231294,0.464532,0.715579
1702325338562500,-9.817185,0.7398,2.233364,0.291894,0.512132,0.729779
1702325338570312,-9.974185,0.3102,1.958364,0.305494,0.445132,0.696779
1702325338578125,-9.934185,0.4802,2.49364,0.272494,0.364232,0.638679
1702325338585937,-9.772185,0.10998,2.109364,0.206994,0.295032,0.577479
1702325338593750,-9.582185,0.35498,2.276364,0.148094,0.268532,0.526679
1702325338601562,-9.640185,0.78398,2.316364,0.120994,0.288632,0.492779
1702325338609375,-9.874185,-1.17198,2.88364,0.109194,0.340332,0.449479
1702325338617187,-10.88185,-1.45098,1.791364,0.106394,0.327332,0.411179
1702325338625000,-10.167185,-1.46098,1.667364,0.95194,0.268032,0.375179
1702325338632812,-10.131185,-1.29798,1.557364,0.64894,0.178532,0.342779
1702325338640625,-10.73185,-1.10398,1.483364,0.13194,0.71832,0.305279
1702325338648437,-9.932185,0.96398,1.591364,0.57406,0.34568,0.264979
1702325338656250,-9.769185,0.87698,1.931364,0.123006,0.141468,0.222779
1702325338664062,-9.456185,0.62298,2.553364,0.148506,0.240468,0.183879
1702325338671875,-9.39185,0.24698,3.46364,0.120806,0.276568,0.147679
1702325338679687,-8.670185,0.2002,3.141364,0.75106,0.210568,0.110579
1702325338687500,-8.437185,0.22702,2.828364,0.35306,0.99268,0.49579
1702325338695312,-8.519185,0.25202,2.431364,0.16006,0.17032,0.12821
1702325338703125,-9.42185,0.9298,2.195364,0.24206,0.85932,0.45721
1702325338710937,-9.538185,0.25398,2.107364,0.54406,0.39532,0.74921
1702325338718750,-9.642185,0.20098,2.366364,0.110506,0.111568,0.109421
1702325338726562,-9.442185,0.5298,2.395364,0.51506,0.168368,0.142821
1702325338734375,-9.268185,0.298,1.884364,0.68194,0.124368,0.179421
1702325338742187,-9.195185,0.2198,1.587364,0.83994,0.68868,0.200221
1702325338750000,-9.275185,0.3002,1.531364,0.16994,0.106568,0.233321
1702325338757812,-9.332185,0.10202,1.796364,0.70406,0.228568,0.273821
1702325338765625,-9.351185,0.1902,2.145364,0.100306,0.266568,0.325521
1702325338773437,-9.214185,0.14598,2.364364,0.84506,0.231268,0.354321
1702325338781250,-9.47185,0.20798,2.242364,0.47306,0.144968,0.355821
1702325338789062,-8.953185,0.19198,1.950364,0.9294,0.38768,0.345721
1702325338796875,-9.240185,0.9498,1.900364,0.69494,0.24068,0.302721
1702325338804687,-9.504185,0.12702,2.614364,0.173694,0.217768,0.269921
1702325338812500,-8.167185,0.36398,4.408364,0.246494,0.668468,0.200121
1702325338820312,-6.621185,0.54098,6.744364,0.63494,0.820068,0.40621
1702325338828125,-6.642185,0.60398,8.75364,0.357506,0.253768,0.64979
1702325338835937,-9.441185,-1.60698,6.969364,0.275206,0.585932,0.65179
1702325338843750,-13.238185,-2.57698,4.158364,0.52294,1.312832,0.52579
1702325338851562,-15.61185,-2.60498,1.153364,0.146794,1.286832,0.107879
1702325338859375,-14.953185,-1.55698,0.940636,0.92794,0.499932,0.251179
1702325338867187,-12.583185,0.4398,0.961636,0.43494,0.530768,0.392679
1702325338875000,-9.496185,0.97802,1.353364,0.45006,-1.273268,0.446179
1702325338882812,-7.578185,0.90102,4.98364,0.82206,-1.455768,0.393879
1702325338890625,-6.821185,0.19002,6.436364,0.33006,-1.213768,0.297979
1702325338898437,-6.892185,0.43998,7.640364,0.27594,0.700768,0.233279
1702325338906250,-7.531185,-1.40598,6.876364,0.34794,0.191568,0.178779
1702325338914062,-8.398185,-2.4798,4.973364,0.13294,0.160432,0.123379
1702325338921875,-9.315185,-2.18698,3.178364,0.16606,0.329532,0.71779
1702325338929687,-9.891185,-2.46798,1.935364,0.43806,0.199332,0.48779
1702325338937500,-9.730185,-2.22398,1.948364,0.174306,0.174768,0.48979
1702325338945312,-9.307185,-1.68898,2.858364,0.288806,0.473168,0.72279
1702325338953125,-8.944185,-1.46298,4.185364,0.306606,0.633968,0.79279
1702325338960937,-8.988185,-1.57098,5.115364,0.263606,0.606668,0.95379
1702325338968750,-9.265185,-1.52698,5.122364,0.248906,0.510868,0.96179
1702325338976562,-9.680185,-1.28998,4.654364,0.259906,0.468868,0.96479
1702325338984375,-9.952185,-1.26198,4.300364,0.283906,0.520068,0.67179
1702325338992187,-10.55185,-1.16898,4.138364,0.326206,0.620168,0.28079
1702325339000000,-10.16185,0.91298,3.994364,0.389506,0.695768,0.11979
1702325339007812,-9.769185,0.57298,3.870364,0.402706,0.746168,0.22021
1702325339015625,-9.438185,0.3098,3.488364,0.449706,0.693768,0.38921
1702325339023437,-8.877185,0.18602,2.720364,0.545306,0.567468,0.86821
1702325339031250,-7.879185,0.5302,1.767364,0.597506,0.462668,0.171121
1702325339039062,-6.894185,0.33098,1.100364,0.664206,0.398868,0.250321
1702325339046875,-6.184185,0.72098,0.717364,0.745806,0.282168,0.334421
1702325339054687,-5.511185,-1.4798,1.14364,0.793906,0.174968,0.404021
1702325339062500,-5.293185,0.77898,1.751364,0.739606,0.12968,0.426121
1702325339070312,-5.948185,0.24898,2.737364,0.637506,0.206632,0.433721
1702325339078125,-7.486185,0.34702,3.150364,0.541506,0.632032,0.428521
1702325339085937,-9.188185,0.62102,2.348364,0.387606,0.983032,0.408221
1702325339093750,-10.493185,0.88702,1.337364,0.244306,0.999432,0.369421
1702325339101562,-11.168185,1.34702,0.678364,0.214206,0.804432,0.321121
1702325339109375,-11.447185,1.83902,0.559364,0.168106,0.530832,0.263921
1702325339117187,-11.237185,1.89602,0.752364,0.38406,0.255232,0.219121
1702325339125000,-10.550185,1.83102,1.302364,0.86094,0.70032,0.189621
1702325339132812,-10.3185,1.62702,1.889364,0.175094,0.33968,0.150821
1702325339140625,-9.736185,1.18202,2.412364,0.280794,0.45168,0.106821
1702325339148437,-9.662185,0.65402,2.612364,0.364994,0.24332,0.91421
1702325339156250,-9.818185,0.25902,2.483364,0.422094,0.98332,0.78521
1702325339164062,-10.37185,0.10898,2.94364,0.471794,0.135232,0.81821
1702325339171875,-10.262185,0.38898,1.652364,0.500794,0.88632,0.87521
1702325339179687,-10.457185,0.58798,1.186364,0.474394,0.10768,0.79821
1702325339187500,-10.681185,0.77598,0.925364,0.396894,0.201468,0.75221
1702325339195312,-10.636185,-1.8198,1.111364,0.271294,0.421968,0.128921
1702325339203125,-10.297185,-1.35998,1.726364,0.141594,0.646168,0.229221
1702325339210937,-9.823185,-1.59198,2.415364,0.4194,0.792568,0.348421
1702325339218750,-9.124185,-1.71398,3.5364,0.93606,0.844168,0.465421
1702325339226562,-8.511185,-1.70798,3.298364,0.139506,0.803868,0.545221
1702325339234375,-8.355185,-1.59498,3.277364,0.143706,0.678368,0.600821
1702325339242187,-8.567185,-1.41198,3.235364,0.124806,0.532068,0.658121
1702325339250000,-8.759185,-1.21198,3.140364,0.66506,0.482768,0.685821
1702325339257812,-9.89185,0.98998,3.127364,0.41206,0.538368,0.678421
1702325339265625,-9.196185,0.71298,3.273364,0.55506,0.607568,0.644921
1702325339273437,-9.138185,0.35798,3.467364,0.67306,0.684068,0.564821
1702325339281250,-9.287185,0.7602,3.695364,0.42506,0.732168,0.478021
1702325339289062,-9.527185,0.45702,3.918364,0.29706,0.736168,0.405621
1702325339296875,-9.707185,0.60502,4.83364,0.54606,0.740268,0.355121
1702325339304687,-9.740185,0.59302,4.164364,0.101906,0.702468,0.328721
1702325339312500,-9.541185,0.60302,4.159364,0.129406,0.660568,0.318221
1702325339320312,-9.212185,0.59602,4.116364,0.135906,0.641168,0.308321
1702325339328125,-8.741185,0.37602,4.33364,0.151206,0.643968,0.306821
1702325339335937,-8.129185,0.4798,4.158364,0.189006,0.593468,0.312521
1702325339343750,-7.628185,0.30798,4.131364,0.230606,0.457968,0.309521
1702325339351562,-7.442185,0.62798,3.919364,0.235706,0.290768,0.272621
1702325339359375,-7.492185,0.89198,3.730364,0.231606,0.161068,0.216721
1702325339367187,-7.709185,0.98498,3.652364,0.240406,0.36868,0.160521
1702325339375000,-8.129185,0.97298,3.420364,0.207106,0.48732,0.112021
1702325339382812,-8.306185,0.80598,3.388364,0.185406,0.49232,0.83521
1702325339390625,-8.505185,0.65498,3.415364,0.183506,0.29432,0.44521
1702325339398437,-8.668185,0.39998,3.451364,0.214606,0.44668,0.27021
1702325339406250,-8.703185,0.13398,3.665364,0.276606,0.157868,0.3179
1702325339414062,-8.764185,0.40502,4.107364,0.312406,0.309268,0.25279
1702325339421875,-8.911185,0.59502,5.326364,0.335806,0.558768,0.33279
1702325339429687,-8.737185,0.5498,7.210364,0.377406,0.834968,0.421
1702325339437500,-8.664185,0.38698,9.489364,0.555906,0.786268,0.19121
1702325339445312,-9.346185,0.62498,9.719364,0.665906,0.273168,0.64879
1702325339453125,-10.21185,-1.48898,8.529364,0.364906,0.93868,0.151679
1702325339460937,-10.11185,-2.66598,7.853364,0.11906,0.143868,0.247179
1702325339468750,-9.977185,-3.10198,6.468364,0.14006,0.79968,0.396279
1702325339476562,-10.46185,-2.86498,5.310364,0.192106,0.158868,0.538379
1702325339484375,-9.812185,-2.15198,4.464364,0.219606,0.397168,0.664379
1702325339492187,-9.216185,-1.30898,3.550364,0.178406,0.610968,0.769179
1702325339500000,-8.352185,0.50198,2.816364,0.39306,0.718168,0.837579
1702325339507812,-7.507185,0.23902,2.206364,0.125794,0.718368,0.821079
1702325339515625,-6.634185,0.66402,1.738364,0.203294,0.607968,0.743579
1702325339523437,-5.888185,0.94302,1.632364,0.228094,0.494568,0.644079
1702325339531250,-5.349185,0.82602,2.307364,0.285294,0.407668,0.509879
1702325339539062,-5.119185,0.26098,3.262364,0.383894,0.219468,0.365079
1702325339546875,-5.391185,-1.39198,3.617364,0.417094,0.113732,0.310879
1702325339554687,-6.369185,-2.40798,3.470364,0.348594,0.457432,0.330279
1702325339562500,-7.653185,-3.22898,3.371364,0.220394,0.664932,0.399479
1702325339570312,-9.152185,-3.87998,3.425364,0.91494,0.734632,0.473979
1702325339578125,-10.668185,-4.49898,3.632364,0.21206,0.749232,0.533579
1702325339585937,-12.114185,-4.78498,3.672364,0.113206,0.710832,0.605279
1702325339593750,-13.61185,-4.53898,3.425364,0.170806,0.569232,0.645079
1702325339601562,-13.18185,-4.1098,2.849364,0.151306,0.350832,0.590179
1702325339609375,-11.897185,-3.36698,2.626364,0.184906,0.106932,0.478979
1702325339617187,-10.511185,-2.35098,3.232364,0.209406,0.38068,0.337779
1702325339625000,-9.525185,-1.52598,3.705364,0.231006,0.42368,0.165279
1702325339632812,-9.199185,-1.9798,4.237364,0.290006,0.44232,0.30621
1702325339640625,-9.350185,0.89298,4.663364,0.286706,0.134732,0.214121
1702325339648437,-9.515185,0.85298,4.519364,0.261006,0.198332,0.360621
1702325339656250,-9.520185,0.80698,4.64364,0.239106,0.202432,0.417521
1702325339664062,-9.306185,0.84098,4.12364,0.198306,0.150932,0.416621
1702325339671875,-9.70185,0.69398,4.228364,0.146806,0.101232,0.378921
1702325339679687,-8.645185,0.62298,4.359364,0.104206,0.108732,0.337121
1702325339687500,-8.273185,0.63998,4.239364,0.54806,0.169532,0.298821
1702325339695312,-8.108185,0.71798,4.3364,0.20506,0.255132,0.248421
1702325339703125,-8.109185,0.81598,3.764364,0.10706,0.345132,0.222021
1702325339710937,-8.200185,0.88298,3.555364,0.14006,0.366632,0.221821
1702325339718750,-8.467185,0.75698,3.566364,0.37506,0.341732,0.212121
1702325339726562,-8.806185,0.65198,3.525364,0.58106,0.323932,0.200621
1702325339734375,-9.106185,0.56998,3.453364,0.42706,0.302032,0.168821
1702325339742187,-9.364185,0.43698,3.453364,0.54106,0.267432,0.135021
1702325339750000,-9.598185,0.30498,3.546364,0.71806,0.217432,0.112421
1702325339757812,-9.764185,0.31098,3.598364,0.89006,0.174732,0.98021
1702325339765625,-9.812185,0.44298,3.749364,0.85806,0.123632,0.80721
1702325339773437,-9.697185,0.57798,3.827364,0.77806,0.78332,0.85821
1702325339781250,-9.537185,0.63198,3.728364,0.80506,0.63332,0.94021
1702325339789062,-9.351185,0.71898,3.645364,0.86206,0.48132,0.108721
1702325339796875,-9.116185,0.82398,3.694364,0.87706,0.48432,0.120021
1702325339804687,-8.903185,0.90298,3.712364,0.82506,0.51532,0.136221
1702325339812500,-8.824185,0.93298,3.645364,0.62206,0.63032,0.139621
1702325339820312,-8.824185,0.88598,3.482364,0.48306,0.66032,0.125221
1702325339828125,-8.865185,0.73998,3.282364,0.18406,0.43132,0.120921
1702325339835937,-8.839185,0.67098,3.302364,0.11906,0.21332,0.116421
1702325339843750,-8.765185,0.63898,3.392364,0.3706,0.5168,0.123221
1702325339851562,-8.669185,0.56898,3.496364,0.5694,0.3468,0.121721
1702325339859375,-8.747185,0.55298,3.562364,0.11694,0.2532,0.127921
1702325339867187,-8.986185,0.57298,3.550364,0.15094,0.26032,0.132921
1702325339875000,-9.200185,0.60098,3.471364,0.14794,0.44932,0.139021
1702325339882812,-9.312185,0.72798,3.381364,0.7494,0.41432,0.160021
1702325339890625,-9.413185,0.88398,3.163364,0.3406,0.36532,0.161521
1702325339898437,-9.485185,0.90098,2.825364,0.206,0.5868,0.155421
1702325339906250,-9.438185,0.91998,2.618364,0.9606,0.72768,0.137921
1702325339914062,-9.290185,0.87598,2.670364,0.33506,0.139268,0.110521
1702325339921875,-9.100185,0.78998,2.874364,0.50606,0.200868,0.81921
1702325339929687,-8.956185,0.81798,3.57364,0.62006,0.217068,0.60821
1702325339937500,-9.33185,0.96098,3.408364,0.84306,0.212268,0.42821
1702325339945312,-8.755185,-2.34398,4.428364,0.88406,0.295168,0.56221
1702325339953125,-7.821185,-2.98798,4.385364,0.70606,0.310368,0.1579
1702325339960937,-6.938185,-3.14898,3.470364,0.129306,0.330868,0.195779
1702325339968750,-6.540185,-2.51298,4.369364,0.241006,0.418068,0.347779
1702325339976562,-7.627185,0.1902,6.134364,0.265406,0.331468,0.437579
1702325339984375,-10.681185,1.51802,6.790364,0.206906,0.103832,0.330579
1702325339992187,-13.54185,0.90502,6.195364,0.21206,0.474432,0.10079
1702325340000000,-12.567185,-1.5298,4.321364,0.100294,0.585732,0.374721
1702325340007812,-10.487185,-3.2998,3.193364,0.1106,0.427232,0.576621
1702325340015625,-8.828185,-4.3298,3.114364,0.214206,0.226832,0.583821
1702325340023437,-7.751185,-4.1998,3.424364,0.350706,0.29732,0.482321
1702325340031250,-7.102185,-3.10398,3.929364,0.330906,0.143268,0.339921
1702325340039062,-7.358185,-1.68898,4.667364,0.311906,0.188868,0.196621
1702325340046875,-8.162185,0.85598,5.100364,0.263606,0.104168,0.128821
1702325340054687,-8.728185,0.34198,4.776364,0.163906,0.33268,0.124521
1702325340062500,-8.924185,0.14198,4.289364,0.124406,0.11868,0.147421
1702325340070312,-8.895185,0.498,4.188364,0.103106,0.55368,0.186521
1702325340078125,-8.590185,0.6798,4.251364,0.73706,0.94668,0.229221
1702325340085937,-8.167185,0.31398,4.418364,0.34606,0.96468,0.248721
1702325340093750,-7.988185,0.53898,4.591364,0.10794,0.68868,0.250721
1702325340101562,-8.256185,0.75598,4.564364,0.66994,0.26768,0.241521
1702325340109375,-8.737185,0.78598,4.519364,0.121394,0.52968,0.210021
1702325340117187,-9.108185,0.61398,4.535364,0.185094,0.119868,0.164321
1702325340125000,-9.275185,0.44998,4.357364,0.228694,0.184368,0.123421
1702325340132812,-9.407185,0.28998,4.253364,0.272094,0.246968,0.72821
1702325340140625,-9.368185,0.4802,4.98364,0.314994,0.267568,0.29621
1702325340148437,-9.91185,0.36102,3.434364,0.362794,0.234268,0.13379
1702325340156250,-8.640185,0.37302,2.943364,0.426994,0.172668,0.53779
1702325340164062,-8.391185,0.36702,2.592364,0.515994,0.62768,0.106879
1702325340171875,-8.478185,0.21502,2.330364,0.551694,0.88832,0.162379
1702325340179687,-8.679185,0.28698,2.73364,0.523994,0.194932,0.184379
1702325340187500,-8.815185,-1.7898,1.764364,0.429494,0.257232,0.181079
1702325340195312,-9.42185,-2.298,1.649364,0.319994,0.229832,0.172579
1702325340203125,-9.301185,-2.93298,1.919364,0.182894,0.149632,0.179679
1702325340210937,-9.571185,-3.51498,2.38364,0.38394,0.42232,0.211479
1702325340218750,-9.812185,-3.33098,2.103364,0.58506,0.143768,0.270779
1702325340226562,-9.782185,-2.52898,2.788364,0.140906,0.323368,0.308879
1702325340234375,-9.848185,-1.58698,3.388364,0.195906,0.329768,0.314379
1702325340242187,-9.936185,0.80098,3.505364,0.176306,0.244868,0.256579
1702325340250000,-9.704185,0.55598,3.354364,0.146806,0.118368,0.150579
1702325340257812,-9.417185,0.65398,2.963364,0.139506,0.10968,0.54579
1702325340265625,-9.288185,0.87598,2.757364,0.154106,0.28832,0.14321
1702325340273437,-9.242185,-1.5998,2.706364,0.153506,0.41432,0.40221
1702325340281250,-9.203185,-1.12698,2.721364,0.159606,0.28132,0.40321
1702325340289062,-9.271185,-1.12398,2.685364,0.148806,0.15232,0.32321
1702325340296875,-9.396185,-1.15998,2.595364,0.131506,0.30068,0.29521
1702325340304687,-9.555185,-1.22898,2.580364,0.124906,0.111368,0.25221
1702325340312500,-9.785185,-1.18298,2.778364,0.133906,0.207768,0.19321
1702325340320312,-10.18185,-1.6798,3.70364,0.129806,0.293968,0.21821
1702325340328125,-10.43185,0.95998,3.393364,0.90706,0.377468,0.16021
1702325340335937,-9.959185,0.79398,3.530364,0.44406,0.431168,0.18921
1702325340343750,-9.737185,0.62298,3.503364,0.16894,0.468168,0.23021
1702325340351562,-9.463185,0.44698,3.523364,0.43794,0.509668,0.10821
1702325340359375,-9.261185,0.32598,3.837364,0.47294,0.554168,0.9621
1702325340367187,-9.41185,0.43098,4.57364,0.74094,0.552368,0.18021
1702325340375000,-8.823185,0.58998,4.134364,0.74094,0.531568,0.43421
1702325340382812,-8.914185,0.79198,4.179364,0.74494,0.502568,0.65921
1702325340390625,-9.89185,-1.10398,4.21364,0.67294,0.466968,0.98021
1702325340398437,-9.121185,-1.35498,3.786364,0.56494,0.460068,0.113921
1702325340406250,-9.19185,-1.55598,3.588364,0.39394,0.475168,0.112321
1702325340414062,-8.970185,-1.84198,3.685364,0.7506,0.492968,0.115021
1702325340421875,-8.728185,-1.95098,3.813364,0.38906,0.468168,0.127321
1702325340429687,-8.393185,-1.92598,3.604364,0.35506,0.412068,0.137021
1702325340437500,-8.106185,-2.2898,3.502364,0.47506,0.343668,0.129621
1702325340445312,-8.11185,-2.4998,3.457364,0.57506,0.258568,0.127221
1702325340453125,-7.874185,-2.1698,3.264364,0.65906,0.203468,0.107521
1702325340460937,-7.751185,-1.85098,3.230364,0.78606,0.171868,0.47221
1702325340468750,-7.653185,-1.67298,3.205364,0.47906,0.133868,0.36879
1702325340476562,-7.584185,-1.49898,3.187364,0.1906,0.91368,0.144879
1702325340484375,-7.796185,-1.12898,3.253364,0.55494,0.32168,0.250979
1702325340492187,-7.995185,0.76898,3.307364,0.137994,0.7232,0.340779
1702325340500000,-8.34185,0.61098,3.233364,0.245494,0.75832,0.428879
1702325340507812,-8.247185,0.46798,3.143364,0.315794,0.154332,0.491679
1702325340515625,-8.381185,0.53698,3.89364,0.375794,0.201832,0.531679
1702325340523437,-8.445185,0.61998,3.267364,0.411794,0.204632,0.540779
1702325340531250,-8.629185,0.63998,3.508364,0.386294,0.206932,0.546179
1702325340539062,-8.616185,0.86398,3.690364,0.299294,0.230732,0.514779
1702325340546875,-8.496185,-1.26698,3.872364,0.213194,0.220232,0.491779
1702325340554687,-8.274185,-1.79398,4.223364,0.153494,0.143032,0.451479
1702325340562500,-8.10185,-2.57798,4.648364,0.85994,0.54332,0.417579
1702325340570312,-7.972185,-4.31198,5.630364,0.99094,0.151768,0.306079
1702325340578125,-8.170185,-4.61198,6.404364,0.59294,0.212868,0.186779
1702325340585937,-8.365185,-4.34998,7.80364,0.107906,0.160068,0.61579
1702325340593750,-7.962185,-4.55198,8.30364,0.74406,0.256868,0.75321
1702325340601562,-7.678185,-4.30798,8.965364,0.147594,0.286568,0.200621
1702325340609375,-7.823185,-2.61198,9.383364,0.404494,0.77968,0.332821
1702325340617187,-8.33185,0.19298,9.397364,0.748694,0.220432,0.463821
1702325340625000,-7.728185,1.56002,8.866364,-1.163194,0.576732,0.609621
1702325340632812,-6.933185,2.31602,7.340364,-1.503894,1.97832,0.746721
1702325340640625,-6.499185,1.91802,5.376364,-1.604994,1.714032,0.833721
1702325340648437,-6.660185,1.10602,3.538364,-1.586794,2.347232,0.830521
1702325340656250,-7.354185,0.1198,0.900364,-1.328694,2.780832,0.744021
1702325340664062,-7.765185,-1.8298,-1.264636,0.593294,2.742232,0.580821
1702325340671875,-8.181185,-1.61798,-2.150636,0.240106,2.361232,0.317621
1702325340679687,-9.414185,-1.46098,-1.257636,0.784206,1.780132,0.47621
1702325340687500,-10.652185,-1.1998,0.172364,0.750106,1.101032,0.124479
1702325340695312,-10.940185,0.32798,1.769364,0.293006,0.494532,0.260379
1702325340703125,-10.844185,0.35502,2.961364,0.211694,0.205732,0.371679
1702325340710937,-10.570185,1.15502,3.646364,0.490494,0.195832,0.441579
1702325340718750,-10.300185,1.79702,4.110364,0.608894,0.394832,0.499579
1702325340726562,-10.468185,2.20102,4.430364,0.546794,0.707132,0.528279
1702325340734375,-11.432185,2.14002,4.496364,0.324094,1.45032,0.486679
1702325340742187,-12.661185,1.85802,4.139364,0.124094,1.296132,0.395279
1702325340750000,-13.135185,0.93202,2.815364,0.27794,1.499232,0.286379
1702325340757812,-12.676185,0.24298,1.10364,0.24206,1.379132,0.247579
1702325340765625,-11.964185,-1.22798,0.192636,0.152506,0.922832,0.242279
1702325340773437,-11.250185,-1.50298,0.50364,0.365506,0.495932,0.280579
1702325340781250,-10.663185,-1.35398,0.911364,0.341906,0.210432,0.299079
1702325340789062,-10.163185,-1.31798,1.699364,0.161106,0.64132,0.309079
1702325340796875,-9.762185,-1.19198,2.210364,0.50594,0.2468,0.346179
1702325340804687,-9.673185,0.86798,2.433364,0.200694,0.832,0.412779
1702325340812500,-9.910185,0.34898,2.652364,0.257994,0.27532,0.460479
1702325340820312,-10.166185,0.6502,2.722364,0.233894,0.63432,0.475479
1702325340828125,-10.215185,0.19402,2.474364,0.191294,0.77232,0.469879
1702325340835937,-10.66185,0.9102,2.110364,0.183294,0.58432,0.473279
1702325340843750,-9.947185,0.26098,1.675364,0.173894,0.44732,0.486079
1702325340851562,-9.729185,0.53698,1.334364,0.172594,0.20932,0.492079
1702325340859375,-9.579185,0.69498,1.242364,0.177394,0.30968,0.496679
1702325340867187,-9.599185,0.82298,1.305364,0.151494,0.54668,0.482079
1702325340875000,-9.693185,0.86798,1.388364,0.161094,0.24468,0.449979
1702325340882812,-9.794185,0.85798,1.388364,0.213594,0.1068,0.399579
1702325340890625,-9.733185,0.89598,1.309364,0.227194,0.28968,0.363679
1702325340898437,-9.733185,0.89598,1.215364,0.209694,0.89968,0.329379
1702325340906250,-9.653185,0.85298,1.244364,0.168294,0.172668,0.295579
1702325340914062,-9.470185,0.85398,1.426364,0.94694,0.266868,0.259979
1702325340921875,-9.297185,0.86698,1.699364,0.50294,0.354968,0.235679
1702325340929687,-9.100185,0.80098,2.35364,0.35494,0.408968,0.207979
1702325340937500,-8.898185,0.68498,2.210364,0.35994,0.410468,0.183779
1702325340945312,-8.795185,0.46398,2.255364,0.59894,0.366368,0.156279
1702325340953125,-8.810185,0.24698,2.181364,0.103894,0.299668,0.138379
1702325340960937,-8.880185,0.3502,1.986364,0.138294,0.222768,0.92079
1702325340968750,-9.74185,0.1698,1.715364,0.118694,0.141168,0.36279
1702325340976562,-9.379185,0.20498,1.643364,0.49394,0.126368,0.27421
1702325340984375,-9.500185,0.20498,1.841364,0.17306,0.212768,0.89021
1702325340992187,-9.422185,0.18898,2.91364,0.62006,0.266468,0.141721
1702325341000000,-9.269185,0.21598,1.864364,0.17306,0.224168,0.184021
1702325341007812,-9.114185,0.16898,1.310364,0.67694,0.136268,0.216821
1702325341015625,-8.950185,0.7298,0.945364,0.76894,0.126868,0.231121
1702325341023437,-8.859185,0.502,0.850364,0.25994,0.208568,0.250421
1702325341031250,-8.695185,0.3402,1.109364,0.43606,0.285268,0.272721
1702325341039062,-8.734185,0.6398,1.537364,0.76906,0.317668,0.298721
1702325341046875,-8.162185,0.43698,2.393364,0.14806,0.429368,0.327521
1702325341054687,-6.848185,0.67998,3.413364,0.17494,0.472968,0.268621
1702325341062500,-6.123185,0.57598,4.393364,0.65006,0.304068,0.137121
1702325341070312,-6.441185,0.64598,4.969364,0.220906,0.50132,0.50521
1702325341078125,-8.422185,0.80198,4.541364,0.198706,0.463732,0.60421
1702325341085937,-11.447185,0.97398,2.803364,0.35694,0.880732,0.93821
1702325341093750,-13.621185,0.97798,0.985364,0.122094,0.934132,0.105921
1702325341101562,-14.417185,0.39198,0.387364,0.140394,0.493832,0.22021
1702325341109375,-14.216185,0.35002,0.355364,0.204394,0.35968,0.92679
1702325341117187,-12.256185,0.92102,1.295364,0.168494,0.607668,0.122779
1702325341125000,-9.273185,0.60702,2.983364,0.80794,-1.2968,0.101379
1702325341132812,-7.366185,0.3098,4.463364,0.39806,0.931768,0.59879
1702325341140625,-6.568185,0.75498,5.663364,0.96606,0.567168,0.46879
1702325341148437,-7.68185,-1.39698,5.757364,0.63806,0.97068,0.53279
1702325341156250,-8.412185,-2.1798,4.277364,0.43394,0.256032,0.46779
1702325341164062,-10.105185,-2.27798,2.556364,0.90094,0.456532,0.15179
1702325341171875,-11.297185,-2.10998,0.955364,0.94794,0.365932,0.24379
1702325341179687,-11.274185,-1.77498,0.322364,0.2206,0.86268,0.39479
1702325341187500,-10.544185,-1.49798,1.174364,0.119806,0.560268,0.24679
1702325341195312,-10.62185,-1.13498,2.762364,0.187806,0.820368,0.18321
1702325341203125,-9.990185,0.86398,4.210364,0.183106,0.869868,0.70521
1702325341210937,-10.10185,0.59098,5.64364,0.131206,0.737468,0.117121
1702325341218750,-9.865185,0.35798,4.972364,0.139106,0.549968,0.112221
1702325341226562,-9.351185,0.2298,4.177364,0.247406,0.412168,0.80821
1702325341234375,-8.649185,0.40302,2.896364,0.347206,0.295368,0.51621
1702325341242187,-7.829185,0.41602,1.519364,0.355806,0.143568,0.53721
1702325341250000,-7.127185,0.10502,0.436364,0.326906,0.44332,0.92821
1702325341257812,-6.993185,0.14798,0.453636,0.322106,0.165932,0.114821
1702325341265625,-7.659185,0.24698,0.750636,0.335306,0.175132,0.177421
1702325341273437,-8.612185,0.27998,0.24364,0.307006,0.116132,0.234721
1702325341281250,-9.129185,0.29198,1.231364,0.315206,0.85532,0.288121
1702325341289062,-9.201185,0.25898,2.166364,0.350506,0.74632,0.329621
1702325341296875,-9.355185,0.7298,2.382364,0.317806,0.133732,0.336021
1702325341304687,-9.664185,0.3602,1.652364,0.191806,0.257832,0.322121
1702325341312500,-9.978185,0.29102,1.49364,0.60906,0.237132,0.289721
1702325341320312,-10.309185,0.87502,1.76364,0.9994,0.94432,0.252921
1702325341328125,-10.625185,1.26202,1.428364,0.57794,0.64968,0.232121
1702325341335937,-10.701185,1.21902,1.718364,0.134094,0.159468,0.254621
1702325341343750,-10.564185,0.95702,1.995364,0.209994,0.218268,0.270421
1702325341351562,-10.394185,0.57302,2.321364,0.237194,0.288868,0.268021
1702325341359375,-10.236185,0.26002,2.594364,0.240494,0.368668,0.260521
1702325341367187,-10.162185,0.5498,2.729364,0.243394,0.424368,0.233521
1702325341375000,-10.168185,0.53898,2.792364,0.213494,0.439568,0.213921
1702325341382812,-10.228185,-1.12298,2.685364,0.174294,0.453268,0.202421
1702325341390625,-10.261185,-1.51298,2.429364,0.110294,0.501668,0.211521
1702325341398437,-10.113185,-1.74798,2.354364,0.16094,0.605168,0.245221
1702325341406250,-9.839185,-1.99298,2.410364,0.86706,0.720568,0.298421
1702325341414062,-9.250185,-2.5598,2.680364,0.169806,0.852068,0.353021
1702325341421875,-8.628185,-2.798,2.980364,0.199606,0.895568,0.424021
1702325341429687,-8.139185,-1.90498,3.52364,0.190606,0.861468,0.480421
1702325341437500,-7.753185,-1.75998,3.88364,0.183706,0.799068,0.534921
1702325341445312,-7.569185,-1.58098,3.72364,0.174506,0.728268,0.550621
1702325341453125,-7.712185,-1.36798,3.3364,0.192206,0.655168,0.541921
1702325341460937,-8.173185,-1.2198,3.77364,0.202606,0.597668,0.515521
1702325341468750,-8.916185,0.67898,3.194364,0.209706,0.544868,0.474921
1702325341476562,-9.587185,0.43198,3.404364,0.208806,0.551268,0.444221
1702325341484375,-10.193185,0.23198,3.589364,0.194006,0.565068,0.416821
1702325341492187,-10.443185,0.102,3.724364,0.199606,0.634168,0.393421
1702325341500000,-10.378185,0.14402,3.810364,0.212606,0.693768,0.369321
1702325341507812,-9.949185,0.43202,3.639364,0.212106,0.768868,0.374621
1702325341515625,-9.295185,0.57502,3.519364,0.226106,0.772968,0.363421
1702325341523437,-9.18185,0.29402,3.391364,0.252306,0.683068,0.338221
1702325341531250,-8.896185,0.3898,3.454364,0.267306,0.664868,0.307121
1702325341539062,-8.770185,0.24498,3.803364,0.342806,0.702268,0.288721
1702325341546875,-8.382185,0.51298,4.152364,0.441606,0.711368,0.300421
1702325341554687,-7.898185,0.78798,4.235364,0.503906,0.673268,0.312621
1702325341562500,-7.379185,-1.3998,4.48364,0.534106,0.604768,0.308521
1702325341570312,-6.993185,-1.5098,3.859364,0.549506,0.504468,0.286521
1702325341578125,-6.801185,0.93598,3.669364,0.549506,0.368968,0.248521
1702325341585937,-6.847185,0.75998,3.501364,0.540806,0.223168,0.190921
1702325341593750,-7.260185,0.47498,3.532364,0.518906,0.102068,0.149921
1702325341601562,-8.44185,0.36698,3.909364,0.511706,0.35268,0.136621
1702325341609375,-8.806185,0.38598,4.240364,0.567106,0.2868,0.145221
1702325341617187,-9.34185,0.28498,4.393364,0.637906,0.79268,0.164521
1702325341625000,-9.327185,0.18202,5.28364,0.695306,0.242168,0.132921
1702325341632812,-9.683185,0.6098,5.911364,0.684406,0.386968,0.96721
1702325341640625,-9.544185,0.76298,7.370364,0.771106,0.562368,0.93821
1702325341648437,-9.461185,0.78498,9.762364,0.961406,0.635768,0.97321
1702325341656250,-9.875185,-1.18898,11.343364,1.27306,0.484268,0.12821
1702325341664062,-10.636185,-2.72698,10.38364,0.822406,0.19768,0.96379
1702325341671875,-11.429185,-4.61098,5.470364,0.545706,0.526032,0.179679
1702325341679687,-11.796185,-5.11898,1.738364,0.603106,0.315332,0.306179
1702325341687500,-11.792185,-3.20498,2.173364,0.739406,0.478468,0.421179
1702325341695312,-10.232185,0.58298,3.839364,0.580406,-1.81168,0.505379
1702325341703125,-8.79185,1.47702,4.704364,0.360206,-1.221668,0.585879
1702325341710937,-6.699185,2.53302,4.901364,0.227906,0.954968,0.555479
1702325341718750,-5.792185,2.88102,4.480364,0.133706,0.659868,0.453179
1702325341726562,-5.145185,2.74602,3.743364,0.13806,0.385968,0.329479
1702325341734375,-4.804185,1.88902,3.63364,0.168194,0.215568,0.248279
1702325341742187,-5.59185,0.22702,2.634364,0.346394,0.139668,0.243679
1702325341750000,-5.42185,-1.2198,2.131364,0.422694,0.140668,0.259079
1702325341757812,-4.864185,-1.91298,2.358364,0.447294,0.177668,0.305079
1702325341765625,-5.134185,-2.78498,3.238364,0.421894,0.113868,0.373779
1702325341773437,-5.991185,-3.59598,3.763364,0.346894,0.146932,0.445679
1702325341781250,-7.138185,-4.30298,3.580364,0.272194,0.417232,0.551979
1702325341789062,-8.797185,-4.73498,3.184364,0.91794,0.637932,0.638079
1702325341796875,-10.445185,-5.14598,3.278364,0.102306,0.686232,0.690579
1702325341804687,-12.187185,-5.18098,3.722364,0.227206,0.674632,0.743679
1702325341812500,-13.600185,-4.29798,3.429364,0.299806,0.683332,0.779779
1702325341820312,-13.668185,-2.70798,2.592364,0.314306,0.556532,0.750279
1702325341828125,-12.467185,-1.9898,2.53364,0.266906,0.284232,0.608579
1702325341835937,-11.274185,0.54398,2.983364,0.284706,0.104432,0.367179
1702325341843750,-10.818185,0.20202,4.78364,0.281706,0.180132,0.123779
1702325341851562,-10.425185,0.38202,4.517364,0.210006,0.297432,0.124821
1702325341859375,-10.323185,0.6802,4.154364,0.111806,0.470232,0.307021
1702325341867187,-10.84185,0.30898,3.348364,0.75506,0.496332,0.424921
1702325341875000,-9.703185,0.60998,3.163364,0.95806,0.351232,0.442121
1702325341882812,-9.411185,0.76198,3.446364,0.69806,0.158232,0.400521
1702325341890625,-9.237185,0.81398,3.771364,0.44106,0.17432,0.336821
1702325341898437,-9.75185,0.94898,3.908364,0.20094,0.57668,0.288321
1702325341906250,-8.645185,-1.34398,3.834364,0.60194,0.68668,0.262921
1702325341914062,-8.199185,-1.62298,3.687364,0.46394,0.51168,0.270821
1702325341921875,-7.958185,-1.86698,3.545364,0.2194,0.10532,0.295521
1702325341929687,-7.955185,-1.90498,3.476364,0.32506,0.65632,0.323521
1702325341937500,-8.208185,-1.97898,3.376364,0.76206,0.130032,0.332521
1702325341945312,-8.693185,-1.99698,3.282364,0.107806,0.152032,0.312721
1702325341953125,-9.105185,-1.78698,3.167364,0.118206,0.132732,0.270721
1702325341960937,-9.377185,-1.38598,3.45364,0.139606,0.99432,0.201321
1702325341968750,-9.544185,0.84498,2.994364,0.168406,0.54432,0.149821
1702325341976562,-9.509185,0.40698,3.170364,0.219606,0.26032,0.112021
1702325341984375,-9.448185,0.8598,3.524364,0.202306,0.4268,0.91621
1702325341992187,-9.319185,0.10002,3.663364,0.173206,0.5032,0.80321
1702325342000000,-9.381185,0.20102,3.476364,0.134106,0.48732,0.80621
1702325342007812,-9.261185,0.16902,3.301364,0.108506,0.25632,0.92421
1702325342015625,-9.20185,0.8902,3.515364,0.115906,0.8468,0.108621
1702325342023437,-9.66185,0.3702,3.600364,0.89206,0.168,0.115321
1702325342031250,-9.66185,0.102,3.587364,0.62306,0.6668,0.125421
1702325342039062,-8.915185,0.14998,3.638364,0.32206,0.30868,0.135521
1702325342046875,-8.573185,0.19698,3.711364,0.10294,0.56968,0.139421
1702325342054687,-8.418185,0.19898,3.715364,0.46394,0.55268,0.138221
1702325342062500,-8.408185,0.25998,3.708364,0.75494,0.35068,0.122121
1702325342070312,-8.609185,0.32498,3.792364,0.87694,0.33468,0.106121
1702325342078125,-8.834185,0.41598,3.821364,0.123694,0.28268,0.84221
1702325342085937,-8.998185,0.46298,3.731364,0.152794,0.35968,0.57021
1702325342093750,-9.141185,0.47198,3.704364,0.158894,0.51368,0.31421
1702325342101562,-9.265185,0.46298,3.717364,0.137794,0.51468,0.2679
1702325342109375,-9.366185,0.50398,3.618364,0.135294,0.26568,0.32079
1702325342117187,-9.392185,0.57698,3.355364,0.128594,0.4832,0.35679
1702325342125000,-9.307185,0.64898,3.71364,0.111594,0.36732,0.26179
1702325342132812,-9.142185,0.73398,2.843364,0.72494,0.53732,0.7579
1702325342140625,-8.947185,0.84798,2.735364,0.22694,0.79332,0.6421
1702325342148437,-8.806185,0.95898,2.577364,0.26206,0.117432,0.11821
1702325342156250,-8.878185,-1.36498,2.854364,0.94306,0.108132,0.35621
1702325342164062,-8.573185,-2.59298,3.923364,0.121006,0.33668,0.70121
1702325342171875,-7.410185,-3.56698,3.893364,0.109106,0.136468,0.17621
1702325342179687,-6.326185,-3.58198,3.362364,0.216506,0.205968,0.196279
1702325342187500,-6.95185,-2.53498,3.497364,0.338306,0.223368,0.408979
1702325342195312,-6.396185,0.81298,4.642364,0.416806,0.276568,0.515979
1702325342203125,-8.557185,1.8802,6.785364,0.442106,0.121968,0.538579
1702325342210937,-12.208185,1.58502,7.166364,0.371906,0.356232,0.366279
1702325342218750,-13.968185,0.42602,5.434364,0.154406,0.587332,0.27921
1702325342226562,-12.711185,-1.34998,3.302364,0.47306,0.447732,0.390221
1702325342234375,-10.294185,-2.81598,3.31364,0.212806,0.106032,0.545821
1702325342242187,-8.258185,-3.63798,3.887364,0.333906,0.139168,0.507721
1702325342250000,-7.173185,-3.34898,4.605364,0.308506,0.254568,0.356821
1702325342257812,-7.466185,-2.3398,5.77364,0.233806,0.229968,0.192621
1702325342265625,-8.629185,0.81198,5.23364,0.192406,0.117768,0.95521
1702325342273437,-9.831185,0.1302,4.794364,0.113806,0.109468,0.38221
1702325342281250,-10.793185,0.65402,4.866364,0.24006,0.220968,0.19121
1702325342289062,-11.109185,0.85602,4.957364,0.42994,0.353468,0.33721
1702325342296875,-10.443185,0.50402,4.736364,0.114794,0.453868,0.78721
1702325342304687,-9.262185,0.3502,4.294364,0.203594,0.502768,0.112321
1702325342312500,-8.63185,0.47298,3.879364,0.301494,0.478068,0.153721
1702325342320312,-7.111185,0.98798,3.564364,0.366494,0.342868,0.167821
1702325342328125,-6.913185,-1.25398,3.424364,0.439494,0.107868,0.123421
1702325342335937,-7.700185,-1.40798,2.935364,0.519394,0.125332,0.30821
1702325342343750,-8.564185,-1.50198,2.365364,0.546994,0.178232,0.46979
1702325342351562,-9.40185,-1.95998,2.158364,0.460594,0.102032,0.92479
1702325342359375,-9.457185,-2.44798,2.284364,0.313094,0.22568,0.135279
1702325342367187,-9.702185,-2.71198,2.324364,0.173894,0.176068,0.187179
1702325342375000,-9.608185,-2.60498,2.606364,0.39094,0.354468,0.232679
1702325342382812,-9.440185,-2.11998,3.138364,0.73206,0.459468,0.242879
1702325342390625,-9.322185,-1.76398,3.277364,0.137806,0.472468,0.185379
1702325342398437,-9.202185,-1.52198,3.350364,0.203806,0.434668,0.102479
1702325342406250,-9.145185,-1.45698,3.618364,0.276306,0.353668,0.11979
1702325342414062,-9.113185,-1.46598,3.757364,0.306106,0.270668,0.79321
1702325342421875,-9.100185,-1.53198,3.728364,0.345206,0.194468,0.167321
1702325342429687,-9.67185,-1.61898,3.795364,0.383206,0.159568,0.240821
1702325342437500,-9.54185,-1.64598,3.989364,0.425106,0.156268,0.291621
1702325342445312,-9.92185,-1.63898,3.978364,0.455706,0.170968,0.320521
1702325342453125,-9.116185,-1.55398,3.861364,0.455306,0.204168,0.319221
1702325342460937,-9.52185,-1.34898,3.784364,0.438006,0.256668,0.305321
1702325342468750,-9.7185,-1.6598,3.735364,0.416106,0.302768,0.283321
1702325342476562,-9.70185,0.74098,3.674364,0.391406,0.311068,0.261121
1702325342484375,-9.185185,0.44298,3.634364,0.351206,0.330468,0.235821
1702325342492187,-9.354185,0.22198,3.659364,0.320006,0.358868,0.207421
1702325342500000,-9.503185,0.2898,3.661364,0.294906,0.380368,0.199821
1702325342507812,-9.553185,0.10002,3.670364,0.254306,0.417568,0.185921
1702325342515625,-9.544185,0.14602,3.751364,0.217806,0.466868,0.190021
1702325342523437,-9.400185,0.25802,3.866364,0.190806,0.473868,0.195321
1702325342531250,-9.276185,0.17502,4.22364,0.144006,0.502968,0.205321
1702325342539062,-9.209185,0.2698,4.269364,0.103706,0.540768,0.214521
1702325342546875,-9.61185,0.15998,4.395364,0.62906,0.543968,0.219821
1702325342554687,-8.790185,0.37498,4.226364,0.6906,0.562168,0.213821
1702325342562500,-8.560185,0.60498,4.129364,0.25694,0.570368,0.194921
1702325342570312,-8.366185,0.82798,4.145364,0.47994,0.559068,0.167221
1702325342578125,-8.130185,-1.10398,4.109364,0.56894,0.545768,0.125621
1702325342585937,-7.895185,-1.30898,4.181364,0.63594,0.526568,0.72321
1702325342593750,-7.717185,-1.44698,4.262364,0.59894,0.499668,0.35121
1702325342601562,-7.601185,-1.69298,4.327364,0.42894,0.447968,0.6821
1702325342609375,-7.551185,-1.99498,4.358364,0.37394,0.372268,0.25779
1702325342617187,-7.608185,-2.26698,4.245364,0.37894,0.303568,0.56979
1702325342625000,-7.674185,-2.52598,4.227364,0.34594,0.283368,0.120279
1702325342632812,-7.729185,-2.43398,4.219364,0.40694,0.265068,0.188379
1702325342640625,-7.821185,-2.2298,4.246364,0.81294,0.271568,0.273479
1702325342648437,-7.838185,-1.62398,4.419364,0.157694,0.319668,0.347579
1702325342656250,-7.884185,-1.28298,4.525364,0.241794,0.318268,0.419679
1702325342664062,-7.999185,0.93498,4.570364,0.302994,0.274668,0.490279
1702325342671875,-8.77185,0.52998,4.643364,0.402194,0.219568,0.532979
1702325342679687,-8.226185,0.37498,4.737364,0.526494,0.174668,0.565979
1702325342687500,-8.453185,0.53498,4.913364,0.565694,0.137768,0.565579
1702325342695312,-8.673185,0.70498,5.136364,0.585894,0.90668,0.538479
1702325342703125,-8.852185,0.86798,5.239364,0.654394,0.67768,0.484579
1702325342710937,-8.819185,-1.13698,5.230364,0.681894,0.60668,0.432679
1702325342718750,-8.739185,-1.60998,5.203364,0.614094,0.5968,0.377079
1702325342726562,-8.480185,-2.15098,5.27364,0.537894,0.6932,0.318679
1702325342734375,-8.176185,-3.19798,5.78364,0.441894,0.5032,0.266379
1702325342742187,-8.66185,-4.75598,5.625364,0.458794,0.141968,0.176279
1702325342750000,-7.921185,-4.87998,6.476364,0.399594,0.242568,0.100579
1702325342757812,-7.614185,-4.36298,7.889364,0.316794,0.378768,0.61679
1702325342765625,-6.940185,-4.37698,9.733364,0.441594,0.587568,0.2521
1702325342773437,-6.405185,-3.30898,10.423364,0.511294,0.411468,0.146021
1702325342781250,-6.216185,0.86698,10.77364,0.430394,0.2268,0.326021
1702325342789062,-5.886185,0.71202,8.934364,0.528194,0.418332,0.506321
1702325342796875,-5.422185,0.88202,6.875364,0.758994,0.909832,0.668621
1702325342804687,-5.131185,0.34602,4.686364,0.822794,1.459432,0.833121
1702325342812500,-4.907185,0.29198,2.769364,0.731794,1.977332,0.926721
1702325342820312,-4.884185,0.63698,1.158364,0.563294,2.337032,0.925521
1702325342828125,-4.982185,0.79998,0.106636,0.388194,2.498332,0.838421
1702325342835937,-5.400185,0.83698,-1.219636,0.262494,2.373632,0.572921
1702325342843750,-6.681185,0.69898,-1.9636,0.239094,1.907332,0.166221
1702325342851562,-8.928185,0.20198,0.409364,0.386794,1.303432,0.169879
1702325342859375,-10.851185,0.72702,2.367364,0.574594,0.826832,0.338679
1702325342867187,-11.678185,1.16402,4.121364,0.721094,0.507532,0.405679
1702325342875000,-12.37185,1.53402,6.211364,0.583694,0.383532,0.504679
1702325342882812,-12.914185,2.17002,8.241364,0.218594,0.778532,0.610079
1702325342890625,-13.536185,2.40902,7.129364,0.109794,1.534332,0.533179
1702325342898437,-13.685185,1.70002,4.696364,0.214594,2.25632,0.366279
1702325342906250,-13.428185,0.52302,2.531364,0.313294,2.115132,0.281579
1702325342914062,-12.584185,0.53998,0.524364,0.287094,1.704732,0.301679
1702325342921875,-11.205185,-1.5598,0.99636,0.113994,0.979632,0.359479
1702325342929687,-9.783185,-1.45698,0.719364,0.68506,0.473932,0.388679
1702325342937500,-8.848185,-1.84298,2.9364,0.81606,0.315332,0.414779
1702325342945312,-8.307185,-1.82398,3.232364,0.11806,0.307332,0.447879
1702325342953125,-8.192185,-1.61298,4.156364,0.107294,0.346732,0.484379
1702325342960937,-8.597185,-1.23898,4.86364,0.262294,0.472632,0.535179
1702325342968750,-9.336185,0.57298,3.429364,0.384794,0.599632,0.574879
1702325342976562,-10.227185,0.12602,2.749364,0.428094,0.683732,0.594079
1702325342984375,-11.74185,0.65502,2.263364,0.410494,0.647032,0.603979
1702325342992187,-11.521185,0.89902,2.38364,0.360494,0.494832,0.569479
1702325343000000,-11.439185,0.68902,1.939364,0.315894,0.309032,0.526479
1702325343007812,-11.76185,0.32202,2.42364,0.251194,0.173932,0.497379
1702325343015625,-10.655185,0.12498,2.204364,0.211394,0.91432,0.488979
1702325343023437,-10.226185,0.67098,2.361364,0.152394,0.63532,0.471679
1702325343031250,-9.910185,-1.4798,2.359364,0.89694,0.70332,0.464379
1702325343039062,-9.635185,-1.40098,2.140364,0.47394,0.74332,0.445779
1702325343046875,-9.485185,-1.68498,1.845364,0.11506,0.63932,0.430079
1702325343054687,-9.514185,-1.82198,1.651364,0.48706,0.26232,0.418879
1702325343062500,-9.516185,-1.83298,1.505364,0.46406,0.11868,0.405579
1702325343070312,-9.523185,-1.67998,1.401364,0.48906,0.93768,0.401779
1702325343078125,-9.516185,-1.42498,1.528364,0.70306,0.199168,0.390179
1702325343085937,-9.433185,0.98498,1.929364,0.96006,0.308868,0.379979
1702325343093750,-9.207185,0.34098,2.377364,0.78706,0.371668,0.335579
1702325343101562,-8.895185,0.15602,2.598364,0.47906,0.347168,0.278779
1702325343109375,-8.561185,0.48302,2.544364,0.21906,0.244668,0.193779
1702325343117187,-8.486185,0.45702,2.330364,0.14806,0.125868,0.102679
1702325343125000,-8.719185,0.15102,2.211364,0.40106,0.36668,0.27479
1702325343132812,-8.926185,0.1298,2.170364,0.59806,0.12168,0.36321
1702325343140625,-8.955185,0.5698,2.96364,0.42006,0.3868,0.67121
1702325343148437,-8.930185,0.5498,1.857364,0.22694,0.33532,0.90321
1702325343156250,-8.955185,0.4398,1.461364,0.105794,0.85532,0.102321
1702325343164062,-8.992185,0.2802,1.150364,0.138694,0.94032,0.107421
1702325343171875,-8.940185,0.16602,1.125364,0.115494,0.30732,0.112321
1702325343179687,-8.955185,0.28002,1.274364,0.75594,0.17868,0.117321
1702325343187500,-8.876185,0.21902,1.413364,0.71794,0.30868,0.157721
1702325343195312,-8.762185,0.9102,1.603364,0.65894,0.18168,0.199321
1702325343203125,-8.760185,0.198,1.931364,0.99894,0.42768,0.240321
1702325343210937,-8.59185,0.41398,3.48364,0.197694,0.201868,0.287921
1702325343218750,-7.77185,0.97398,4.305364,0.259094,0.224668,0.219321
1702325343226562,-6.484185,-1.8698,5.174364,0.105894,0.5232,0.81921
1702325343234375,-6.740185,0.83198,5.406364,0.155606,0.317132,0.38021
1702325343242187,-8.63185,-1.298,4.296364,0.85106,0.635332,0.68721
1702325343250000,-10.472185,-1.50498,2.244364,0.45194,1.14832,0.180621
1702325343257812,-12.715185,-1.78198,0.861364,0.30194,1.38732,0.236621
1702325343265625,-14.21185,-1.53298,0.573364,0.40894,0.573632,0.151321
1702325343273437,-14.249185,-1.20398,0.922364,0.83294,0.39168,0.35221
1702325343281250,-12.972185,0.61298,2.141364,0.136394,0.632368,0.19579
1702325343289062,-10.883185,0.8298,3.898364,0.110094,0.989268,0.38279
1702325343296875,-9.497185,0.25702,5.105364,0.3794,0.969768,0.16979
1702325343304687,-8.834185,0.20298,5.463364,0.52506,0.739968,0.66221
1702325343312500,-8.444185,0.92998,4.854364,0.56306,0.402568,0.141221
1702325343320312,-8.307185,0.91098,3.262364,0.83706,0.147568,0.176321
1702325343328125,-8.313185,0.99798,1.706364,0.203706,0.71668,0.174221
1702325343335937,-8.242185,-1.9098,0.924364,0.329806,0.83268,0.138921
1702325343343750,-8.217185,-1.22398,0.757364,0.375506,0.139368,0.103321
1702325343351562,-8.155185,-1.29298,1.167364,0.328406,0.192368,0.81821
1702325343359375,-8.156185,0.70098,1.805364,0.243806,0.106068,0.49521
1702325343367187,-8.354185,0.6102,2.30364,0.193806,0.71532,0.81321
1702325343375000,-8.587185,0.29902,2.249364,0.288206,0.270632,0.215921
1702325343382812,-9.138185,0.4902,2.55364,0.462206,0.517032,0.352821
1702325343390625,-9.832185,0.27598,1.310364,0.522606,0.631032,0.441521
1702325343398437,-10.346185,0.32598,0.688364,0.461206,0.593832,0.448921
1702325343406250,-10.828185,0.15998,0.272364,0.298806,0.427532,0.374321
1702325343414062,-11.103185,0.23702,0.175364,0.136706,0.183832,0.303921
1702325343421875,-11.29185,0.63102,0.643364,0.56106,0.76868,0.247121
1702325343429687,-10.763185,0.90702,1.443364,0.19906,0.269968,0.198821
1702325343437500,-10.544185,0.94802,2.74364,0.39394,0.369368,0.163021
1702325343445312,-10.377185,0.76802,2.333364,0.141494,0.402768,0.146821
1702325343453125,-10.223185,0.46302,2.486364,0.210094,0.411168,0.120221
1702325343460937,-10.51185,0.5802,2.560364,0.267594,0.453568,0.88821
1702325343468750,-9.823185,0.29598,2.402364,0.345294,0.484068,0.54321
1702325343476562,-9.641185,0.43598,2.217364,0.383794,0.485768,0.20821
1702325343484375,-9.664185,0.58398,2.35364,0.390994,0.495768,0.16079
1702325343492187,-9.740185,0.84498,1.908364,0.366194,0.532668,0.27179
1702325343500000,-9.831185,-1.8298,1.798364,0.314694,0.587368,0.13179
1702325343507812,-9.911185,-1.28998,1.920364,0.222194,0.668168,0.22021
1702325343515625,-9.836185,-1.52198,2.399364,0.126794,0.752968,0.87721
1702325343523437,-9.656185,-1.77698,2.762364,0.45994,0.811668,0.180921
1702325343531250,-9.299185,-2.9098,2.978364,0.47306,0.886568,0.277221
1702325343539062,-8.796185,-2.15998,3.126364,0.149906,0.952168,0.365421
1702325343546875,-8.208185,-2.13398,3.126364,0.214006,0.976568,0.447221
1702325343554687,-7.762185,-2.598,3.108364,0.227406,0.938768,0.491921
1702325343562500,-7.810185,-1.82098,3.106364,0.218106,0.838168,0.526721
1702325343570312,-7.986185,-1.49198,3.225364,0.231406,0.770868,0.563521
1702325343578125,-8.98185,-1.12198,3.494364,0.277606,0.743668,0.554521
1702325343585937,-8.326185,0.74598,3.528364,0.287906,0.668168,0.539321
1702325343593750,-8.364185,0.31098,3.431364,0.275306,0.563768,0.493521
1702325343601562,-8.436185,0.2198,3.240364,0.227506,0.419568,0.431521
1702325343609375,-9.9185,0.29102,2.918364,0.175006,0.242368,0.352021
1702325343617187,-9.864185,0.74702,2.749364,0.137906,0.159768,0.291921
1702325343625000,-10.150185,1.9102,2.815364,0.105206,0.222368,0.255621
1702325343632812,-10.127185,1.17902,2.828364,0.123906,0.274868,0.246121
1702325343640625,-9.989185,1.202,2.783364,0.157906,0.315268,0.263721
1702325343648437,-9.510185,0.70702,2.891364,0.220606,0.404468,0.299321
1702325343656250,-8.421185,0.4402,3.328364,0.297406,0.564468,0.333421
1702325343664062,-7.425185,0.55998,3.868364,0.393806,0.694568,0.317221
1702325343671875,-6.818185,0.70898,4.318364,0.477806,0.702268,0.285521
1702325343679687,-6.628185,0.96298,4.672364,0.485506,0.517768,0.263221
1702325343687500,-7.135185,-1.31198,4.410364,0.461506,0.245468,0.232321
1702325343695312,-7.725185,-1.38298,3.964364,0.437506,0.68568,0.237721
1702325343703125,-8.8185,-1.62198,3.685364,0.470106,0.14268,0.248521
1702325343710937,-8.217185,-1.64998,3.539364,0.543406,0.77668,0.252921
1702325343718750,-8.566185,-1.48898,4.264364,0.579206,0.331568,0.262421
1702325343726562,-8.679185,-1.72398,5.687364,0.597106,0.704668,0.266521
1702325343734375,-8.296185,-1.64198,7.845364,0.727006,0.987168,0.247921
1702325343742187,-8.129185,-1.24298,9.364,0.898706,0.673368,0.156521
1702325343750000,-8.407185,-1.16298,7.928364,0.820006,0.245368,0.3879
1702325343757812,-8.674185,-1.33998,7.676364,0.625206,0.308268,0.209779
1702325343765625,-8.944185,-2.79598,8.225364,0.616106,0.417168,0.417179
1702325343773437,-9.334185,-4.71098,6.143364,0.881006,0.196868,0.598979
1702325343781250,-9.299185,-5.40098,2.717364,1.288506,0.101668,0.698279
1702325343789062,-9.213185,-4.70298,1.44364,1.535006,0.266168,0.845279
1702325343796875,-9.604185,-2.84298,0.863364,1.347906,0.407268,1.14879
1702325343804687,-10.332185,0.9798,0.999364,0.884606,0.507768,1.171679
1702325343812500,-9.522185,2.19802,1.364,0.403506,0.656968,1.139479
1702325343820312,-7.775185,2.87402,2.14364,0.266406,0.758668,0.830479
1702325343828125,-6.885185,2.86602,4.360364,0.521806,0.482768,0.431679
1702325343835937,-6.478185,1.73802,5.680364,0.446306,0.134432,0.60779
1702325343843750,-7.274185,0.58202,4.235364,0.85606,0.741532,0.145521
1702325343851562,-8.470185,0.47198,2.672364,0.10894,1.67032,0.231221
1702325343859375,-9.166185,-1.19098,2.154364,0.22794,1.10932,0.175321
1702325343867187,-9.904185,-1.62898,2.336364,0.67794,0.848332,0.23621
1702325343875000,-10.620185,-1.99298,2.748364,0.126994,0.731332,0.113579
1702325343882812,-10.921185,-2.66798,2.748364,0.172394,0.671032,0.230179
1702325343890625,-11.185,-3.23298,2.482364,0.128894,0.666332,0.355179
1702325343898437,-11.77185,-3.9698,2.223364,0.47994,0.620132,0.491479
1702325343906250,-10.677185,-2.3798,2.248364,0.26694,0.415732,0.617479
1702325343914062,-9.867185,0.91998,2.854364,0.80994,0.190032,0.634679
1702325343921875,-9.225185,0.4098,3.747364,0.125894,0.137332,0.582479
1702325343929687,-9.260185,0.47302,4.249364,0.86894,0.289532,0.456279
1702325343937500,-9.626185,0.33802,4.326364,0.50094,0.426832,0.278779
1702325343945312,-10.175185,0.7398,4.251364,0.34894,0.485332,0.104679
1702325343953125,-10.673185,0.45698,3.814364,0.44894,0.525932,0.28921
1702325343960937,-10.704185,0.74898,3.361364,0.63794,0.443432,0.143021
1702325343968750,-10.470185,-1.2798,3.262364,0.46994,0.301732,0.203421
1702325343976562,-10.167185,-1.18098,3.345364,0.15094,0.180832,0.220021
1702325343984375,-9.808185,-1.29398,3.267364,0.2206,0.108132,0.212121
1702325343992187,-9.357185,-1.19598,3.210364,0.1094,0.41132,0.175821
1702325344000000,-8.920185,0.96098,3.176364,0.14894,0.2532,0.132821
1702325344007812,-8.466185,0.69098,3.190364,0.12094,0.28332,0.103221
1702325344015625,-8.207185,0.44498,3.247364,0.12194,0.57132,0.62421
1702325344023437,-8.130185,0.32998,3.400364,0.10094,0.105032,0.33221
1702325344031250,-8.271185,0.10898,3.411364,0.15594,0.193732,0.26121
1702325344039062,-8.488185,0.102,3.352364,0.14794,0.283232,0.7821
1702325344046875,-8.771185,0.4598,3.355364,0.30194,0.340832,0.17221
1702325344054687,-9.45185,0.8598,3.292364,0.28394,0.381032,0.36021
1702325344062500,-9.322185,0.27898,3.303364,0.13694,0.393432,0.73121
1702325344070312,-9.526185,0.59698,3.292364,0.9794,0.372232,0.102321
1702325344078125,-9.778185,0.86098,3.161364,0.16406,0.353632,0.111921
1702325344085937,-9.892185,-1.11098,3.80364,0.39306,0.282432,0.131421
1702325344093750,-9.838185,-1.22198,2.987364,0.58606,0.168632,0.130621
1702325344101562,-9.676185,-1.23398,3.107364,0.102306,0.77632,0.125721
1702325344109375,-9.412185,-1.15498,3.318364,0.125406,0.9532,0.111621
1702325344117187,-9.228185,-1.1198,3.442364,0.136606,0.17268,0.106621
1702325344125000,-9.44185,0.83098,3.440364,0.131906,0.9868,0.98721
1702325344132812,-8.931185,0.67198,3.422364,0.116006,0.8132,0.87821
1702325344140625,-8.834185,0.56698,3.413364,0.100906,0.40132,0.82721
1702325344148437,-8.878185,0.45998,3.336364,0.77906,0.76132,0.66621
1702325344156250,-9.68185,0.37298,3.197364,0.49806,0.99632,0.52521
1702325344164062,-9.316185,0.38898,3.93364,0.36306,0.105832,0.47421
1702325344171875,-9.521185,0.45898,3.98364,0.21906,0.84332,0.52621
1702325344179687,-9.796185,0.44398,3.98364,0.14906,0.42632,0.58021
1702325344187500,-9.982185,0.46098,2.944364,0.20506,0.1868,0.71321
1702325344195312,-9.915185,0.45998,2.848364,0.24606,0.71068,0.97321
1702325344203125,-9.691185,0.41498,2.859364,0.35006,0.114968,0.118521
1702325344210937,-9.443185,0.43598,2.839364,0.15606,0.131768,0.131821
1702325344218750,-9.228185,0.49498,2.697364,0.6694,0.130368,0.141821
1702325344226562,-9.35185,0.60798,2.654364,0.594,0.127568,0.145121
1702325344234375,-8.843185,0.73798,2.694364,0.8106,0.133168,0.119021
1702325344242187,-8.744185,0.88598,2.778364,0.16906,0.108268,0.89521
1702325344250000,-8.787185,0.94898,2.771364,0.25506,0.89868,0.36221
1702325344257812,-8.937185,-1.2898,2.728364,0.34006,0.79868,0.11821
1702325344265625,-9.94185,-1.5298,2.642364,0.45106,0.78868,0.521
1702325344273437,-9.235185,-1.4898,2.561364,0.67106,0.103768,0.18879
1702325344281250,-9.282185,-1.8098,2.469364,0.103006,0.122368,0.25479
1702325344289062,-9.394185,-1.38298,2.845364,0.142206,0.171068,0.32079
1702325344296875,-9.154185,-2.10298,3.878364,0.159806,0.275868,0.5679
1702325344304687,-8.18185,-2.45598,3.718364,0.117106,0.305168,0.42579
1702325344312500,-6.833185,-2.50998,3.126364,0.167406,0.301468,0.212579
1702325344320312,-6.306185,-2.25098,3.389364,0.246306,0.296568,0.406979
1702325344328125,-6.866185,0.90998,4.187364,0.306406,0.252568,0.563179
1702325344335937,-9.418185,0.97002,5.152364,0.309606,0.22632,0.553879
1702325344343750,-12.431185,1.44702,5.232364,0.216906,0.421832,0.328279
1702325344351562,-13.728185,0.45602,4.339364,0.147806,0.617432,0.36121
1702325344359375,-12.852185,-1.23098,2.818364,0.147006,0.550932,0.380221
1702325344367187,-11.23185,-2.67598,2.455364,0.287906,0.279432,0.534021
1702325344375000,-9.488185,-3.48398,2.594364,0.450906,0.40832,0.517921
1702325344382812,-8.343185,-3.51698,2.864364,0.480106,0.203368,0.395021
1702325344390625,-7.827185,-2.59998,3.378364,0.405106,0.414368,0.220021
1702325344398437,-8.116185,-1.18998,4.261364,0.352706,0.529468,0.64921
1702325344406250,-9.259185,0.14502,4.931364,0.288406,0.462168,0.13421
1702325344414062,-10.378185,1.2102,5.157364,0.214606,0.391168,0.49221
1702325344421875,-10.902185,1.15102,4.993364,0.164906,0.397168,0.180521
1702325344429687,-10.711185,0.55502,4.195364,0.121806,0.406268,0.295621
1702325344437500,-10.106185,0.28802,3.479364,0.66906,0.482568,0.353321
1702325344445312,-9.162185,0.12202,3.314364,0.15394,0.547068,0.386821
1702325344453125,-7.991185,0.18198,3.238364,0.85994,0.451268,0.430421
1702325344460937,-7.246185,0.40898,2.922364,0.158094,0.231668,0.426321
1702325344468750,-7.92185,0.67198,2.469364,0.234494,0.13168,0.356721
1702325344476562,-7.631185,0.93498,2.25364,0.264194,0.166432,0.211721
1702325344484375,-8.371185,-1.24498,1.530364,0.247294,0.189132,0.56621
1702325344492187,-9.21185,-1.53898,1.192364,0.169994,0.100932,0.58379
1702325344500000,-9.384185,-1.65998,1.413364,0.57994,0.86368,0.155179
1702325344507812,-9.369185,-1.45098,1.928364,0.36006,0.273968,0.225679
1702325344515625,-9.225185,-1.98,2.424364,0.98706,0.386668,0.251579
1702325344523437,-9.135185,0.55198,2.987364,0.135406,0.397268,0.227479
1702325344531250,-9.125185,0.36998,3.431364,0.165706,0.349568,0.157079
1702325344539062,-9.298185,0.48898,3.307364,0.188206,0.237668,0.66279
1702325344546875,-9.446185,0.72498,2.915364,0.193106,0.139768,0.45821
1702325344554687,-9.478185,0.96198,2.699364,0.238606,0.96968,0.137021
1702325344562500,-9.493185,-1.14998,2.714364,0.279206,0.84168,0.212421
1702325344570312,-9.489185,-1.27698,2.836364,0.308506,0.100768,0.257121
1702325344578125,-9.479185,-1.15898,2.865364,0.309106,0.142468,0.276921
1702325344585937,-9.460185,0.85798,2.983364,0.299706,0.211768,0.270921
1702325344593750,-9.409185,0.63398,3.104364,0.271106,0.250468,0.260421
1702325344601562,-9.382185,0.42798,3.59364,0.244206,0.265768,0.257721
1702325344609375,-9.478185,0.20998,2.974364,0.202506,0.274768,0.237121
1702325344617187,-9.707185,0.4402,3.112364,0.160206,0.312368,0.223321
1702325344625000,-10.26185,0.20502,3.483364,0.109706,0.373468,0.211521
1702325344632812,-10.269185,0.22002,3.789364,0.70606,0.408168,0.194521
1702325344640625,-10.425185,0.13602,3.888364,0.6006,0.442968,0.189221
1702325344648437,-10.332185,0.7002,3.861364,0.49094,0.493668,0.183721
1702325344656250,-10.7185,0.4798,3.812364,0.105094,0.521468,0.181021
1702325344664062,-9.586185,0.33598,3.828364,0.149794,0.577568,0.193321
1702325344671875,-9.193185,0.64798,3.890364,0.159494,0.571168,0.204721
1702325344679687,-9.6185,0.91298,3.901364,0.142294,0.533768,0.217221
1702325344687500,-8.912185,-1.19998,3.928364,0.121794,0.525368,0.215321
1702325344695312,-8.864185,-1.53998,3.928364,0.118094,0.525168,0.190921
1702325344703125,-8.733185,-1.85198,3.795364,0.91094,0.532468,0.163421
1702325344710937,-8.660185,-1.95598,3.700364,0.43694,0.559068,0.134021
1702325344718750,-8.762185,-2.4698,3.854364,0.16194,0.599468,0.91921
1702325344726562,-8.684185,-2.16198,4.176364,0.4306,0.643168,0.78921
1702325344734375,-8.517185,-2.19698,4.218364,0.25294,0.622768,0.64821
1702325344742187,-8.248185,-2.11898,3.977364,0.51494,0.575468,0.50221
1702325344750000,-8.133185,-1.84598,3.849364,0.89894,0.560268,0.27821
1702325344757812,-8.185,-1.44998,3.786364,0.140494,0.578168,0.26379
1702325344765625,-7.778185,-1.14698,3.861364,0.177494,0.586968,0.69379
1702325344773437,-7.580185,0.84298,4.72364,0.207794,0.535468,0.120879
1702325344781250,-7.546185,0.83498,4.192364,0.257894,0.430468,0.161479
1702325344789062,-7.625185,-1.1798,4.55364,0.321894,0.315368,0.202179
1702325344796875,-7.665185,-1.30598,3.710364,0.386594,0.219268,0.239079
1702325344804687,-7.727185,-1.35598,3.530364,0.427094,0.167868,0.295779
1702325344812500,-7.870185,-1.27898,3.588364,0.466794,0.141768,0.340679
1702325344820312,-7.985185,-1.27698,3.730364,0.494294,0.133368,0.366379
1702325344828125,-8.25185,-1.42398,3.939364,0.486194,0.94868,0.380979
1702325344835937,-8.150185,-1.47398,4.142364,0.479194,0.56768,0.394479
1702325344843750,-8.296185,-1.67798,4.235364,0.474494,0.29368,0.364279
1702325344851562,-8.263185,-2.6398,4.250364,0.418994,0.20868,0.342079
1702325344859375,-8.122185,-2.42498,4.263364,0.363094,0.26168,0.323179
1702325344867187,-7.971185,-2.57998,4.387364,0.311494,0.45868,0.321979
1702325344875000,-7.807185,-2.74898,4.576364,0.280094,0.69968,0.322379
1702325344882812,-7.996185,-3.73898,5.51364,0.261094,0.170368,0.297479
1702325344890625,-8.99185,-3.80398,5.772364,0.215494,0.222068,0.236379
1702325344898437,-8.238185,-2.92298,6.565364,0.231494,0.201968,0.208979
1702325344906250,-8.154185,-2.57598,7.261364,0.348494,0.234368,0.168679
1702325344914062,-8.181185,-2.14798,7.847364,0.483194,0.217468,0.91379
1702325344921875,-8.599185,0.84998,8.435364,0.546094,0.55268,0.39021
1702325344929687,-8.959185,0.68402,8.720364,0.634694,0.144232,0.203521
1702325344937500,-8.812185,1.17102,8.227364,0.739894,0.360932,0.386821
1702325344945312,-8.516185,0.36302,6.911364,0.658194,0.672532,0.554721
1702325344953125,-8.406185,-1.36698,5.401364,0.445694,0.972332,0.684121
1702325344960937,-8.240185,-2.94498,3.959364,0.141794,1.198132,0.769421
1702325344968750,-8.177185,-3.27498,2.732364,0.154506,1.279932,0.723421
1702325344976562,-8.50185,-2.87298,1.829364,0.258506,1.201632,0.582421
1702325344984375,-7.921185,-2.33698,1.234364,0.115206,0.997932,0.393521
1702325344992187,-7.765185,-1.65898,0.750364,0.167094,0.644232,0.210321
1702325345000000,-7.435185,0.65498,1.204364,0.367194,0.285732,0.73121
1702325345007812,-7.254185,0.31702,2.204364,0.463194,0.181432,0.34579
1702325345015625,-7.541185,1.12602,3.326364,0.473594,0.169132,0.121879
1702325345023437,-8.34185,1.91702,4.799364,0.340794,0.205832,0.178379
1702325345031250,-8.564185,2.31702,6.187364,0.134094,0.406332,0.190079
1702325345039062,-8.952185,2.25402,6.820364,0.41394,0.834032,0.204179
1702325345046875,-9.528185,2.11102,5.955364,0.130594,1.430732,0.235079
1702325345054687,-10.290185,1.74002,4.666364,0.167994,1.862932,0.290679
1702325345062500,-11.178185,1.44502,3.418364,0.202694,2.21532,0.380279
1702325345070312,-12.534185,1.14702,2.225364,0.189994,1.937332,0.467379
1702325345078125,-13.176185,0.52702,1.168364,0.235394,1.635732,0.500079
1702325345085937,-12.568185,0.27198,0.465364,0.272594,1.175532,0.517279
1702325345093750,-11.567185,0.99198,0.724364,0.202294,0.699432,0.527079
1702325345101562,-10.675185,-1.31098,1.832364,0.66094,0.381732,0.539279
1702325345109375,-9.863185,-1.30798,2.980364,0.68694,0.190632,0.542879
1702325345117187,-9.272185,-1.29898,3.685364,0.151694,0.121332,0.575179
1702325345125000,-8.917185,-1.14698,3.649364,0.222694,0.188132,0.615179
1702325345132812,-8.728185,0.75498,3.413364,0.258994,0.238332,0.642879
1702325345140625,-8.737185,0.45398,3.213364,0.239294,0.304232,0.658279
1702325345148437,-8.989185,0.31898,2.990364,0.191994,0.366132,0.652679
1702325345156250,-9.334185,0.18098,2.780364,0.166094,0.434032,0.612879
1702325345164062,-9.560185,0.13998,2.497364,0.171994,0.436132,0.548279
1702325345171875,-9.660185,0.21098,2.222364,0.130994,0.415032,0.493679
1702325345179687,-9.781185,0.36298,2.87364,0.59994,0.366132,0.447379
1702325345187500,-9.782185,0.59298,1.971364,0.25194,0.360532,0.405579
1702325345195312,-9.795185,0.77498,1.888364,0.10906,0.351832,0.388479
1702325345203125,-9.799185,0.83898,1.881364,0.29206,0.310632,0.383479
1702325345210937,-9.614185,0.85798,1.843364,0.25406,0.256632,0.370079
1702325345218750,-9.423185,0.70998,1.746364,0.41906,0.207232,0.355279
1702325345226562,-9.311185,0.54998,1.670364,0.29206,0.168832,0.343779
1702325345234375,-9.274185,0.43998,1.620364,0.48506,0.142132,0.311379
1702325345242187,-9.447185,0.28298,1.701364,0.67606,0.107032,0.273979
1702325345250000,-9.704185,0.13798,1.929364,0.85706,0.64332,0.229079
1702325345257812,-9.595185,0.10398,2.197364,0.85906,0.17368,0.186479
1702325345265625,-9.267185,0.3398,2.528364,0.89206,0.78068,0.142379
1702325345273437,-9.34185,0.12702,2.742364,0.93406,0.79068,0.108679
1702325345281250,-8.977185,0.22802,2.670364,0.77206,0.7668,0.74879
1702325345289062,-8.978185,0.15702,2.341364,0.62106,0.62132,0.16879
1702325345296875,-9.27185,0.14202,1.985364,0.63506,0.84632,0.19721
1702325345304687,-9.74185,0.10502,1.729364,0.91406,0.83632,0.43521
1702325345312500,-9.135185,0.3198,1.690364,0.117406,0.100832,0.64321
1702325345320312,-9.228185,0.13298,1.659364,0.130506,0.133032,0.70121
1702325345328125,-9.268185,0.28898,1.634364,0.147406,0.158132,0.76421
1702325345335937,-9.290185,0.31498,1.553364,0.161606,0.163632,0.79321
1702325345343750,-9.348185,0.17898,1.411364,0.128706,0.187732,0.79721
1702325345351562,-9.494185,0.7098,1.217364,0.83306,0.212932,0.94421
1702325345359375,-9.542185,0.12302,1.98364,0.62106,0.184932,0.120721
1702325345367187,-9.343185,0.36402,1.229364,0.65606,0.93332,0.148821
1702325345375000,-9.177185,0.41702,1.504364,0.60306,0.53532,0.155721
1702325345382812,-9.121185,0.52502,1.614364,0.54206,0.60332,0.155721
1702325345390625,-9.220185,0.70802,1.761364,0.11794,0.67332,0.169221
1702325345398437,-9.452185,0.89102,1.878364,0.121994,0.59432,0.189921
1702325345406250,-9.779185,0.92702,1.848364,0.235994,0.2768,0.224021
1702325345414062,-10.131185,0.87802,2.294364,0.298194,0.179268,0.293821
1702325345421875,-9.314185,0.49502,3.483364,0.362294,0.426168,0.357721
1702325345429687,-7.869185,0.30698,4.744364,0.311894,0.534468,0.312721
1702325345437500,-6.978185,0.51498,5.631364,0.13294,0.263868,0.204121
1702325345445312,-7.472185,0.71398,5.420364,0.261006,0.202632,0.136121
1702325345453125,-9.564185,-1.62698,3.575364,0.93206,0.628132,0.112421
1702325345460937,-11.962185,-1.83098,1.471364,0.96594,0.896032,0.67221
1702325345468750,-13.492185,-1.54998,0.580364,0.139694,0.649732,0.53179
1702325345476562,-13.815185,0.75098,0.636364,0.197094,0.41432,0.212579
1702325345484375,-12.366185,0.30402,1.148364,0.247694,0.436368,0.260379
1702325345492187,-10.636185,1.26902,2.353364,0.186794,0.628468,0.243279
1702325345500000,-9.449185,1.51502,3.443364,0.203094,0.628368,0.141379
1702325345507812,-8.906185,0.85902,3.916364,0.141194,0.444068,0.30579
1702325345515625,-8.933185,0.13702,3.596364,0.19894,0.220868,0.21221
1702325345523437,-9.36185,0.15898,2.600364,0.37606,0.71168,0.5121
1702325345531250,-8.886185,0.53598,1.334364,0.43006,0.11432,0.17979
1702325345539062,-8.503185,0.69098,0.465364,0.70006,0.9132,0.45579
1702325345546875,-8.162185,0.70298,0.118364,0.90706,0.40968,0.63379
1702325345554687,-7.992185,0.64598,0.336364,0.67506,0.51868,0.72879
1702325345562500,-8.183185,0.50398,0.945364,0.13106,0.12332,0.69579
1702325345570312,-8.518185,0.32898,1.683364,0.17194,0.73932,0.37179
1702325345578125,-8.772185,0.20298,1.906364,0.13506,0.145132,0.26421
1702325345585937,-8.980185,0.13798,1.598364,0.85806,0.217832,0.97921
1702325345593750,-9.290185,0.2698,1.150364,0.142206,0.307732,0.154421
1702325345601562,-9.817185,0.4302,0.688364,0.133706,0.325632,0.186821
1702325345609375,-10.329185,0.15302,0.344364,0.79306,0.255432,0.218621
1702325345617187,-10.576185,0.28302,0.335364,0.17694,0.96232,0.224221
1702325345625000,-10.551185,0.42002,0.747364,0.78094,0.49468,0.217821
1702325345632812,-10.383185,0.49102,1.227364,0.144894,0.138268,0.225821
1702325345640625,-10.195185,0.38902,1.422364,0.212494,0.188668,0.225321
1702325345648437,-10.9185,0.28402,1.544364,0.235194,0.241468,0.234121
1702325345656250,-9.823185,0.12802,1.758364,0.222694,0.307568,0.235821
1702325345664062,-9.682185,0.19298,1.974364,0.214294,0.373868,0.246121
1702325345671875,-9.551185,0.60098,2.154364,0.240794,0.404168,0.243221
1702325345679687,-9.552185,0.83898,2.248364,0.260894,0.389068,0.241721
1702325345687500,-9.644185,-1.8498,2.246364,0.285894,0.392368,0.238721
1702325345695312,-9.810185,-1.27798,2.232364,0.294194,0.406268,0.242321
1702325345703125,-10.97185,-1.30598,2.255364,0.257494,0.471768,0.263421
1702325345710937,-10.315185,-1.32998,2.392364,0.191494,0.577568,0.306921
1702325345718750,-10.324185,-1.45798,2.622364,0.122994,0.713168,0.370021
1702325345726562,-10.161185,-1.55998,2.809364,0.16894,0.826668,0.423021
1702325345734375,-9.880185,-1.54298,2.874364,0.71106,0.906568,0.467821
1702325345742187,-9.503185,-1.66198,2.827364,0.126506,0.945268,0.512521
1702325345750000,-9.217185,-1.79398,2.766364,0.183706,0.943068,0.534721
1702325345757812,-9.112185,-1.75498,2.856364,0.220406,0.967068,0.555721
1702325345765625,-8.899185,-1.61998,2.973364,0.244306,-1.20968,0.550621
1702325345773437,-8.736185,-1.40898,3.115364,0.291806,-1.52568,0.508321
1702325345781250,-8.646185,-1.13398,3.278364,0.291406,-1.13168,0.472521
1702325345789062,-8.484185,0.95198,3.323364,0.273306,0.938368,0.451321
1702325345796875,-8.514185,0.58998,3.305364,0.247906,0.847668,0.407521
1702325345804687,-8.714185,0.31398,3.183364,0.223606,0.739768,0.395721
1702325345812500,-8.945185,0.9298,3.163364,0.224906,0.647368,0.380321
1702325345820312,-9.218185,0.13902,3.307364,0.208706,0.573768,0.349321
1702325345828125,-9.617185,0.6102,3.393364,0.211406,0.516568,0.314921
1702325345835937,-10.216185,0.198,3.593364,0.241006,0.545068,0.305221
1702325345843750,-10.300185,0.10098,3.891364,0.304306,0.656168,0.319821
1702325345851562,-9.848185,0.25398,4.163364,0.391406,0.754768,0.343521
1702325345859375,-9.165185,0.47198,4.88364,0.445706,0.799468,0.395321
1702325345867187,-8.501185,0.73098,3.937364,0.474706,0.842768,0.435521
1702325345875000,-8.33185,-1.7198,3.926364,0.535606,0.855368,0.450921
1702325345882812,-7.679185,-1.24098,4.108364,0.601406,0.826168,0.459721
1702325345890625,-7.482185,-1.34098,4.162364,0.633606,0.684968,0.445621
1702325345898437,-7.428185,-1.33498,4.20364,0.642006,0.494868,0.406921
1702325345906250,-7.632185,-1.6898,3.696364,0.640006,0.296668,0.342521
1702325345914062,-8.92185,0.59698,3.393364,0.645306,0.172368,0.305721
1702325345921875,-8.470185,0.44498,3.381364,0.601806,0.130068,0.294621
1702325345929687,-8.821185,0.24998,3.427364,0.539406,0.120468,0.279121
1702325345937500,-9.23185,0.14998,3.569364,0.536306,0.143368,0.268121
1702325345945312,-9.83185,0.17998,3.675364,0.496106,0.181868,0.244421
1702325345953125,-9.13185,0.13002,3.767364,0.483506,0.266968,0.197021
1702325345960937,-9.133185,0.69702,4.44364,0.472606,0.457668,0.146721
1702325345968750,-8.834185,0.40702,4.760364,0.524706,0.661368,0.133221
1702325345976562,-8.211185,0.3698,6.143364,0.682806,0.700668,0.131621
1702325345984375,-7.895185,0.40298,7.562364,0.898206,0.514268,0.90621
1702325345992187,-8.280185,0.98698,7.21364,0.761706,0.121368,0.9179
1702325346000000,-8.417185,-1.24498,5.766364,0.306606,0.4568,0.95379
1702325346007812,-8.267185,-1.33598,5.690364,0.87906,0.104368,0.164779
1702325346015625,-8.721185,-1.60498,5.818364,0.201306,0.66768,0.274179
1702325346023437,-9.433185,-1.77598,5.685364,0.255706,0.40068,0.408879
1702325346031250,-9.700185,-1.87198,5.701364,0.253406,0.124568,0.532779
1702325346039062,-9.595185,-1.67398,5.838364,0.340806,0.269268,0.639279
1702325346046875,-9.197185,-1.24598,5.521364,0.359106,0.354768,0.722779
1702325346054687,-8.445185,0.90998,4.552364,0.262406,0.400268,0.755379
1702325346062500,-7.250185,0.64098,3.365364,0.117506,0.415268,0.735679
1702325346070312,-6.231185,0.30198,2.305364,0.26894,0.350768,0.700779
1702325346078125,-5.619185,0.16998,1.789364,0.113494,0.265568,0.655079
1702325346085937,-5.276185,0.8598,1.944364,0.152094,0.170468,0.579379
1702325346093750,-5.81185,0.32398,2.532364,0.275594,0.71368,0.481979
1702325346101562,-5.228185,-1.2698,2.924364,0.381594,0.166432,0.432479
1702325346109375,-6.110185,-1.85798,3.135364,0.384794,0.482932,0.470479
1702325346117187,-7.533185,-2.45298,3.158364,0.299194,0.808832,0.557879
1702325346125000,-9.157185,-2.82398,2.930364,0.160494,1.73232,0.666279
1702325346132812,-10.899185,-3.28498,3.72364,0.47194,1.262832,0.777179
1702325346140625,-12.590185,-3.63298,2.966364,0.81894,1.261032,0.871479
1702325346148437,-14.290185,-3.46998,2.905364,0.129294,1.160332,0.943279
1702325346156250,-15.210185,-2.83698,2.433364,0.151394,1.32,0.912779
1702325346164062,-14.970185,-1.79498,1.503364,0.170194,0.714832,0.762179
1702325346171875,-13.612185,0.95198,1.181364,0.161794,0.258432,0.485879
1702325346179687,-12.145185,0.31498,2.21364,0.89094,0.143768,0.186679
1702325346187500,-10.894185,0.3902,3.357364,0.25906,0.305168,0.111921
1702325346195312,-9.789185,0.13998,4.134364,0.130706,0.263468,0.368821
1702325346203125,-9.239185,0.40398,3.895364,0.198706,0.177268,0.530321
1702325346210937,-9.71185,0.50998,3.789364,0.187706,0.194868,0.577621
1702325346218750,-8.999185,0.37198,4.177364,0.93006,0.262868,0.525821
1702325346226562,-8.841185,0.13398,4.557364,0.28894,0.288868,0.428821
1702325346234375,-8.525185,0.9698,4.562364,0.120894,0.219968,0.351821
1702325346242187,-8.54185,0.18198,4.469364,0.145794,0.103568,0.310821
1702325346250000,-7.793185,0.48798,4.163364,0.143894,0.43632,0.340421
1702325346257812,-7.633185,0.91598,3.667364,0.70894,0.170932,0.405021
1702325346265625,-7.608185,-1.33598,3.279364,0.36706,0.235932,0.440521
1702325346273437,-7.616185,-1.69898,3.128364,0.119906,0.255432,0.442721
1702325346281250,-8.15185,-1.80898,3.21364,0.205806,0.267932,0.405821
1702325346289062,-8.563185,-1.83598,2.716364,0.233206,0.268532,0.358821
1702325346296875,-9.140185,-1.72498,2.243364,0.289306,0.258332,0.290521
1702325346304687,-9.766185,-1.35798,2.79364,0.352506,0.183832,0.235621
1702325346312500,-10.292185,0.62798,2.357364,0.379806,0.67032,0.189021
1702325346320312,-10.447185,0.5498,2.866364,0.387006,0.22568,0.172021
1702325346328125,-10.311185,0.14902,3.211364,0.363106,0.46468,0.191721
1702325346335937,-10.163185,0.15802,3.303364,0.359206,0.39768,0.228921
1702325346343750,-10.1185,0.5202,3.323364,0.349306,0.25468,0.250021
1702325346351562,-9.793185,0.4298,3.231364,0.333706,0.13168,0.266021
1702325346359375,-9.511185,0.24898,3.247364,0.314806,0.39068,0.263121
1702325346367187,-9.163185,0.36098,3.393364,0.291506,0.37668,0.252221
1702325346375000,-8.984185,0.17898,3.397364,0.243106,0.45368,0.219121
1702325346382812,-8.902185,0.14498,3.283364,0.195906,0.37768,0.174121
1702325346390625,-8.756185,0.23798,3.323364,0.162006,0.28568,0.135821
1702325346398437,-8.656185,0.28898,3.438364,0.126806,0.18568,0.102221
1702325346406250,-8.603185,0.48398,3.359364,0.109706,0.16132,0.83121
1702325346414062,-8.633185,0.76098,3.208364,0.105406,0.52132,0.76421
1702325346421875,-8.717185,0.97298,3.18364,0.112106,0.68932,0.72821
1702325346429687,-8.868185,-1.12298,2.861364,0.118306,0.68932,0.74421
1702325346437500,-9.24185,-1.19198,2.748364,0.127706,0.47932,0.71121
1702325346445312,-9.169185,-1.15898,2.606364,0.138506,0.34232,0.66421
1702325346453125,-9.293185,-1.9898,2.521364,0.149106,0.10768,0.58721
1702325346460937,-9.375185,-1.3798,2.568364,0.163006,0.93568,0.54221
1702325346468750,-9.375185,-1.3798,2.789364,0.185906,0.178768,0.56121
1702325346476562,-9.256185,-1.3998,2.913364,0.203106,0.228768,0.54521
1702325346484375,-9.136185,-1.6598,2.982364,0.218506,0.257168,0.49821
1702325346492187,-9.141185,-1.38498,3.458364,0.232806,0.323568,0.35421
1702325346500000,-8.719185,-2.60598,4.673364,0.240806,0.461668,0.47821
1702325346507812,-7.332185,-2.91598,4.488364,0.206106,0.497068,0.16279
1702325346515625,-5.655185,-2.92498,3.500364,0.254706,0.526968,0.250879
1702325346523437,-4.859185,-2.50798,4.427364,0.424506,0.568668,0.463579
1702325346531250,-6.184185,0.27198,6.471364,0.488606,0.363068,0.622379
1702325346539062,-10.74185,1.52702,6.945364,0.342206,0.248332,0.546179
1702325346546875,-13.170185,1.16002,6.67364,0.132206,0.596632,0.208879
1702325346554687,-13.863185,0.39998,4.438364,0.26806,0.618832,0.214921
1702325346562500,-12.687185,-2.14798,3.313364,0.110306,0.347532,0.488921
1702325346570312,-10.965185,-3.44498,3.598364,0.291306,0.29168,0.559021
1702325346578125,-9.367185,-3.89298,4.335364,0.387206,0.306768,0.518121
1702325346585937,-8.216185,-3.32298,4.711364,0.393706,0.417768,0.407321
1702325346593750,-7.691185,-1.91698,4.673364,0.366206,0.450168,0.270821
1702325346601562,-8.33185,0.74098,4.699364,0.349806,0.406268,0.169021
1702325346609375,-8.601185,0.22698,4.303364,0.287706,0.274268,0.126521
1702325346617187,-8.890185,0.13402,3.346364,0.154706,0.178968,0.143421
1702325346625000,-8.727185,0.47502,2.691364,0.43506,0.144068,0.157321
1702325346632812,-8.159185,0.66102,2.594364,0.52494,0.114268,0.185621
1702325346640625,-7.584185,0.58302,2.492364,0.124294,0.10132,0.206521
1702325346648437,-7.596185,0.9202,2.368364,0.173394,0.171132,0.186821
1702325346656250,-8.270185,0.76898,2.156364,0.204994,0.285932,0.136521
1702325346664062,-9.271185,-1.47398,1.795364,0.196694,0.295232,0.66621
1702325346671875,-9.985185,-1.81798,1.766364,0.155794,0.93132,0.11379
1702325346679687,-10.119185,-1.65398,2.318364,0.80294,0.189568,0.102379
1702325346687500,-9.695185,-1.40298,3.338364,0.894,0.401368,0.146879
1702325346695312,-9.181185,-1.33198,4.90364,0.59206,0.456868,0.138679
1702325346703125,-8.897185,-1.29298,4.32364,0.96706,0.389368,0.107379
1702325346710937,-8.764185,-1.16198,3.712364,0.139206,0.309668,0.69979
1702325346718750,-8.790185,0.93798,3.555364,0.162306,0.248668,0.25579
1702325346726562,-8.881185,0.71898,3.539364,0.167506,0.187568,0.21021
1702325346734375,-8.950185,0.62498,3.606364,0.190206,0.123568,0.83221
1702325346742187,-9.64185,0.67198,3.604364,0.189806,0.56768,0.142221
1702325346750000,-9.220185,0.85598,3.460364,0.200206,0.4768,0.180621
1702325346757812,-9.442185,0.97298,3.332364,0.212606,0.4632,0.207621
1702325346765625,-9.668185,-1.698,3.282364,0.227806,0.35268,0.207821
1702325346773437,-9.828185,-1.198,3.300364,0.232106,0.100768,0.208321
1702325346781250,-9.941185,0.93998,3.350364,0.244306,0.191768,0.181521
1702325346789062,-10.40185,0.89198,3.464364,0.259606,0.293668,0.161221
1702325346796875,-10.114185,0.77498,3.624364,0.259406,0.370368,0.152021
1702325346804687,-10.68185,0.60598,3.794364,0.245506,0.451268,0.134821
1702325346812500,-9.961185,0.40098,3.972364,0.213706,0.508768,0.129121
1702325346820312,-9.712185,0.21198,4.62364,0.166006,0.564668,0.141521
1702325346828125,-9.346185,0.2598,4.285364,0.160106,0.620668,0.174321
1702325346835937,-8.983185,0.6698,4.507364,0.124806,0.608268,0.205521
1702325346843750,-8.654185,0.32598,4.553364,0.76506,0.581568,0.229621
1702325346851562,-8.471185,0.49898,4.555364,0.60206,0.553068,0.254121
1702325346859375,-8.357185,0.74898,4.514364,0.51106,0.527668,0.258721
1702325346867187,-8.341185,-1.7798,4.395364,0.37706,0.496368,0.240821
1702325346875000,-8.319185,-1.29298,4.244364,0.24306,0.484968,0.206921
1702325346882812,-8.282185,-1.52198,4.169364,0.22006,0.484068,0.157021
1702325346890625,-8.200185,-1.73798,4.196364,0.32606,0.492468,0.98821
1702325346898437,-8.41185,-1.82998,4.232364,0.32406,0.486968,0.45321
1702325346906250,-7.918185,-1.83598,4.273364,0.8306,0.472668,0.4479
1702325346914062,-7.829185,-1.70898,4.354364,0.7894,0.445468,0.55979
1702325346921875,-7.747185,-1.49698,4.336364,0.50494,0.401668,0.109079
1702325346929687,-7.687185,-1.33598,4.264364,0.89494,0.335768,0.160879
1702325346937500,-7.625185,-1.24998,4.320364,0.137694,0.301168,0.195779
1702325346945312,-7.531185,-1.13898,4.352364,0.190694,0.230268,0.226879
1702325346953125,-7.443185,-1.9998,4.203364,0.251294,0.153268,0.255379
1702325346960937,-7.413185,-1.18298,3.919364,0.303094,0.64568,0.295879
1702325346968750,-7.447185,-1.15398,3.775364,0.348794,0.26468,0.334579
1702325346976562,-7.527185,-1.5698,3.926364,0.420994,0.8068,0.349679
1702325346984375,-7.629185,-1.13698,4.32364,0.459794,0.16832,0.355979
1702325346992187,-7.712185,-1.29598,4.214364,0.451494,0.42132,0.358079
1702325347000000,-7.788185,-1.51698,4.385364,0.440094,0.62332,0.361679
1702325347007812,-7.835185,-1.79498,4.644364,0.417194,0.42732,0.337579
1702325347015625,-7.765185,-2.10798,4.822364,0.372294,0.49532,0.332979
1702325347023437,-7.691185,-2.38598,4.941364,0.342694,0.60932,0.318879
1702325347031250,-7.652185,-2.74198,4.952364,0.300294,0.85232,0.292379
1702325347039062,-7.877185,-4.9698,5.422364,0.285594,0.51068,0.249079
1702325347046875,-7.990185,-4.56298,6.194364,0.275294,0.171168,0.162979
1702325347054687,-8.368185,-3.55698,7.146364,0.291894,0.161268,0.88879
1702325347062500,-8.888185,-2.46998,8.536364,0.461794,0.197568,0.7379
1702325347070312,-8.836185,-1.89198,9.495364,0.672594,0.160368,0.123721
1702325347078125,-8.810185,-1.41298,10.198364,0.815394,0.27132,0.269221
1702325347085937,-9.156185,0.52498,10.295364,0.884094,0.335432,0.430921
1702325347093750,-9.550185,0.3598,9.647364,0.897794,0.686632,0.604421
1702325347101562,-9.550185,0.67598,7.726364,0.818894,1.34532,0.772021
1702325347109375,-9.230185,-1.67498,5.482364,0.527594,1.309732,0.850921
1702325347117187,-8.936185,-2.55398,3.599364,0.139094,1.442732,0.846921
1702325347125000,-8.276185,-3.3698,2.231364,0.167906,1.392832,0.834221
1702325347132812,-7.539185,-2.71198,1.123364,0.324406,1.296132,0.749121
1702325347140625,-6.899185,-2.41698,0.218364,0.318106,1.48232,0.589621
1702325347148437,-6.186185,-2.26798,0.92364,0.106906,0.687832,0.378221
1702325347156250,-5.953185,-1.97298,0.52364,0.224894,0.492832,0.141221
1702325347164062,-6.551185,0.88898,0.642364,0.403994,0.345032,0.66779
1702325347171875,-7.340185,0.51102,2.118364,0.479394,0.178232,0.181079
1702325347179687,-7.760185,1.37402,3.333364,0.555094,0.136132,0.239779
1702325347187500,-7.952185,2.18502,4.353364,0.424394,0.243132,0.319379
1702325347195312,-8.447185,3.3102,5.545364,0.155694,0.600232,0.378479
1702325347203125,-9.252185,2.90202,5.856364,0.72294,1.158632,0.364179
1702325347210937,-10.353185,2.43502,5.218364,0.156194,1.674532,0.313679
1702325347218750,-11.519185,1.97402,3.923364,0.228294,2.73932,0.267179
1702325347226562,-12.508185,1.39802,2.299364,0.162894,2.172032,0.262679
1702325347234375,-13.93185,0.42402,0.943364,0.49794,1.902532,0.298879
1702325347242187,-13.233185,0.67798,0.115636,0.48506,1.413632,0.297879
1702325347250000,-12.790185,-1.57198,0.399636,0.196106,0.846532,0.269479
1702325347257812,-11.853185,-2.10698,0.309364,0.252206,0.418832,0.244279
1702325347265625,-10.739185,-2.23298,1.381364,0.115206,0.169732,0.271879
1702325347273437,-9.731185,-1.97298,2.421364,0.28494,0.75832,0.337279
1702325347281250,-9.69185,-1.62598,3.171364,0.111694,0.56332,0.408879
1702325347289062,-8.741185,-1.17098,3.509364,0.157494,0.70132,0.477679
1702325347296875,-8.711185,0.82598,3.489364,0.152194,0.167632,0.533579
1702325347304687,-8.883185,0.72798,3.269364,0.150594,0.289132,0.590679
1702325347312500,-9.139185,0.60498,2.947364,0.128894,0.363732,0.614479
1702325347320312,-9.365185,0.54398,2.694364,0.83394,0.409332,0.602279
1702325347328125,-9.641185,0.54598,2.375364,0.44594,0.466732,0.569279
1702325347335937,-9.781185,0.69298,1.899364,0.49694,0.513032,0.527679
1702325347343750,-9.913185,0.75598,1.474364,0.50594,0.489132,0.482379
1702325347351562,-9.973185,0.89198,1.298364,0.49494,0.365932,0.429679
1702325347359375,-9.848185,-1.498,1.462364,0.23394,0.218132,0.383579
1702325347367187,-9.613185,-1.5698,1.847364,0.56406,0.95332,0.341579
1702325347375000,-9.387185,-1.13798,2.167364,0.137106,0.54332,0.314779
1702325347382812,-9.224185,-1.20898,2.196364,0.171406,0.61732,0.291179
1702325347390625,-9.306185,-1.32398,1.955364,0.155706,0.101432,0.268779
1702325347398437,-9.618185,-1.18798,1.627364,0.114906,0.124432,0.260379
1702325347406250,-9.971185,0.86598,1.469364,0.85906,0.72232,0.240279
1702325347414062,-10.79185,0.60698,1.598364,0.76506,0.63868,0.213279
1702325347421875,-9.900185,0.22998,2.78364,0.101406,0.198668,0.181779
1702325347429687,-9.617185,0.5698,2.470364,0.116106,0.239168,0.139779
1702325347437500,-9.282185,0.6502,2.672364,0.97906,0.216268,0.87979
1702325347445312,-9.22185,0.3698,2.557364,0.50406,0.145368,0.36379
1702325347453125,-8.880185,0.21698,2.465364,0.46506,0.128268,0.11821
1702325347460937,-8.956185,0.24498,2.366364,0.49206,0.111768,0.42321
1702325347468750,-9.190185,0.35398,2.190364,0.34706,0.91168,0.50621
1702325347476562,-9.385185,0.41298,2.172364,0.50806,0.106368,0.92621
1702325347484375,-9.509185,0.39998,2.264364,0.69006,0.167968,0.112121
1702325347492187,-9.605185,0.45898,2.280364,0.109406,0.224468,0.128021
1702325347500000,-9.623185,0.71298,2.129364,0.170906,0.194968,0.167921
1702325347507812,-9.539185,0.94098,1.710364,0.225806,0.167068,0.203821
1702325347515625,-9.400185,-1.5598,1.357364,0.271706,0.208268,0.239221
1702325347523437,-9.225185,-1.14998,1.185364,0.263406,0.276468,0.250921
1702325347531250,-9.78185,-1.5898,1.354364,0.209806,0.343868,0.239221
1702325347539062,-9.176185,0.83298,1.978364,0.183006,0.400668,0.209521
1702325347546875,-9.399185,0.50498,2.751364,0.186106,0.458068,0.192121
1702325347554687,-9.565185,0.12598,3.474364,0.188206,0.457568,0.174221
1702325347562500,-9.737185,0.9202,3.609364,0.151706,0.330068,0.156021
1702325347570312,-9.922185,0.15702,2.983364,0.59006,0.196568,0.120721
1702325347578125,-10.160185,0.26802,2.305364,0.19494,0.164168,0.83921
1702325347585937,-10.485185,0.49502,2.182364,0.34994,0.274768,0.54021
1702325347593750,-10.387185,0.70202,2.639364,0.37894,0.449168,0.45921
1702325347601562,-8.934185,0.82002,3.574364,0.6006,0.631268,0.58121
1702325347609375,-7.457185,0.63402,4.420364,0.34206,0.570968,0.71921
1702325347617187,-7.229185,0.1202,4.600364,0.22506,0.216868,0.74221
1702325347625000,-8.929185,0.80498,3.872364,0.74794,0.183532,0.46721
1702325347632812,-10.905185,-1.22998,2.643364,0.200994,0.337032,0.1621
1702325347640625,-11.540185,-1.498,1.755364,0.243494,0.136232,0.72179
1702325347648437,-10.924185,0.48598,1.672364,0.197894,0.188168,0.153079
1702325347656250,-10.3185,0.702,2.416364,0.131694,0.379968,0.185879
1702325347664062,-9.428185,0.21502,3.109364,0.109394,0.356568,0.184879
1702325347671875,-9.119185,0.21902,3.296364,0.109994,0.234568,0.177879
1702325347679687,-9.122185,0.29002,3.71364,0.95594,0.119068,0.165779
1702325347687500,-9.520185,0.20602,2.697364,0.65394,0.9668,0.157179
1702325347695312,-9.957185,0.31098,2.591364,0.59494,0.8432,0.133179
1702325347703125,-9.956185,0.53598,3.145364,0.11194,0.87268,0.87579
1702325347710937,-9.668185,0.59698,3.836364,0.41506,0.153068,0.55779
1702325347718750,-9.294185,0.77098,3.843364,0.36406,0.89568,0.25379
1702325347726562,-9.36185,0.86298,3.476364,0.47106,0.11232,0.4621
1702325347734375,-8.980185,-1.1698,3.320364,0.118806,0.11768,0.20221
1702325347742187,-9.115185,-1.2598,3.584364,0.173106,0.97768,0.29721
1702325347750000,-9.271185,-1.8298,3.865364,0.155206,0.149568,0.28921
1702325347757812,-9.312185,-1.17998,4.18364,0.134906,0.173368,0.29121
1702325347765625,-9.361185,-1.22598,4.113364,0.139706,0.212168,0.21121
1702325347773437,-9.476185,-1.17998,4.68364,0.128606,0.215968,0.19821
1702325347781250,-9.450185,0.98998,3.699364,0.96006,0.201168,0.8821
1702325347789062,-9.329185,0.81898,3.172364,0.90506,0.231568,0.26679
1702325347796875,-9.41185,0.56498,2.722364,0.139606,0.274368,0.62379
1702325347804687,-8.577185,0.7098,2.222364,0.156006,0.305168,0.99679
1702325347812500,-8.103185,0.44702,1.711364,0.140706,0.270568,0.131679
1702325347820312,-7.846185,0.62402,1.305364,0.84306,0.133768,0.149979
1702325347828125,-8.226185,0.82802,0.959364,0.22594,0.50832,0.159679
1702325347835937,-8.824185,0.98102,0.781364,0.81694,0.192432,0.127879
1702325347843750,-9.101185,1.302,1.47364,0.53994,0.209232,0.91279
1702325347851562,-9.134185,0.95702,1.605364,0.7306,0.189332,0.35279
1702325347859375,-9.75185,0.62002,2.53364,0.79706,0.223632,0.33121
1702325347867187,-9.15185,0.8202,2.161364,0.114906,0.310032,0.93621
1702325347875000,-9.100185,0.37398,1.776364,0.116506,0.371832,0.131621
1702325347882812,-9.322185,0.53798,1.192364,0.73506,0.376932,0.140521
1702325347890625,-9.587185,0.41498,0.652364,0.1894,0.310932,0.143221
1702325347898437,-9.787185,0.15098,0.368364,0.121594,0.173532,0.126221
1702325347906250,-9.821185,0.14402,0.474364,0.250494,0.25832,0.113921
1702325347914062,-9.719185,0.43202,1.67364,0.306894,0.110268,0.112821
1702325347921875,-9.618185,0.65402,1.927364,0.321394,0.237468,0.129521
1702325347929687,-9.370185,0.59702,2.799364,0.305494,0.350568,0.156121
1702325347937500,-9.226185,0.51402,3.434364,0.290894,0.372868,0.180521
1702325347945312,-9.162185,0.29102,3.470364,0.292694,0.312168,0.212421
1702325347953125,-9.206185,0.22498,3.202364,0.271094,0.239168,0.266321
1702325347960937,-9.392185,0.82098,2.787364,0.226394,0.175468,0.321921
1702325347968750,-9.628185,-1.26998,2.503364,0.144994,0.196868,0.389021
1702325347976562,-9.791185,-1.65798,2.469364,0.61794,0.278468,0.441921
1702325347984375,-9.784185,-2.4998,2.597364,0.11506,0.388968,0.485621
1702325347992187,-9.625185,-2.18698,2.667364,0.62206,0.483968,0.501921
1702325348000000,-9.545185,-2.3398,2.559364,0.101106,0.556568,0.511521
1702325348007812,-9.303185,-1.75298,2.509364,0.85406,0.639668,0.541621
1702325348015625,-9.180185,-1.74198,2.658364,0.50806,0.678068,0.545321
1702325348023437,-9.406185,-1.50098,2.897364,0.51206,0.652568,0.524321
1702325348031250,-9.388185,-1.8698,3.251364,0.46506,0.722468,0.513421
1702325348039062,-9.359185,0.69498,3.596364,0.48506,0.765668,0.497421
1702325348046875,-9.384185,0.36398,3.636364,0.53606,0.735168,0.476221
1702325348054687,-9.295185,0.1402,3.751364,0.55706,0.738768,0.447221
1702325348062500,-9.312185,0.8502,3.889364,0.64206,0.696668,0.419421
1702325348070312,-9.330185,0.2698,3.913364,0.105706,0.655068,0.386521
1702325348078125,-9.130185,0.18998,3.875364,0.152206,0.615168,0.358121
1702325348085937,-8.857185,0.27198,3.776364,0.171906,0.581468,0.317421
1702325348093750,-8.520185,0.12198,3.598364,0.129206,0.530168,0.285121
1702325348101562,-8.350185,0.6602,3.472364,0.87106,0.425468,0.233121
1702325348109375,-8.346185,0.11002,3.429364,0.35506,0.293168,0.187621
1702325348117187,-8.536185,0.6398,3.382364,0.14594,0.201568,0.135821
1702325348125000,-8.666185,0.2202,3.708364,0.23306,0.244368,0.108221
1702325348132812,-8.633185,0.22402,4.530364,0.125806,0.326868,0.120721
1702325348140625,-8.244185,0.4098,5.46364,0.186506,0.343068,0.142721
1702325348148437,-7.856185,0.46498,4.850364,0.212106,0.288268,0.146721
1702325348156250,-7.811185,0.59798,4.485364,0.265706,0.238068,0.139421
1702325348164062,-8.42185,0.74798,4.325364,0.336406,0.225168,0.133621
1702325348171875,-8.311185,0.68598,4.167364,0.328006,0.209168,0.159621
1702325348179687,-8.475185,0.83198,3.841364,0.273206,0.204668,0.174421
1702325348187500,-8.485185,-1.6998,3.802364,0.214606,0.243568,0.199521
1702325348195312,-8.582185,-1.19598,4.230364,0.222606,0.300168,0.227521
1702325348203125,-8.810185,-1.40898,5.106364,0.305106,0.375668,0.232021
1702325348210937,-9.38185,-1.66898,6.63364,0.435206,0.423468,0.218021
1702325348218750,-9.358185,-1.75498,6.529364,0.597606,0.388168,0.174021
1702325348226562,-9.659185,-1.65598,6.543364,0.695506,0.331268,0.109121
1702325348234375,-9.971185,-1.47498,6.151364,0.666906,0.271368,0.36921
1702325348242187,-10.55185,-1.74498,5.656364,0.539306,0.304968,0.10079
1702325348250000,-9.785185,-2.17898,5.730364,0.444206,0.448068,0.86879
1702325348257812,-9.485185,-2.198,6.390364,0.434906,0.605168,0.186279
1702325348265625,-9.5185,-2.17498,6.608364,0.439706,0.618068,0.289279
1702325348273437,-8.427185,-2.62598,5.937364,0.473906,0.470468,0.371579
1702325348281250,-8.2185,-2.37298,5.22364,0.467906,0.394868,0.457379
1702325348289062,-7.735185,-1.58598,4.491364,0.415506,0.470668,0.528779
1702325348296875,-7.424185,0.77998,4.282364,0.356706,0.538768,0.574679
1702325348304687,-6.923185,0.14198,4.264364,0.285606,0.556068,0.571779
1702325348312500,-6.683185,0.58102,4.118364,0.227506,0.472268,0.512479
1702325348320312,-6.941185,1.28802,3.911364,0.184106,0.325268,0.424079
1702325348328125,-7.95185,1.10702,3.909364,0.37506,0.193668,0.269979
1702325348335937,-7.353185,0.74402,3.774364,0.126294,0.27068,0.162979
1702325348343750,-7.719185,0.2102,3.406364,0.264794,0.87832,0.105679
1702325348351562,-8.22185,0.92898,3.215364,0.359894,0.111932,0.100179
1702325348359375,-8.282185,-1.67198,3.59364,0.397894,0.132832,0.156379
1702325348367187,-8.514185,-2.40598,3.101364,0.405694,0.161532,0.235479
1702325348375000,-8.763185,-3.11398,3.139364,0.384594,0.198732,0.336079
1702325348382812,-9.256185,-3.72598,3.90364,0.262794,0.277632,0.428679
1702325348390625,-10.100185,-4.1598,3.83364,0.98094,0.363032,0.498679
1702325348398437,-10.815185,-4.4298,3.220364,0.15794,0.341732,0.539879
1702325348406250,-11.96185,-3.87798,3.355364,0.5494,0.306832,0.528279
1702325348414062,-10.729185,-3.32798,3.101364,0.12106,0.284632,0.467179
1702325348421875,-10.54185,-2.62598,3.268364,0.38606,0.205932,0.342379
1702325348429687,-9.786185,-1.99198,3.730364,0.92206,0.253132,0.174079
1702325348437500,-10.76185,-1.39098,4.120364,0.109606,0.357232,0.12221
1702325348445312,-10.287185,-1.12598,4.149364,0.69806,0.411532,0.207721
1702325348453125,-10.283185,0.93298,3.875364,0.57806,0.413632,0.335421
1702325348460937,-10.84185,-1.498,3.654364,0.51306,0.351132,0.392521
1702325348468750,-9.711185,-1.25398,3.604364,0.41006,0.256232,0.404621
1702325348476562,-9.319185,-1.34298,3.780364,0.34606,0.171232,0.389121
1702325348484375,-8.887185,-1.39398,3.780364,0.41306,0.138932,0.365021
1702325348492187,-8.422185,-1.35698,3.701364,0.50106,0.128632,0.311721
1702325348500000,-8.259185,-1.28598,3.721364,0.54406,0.145132,0.264721
1702325348507812,-8.211185,-1.29298,3.653364,0.64206,0.171132,0.222821
1702325348515625,-8.441185,-1.27598,3.442364,0.64106,0.188132,0.174021
1702325348523437,-8.812185,-1.26198,3.275364,0.77406,0.203832,0.130321
1702325348531250,-9.221185,-1.12098,3.102364,0.67506,0.175232,0.85221
1702325348539062,-9.444185,0.93898,3.48364,0.73806,0.120232,0.55021
1702325348546875,-9.469185,0.69298,3.48364,0.73006,0.78632,0.22821
1702325348554687,-9.410185,0.40398,3.93364,0.59006,0.22932,0.2479
1702325348562500,-9.232185,0.29398,3.240364,0.34006,0.2968,0.8479
1702325348570312,-9.55185,0.26098,3.343364,0.494,0.21332,0.6679
1702325348578125,-8.989185,0.32198,3.319364,0.27194,0.65932,0.14221
1702325348585937,-8.996185,0.53398,3.359364,0.49694,0.102432,0.30721
1702325348593750,-8.999185,0.69798,3.366364,0.85594,0.124332,0.40521
1702325348601562,-8.929185,0.84098,3.379364,0.121994,0.110232,0.34821
1702325348609375,-8.916185,0.97698,3.366364,0.130794,0.119432,0.26521
1702325348617187,-9.40185,-1.8298,3.280364,0.145894,0.127832,0.8821
1702325348625000,-9.113185,-1.12698,3.230364,0.162894,0.130832,0.8679
1702325348632812,-9.110185,-1.1498,3.149364,0.175494,0.110032,0.30779
1702325348640625,-9.120185,0.82298,3.26364,0.188994,0.101232,0.46979
1702325348648437,-9.171185,0.73998,3.77364,0.191694,0.87032,0.61479
1702325348656250,-9.270185,0.72498,3.208364,0.184094,0.71732,0.62879
1702325348664062,-9.383185,0.75698,3.249364,0.193194,0.61332,0.66279
1702325348671875,-9.349185,0.83198,3.120364,0.217594,0.43132,0.60479
1702325348679687,-9.206185,0.83698,3.53364,0.222194,0.16132,0.58879
1702325348687500,-9.11185,0.91298,3.102364,0.212894,0.17768,0.53979
1702325348695312,-8.877185,-1.398,3.273364,0.197394,0.24068,0.44479
1702325348703125,-8.878185,-1.8198,3.217364,0.184994,0.14768,0.42979
1702325348710937,-8.918185,-1.13598,3.104364,0.180494,0.11968,0.41279
1702325348718750,-8.870185,-1.15498,3.104364,0.164694,0.4968,0.36779
1702325348726562,-8.757185,-1.22498,3.118364,0.155594,0.5468,0.31979
1702325348734375,-8.665185,-1.22198,3.212364,0.119294,0.1832,0.29379
1702325348742187,-8.576185,-1.26798,3.291364,0.87594,0.27932,0.37979
1702325348750000,-8.577185,-1.23098,3.226364,0.72994,0.49732,0.44879
1702325348757812,-8.725185,-1.9898,3.280364,0.40194,0.58632,0.51579
1702325348765625,-8.938185,-1.498,3.296364,0.47394,0.59132,0.72679
1702325348773437,-9.144185,0.90698,3.199364,0.52294,0.50432,0.72379
1702325348781250,-9.297185,0.86398,3.199364,0.33494,0.43832,0.74179
1702325348789062,-9.441185,0.85598,3.215364,0.30494,0.25832,0.77279
1702325348796875,-9.550185,0.83398,3.228364,0.17894,0.19232,0.82279
1702325348804687,-9.596185,0.89298,3.228364,0.24194,0.3168,0.77279
1702325348812500,-9.548185,0.93198,3.206364,0.10194,0.35668,0.77279
1702325348820312,-9.377185,0.92298,3.251364,0.14306,0.69268,0.75479
1702325348828125,-9.227185,0.94798,3.431364,0.38006,0.94468,0.74179
1702325348835937,-8.955185,-1.33098,3.728364,0.37606,0.124768,0.76979
1702325348843750,-8.477185,-1.61498,3.649364,0.28306,0.134868,0.92879
1702325348851562,-7.923185,-1.64598,3.487364,0.39006,0.158068,0.162279
1702325348859375,-7.509185,-1.40898,3.726364,0.73606,0.167968,0.243379
1702325348867187,-7.790185,0.51298,4.122364,0.95906,0.81468,0.307279
1702325348875000,-8.704185,0.502,4.281364,0.91206,0.92332,0.323079
1702325348882812,-9.641185,0.3398,4.39364,0.68206,0.227832,0.244479
1702325348890625,-10.169185,0.49598,3.710364,0.33706,0.307132,0.133379
1702325348898437,-10.334185,-1.8998,3.278364,0.36406,0.315132,0.44479
1702325348906250,-10.205185,-1.61298,3.36364,0.55606,0.246732,0.2379
1702325348914062,-9.880185,-1.71298,3.61364,0.79706,0.134832,0.1621
1702325348921875,-9.579185,-1.54498,3.180364,0.89006,0.44632,0.23679
1702325348929687,-9.297185,-1.28798,3.289364,0.93406,0.15668,0.24979
1702325348937500,-9.38185,0.93998,3.447364,0.113906,0.57268,0.23579
1702325348945312,-8.849185,0.60698,3.618364,0.132506,0.91168,0.47479
1702325348953125,-8.746185,0.31798,3.751364,0.127006,0.98968,0.76579
1702325348960937,-8.688185,0.13998,3.812364,0.83806,0.85068,0.92479
1702325348968750,-8.668185,0.1098,3.846364,0.41506,0.48368,0.101679
1702325348976562,-8.641185,0.202,3.920364,0.13506,0.12268,0.100079
1702325348984375,-8.644185,0.11098,3.956364,0.8194,0.17232,0.99979
1702325348992187,-8.697185,0.43798,4.104364,0.19394,0.36332,0.91779
1702325349000000,-8.901185,0.72298,4.172364,0.22594,0.62332,0.83879
1702325349007812,-9.164185,0.78198,4.55364,0.42894,0.74432,0.74179
1702325349015625,-9.341185,0.77198,3.947364,0.69594,0.58032,0.80179
1702325349023437,-9.384185,0.78698,4.86364,0.73094,0.28632,0.70279
1702325349031250,-9.416185,0.75498,4.194364,0.79494,0.5732,0.71579
1702325349039062,-9.411185,0.77698,4.203364,0.90894,0.0,0.66379
1702325349046875,-9.416185,0.75998,4.140364,0.107694,0.18268,0.71279
1702325349054687,-9.430185,0.67698,4.116364,0.129794,0.61968,0.96279
1702325349062500,-9.313185,0.56698,4.71364,0.149694,0.111968,0.120079
1702325349070312,-9.119185,0.30798,4.59364,0.179394,0.148568,0.148379
1702325349078125,-9.1185,0.1202,4.127364,0.199394,0.177868,0.170579
1702325349085937,-8.860185,0.24502,4.224364,0.208794,0.166068,0.164179
1702325349093750,-8.752185,0.21202,4.143364,0.249394,0.106268,0.162379
1702325349101562,-8.775185,0.26602,4.21364,0.303794,0.83268,0.178079
1702325349109375,-8.979185,0.33502,3.961364,0.354594,0.80268,0.200479
1702325349117187,-9.125185,0.36002,3.983364,0.432494,0.90968,0.241279
1702325349125000,-9.239185,0.62802,4.168364,0.507294,0.125568,0.278879
1702325349132812,-9.434185,0.83002,4.207364,0.564594,0.134568,0.300979
1702325349140625,-9.472185,0.84602,3.853364,0.612894,0.129668,0.311779
1702325349148437,-9.284185,0.62802,3.580364,0.681994,0.145168,0.326779
1702325349156250,-9.18185,0.41102,3.555364,0.736494,0.148068,0.339179
1702325349164062,-8.900185,0.34702,3.488364,0.787894,0.136268,0.345179
1702325349171875,-8.879185,0.28302,3.362364,0.825494,0.110568,0.347979
1702325349179687,-8.930185,0.26802,3.434364,0.862394,0.67668,0.364179
1702325349187500,-8.977185,0.8202,3.407364,0.913494,0.11468,0.368979
1702325349195312,-8.964185,0.7598,3.371364,0.962594,0.64132,0.391679
1702325349203125,-8.974185,0.24198,3.154364,0.997894,0.106432,0.420579
1702325349210937,-9.6185,0.23698,2.870364,0.977894,0.93032,0.407679
1702325349218750,-9.25185,0.45498,2.997364,0.936994,0.60232,0.400279
1702325349226562,-9.29185,0.65598,2.992364,0.899694,0.24432,0.416179
1702325349234375,-9.171185,0.46698,3.150364,0.877994,0.8368,0.417779
1702325349242187,-9.304185,0.40698,3.411364,0.892494,0.6132,0.396679
1702325349250000,-9.372185,0.28698,3.346364,0.892494,0.67432,0.366679
1702325349257812,-9.428185,0.38598,3.75364,0.894294,0.86832,0.355379
1702325349265625,-9.528185,0.59898,2.886364,0.888094,0.65232,0.361679
