time,Acceleration X (m/s^2),Acceleration Y (m/s^2),Acceleration Z (m/s^2),Angular Velocity X (rad/s),Angular Velocity Y (rad/s),Angular Velocity Z (rad/s)
1702325222101562,-7.009183,-1.272806,-0.226274,1.452561,,
1702325222109375,-6.903183,0.993026,-1.474806,0.225374,1.468761,0.21063
1702325222117187,-6.852183,0.952026,-1.767806,0.228074,1.469761,0.14463
1702325222125000,-6.810183,0.875026,-2.52806,0.218274,1.485661,0.11163
1702325222132812,-6.938183,0.911026,-2.305806,0.233074,1.486861,0.8063
1702325222140625,-7.131183,0.927026,-2.501806,0.244474,1.471661,0.14437
1702325222156250,-7.576183,0.957026,-2.736806,0.272474,1.416461,0.38437
1702325222164062,-7.621183,0.976026,-2.813806,0.269674,1.378761,0.64037
1702325222171875,-7.670183,0.980026,-2.770806,0.267874,1.345061,0.93037
1702325222179687,-7.708183,0.973026,-2.614806,0.257074,1.327761,0.120237
1702325222203125,-7.777183,0.821026,-2.591806,0.253174,1.324561,0.173037
1702325222210937,-7.904183,0.765026,-2.733806,0.218974,1.315861,0.179637
1702325222218750,-7.965183,0.638026,-2.867806,0.182874,1.269561,0.178137
1702325222226562,-7.981183,0.604026,-2.979806,0.161374,1.223561,0.192737
1702325222234375,-7.929183,0.673026,-3.99806,0.145674,1.190061,0.197437
1702325222242187,-7.802183,0.677026,-3.158806,0.140274,1.165661,0.195937
1702325222250000,-7.792183,0.889026,-3.192806,0.162974,1.188961,0.192737
1702325222257812,-7.854183,0.990026,-3.334806,0.198574,1.230761,0.175037
1702325222265625,-7.886183,1.234026,-3.407806,0.257474,1.281261,0.166737
1702325222273437,-7.987183,1.446026,-3.440806,0.293274,1.336361,0.134437
1702325222281250,-8.8183,1.468026,-3.510806,0.304074,1.371461,0.123437
1702325222289062,-8.46183,1.582026,-3.558806,0.336374,1.343261,0.125037
1702325222296875,-8.155183,1.795026,-3.655806,0.401874,1.290561,0.120337
1702325222304687,-8.345183,1.863026,-3.625806,0.461774,1.274261,0.112237
1702325222312500,-8.435183,1.869026,-3.754806,0.530874,1.274261,0.97737
1702325222320312,-8.437183,1.804026,-3.899806,0.591874,1.246361,0.94637
1702325222328125,-8.414183,1.791026,-4.43806,0.661374,1.266361,0.89737
1702325222335937,-8.341183,1.847026,-4.170806,0.727174,1.269661,0.80137
1702325222343750,-8.213183,1.693026,-4.181806,0.788574,1.256661,0.62437
1702325222351562,-7.987183,1.691026,-4.161806,0.822574,1.291061,0.67237
1702325222359375,-7.772183,1.708026,-4.254806,0.816674,1.304761,0.81637
1702325222367187,-7.753183,1.803026,-4.303806,0.783474,1.330961,0.99137
1702325222375000,-7.843183,1.797026,-4.427806,0.722074,1.380261,0.116937
1702325222382812,-7.979183,1.944026,-4.579806,0.679174,1.396961,0.131237
1702325222390625,-8.106183,2.60026,-4.854806,0.672174,1.383761,0.139437
1702325222398437,-8.201183,1.942026,-5.64806,0.624874,1.332461,0.128237
1702325222406250,-8.152183,1.833026,-5.234806,0.593874,1.260661,0.125137
1702325222414062,-8.44183,1.881026,-5.270806,0.593874,1.184761,0.108837
1702325222421875,-7.881183,1.586026,-5.428806,0.659374,1.160261,0.96237
1702325222429687,-7.665183,1.400026,-5.568806,0.664874,1.212561,0.91137
1702325222437500,-7.670183,1.647026,-5.618806,0.661474,1.335161,0.78537
1702325222445312,-7.526183,1.689026,-5.695806,0.679674,1.427561,0.33337
1702325222453125,-7.300183,1.650026,-5.715806,0.682574,1.460161,0.3563
1702325222460937,-7.67183,1.709026,-5.605806,0.672874,1.459661,0.24463
1702325222468750,-6.757183,1.895026,-5.551806,0.690674,1.460861,0.35763
1702325222476562,-6.679183,2.66026,-5.693806,0.707874,1.433261,0.42063
1702325222484375,-6.588183,2.132026,-5.876806,0.744074,1.371661,0.38663
1702325222492187,-6.546183,2.169026,-6.93806,0.777474,1.262561,0.32063
1702325222500000,-6.656183,2.240026,-6.366806,0.799874,1.136161,0.12763
1702325222507812,-6.815183,2.342026,-6.596806,0.787974,1.15161,0.17837
1702325222515625,-7.60183,2.401026,-6.813806,0.766374,0.886461,0.45337
1702325222523437,-7.212183,2.457026,-7.77806,0.722674,0.755461,0.79137
1702325222531250,-7.179183,2.613026,-7.154806,0.631474,0.640961,0.93737
1702325222539062,-7.109183,2.752026,-7.102806,0.573074,0.534661,0.95337
1702325222546875,-6.917183,2.795026,-6.931806,0.548374,0.464661,0.92237
1702325222554687,-6.756183,2.770026,-6.597806,0.525174,0.438861,0.89237
1702325222562500,-6.608183,2.731026,-6.242806,0.523674,0.466661,0.77937
1702325222570312,-6.531183,2.714026,-6.12806,0.515774,0.512961,0.55337
1702325222578125,-6.593183,2.797026,-5.976806,0.527074,0.572061,0.34437
1702325222585937,-6.777183,2.965026,-6.185806,0.588274,0.598761,0.29637
1702325222593750,-6.948183,3.95026,-6.560806,0.687474,0.569461,0.2537
1702325222601562,-7.65183,3.246026,-6.874806,0.757174,0.513961,0.837
1702325222609375,-7.171183,3.394026,-7.242806,0.813274,0.492361,0.763
1702325222617187,-7.253183,3.404026,-7.678806,0.829874,0.490861,0.28137
1702325222625000,-7.448183,3.533026,-8.132806,0.789674,0.516361,0.52237
1702325222632812,-7.657183,3.606026,-8.443806,0.758874,0.502861,0.65137
1702325222640625,-7.735183,3.570026,-8.581806,0.715574,0.499461,0.74737
1702325222648437,-7.669183,3.379026,-8.554806,0.677174,0.500761,0.82737
1702325222656250,-7.543183,3.169026,-8.410806,0.633674,0.533961,0.85937
1702325222664062,-7.447183,3.30026,-8.267806,0.625874,0.596661,0.97137
1702325222671875,-7.402183,2.994026,-8.82806,0.617874,0.635961,0.103637
1702325222679687,-7.308183,3.33026,-7.983806,0.602574,0.669561,0.111437
1702325222687500,-7.299183,3.181026,-7.969806,0.623874,0.694461,0.125837
1702325222695312,-7.403183,3.412026,-8.39806,0.630474,0.716261,0.129037
1702325222703125,-7.628183,3.721026,-8.256806,0.663974,0.731961,0.106637
1702325222710937,-7.954183,3.903026,-8.586806,0.712374,0.683061,0.95337
1702325222718750,-8.247183,4.2026,-8.883806,0.749774,0.579161,0.77937
1702325222726562,-8.437183,4.118026,-9.197806,0.749274,0.465161,0.71537
1702325222734375,-8.516183,4.168026,-9.484806,0.712874,0.337461,0.63637
1702325222742187,-8.432183,4.168026,-9.640806,0.652774,0.232961,0.66937
1702325222750000,-8.249183,4.142026,-9.674806,0.537374,0.186961,0.60737
1702325222757812,-8.100183,4.67026,-9.502806,0.410874,0.160961,0.48037
1702325222765625,-8.2183,3.926026,-9.168806,0.315474,0.151761,0.40037
1702325222773437,-7.961183,3.872026,-8.931806,0.250874,0.126561,0.27137
1702325222781250,-7.878183,3.931026,-8.886806,0.211774,0.57661,0.11137
1702325222789062,-7.755183,4.71026,-8.940806,0.174274,0.14161,0.8037
1702325222796875,-7.651183,4.171026,-9.26806,0.127274,0.18739,0.1637
1702325222804687,-7.593183,4.289026,-9.123806,0.102474,0.30339,0.137
1702325222812500,-7.616183,4.405026,-9.212806,0.83474,0.37339,0.9563
1702325222820312,-7.675183,4.443026,-9.313806,0.73474,0.43239,0.7863
1702325222828125,-7.675183,4.410026,-9.331806,0.39074,0.55339,0.22263
1702325222835937,-7.616183,4.311026,-9.209806,0.8326,0.71839,0.33363
1702325222843750,-7.482183,4.163026,-8.963806,0.64726,0.73739,0.43063
1702325222851562,-7.349183,3.962026,-8.636806,0.118126,0.91039,0.57463
1702325222859375,-7.271183,3.837026,-8.272806,0.142626,0.103339,0.60563
1702325222867187,-7.299183,3.857026,-8.82806,0.157526,0.104539,0.74963
1702325222875000,-7.347183,3.941026,-8.91806,0.129226,0.138339,0.84463
1702325222882812,-7.343183,4.4026,-8.125806,0.98126,0.194239,0.87863
1702325222890625,-7.321183,4.24026,-8.130806,0.87426,0.254739,0.95763
1702325222898437,-7.179183,4.15026,-8.89806,0.106626,0.284639,0.92563
1702325222906250,-6.985183,3.990026,-8.46806,0.127926,0.249639,0.87663
1702325222914062,-6.912183,4.62026,-8.67806,0.136526,0.183139,0.68563
1702325222921875,-6.948183,4.190026,-8.112806,0.104026,0.129339,0.39663
1702325222929687,-6.931183,4.317026,-8.87806,0.50326,0.153439,0.28563
1702325222937500,-6.841183,4.410026,-7.979806,0.10226,0.198039,0.7563
1702325222945312,-6.753183,4.351026,-7.981806,0.21426,0.212139,0.2037
1702325222953125,-6.671183,4.154026,-7.972806,0.51426,0.200139,0.17937
1702325222960937,-6.616183,3.940026,-7.970806,0.94726,0.163739,0.42037
1702325222968750,-6.632183,3.770026,-7.884806,0.128426,0.140239,0.50037
1702325222976562,-6.756183,3.661026,-7.780806,0.112526,0.121139,0.48537
1702325222984375,-6.815183,3.596026,-7.730806,0.52826,0.148139,0.37237
1702325222992187,-6.816183,3.636026,-7.710806,0.16474,0.189139,0.29237
1702325223000000,-6.773183,3.768026,-7.687806,0.51674,0.198139,0.26037
1702325223007812,-6.694183,3.869026,-7.568806,0.52074,0.212539,0.42037
1702325223015625,-6.591183,3.858026,-7.353806,0.40474,0.200839,0.50137
1702325223023437,-6.574183,3.771026,-7.161806,0.11674,0.175639,0.67837
1702325223031250,-6.661183,3.708026,-7.35806,0.9074,0.144439,0.96637
1702325223039062,-6.709183,3.674026,-7.10806,0.40274,0.141939,0.104537
1702325223046875,-6.694183,3.703026,-7.73806,0.56774,0.156239,0.117337
1702325223054687,-6.651183,3.790026,-7.195806,0.59374,0.153739,0.122337
1702325223062500,-6.605183,3.878026,-7.342806,0.64574,0.146339,0.122237
1702325223070312,-6.638183,3.971026,-7.534806,0.52974,0.105139,0.120737
1702325223078125,-6.806183,4.23026,-7.766806,0.61474,0.77739,0.110937
1702325223085937,-7.74183,4.2026,-8.24806,0.91874,0.73339,0.86837
1702325223093750,-7.275183,3.986026,-8.204806,0.122474,0.73739,0.64337
1702325223101562,-7.353183,4.57026,-8.315806,0.144774,0.50439,0.35437
1702325223109375,-7.372183,4.148026,-8.365806,0.154274,0.639,0.8137
1702325223117187,-7.373183,4.204026,-8.290806,0.128774,0.25361,0.4763
1702325223125000,-7.376183,4.244026,-8.139806,0.107874,0.44061,0.6363
1702325223132812,-7.343183,4.305026,-7.996806,0.94874,0.46061,0.4937
1702325223140625,-7.313183,4.326026,-7.917806,0.67574,0.59161,0.37037
1702325223148437,-7.306183,4.313026,-7.926806,0.35874,0.82561,0.56237
1702325223156250,-7.339183,4.338026,-7.954806,0.20274,0.119861,0.73837
1702325223164062,-7.359183,4.350026,-8.42806,0.30674,0.136461,0.89737
1702325223171875,-7.433183,4.324026,-8.159806,0.12474,0.137261,0.94737
1702325223179687,-7.486183,4.276026,-8.193806,0.24726,0.128061,0.97937
1702325223187500,-7.503183,4.169026,-8.242806,0.46126,0.133561,0.101237
1702325223195312,-7.476183,4.34026,-8.349806,0.65226,0.131361,0.94737
1702325223203125,-7.420183,3.898026,-8.464806,0.104226,0.136261,0.81937
1702325223210937,-7.416183,3.828026,-8.622806,0.129826,0.151361,0.73837
1702325223218750,-7.440183,3.795026,-8.848806,0.150726,0.175961,0.54537
1702325223226562,-7.478183,3.752026,-9.33806,0.194426,0.202661,0.40137
1702325223234375,-7.494183,3.717026,-9.101806,0.247226,0.215661,0.15937
1702325223242187,-7.523183,3.700026,-9.105806,0.305526,0.207661,0.163
1702325223250000,-7.542183,3.713026,-9.96806,0.345026,0.197461,0.19263
1702325223257812,-7.502183,3.757026,-9.53806,0.360026,0.188161,0.41663
1702325223265625,-7.413183,3.835026,-8.922806,0.361626,0.165661,0.59363
1702325223273437,-7.339183,3.921026,-8.767806,0.366726,0.142261,0.70563
1702325223281250,-7.299183,4.19026,-8.561806,0.378826,0.130761,0.78463
1702325223289062,-7.330183,4.46026,-8.392806,0.381626,0.109561,0.83363
1702325223296875,-7.386183,4.14026,-8.234806,0.388826,0.55661,0.86363
1702325223304687,-7.444183,4.1026,-8.157806,0.381126,0.6839,0.87963
1702325223312500,-7.441183,3.948026,-8.85806,0.363726,0.77039,0.89563
1702325223320312,-7.345183,3.884026,-8.53806,0.349126,0.133939,0.99163
1702325223328125,-7.252183,3.802026,-8.80806,0.333526,0.169139,0.94263
1702325223335937,-7.196183,3.748026,-8.107806,0.327626,0.207739,0.97363
1702325223343750,-7.179183,3.706026,-8.134806,0.289026,0.225139,0.105363
1702325223351562,-7.176183,3.640026,-8.153806,0.251326,0.196239,0.111963
1702325223359375,-7.253183,3.541026,-8.200806,0.189026,0.187839,0.123063
1702325223367187,-7.360183,3.435026,-8.292806,0.141326,0.180939,0.137363
1702325223375000,-7.447183,3.353026,-8.380806,0.131526,0.206439,0.150263
1702325223382812,-7.557183,3.294026,-8.556806,0.161726,0.267739,0.153263
1702325223390625,-7.621183,3.309026,-8.793806,0.237326,0.351139,0.148463
1702325223398437,-7.615183,3.346026,-8.942806,0.352926,0.460539,0.128963
1702325223406250,-7.578183,3.383026,-8.996806,0.455226,0.559639,0.111163
1702325223414062,-7.537183,3.396026,-8.933806,0.560026,0.648539,0.82263
1702325223421875,-7.552183,3.438026,-8.825806,0.631326,0.682139,0.62863
1702325223429687,-7.575183,3.470026,-8.662806,0.642626,0.735339,0.58063
1702325223437500,-7.590183,3.456026,-8.500806,0.617326,0.763039,0.64363
1702325223445312,-7.632183,3.395026,-8.323806,0.588226,0.772639,0.72363
1702325223453125,-7.702183,3.317026,-8.143806,0.579926,0.766839,0.77263
1702325223460937,-7.786183,3.270026,-8.39806,0.573026,0.751939,0.78963
1702325223468750,-7.858183,3.251026,-8.18806,0.557326,0.754439,0.78963
1702325223476562,-7.898183,3.194026,-7.994806,0.575026,0.781039,0.70863
1702325223484375,-7.953183,3.150026,-7.984806,0.601126,0.800739,0.57963
1702325223492187,-8.3183,3.63026,-7.960806,0.642926,0.821039,0.49963
1702325223500000,-8.45183,2.886026,-7.937806,0.707326,0.831939,0.40263
1702325223507812,-8.60183,2.668026,-7.917806,0.768726,0.838039,0.35463
1702325223515625,-8.86183,2.491026,-7.876806,0.815526,0.857039,0.43563
1702325223523437,-8.85183,2.387026,-7.826806,0.840426,0.879639,0.49763
1702325223531250,-8.58183,2.248026,-7.723806,0.838526,0.899139,0.57863
1702325223539062,-8.81183,2.155026,-7.693806,0.836826,0.895939,0.54663
1702325223546875,-8.24183,2.90026,-7.659806,0.837126,0.908239,0.62663
1702325223554687,-7.944183,1.965026,-7.585806,0.824426,0.911239,0.67463
1702325223562500,-7.887183,1.895026,-7.470806,0.795426,0.919339,0.73863
1702325223570312,-7.853183,1.855026,-7.278806,0.753726,0.937939,0.75463
1702325223578125,-7.854183,1.870026,-7.149806,0.710726,0.963639,0.73663
1702325223585937,-7.911183,1.939026,-6.986806,0.692726,0.985739,0.62563
1702325223593750,-7.957183,2.38026,-6.815806,0.684526,-1.3239,0.59363
1702325223601562,-7.989183,2.125026,-6.639806,0.692026,-1.22839,0.57863
1702325223609375,-7.921183,2.123026,-6.388806,0.713826,-1.24739,0.57663
1702325223617187,-7.836183,2.147026,-6.162806,0.716726,-1.3439,0.64163
1702325223625000,-7.784183,2.123026,-6.17806,0.708826,0.981239,0.67363
1702325223632812,-7.734183,2.43026,-5.918806,0.688026,0.974739,0.70563
1702325223640625,-7.676183,1.907026,-5.852806,0.670226,0.974739,0.65763
1702325223648437,-7.605183,1.759026,-5.800806,0.654526,0.985339,0.73663
1702325223656250,-7.515183,1.608026,-5.760806,0.652626,-1.3039,0.75363
1702325223664062,-7.421183,1.445026,-5.679806,0.656126,-1.29239,0.72063
1702325223671875,-7.372183,1.354026,-5.613806,0.654626,-1.61839,0.62363
1702325223679687,-7.320183,1.278026,-5.503806,0.633526,-1.88439,0.51163
1702325223687500,-7.270183,1.228026,-5.496806,0.603126,-1.102139,0.44663
1702325223695312,-7.178183,1.191026,-5.439806,0.565926,-1.116339,0.41463
1702325223703125,-7.60183,1.260026,-5.342806,0.521026,-1.102039,0.49463
1702325223710937,-6.930183,1.292026,-5.239806,0.481926,-1.110439,0.47963
1702325223718750,-6.889183,1.331026,-5.121806,0.448226,-1.105539,0.47963
1702325223726562,-6.941183,1.398026,-4.974806,0.446626,-1.107039,0.43163
1702325223734375,-6.995183,1.417026,-4.834806,0.441526,-1.129139,0.36763
1702325223742187,-7.52183,1.442026,-4.597806,0.486726,-1.140139,0.35163
1702325223750000,-7.66183,1.353026,-4.378806,0.528826,-1.134939,0.27063
1702325223757812,-7.116183,1.221026,-4.181806,0.562426,-1.100639,0.20663
1702325223765625,-7.208183,1.68026,-4.37806,0.581426,-1.60139,0.12663
1702325223773437,-7.268183,0.934026,-3.949806,0.580726,-1.32639,0.4763
1702325223781250,-7.269183,0.843026,-3.987806,0.535626,-1.20039,0.7963
1702325223789062,-7.264183,0.806026,-4.66806,0.459826,-1.19939,0.4763
1702325223796875,-7.309183,0.890026,-4.93806,0.410326,-1.19539,0.15963
1702325223804687,-7.348183,0.999026,-4.71806,0.363426,-1.39039,0.30463
1702325223812500,-7.350183,1.13026,-4.10806,0.324826,-1.43839,0.43263
1702325223820312,-7.302183,0.950026,-3.949806,0.306626,-1.32039,0.46563
1702325223828125,-7.296183,0.992026,-3.926806,0.311826,-1.3239,0.44963
1702325223835937,-7.326183,1.15026,-3.904806,0.298526,0.983439,0.46563
1702325223843750,-7.330183,0.898026,-3.915806,0.283926,0.986739,0.48263
1702325223851562,-7.403183,0.790026,-3.912806,0.287326,0.992539,0.40163
1702325223859375,-7.477183,0.652026,-3.903806,0.291926,0.992639,0.27363
1702325223867187,-7.586183,0.582026,-3.716806,0.298726,0.992039,0.28863
1702325223875000,-7.720183,0.526026,-3.546806,0.263526,-1.4339,0.33663
1702325223882812,-7.804183,0.504026,-3.454806,0.245026,-1.4039,0.33863
1702325223890625,-7.840183,0.545026,-3.420806,0.227126,0.996239,0.32263
1702325223898437,-7.818183,0.578026,-3.438806,0.214026,0.984039,0.30663
1702325223906250,-7.809183,0.706026,-3.461806,0.238226,0.953939,0.25863
1702325223914062,-7.809183,0.792026,-3.456806,0.231926,0.938039,0.25763
1702325223921875,-7.832183,0.836026,-3.444806,0.227326,0.915739,0.28963
1702325223929687,-7.857183,0.890026,-3.384806,0.203926,0.894639,0.16263
1702325223937500,-7.890183,0.967026,-3.259806,0.176626,0.894539,0.14663
1702325223945312,-7.961183,0.942026,-3.185806,0.134526,0.908739,0.11463
1702325223953125,-8.44183,0.939026,-3.146806,0.94226,0.922739,0.6663
1702325223960937,-8.69183,0.921026,-3.99806,0.80226,0.925639,0.25863
1702325223968750,-7.968183,0.904026,-3.31806,0.68926,0.928839,0.27463
1702325223976562,-7.884183,0.888026,-2.846806,0.65426,0.945239,0.37163
1702325223984375,-7.794183,0.854026,-2.605806,0.78126,0.928239,0.38763
1702325223992187,-7.659183,0.818026,-2.361806,0.63626,0.904839,0.41963
1702325224000000,-7.632183,0.798026,-2.221806,0.52226,0.890539,0.33963
1702325224007812,-7.588183,0.693026,-2.126806,0.50226,0.853139,0.19563
1702325224015625,-7.681183,0.622026,-2.45806,0.42926,0.827339,0.8563
1702325224023437,-7.722183,0.797026,-1.941806,0.51126,0.802039,0.8463
1702325224031250,-7.849183,0.843026,-2.108806,0.49726,0.773239,0.3563
1702325224039062,-7.928183,0.805026,-2.141806,0.55726,0.769139,0.2737
1702325224046875,-7.951183,0.773026,-2.67806,0.54626,0.788539,0.10937
1702325224054687,-8.34183,0.814026,-1.961806,0.56226,0.819539,0.28637
1702325224062500,-8.53183,0.868026,-1.859806,0.54526,0.843239,0.33337
1702325224070312,-8.55183,1.1026,-1.807806,0.57826,0.841739,0.28537
1702325224078125,-8.36183,1.91026,-1.748806,0.40026,0.844839,0.26937
1702325224085937,-8.26183,1.133026,-1.690806,0.31926,0.843039,0.39837
1702325224093750,-8.85183,1.238026,-1.687806,0.20126,0.823339,0.44537
1702325224101562,-8.63183,1.202026,-1.712806,0.13274,0.830439,0.46237
1702325224109375,-8.54183,1.67026,-1.742806,0.42474,0.835239,0.52637
1702325224117187,-8.26183,0.991026,-1.687806,0.48774,0.841039,0.62337
1702325224125000,-8.33183,0.890026,-1.581806,0.50874,0.853939,0.79837
1702325224132812,-8.92183,0.814026,-1.486806,0.52674,0.882339,0.84637
1702325224140625,-8.89183,0.729026,-1.371806,0.48674,0.901539,0.89637
1702325224148437,-8.62183,0.714026,-1.385806,0.47474,0.916339,0.86337
1702325224156250,-8.92183,0.720026,-1.423806,0.48574,0.937339,0.96137
1702325224164062,-8.87183,0.745026,-1.464806,0.42474,0.945639,0.97637
1702325224171875,-8.139183,0.804026,-1.486806,0.39774,0.941439,0.107137
1702325224179687,-8.189183,0.826026,-1.482806,0.45874,0.950439,0.110437
1702325224187500,-8.190183,0.875026,-1.437806,0.47474,0.940839,0.112037
1702325224195312,-8.177183,0.919026,-1.290806,0.62274,0.927039,0.112037
1702325224203125,-8.111183,1.15026,-1.172806,0.83174,0.947539,0.110437
1702325224210937,-8.93183,1.13026,-1.50806,0.102374,0.964439,0.112037
1702325224218750,-8.89183,1.31026,0.965806,0.98174,0.955839,0.121537
1702325224226562,-8.103183,1.8026,0.965806,0.108674,0.960939,0.124937
1702325224234375,-8.63183,0.971026,-1.5806,0.115674,0.977139,0.132837
1702325224242187,-8.25183,0.952026,0.976806,0.100874,0.986039,0.139337
1702325224250000,-7.956183,0.841026,0.829806,0.78674,0.995839,0.147337
1702325224257812,-7.862183,0.759026,0.698806,0.81174,0.988539,0.145837
1702325224265625,-7.836183,0.753026,0.475806,0.74074,0.967839,0.147237
1702325224273437,-7.792183,0.758026,0.231806,0.93274,0.933339,0.134437
1702325224281250,-7.840183,0.785026,0.66806,0.101274,0.888239,0.113537
1702325224289062,-8.12183,0.934026,0.102806,0.91874,0.830739,0.105437
1702325224296875,-8.248183,1.89026,0.97806,0.83374,0.806639,0.102337
1702325224304687,-8.460183,1.202026,0.28194,0.51574,0.799339,0.103837
1702325224312500,-8.477183,1.289026,0.49194,0.50374,0.798339,0.110237
1702325224320312,-8.415183,1.388026,0.143194,0.33174,0.787839,0.119737
1702325224328125,-8.430183,1.413026,0.227194,0.7074,0.744639,0.131137
1702325224335937,-8.506183,1.399026,0.211194,0.4526,0.731539,0.136037
1702325224343750,-8.528183,1.341026,0.139194,0.4326,0.692439,0.140837
1702325224351562,-8.606183,1.341026,0.4806,0.626,0.658839,0.132637
1702325224359375,-8.764183,1.353026,0.10194,0.4874,0.634739,0.124437
1702325224367187,-8.937183,1.386026,0.157194,0.25874,0.602239,0.108337
1702325224375000,-9.56183,1.448026,0.221194,0.39374,0.580639,0.97337
1702325224382812,-9.186183,1.489026,0.253194,0.46274,0.564339,0.82737
1702325224390625,-9.223183,1.477026,0.236194,0.46874,0.540539,0.66537
1702325224398437,-9.214183,1.438026,0.192194,0.50774,0.512839,0.50637
1702325224406250,-9.209183,1.392026,0.198194,0.49474,0.496439,0.34537
1702325224414062,-9.264183,1.357026,0.221194,0.59074,0.498139,0.21637
1702325224421875,-9.313183,1.309026,0.226194,0.61674,0.496139,0.4137
1702325224429687,-9.327183,1.300026,0.232194,0.74374,0.497539,0.5463
1702325224437500,-9.290183,1.276026,0.296194,0.74574,0.493239,0.8763
1702325224445312,-9.321183,1.232026,0.406194,0.90774,0.480939,0.13563
1702325224453125,-9.410183,1.213026,0.472194,0.97474,0.460839,0.13663
1702325224460937,-9.526183,1.207026,0.512194,0.94674,0.444339,0.20163
1702325224468750,-9.645183,1.224026,0.571194,0.99274,0.447339,0.24963
1702325224476562,-9.717183,1.243026,0.614194,0.88174,0.445939,0.23363
1702325224484375,-9.743183,1.294026,0.693194,0.79674,0.440739,0.28063
1702325224492187,-9.652183,1.312026,0.775194,0.85774,0.443539,0.34463
1702325224500000,-9.512183,1.358026,0.795194,0.93874,0.429339,0.32863
1702325224507812,-9.411183,1.364026,0.788194,0.102274,0.409539,0.34563
1702325224515625,-9.355183,1.370026,0.815194,0.97874,0.381639,0.28163
1702325224523437,-9.385183,1.416026,0.892194,0.99674,0.342439,0.15363
1702325224531250,-9.421183,1.441026,0.905194,0.103274,0.313139,0.15463
1702325224539062,-9.437183,1.475026,0.930194,0.103774,0.285439,0.13963
1702325224546875,-9.394183,1.473026,0.912194,0.102674,0.273539,0.9263
1702325224554687,-9.310183,1.402026,0.910194,0.105174,0.258439,0.7463
1702325224562500,-9.242183,1.353026,0.914194,0.115474,0.248239,0.4363
1702325224570312,-9.275183,1.318026,0.887194,0.123774,0.209139,0.2763
1702325224578125,-9.342183,1.277026,0.946194,0.130374,0.201339,0.5237
1702325224585937,-9.467183,1.248026,0.921194,0.117674,0.195239,0.8437
1702325224593750,-9.564183,1.196026,0.763194,0.98574,0.179539,0.24437
1702325224601562,-9.664183,1.127026,0.671194,0.98174,0.174339,0.26137
1702325224609375,-9.758183,1.91026,0.707194,0.103174,0.172939,0.26037
1702325224617187,-9.815183,1.81026,0.804194,0.110174,0.173739,0.25937
1702325224625000,-9.865183,1.59026,0.840194,0.106174,0.174139,0.26137
1702325224632812,-9.916183,1.76026,0.867194,0.114774,0.175139,0.21137
1702325224640625,-9.888183,1.97026,0.897194,0.119074,0.180639,0.16537
1702325224648437,-9.822183,1.171026,0.942194,0.111074,0.179339,0.10037
1702325224656250,-9.774183,1.250026,1.23194,0.117474,0.179339,0.8437
1702325224664062,-9.718183,1.289026,1.68194,0.114174,0.179339,0.3637
1702325224671875,-9.683183,1.315026,1.77194,0.105074,0.179839,0.17937
1702325224679687,-9.654183,1.324026,1.23194,0.108174,0.185839,0.21237
1702325224687500,-9.614183,1.316026,0.969194,0.109574,0.179239,0.24437
1702325224695312,-9.595183,1.291026,0.951194,0.103074,0.174339,0.27737
1702325224703125,-9.624183,1.245026,0.962194,0.107874,0.174339,0.26137
1702325224710937,-9.628183,1.208026,0.969194,0.125574,0.169539,0.27737
1702325224718750,-9.612183,1.205026,0.944194,0.132074,0.160139,0.26137
1702325224726562,-9.639183,1.192026,0.942194,0.149974,0.147739,0.26137
1702325224734375,-9.688183,1.188026,0.935194,0.167474,0.144339,0.27737
1702325224742187,-9.694183,1.180026,0.930194,0.180874,0.138639,0.32437
1702325224750000,-9.700183,1.145026,0.944194,0.189174,0.139039,0.34037
1702325224757812,-9.720183,1.105026,0.944194,0.206674,0.134339,0.14737
1702325224765625,-9.711183,1.83026,0.949194,0.214274,0.129139,0.3637
1702325224773437,-9.655183,1.86026,0.953194,0.243274,0.126339,0.6063
1702325224781250,-9.610183,1.115026,0.912194,0.256474,0.115939,0.14163
1702325224789062,-9.631183,1.115026,0.867194,0.267274,0.113939,0.23663
1702325224796875,-9.656183,1.95026,0.885194,0.276774,0.99539,0.23663
1702325224804687,-9.666183,1.74026,0.894194,0.301574,0.100539,0.26963
1702325224812500,-9.632183,1.53026,0.924194,0.306174,0.98639,0.31763
1702325224820312,-9.625183,1.38026,0.973194,0.311174,0.100639,0.35063
1702325224828125,-9.652183,1.18026,1.12194,0.327374,0.97539,0.33463
1702325224835937,-9.714183,1.19026,1.43194,0.341874,0.99139,0.36663
1702325224843750,-9.778183,1.19026,1.41194,0.341274,0.91939,0.34863
1702325224851562,-9.838183,1.21026,1.73194,0.352974,0.100339,0.33363
1702325224859375,-9.880183,1.21026,1.125194,0.357974,0.98939,0.33363
1702325224867187,-9.893183,1.2026,1.188194,0.362974,0.100939,0.36663
1702325224875000,-9.860183,0.992026,1.159194,0.364574,0.80539,0.39863
1702325224882812,-9.748183,1.53026,0.982194,0.382374,0.77439,0.38263
1702325224890625,-9.741183,1.94026,1.5194,0.388274,0.75139,0.41363
1702325224898437,-9.770183,1.70026,1.217194,0.383474,0.84439,0.33363
1702325224906250,-9.722183,1.63026,1.217194,0.364074,0.92139,0.28463
1702325224914062,-9.666183,1.47026,1.116194,0.361274,0.85939,0.12463
1702325224921875,-9.684183,1.35026,1.127194,0.360874,0.90039,0.7563
1702325224929687,-9.650183,1.33026,1.152194,0.364574,0.90539,0.2863
1702325224937500,-9.572183,0.975026,1.23194,0.354274,0.76039,0.9737
1702325224945312,-9.545183,0.899026,0.906194,0.365174,0.70539,0.17937
1702325224953125,-9.526183,0.872026,0.915194,0.381374,0.67239,0.33937
1702325224960937,-9.600183,0.878026,0.985194,0.399374,0.53439,0.29137
1702325224968750,-9.665183,0.865026,1.3194,0.415574,0.48739,0.35537
1702325224976562,-9.671183,0.810026,0.985194,0.409274,0.50239,0.46737
1702325224984375,-9.692183,0.726026,0.980194,0.388074,0.48239,0.51637
1702325224992187,-9.731183,0.621026,0.978194,0.368974,0.50139,0.51537
1702325225000000,-9.750183,0.544026,1.12194,0.364374,0.59839,0.54737
1702325225007812,-9.752183,0.504026,1.53194,0.360674,0.56139,0.53237
1702325225015625,-9.756183,0.506026,1.84194,0.339874,0.51639,0.51537
1702325225023437,-9.758183,0.496026,1.107194,0.327174,0.56639,0.53137
1702325225031250,-9.702183,0.495026,1.95194,0.307874,0.53439,0.54737
1702325225039062,-9.684183,0.494026,1.34194,0.293274,0.53239,0.62737
1702325225046875,-9.705183,0.522026,1.28194,0.284574,0.61539,0.67737
1702325225054687,-9.724183,0.556026,1.84194,0.282874,0.74239,0.58137
1702325225062500,-9.718183,0.605026,1.129194,0.265174,0.71139,0.54937
1702325225070312,-9.633183,0.636026,1.170194,0.260074,0.67639,0.54937
1702325225078125,-9.547183,0.666026,1.213194,0.251874,0.72139,0.59837
1702325225085937,-9.527183,0.712026,1.276194,0.242774,0.53939,0.64537
1702325225093750,-9.556183,0.764026,1.335194,0.233374,0.63639,0.69337
1702325225101562,-9.626183,0.792026,1.346194,0.223774,0.63539,0.78937
1702325225109375,-9.711183,0.779026,1.306194,0.208974,0.55339,0.78937
1702325225117187,-9.771183,0.721026,1.285194,0.197874,0.66339,0.90237
1702325225125000,-9.813183,0.693026,1.267194,0.184974,0.80539,0.85337
1702325225132812,-9.840183,0.666026,1.254194,0.183174,0.77039,0.88637
1702325225140625,-9.862183,0.685026,1.281194,0.180074,0.85139,0.85337
1702325225148437,-9.854183,0.688026,1.319194,0.165174,0.89239,0.83837
1702325225156250,-9.820183,0.712026,1.358194,0.158674,0.98839,0.77437
1702325225164062,-9.762183,0.725026,1.380194,0.151974,0.100239,0.71037
1702325225171875,-9.630183,0.705026,1.281194,0.154974,0.96739,0.69537
1702325225179687,-9.484183,0.734026,1.314194,0.144174,0.95939,0.66137
1702325225187500,-9.446183,0.716026,1.448194,0.124774,0.78839,0.56537
1702325225195312,-9.493183,0.704026,1.475194,0.105874,0.72939,0.69337
1702325225203125,-9.560183,0.745026,1.391194,0.123674,0.71639,0.59637
1702325225210937,-9.589183,0.791026,1.360194,0.127874,0.58239,0.56537
1702325225218750,-9.616183,0.833026,1.335194,0.131374,0.52439,0.53337
1702325225226562,-9.672183,0.859026,1.382194,0.128274,0.49539,0.50037
1702325225234375,-9.722183,0.879026,1.387194,0.124474,0.53439,0.50137
1702325225242187,-9.760183,0.871026,1.324194,0.127974,0.49139,0.50137
1702325225250000,-9.798183,0.869026,1.326194,0.116574,0.58539,0.45337
1702325225257812,-9.820183,0.843026,1.315194,0.116874,0.57339,0.43637
1702325225265625,-9.817183,0.817026,1.364194,0.105474,0.57339,0.40437
1702325225273437,-9.817183,0.792026,1.407194,0.103674,0.57239,0.34037
1702325225281250,-9.791183,0.768026,1.432194,0.102374,0.60939,0.29137
1702325225289062,-9.744183,0.763026,1.448194,0.100974,0.67539,0.27537
1702325225296875,-9.689183,0.764026,1.455194,0.93874,0.60639,0.11537
1702325225304687,-9.633183,0.778026,1.448194,0.84074,0.62239,0.5137
1702325225312500,-9.614183,0.811026,1.450194,0.87074,0.64939,0.8437
1702325225320312,-9.629183,0.856026,1.409194,0.105474,0.64339,0.8237
1702325225328125,-9.662183,0.918026,1.391194,0.98674,0.65539,0.5137
1702325225335937,-9.707183,0.939026,1.398194,0.112974,0.74539,0.6837
1702325225343750,-9.730183,0.928026,1.403194,0.123874,0.72639,0.437
1702325225351562,-9.729183,0.906026,1.371194,0.130774,0.84339,0.2863
1702325225359375,-9.685183,0.864026,1.348194,0.127674,0.93839,0.1937
1702325225367187,-9.678183,0.811026,1.310194,0.139074,0.98739,0.237
1702325225375000,-9.701183,0.777026,1.265194,0.144574,0.98939,0.1063
1702325225382812,-9.745183,0.744026,1.247194,0.152774,0.99139,0.1163
1702325225390625,-9.818183,0.706026,1.254194,0.160874,0.104039,0.2763
1702325225398437,-9.845183,0.733026,1.251194,0.172574,0.99939,0.6063
1702325225406250,-9.796183,0.739026,1.276194,0.174274,0.98439,0.1263
1702325225414062,-9.725183,0.773026,1.317194,0.175774,0.99739,0.1937
1702325225421875,-9.708183,0.751026,1.355194,0.175874,0.98439,0.4463
1702325225429687,-9.697183,0.745026,1.411194,0.177874,0.98939,0.237
1702325225437500,-9.641183,0.755026,1.466194,0.182974,0.100439,0.16237
1702325225445312,-9.601183,0.740026,1.497194,0.180774,0.104039,0.30837
1702325225453125,-9.601183,0.744026,1.527194,0.182374,0.100739,0.35737
1702325225460937,-9.608183,0.720026,1.572194,0.190574,0.110239,0.40537
1702325225468750,-9.602183,0.661026,1.518194,0.202374,0.94939,0.50037
1702325225476562,-9.609183,0.689026,1.407194,0.205274,0.77339,0.46937
1702325225484375,-9.641183,0.735026,1.479194,0.205874,0.76739,0.46737
1702325225492187,-9.684183,0.750026,1.669194,0.208474,0.75839,0.45337
1702325225500000,-9.633183,0.774026,1.721194,0.208674,0.55539,0.50137
1702325225507812,-9.635183,0.766026,1.640194,0.207674,0.51539,0.59637
1702325225515625,-9.736183,0.776026,1.597194,0.215974,0.39339,0.56337
1702325225523437,-9.765183,0.810026,1.712194,0.206374,0.25339,0.56337
1702325225531250,-9.693183,0.791026,1.680194,0.192174,0.2139,0.57837
1702325225539062,-9.627183,0.702026,1.565194,0.217974,0.5239,0.61037
1702325225546875,-9.624183,0.644026,1.518194,0.253274,0.1261,0.57937
1702325225554687,-9.647183,0.684026,1.522194,0.280774,0.26061,0.51437
1702325225562500,-9.669183,0.768026,1.567194,0.288474,0.40361,0.37037
1702325225570312,-9.667183,0.851026,1.635194,0.287474,0.56461,0.25637
1702325225578125,-9.640183,0.853026,1.691194,0.263474,0.56261,0.27237
1702325225585937,-9.627183,0.811026,1.647194,0.264074,0.56061,0.22637
1702325225593750,-9.593183,0.807026,1.574194,0.271074,0.53661,0.20937
1702325225601562,-9.571183,0.831026,1.497194,0.280674,0.49061,0.22537
1702325225609375,-9.584183,0.854026,1.477194,0.287474,0.56461,0.25637
1702325225617187,-9.618183,0.876026,1.475194,0.287474,0.69061,0.22437
1702325225625000,-9.645183,0.852026,1.495194,0.285474,0.78961,0.22537
1702325225632812,-9.660183,0.823026,1.493194,0.292074,0.74161,0.27337
1702325225640625,-9.667183,0.801026,1.500194,0.286974,0.87161,0.27437
1702325225648437,-9.646183,0.768026,1.479194,0.285774,0.89661,0.28937
1702325225656250,-9.670183,0.717026,1.457194,0.285274,0.101561,0.37037
1702325225664062,-9.667183,0.655026,1.441194,0.283874,0.110961,0.45137
1702325225671875,-9.639183,0.615026,1.416194,0.269674,0.104161,0.43437
1702325225679687,-9.614183,0.579026,1.373194,0.253474,0.98061,0.45037
1702325225687500,-9.593183,0.508026,1.328194,0.235874,0.103861,0.35337
1702325225695312,-9.563183,0.477026,1.278194,0.209974,0.88361,0.36937
1702325225703125,-9.563183,0.430026,1.244194,0.204874,0.87161,0.35437
1702325225710937,-9.589183,0.442026,1.258194,0.189074,0.92761,0.25737
1702325225718750,-9.598183,0.472026,1.267194,0.184474,0.96761,0.11137
1702325225726562,-9.619183,0.449026,1.283194,0.178574,0.99561,0.1737
1702325225734375,-9.675183,0.445026,1.256194,0.157774,0.108761,0.1463
1702325225742187,-9.723183,0.424026,1.247194,0.153074,0.114561,0.11163
1702325225750000,-9.789183,0.474026,1.242194,0.143374,0.119461,0.7963
1702325225757812,-9.836183,0.461026,1.220194,0.131974,0.106461,0.27263
1702325225765625,-9.784183,0.454026,1.100194,0.133474,0.109761,0.32063
1702325225773437,-9.758183,0.462026,0.998194,0.131474,0.120961,0.46463
1702325225781250,-9.836183,0.515026,0.978194,0.104474,0.118661,0.51363
1702325225789062,-9.892183,0.619026,0.978194,0.100974,0.78161,0.52863
1702325225796875,-9.866183,0.725026,0.930194,0.97674,0.75061,0.59363
1702325225804687,-9.845183,0.769026,0.854194,0.77874,0.66261,0.55963
1702325225812500,-9.838183,0.755026,0.782194,0.77674,0.55561,0.54363
1702325225820312,-9.768183,0.730026,0.831194,0.76474,0.37761,0.51263
1702325225828125,-9.742183,0.794026,0.881194,0.77874,0.24161,0.43163
1702325225835937,-9.740183,0.789026,0.922194,0.56374,0.2761,0.47863
1702325225843750,-9.779183,0.820026,0.980194,0.51374,0.1439,0.42963
1702325225851562,-9.727183,0.802026,0.983194,0.41574,0.23239,0.38163
1702325225859375,-9.710183,0.671026,1.44194,0.33374,0.41639,0.30063
1702325225867187,-9.731183,0.755026,1.80194,0.32074,0.57439,0.17263
1702325225875000,-9.699183,0.881026,1.143194,0.40374,0.70239,0.9263
1702325225882812,-9.602183,0.960026,1.310194,0.46974,0.88739,0.14837
1702325225890625,-9.525183,1.31026,1.425194,0.52074,0.99439,0.42037
1702325225898437,-9.451183,1.46026,1.479194,0.62174,0.101039,0.62937
1702325225906250,-9.359183,1.29026,1.520194,0.80174,0.97539,0.95037
1702325225914062,-9.253183,0.992026,1.533194,0.93474,0.99139,0.115837
1702325225921875,-9.201183,0.931026,1.558194,0.127674,0.86139,0.160837
1702325225929687,-9.235183,0.839026,1.556194,0.126974,0.67739,0.195937
1702325225937500,-9.373183,0.662026,1.481194,0.151474,0.50339,0.220037
1702325225945312,-9.560183,0.477026,1.307194,0.163574,0.25839,0.240737
1702325225953125,-9.711183,0.268026,1.156194,0.162274,0.22839,0.250337
1702325225960937,-9.891183,0.93026,1.30194,0.161874,0.8139,0.253637
1702325225968750,-10.36183,0.45974,0.901194,0.144174,0.6961,0.229537
1702325225976562,-10.117183,0.166974,0.838194,0.121674,0.28161,0.200537
1702325225984375,-10.120183,0.225974,0.754194,0.108474,0.49561,0.160437
1702325225992187,-10.123183,0.208974,0.682194,0.73774,0.54761,0.126837
1702325226000000,-10.136183,0.162974,0.696194,0.36074,0.75461,0.101237
1702325226007812,-10.143183,0.64974,0.714194,0.1026,0.76561,0.80337
1702325226015625,-10.158183,0.15026,0.732194,0.39926,0.57461,0.61037
1702325226023437,-10.166183,0.74026,0.723194,0.68126,0.41061,0.48337
1702325226031250,-10.154183,0.230026,0.694194,0.114826,0.17161,0.35537
1702325226039062,-10.103183,0.388026,0.626194,0.128326,0.16739,0.29137
1702325226046875,-10.34183,0.438026,0.592194,0.160226,0.34539,0.32337
1702325226054687,-9.966183,0.450026,0.619194,0.198226,0.66339,0.22837
1702325226062500,-9.868183,0.528026,0.639194,0.230526,0.75539,0.27737
1702325226070312,-9.757183,0.597026,0.425194,0.257926,0.88639,0.13237
1702325226078125,-9.669183,0.719026,0.307194,0.284026,0.97239,0.21337
1702325226085937,-9.672183,0.726026,0.524194,0.303626,0.123439,0.27837
1702325226093750,-9.640183,0.650026,0.800194,0.324826,0.149839,0.29437
1702325226101562,-9.491183,0.656026,0.926194,0.344926,0.136939,0.32437
1702325226109375,-9.485183,0.788026,0.926194,0.361226,0.117639,0.34137
1702325226117187,-9.488183,1.16026,0.951194,0.367626,0.145739,0.45337
1702325226125000,-9.406183,1.45026,0.953194,0.410026,0.124439,0.56737
1702325226132812,-9.486183,1.45026,0.937194,0.433226,0.100839,0.53337
1702325226140625,-9.575183,1.2026,1.23194,0.438226,0.114339,0.67837
1702325226148437,-9.638183,1.3026,1.122194,0.438026,0.114839,0.59737
1702325226156250,-9.675183,1.105026,1.177194,0.436926,0.123639,0.56637
1702325226164062,-9.718183,1.215026,1.215194,0.480926,0.118339,0.48737
1702325226171875,-9.795183,1.276026,1.258194,0.510026,0.118339,0.47137
1702325226179687,-9.832183,1.247026,1.249194,0.516126,0.142339,0.48637
1702325226187500,-9.841183,1.224026,1.272194,0.521326,0.149839,0.40637
1702325226195312,-9.855183,1.219026,1.299194,0.507526,0.148939,0.31237
1702325226203125,-9.828183,1.246026,1.290194,0.495826,0.154439,0.26237
1702325226210937,-9.775183,1.285026,1.274194,0.489626,0.168539,0.16637
1702325226218750,-9.699183,1.315026,1.267194,0.489826,0.167039,0.637
1702325226226562,-9.664183,1.336026,1.260194,0.473526,0.157739,0.2237
1702325226234375,-9.627183,1.344026,1.251194,0.458326,0.169839,0.437
1702325226242187,-9.586183,1.355026,1.269194,0.454426,0.157639,0.5763
1702325226250000,-9.595183,1.360026,1.274194,0.438326,0.156139,0.8963
1702325226257812,-9.617183,1.352026,1.292194,0.437826,0.145839,0.10763
1702325226265625,-9.634183,1.319026,1.274194,0.423326,0.141239,0.12363
1702325226273437,-9.674183,1.304026,1.271194,0.402326,0.133539,0.20363
1702325226281250,-9.723183,1.294026,1.265194,0.381026,0.135639,0.22063
1702325226289062,-9.763183,1.307026,1.267194,0.366826,0.146239,0.25163
1702325226296875,-9.779183,1.315026,1.253194,0.342526,0.148039,0.23663
1702325226304687,-9.780183,1.359026,1.258194,0.297426,0.149739,0.31663
1702325226312500,-9.767183,1.400026,1.256194,0.279826,0.148039,0.34863
1702325226320312,-9.741183,1.415026,1.305194,0.260826,0.156839,0.33163
1702325226328125,-9.662183,1.388026,1.366194,0.239826,0.172839,0.37963
1702325226335937,-9.608183,1.365026,1.402194,0.212226,0.171739,0.46063
1702325226343750,-9.630183,1.300026,1.427194,0.190126,0.167739,0.41163
1702325226351562,-9.655183,1.228026,1.391194,0.170726,0.167939,0.47563
1702325226359375,-9.611183,1.126026,1.366194,0.152626,0.171639,0.49263
1702325226367187,-9.566183,1.6026,1.323194,0.126626,0.148439,0.52563
1702325226375000,-9.534183,0.939026,1.418194,0.111926,0.153239,0.42963
1702325226382812,-9.552183,0.892026,1.522194,0.110926,0.155639,0.49263
1702325226390625,-9.575183,0.903026,1.452194,0.109426,0.144339,0.47563
1702325226398437,-9.606183,0.945026,1.362194,0.92526,0.139039,0.39763
1702325226406250,-9.659183,1.16026,1.418194,0.55626,0.140539,0.42863
1702325226414062,-9.709183,1.63026,1.556194,0.23326,0.138939,0.41263
1702325226421875,-9.713183,1.83026,1.585194,0.6826,0.131339,0.33363
1702325226429687,-9.751183,1.84026,1.527194,0.6374,0.128839,0.35063
1702325226437500,-9.769183,1.60026,1.472194,0.25674,0.142639,0.30163
1702325226445312,-9.764183,1.38026,1.448194,0.46374,0.151639,0.26863
1702325226453125,-9.750183,1.26,1.488194,0.55974,0.151739,0.33363
1702325226460937,-9.752183,0.951026,1.534194,0.67074,0.151039,0.18763
1702325226468750,-9.761183,0.940026,1.522194,0.76974,0.149939,0.20463
1702325226476562,-9.747183,0.922026,1.547194,0.98074,0.160939,0.12463
1702325226484375,-9.697183,0.919026,1.558194,0.123974,0.164139,0.10863
1702325226492187,-9.657183,0.927026,1.574194,0.147874,0.170039,0.12363
1702325226500000,-9.640183,0.951026,1.594194,0.165774,0.154639,0.15663
1702325226507812,-9.599183,0.942026,1.608194,0.181974,0.156439,0.18863
1702325226515625,-9.581183,0.933026,1.626194,0.191674,0.148539,0.17263
1702325226523437,-9.577183,0.933026,1.639194,0.217674,0.138039,0.23763
1702325226531250,-9.572183,0.917026,1.696194,0.223874,0.137539,0.18863
1702325226539062,-9.585183,0.918026,1.728194,0.251774,0.135239,0.22263
1702325226546875,-9.594183,0.938026,1.714194,0.263274,0.129139,0.17463
1702325226554687,-9.603183,0.925026,1.716194,0.277774,0.124339,0.17463
1702325226562500,-9.601183,0.931026,1.710194,0.293474,0.125339,0.22163
1702325226570312,-9.602183,0.937026,1.714194,0.311174,0.120539,0.12463
1702325226578125,-9.603183,0.907026,1.678194,0.322774,0.103539,0.10963
1702325226585937,-9.612183,0.878026,1.619194,0.337374,0.100439,0.9363
1702325226593750,-9.585183,0.875026,1.617194,0.355174,0.91139,0.10963
1702325226601562,-9.553183,0.859026,1.664194,0.363074,0.94139,0.7763
1702325226609375,-9.539183,0.831026,1.707194,0.361774,0.83539,0.9463
1702325226617187,-9.533183,0.817026,1.716194,0.371274,0.80139,0.7763
1702325226625000,-9.544183,0.802026,1.743194,0.377874,0.72539,0.7763
1702325226632812,-9.566183,0.806026,1.750194,0.382674,0.56539,0.4563
1702325226640625,-9.570183,0.789026,1.732194,0.389774,0.54439,0.1463
1702325226648437,-9.566183,0.773026,1.730194,0.387674,0.45639,0.1837
1702325226656250,-9.541183,0.750026,1.766194,0.389074,0.39239,0.1363
1702325226664062,-9.497183,0.684026,1.757194,0.387774,0.38139,0.2963
1702325226671875,-9.472183,0.659026,1.597194,0.405974,0.8939,0.1737
1702325226679687,-9.514183,0.726026,1.642194,0.405574,0.1161,0.237
1702325226687500,-9.614183,0.734026,1.890194,0.389674,0.21139,0.1737
1702325226695312,-9.636183,0.670026,1.789194,0.387774,0.25439,0.5037
1702325226703125,-9.602183,0.650026,1.585194,0.389874,0.7339,0.4937
1702325226710937,-9.579183,0.650026,1.741194,0.388574,0.7639,0.6437
1702325226718750,-9.589183,0.670026,1.813194,0.364074,0.27139,0.24237
1702325226726562,-9.566183,0.643026,1.599194,0.335174,0.17739,0.33837
1702325226734375,-9.548183,0.627026,1.378194,0.322374,0.0,0.53137
1702325226742187,-9.548183,0.627026,1.468194,0.332174,0.18561,0.51537
1702325226750000,-9.602183,0.634026,1.642194,0.343674,0.27761,0.53037
1702325226757812,-9.662183,0.615026,1.662194,0.346274,0.22261,0.51637
1702325226765625,-9.696183,0.598026,1.581194,0.347974,0.25061,0.45137
1702325226773437,-9.707183,0.600026,1.536194,0.331874,0.26661,0.48337
1702325226781250,-9.701183,0.549026,1.518194,0.319174,0.24761,0.48337
1702325226789062,-9.707183,0.506026,1.545194,0.308274,0.24261,0.49837
1702325226796875,-9.700183,0.463026,1.556194,0.301674,0.19761,0.49837
1702325226804687,-9.654183,0.416026,1.547194,0.285374,0.17161,0.54737
1702325226812500,-9.607183,0.407026,1.558194,0.257974,0.7361,0.45037
1702325226820312,-9.575183,0.393026,1.579194,0.243474,0.16761,0.43437
1702325226828125,-9.569183,0.375026,1.568194,0.233374,0.15961,0.46837
1702325226835937,-9.582183,0.393026,1.581194,0.221074,0.22861,0.43437
1702325226843750,-9.616183,0.424026,1.595194,0.214074,0.24861,0.29037
1702325226851562,-9.650183,0.458026,1.585194,0.202874,0.29361,0.25837
1702325226859375,-9.668183,0.456026,1.556194,0.185274,0.35361,0.27437
1702325226867187,-9.700183,0.459026,1.576194,0.183474,0.24661,0.29037
1702325226875000,-9.726183,0.471026,1.583194,0.170874,0.25861,0.25737
1702325226882812,-9.762183,0.482026,1.558194,0.159474,0.21261,0.27437
1702325226890625,-9.776183,0.482026,1.545194,0.152874,0.27861,0.25837
1702325226898437,-9.769183,0.467026,1.518194,0.140374,0.14661,0.27337
1702325226906250,-9.769183,0.454026,1.525194,0.127274,0.13561,0.32237
1702325226914062,-9.775183,0.432026,1.522194,0.117474,0.13561,0.25837
1702325226921875,-9.769183,0.425026,1.527194,0.105974,0.7761,0.30737
1702325226929687,-9.778183,0.422026,1.536194,0.88074,0.6361,0.30737
1702325226937500,-9.773183,0.424026,1.504194,0.79874,0.161,0.25937
1702325226945312,-9.769183,0.438026,1.491194,0.60674,0.1539,0.29137
1702325226953125,-9.757183,0.427026,1.479194,0.50774,0.6239,0.17937
1702325226960937,-9.728183,0.431026,1.450194,0.49074,0.1461,0.5037
1702325226968750,-9.675183,0.450026,1.468194,0.33174,0.539,0.137
1702325226976562,-9.673183,0.467026,1.543194,0.11374,0.13339,0.5237
1702325226984375,-9.650183,0.465026,1.463194,0.2426,0.14439,0.5037
1702325226992187,-9.631183,0.484026,1.362194,0.20726,0.1039,0.3537
1702325227000000,-9.673183,0.507026,1.461194,0.25026,0.6339,0.8237
1702325227007812,-9.671183,0.505026,1.540194,0.28226,0.6539,0.5037
1702325227015625,-9.678183,0.518026,1.511194,0.38026,0.7939,0.5037
1702325227023437,-9.691183,0.541026,1.477194,0.45826,0.2139,0.1463
1702325227031250,-9.695183,0.572026,1.473194,0.51126,0.0,0.6163
1702325227039062,-9.711183,0.582026,1.457194,0.51526,0.4139,0.2863
1702325227046875,-9.727183,0.596026,1.425194,0.61226,0.2539,0.7663
1702325227054687,-9.735183,0.588026,1.427194,0.75326,0.0,0.4563
1702325227062500,-9.726183,0.583026,1.441194,0.74026,0.20039,0.4463
1702325227070312,-9.729183,0.585026,1.475194,0.75626,0.18239,0.337
1702325227078125,-9.701183,0.586026,1.481194,0.84526,0.25739,0.137
1702325227085937,-9.706183,0.592026,1.504194,0.89826,0.18739,0.1837
1702325227093750,-9.726183,0.566026,1.522194,0.92926,0.24939,0.11537
1702325227101562,-9.723183,0.563026,1.513194,0.91226,0.23339,0.16337
1702325227109375,-9.708183,0.547026,1.493194,0.85226,0.24339,0.11637
1702325227117187,-9.692183,0.547026,1.470194,0.94826,0.32039,0.21237
1702325227125000,-9.692183,0.549026,1.486194,0.98226,0.36739,0.13237
1702325227132812,-9.686183,0.574026,1.504194,0.86826,0.33939,0.11537
1702325227140625,-9.699183,0.585026,1.482194,0.93026,0.37339,0.14737
1702325227148437,-9.706183,0.594026,1.470194,0.86326,0.39039,0.25937
1702325227156250,-9.710183,0.581026,1.457194,0.92726,0.43639,0.25937
1702325227164062,-9.706183,0.591026,1.475194,0.93326,0.49139,0.26037
1702325227171875,-9.706183,0.577026,1.502194,0.97626,0.52939,0.30737
1702325227179687,-9.703183,0.554026,1.502194,0.99526,0.57239,0.32437
1702325227187500,-9.707183,0.543026,1.461194,0.86326,0.54539,0.33937
1702325227195312,-9.707183,0.505026,1.416194,0.85026,0.43139,0.30837
1702325227203125,-9.712183,0.519026,1.382194,0.73626,0.43339,0.29237
1702325227210937,-9.726183,0.552026,1.407194,0.77026,0.41339,0.32437
1702325227218750,-9.719183,0.581026,1.443194,0.75226,0.46439,0.27637
1702325227226562,-9.722183,0.598026,1.470194,0.77226,0.45839,0.27737
1702325227234375,-9.711183,0.605026,1.457194,0.72026,0.46439,0.32437
1702325227242187,-9.704183,0.614026,1.468194,0.75226,0.46439,0.29237
1702325227250000,-9.704183,0.629026,1.466194,0.65526,0.49539,0.34037
1702325227257812,-9.691183,0.618026,1.427194,0.55926,0.47839,0.32437
1702325227265625,-9.684183,0.634026,1.427194,0.65226,0.48339,0.37137
1702325227273437,-9.666183,0.614026,1.481194,0.73126,0.51839,0.33937
1702325227281250,-9.654183,0.582026,1.529194,0.66826,0.54539,0.38737
1702325227289062,-9.624183,0.529026,1.423194,0.68426,0.32739,0.32337
1702325227296875,-9.602183,0.546026,1.305194,0.52326,0.20139,0.32337
1702325227304687,-9.695183,0.607026,1.538194,0.68726,0.34039,0.25937
1702325227312500,-9.755183,0.604026,1.662194,0.76426,0.45439,0.29137
1702325227320312,-9.741183,0.571026,1.504194,0.74726,0.50239,0.32337
1702325227328125,-9.719183,0.568026,1.502194,0.76826,0.44839,0.27637
1702325227335937,-9.727183,0.603026,1.547194,0.78726,0.47539,0.32437
1702325227343750,-9.721183,0.586026,1.529194,0.107326,0.65339,0.33937
1702325227351562,-9.708183,0.559026,1.394194,0.112326,0.52539,0.40437
1702325227359375,-9.701183,0.608026,1.344194,0.118326,0.53039,0.43537
1702325227367187,-9.670183,0.621026,1.409194,0.116426,0.51839,0.46737
1702325227375000,-9.695183,0.630026,1.529194,0.100626,0.45039,0.45237
1702325227382812,-9.724183,0.621026,1.536194,0.83126,0.51139,0.40437
1702325227390625,-9.733183,0.632026,1.445194,0.71926,0.48139,0.30737
1702325227398437,-9.742183,0.632026,1.371194,0.83026,0.45239,0.29137
1702325227406250,-9.729183,0.603026,1.369194,0.73626,0.46439,0.29237
1702325227414062,-9.702183,0.576026,1.412194,0.82126,0.47639,0.18037
1702325227421875,-9.658183,0.556026,1.461194,0.81726,0.49839,0.16337
1702325227429687,-9.626183,0.536026,1.486194,0.78326,0.55139,0.3437
1702325227437500,-9.604183,0.526026,1.486194,0.89926,0.51639,0.237
1702325227445312,-9.627183,0.539026,1.509194,0.91926,0.55739,0.1937
1702325227453125,-9.631183,0.560026,1.531194,0.84726,0.59739,0.6637
1702325227460937,-9.628183,0.579026,1.520194,0.95326,0.61739,0.437
1702325227468750,-9.637183,0.599026,1.525194,0.101826,0.53839,0.2037
1702325227476562,-9.659183,0.611026,1.524194,0.101226,0.50039,0.1363
1702325227484375,-9.677183,0.614026,1.524194,0.102826,0.64039,0.6737
1702325227492187,-9.713183,0.603026,1.516194,0.101526,0.63639,0.1937
1702325227500000,-9.722183,0.603026,1.540194,0.107626,0.60939,0.5137
1702325227507812,-9.716183,0.616026,1.540194,0.109726,0.65039,0.3637
1702325227515625,-9.735183,0.608026,1.527194,0.117626,0.63639,0.337
1702325227523437,-9.753183,0.613026,1.522194,0.120626,0.59339,0.3537
1702325227531250,-9.742183,0.602026,1.522194,0.125326,0.65739,0.3437
1702325227539062,-9.744183,0.601026,1.543194,0.130626,0.62139,0.2863
1702325227546875,-9.731183,0.610026,1.545194,0.132226,0.67039,0.7663
1702325227554687,-9.708183,0.610026,1.542194,0.144726,0.65739,0.237
1702325227562500,-9.697183,0.592026,1.554194,0.140426,0.63739,0.9263
1702325227570312,-9.695183,0.608026,1.551194,0.143126,0.62839,0.7763
1702325227578125,-9.664183,0.631026,1.500194,0.149626,0.56439,0.9363
1702325227585937,-9.624183,0.630026,1.468194,0.137026,0.48139,0.7663
1702325227593750,-9.600183,0.672026,1.579194,0.140526,0.41539,0.9263
1702325227601562,-9.593183,0.690026,1.529194,0.154826,0.46539,0.9263
1702325227609375,-9.584183,0.692026,1.384194,0.159426,0.35839,0.7763
1702325227617187,-9.607183,0.706026,1.448194,0.156026,0.26739,0.9363
1702325227625000,-9.601183,0.716026,1.558194,0.153126,0.32539,0.9263
1702325227632812,-9.609183,0.712026,1.513194,0.149626,0.25139,0.14163
1702325227640625,-9.630183,0.734026,1.502194,0.141826,0.19939,0.9263
1702325227648437,-9.664183,0.744026,1.511194,0.143326,0.20139,0.9263
1702325227656250,-9.722183,0.729026,1.489194,0.146926,0.24239,0.7563
1702325227664062,-9.726183,0.709026,1.461194,0.151626,0.22839,0.9263
1702325227679687,-9.754183,0.688026,1.452194,0.136626,0.26739,0.9363
1702325227687500,-9.757183,0.688026,1.441194,0.128626,0.37639,0.7763
1702325227695312,-9.761183,0.699026,1.436194,0.128726,0.43839,0.10963
1702325227703125,-9.732183,0.707026,1.432194,0.127426,0.48139,0.12463
1702325227710937,-9.703183,0.709026,1.443194,0.127026,0.50239,0.9363
1702325227718750,-9.670183,0.706026,1.463194,0.119126,0.48339,0.7663
1702325227726562,-9.658183,0.704026,1.466194,0.115826,0.56339,0.9363
1702325227734375,-9.625183,0.683026,1.454194,0.120926,0.52839,0.7663
1702325227742187,-9.620183,0.664026,1.481194,0.102926,0.57939,0.9363
1702325227750000,-9.626183,0.664026,1.497194,0.99726,0.54839,0.9363
1702325227757812,-9.633183,0.642026,1.515194,0.99826,0.48339,0.7763
1702325227765625,-9.642183,0.629026,1.524194,0.93326,0.43739,0.9363
1702325227773437,-9.664183,0.622026,1.524194,0.93126,0.31439,0.7763
1702325227781250,-9.670183,0.630026,1.527194,0.81526,0.33439,0.9463
1702325227789062,-9.690183,0.637026,1.515194,0.74826,0.27539,0.7863
1702325227796875,-9.709183,0.638026,1.513194,0.77126,0.26439,0.6063
1702325227804687,-9.719183,0.651026,1.527194,0.74226,0.30739,0.7663
