time,Acceleration X (m/s^2),Acceleration Y (m/s^2),Acceleration Z (m/s^2),Angular Velocity X (rad/s),Angular Velocity Y (rad/s),Angular Velocity Z (rad/s)
1702325006101562,-10.38765,-0.081216,1.063029,,,
1702325006109375,-10.85265,0.294606,0.303663,0.105316,0.993429,0.2478
1702325006117187,-10.96865,0.231606,0.317663,0.102016,0.939229,0.4898
1702325006125000,-10.85965,0.176606,0.405663,0.100216,0.888029,0.6828
1702325006132812,-10.77565,0.186606,0.493663,0.117216,0.801229,0.7488
1702325006140625,-10.67465,0.202606,0.484663,0.154216,0.738529,0.7008
1702325006156250,-9.97265,0.307606,0.69337,0.208416,0.604329,0.7178
1702325006164062,-9.92665,0.394606,0.424337,0.269216,0.600229,0.6548
1702325006171875,-9.83165,0.488606,0.796337,0.307916,0.579529,0.5738
1702325006179687,-9.96565,0.364606,-1.74337,0.328916,0.581029,0.5258
1702325006203125,-11.60865,0.181606,-2.92337,0.197616,0.665729,0.10548
1702325006210937,-12.22165,0.416606,-2.163337,0.183316,0.608129,0.13758
1702325006218750,-12.88465,0.653606,-2.540337,0.183616,0.533329,0.18248
1702325006226562,-13.20065,1.80606,-3.265337,0.199116,0.421929,0.21798
1702325006234375,-13.10765,1.191606,-3.956337,0.206616,0.272529,0.23738
1702325006242187,-12.89965,1.173606,-4.749337,0.240516,0.196029,0.25988
1702325006250000,-12.59565,1.170606,-5.506337,0.285116,0.151429,0.26488
1702325006257812,-12.36465,1.8606,-6.30337,0.305816,0.145029,0.24878
1702325006265625,-12.45665,1.40606,-6.330337,0.331916,0.204029,0.23428
1702325006273437,-12.67665,1.240606,-6.592337,0.382316,0.313129,0.22458
1702325006281250,-13.18265,1.549606,-6.775337,0.418516,0.382729,0.22278
1702325006289062,-13.80165,1.905606,-6.908337,0.455416,0.443929,0.21328
1702325006296875,-14.50365,2.104606,-7.167337,0.467416,0.491829,0.22108
1702325006304687,-15.8865,2.141606,-7.307337,0.409316,0.501229,0.21628
1702325006312500,-15.43065,2.169606,-7.372337,0.365416,0.435529,0.20828
1702325006320312,-15.50665,2.130606,-7.230337,0.322316,0.309529,0.18758
1702325006328125,-15.31165,1.970606,-6.925337,0.285516,0.206729,0.14288
1702325006335937,-15.18165,1.944606,-6.493337,0.299116,0.147229,0.9638
1702325006343750,-15.9565,1.973606,-5.990337,0.345416,0.132729,0.5468
1702325006351562,-15.6265,1.992606,-5.466337,0.386516,0.149629,0.1102
1702325006359375,-14.93965,2.22606,-5.93337,0.416916,0.156229,0.7702
1702325006367187,-14.66965,2.46606,-4.825337,0.368716,0.97329,0.13612
1702325006375000,-14.34365,2.148606,-4.705337,0.288516,0.5971,0.18902
1702325006382812,-13.94065,2.241606,-4.568337,0.180516,0.155471,0.23052
1702325006390625,-13.57765,2.344606,-4.320337,0.122316,0.270271,0.27522
1702325006398437,-13.31865,2.305606,-4.338337,0.160516,0.309871,0.32012
1702325006406250,-13.17165,2.211606,-4.451337,0.280516,0.331971,0.37782
1702325006414062,-12.96865,2.120606,-4.440337,0.387716,0.354371,0.44842
1702325006421875,-12.53365,2.72606,-4.219337,0.469616,0.363071,0.50302
1702325006429687,-12.5265,1.922606,-3.966337,0.541616,0.347571,0.54312
1702325006437500,-11.73665,1.732606,-3.668337,0.525216,0.329071,0.57842
1702325006445312,-11.38065,1.735606,-3.79337,0.564916,0.393071,0.59602
1702325006453125,-10.87265,1.617606,-2.810337,0.654816,0.463271,0.59762
1702325006460937,-10.29565,1.451606,-2.939337,0.697816,0.520471,0.58942
1702325006468750,-9.72265,1.199606,-3.394337,0.717516,0.515671,0.56862
1702325006476562,-9.21065,0.911606,-3.742337,0.706816,0.500771,0.56552
1702325006484375,-8.71965,0.516606,-3.844337,0.687216,0.469171,0.57352
1702325006492187,-8.42665,0.160606,-3.752337,0.693016,0.390571,0.57852
1702325006500000,-8.19265,0.112394,-3.478337,0.688516,0.301771,0.58982
1702325006507812,-7.99665,0.348394,-3.52337,0.685516,0.234271,0.57862
1702325006515625,-7.76765,0.535394,-2.600337,0.662116,0.181571,0.56102
1702325006523437,-7.47265,0.829394,-2.169337,0.641616,0.147371,0.54672
1702325006531250,-7.8865,-1.182394,-1.882337,0.617516,0.133071,0.53542
1702325006539062,-6.79465,-1.504394,-1.546337,0.587316,0.144671,0.53552
1702325006546875,-6.62965,-1.952394,-1.286337,0.606516,0.107071,0.54192
1702325006554687,-6.46065,-2.492394,-1.40337,0.661316,0.76171,0.56762
1702325006562500,-6.34965,-2.868394,0.760337,0.722316,0.60771,0.59332
1702325006570312,-6.6165,-3.147394,0.433337,0.786416,0.95971,0.58682
1702325006578125,-5.93165,-3.52394,0.41663,0.763916,0.117571,0.56432
1702325006585937,-5.89465,-2.700394,0.429663,0.741516,0.99171,0.57242
1702325006593750,-5.73465,-2.484394,0.666663,0.758916,0.126971,0.57392
1702325006601562,-5.86065,-2.108394,0.817663,0.742916,0.147771,0.58202
1702325006609375,-5.81265,-1.854394,0.535663,0.703916,0.151971,0.57712
1702325006617187,-5.91465,-1.609394,0.207663,0.613716,0.170871,0.56912
1702325006625000,-6.18065,-1.308394,0.200337,0.551416,0.176071,0.55952
1702325006632812,-6.33665,-1.218394,0.665337,0.479916,0.161971,0.52572
1702325006640625,-6.46365,-1.86394,-1.88337,0.452016,0.87171,0.48572
1702325006648437,-6.55665,0.993394,-1.413337,0.451216,0.48471,0.45852
1702325006656250,-6.61965,-1.112394,-1.512337,0.430616,0.61871,0.41032
1702325006664062,-6.81465,-1.100394,-1.638337,0.392016,0.58071,0.37342
1702325006671875,-7.2765,-1.68394,-1.866337,0.366816,0.56671,0.34292
1702325006679687,-7.27365,-1.98394,-2.56337,0.355816,0.45071,0.30442
1702325006687500,-7.55265,-1.133394,-2.103337,0.353716,0.9571,0.26442
1702325006695312,-7.74965,-1.177394,-1.938337,0.381716,0.26629,0.22272
1702325006703125,-7.86465,-1.292394,-1.611337,0.438716,0.52929,0.20352
1702325006710937,-7.92365,-1.389394,-1.312337,0.483816,0.67529,0.19222
1702325006718750,-7.91265,-1.393394,0.998337,0.515816,0.16129,0.18742
1702325006726562,-7.87165,-1.312394,0.784337,0.551216,0.62271,0.18582
1702325006734375,-7.74465,-1.117394,0.698337,0.583216,0.125771,0.16322
1702325006742187,-7.54865,-1.98394,0.739337,0.610216,0.177971,0.13582
1702325006750000,-7.38765,-1.173394,0.931337,0.649516,0.207971,0.10702
1702325006757812,-7.30365,-1.210394,-1.130337,0.681916,0.224971,0.9092
1702325006765625,-7.27465,-1.212394,-1.324337,0.733816,0.233171,0.8622
1702325006773437,-7.25765,-1.138394,-1.424337,0.796716,0.215771,0.7812
1702325006781250,-7.22765,-1.103394,-1.453337,0.864816,0.164271,0.7172
1702325006789062,-7.32365,-1.70394,-1.442337,0.941916,0.112371,0.5272
1702325006796875,-7.46565,-1.12394,-1.387337,-1.8716,0.52871,0.2232
1702325006804687,-7.60365,0.978394,-1.211337,-1.66916,0.10129,0.18
1702325006812500,-7.69065,0.864394,-1.75337,-1.153216,0.50629,0.3538
1702325006820312,-7.72265,0.741394,0.963337,-1.215216,0.73429,0.4968
1702325006828125,-7.78465,0.681394,0.847337,-1.287616,0.75729,0.6428
1702325006835937,-7.82965,0.678394,0.795337,-1.384616,0.65629,0.5608
1702325006843750,-7.87865,0.688394,0.712337,-1.494216,0.40229,0.4328
1702325006851562,-7.83865,0.702394,0.606337,-1.611016,0.19029,0.1778
1702325006859375,-7.73165,0.821394,0.549337,-1.728716,0.24171,0.962
1702325006867187,-7.59265,0.958394,0.461337,-1.815616,0.39971,0.2732
1702325006875000,-7.50465,-1.120394,0.427337,-1.913916,0.38671,0.4492
1702325006882812,-7.33565,-1.344394,0.430337,-1.997716,0.40971,0.7232
1702325006890625,-7.17665,-1.499394,0.459337,-2.76716,0.15871,0.7872
1702325006898437,-7.5965,-1.678394,0.493337,-2.147516,0.30929,0.10282
1702325006906250,-6.99565,-1.787394,0.550337,-2.220516,0.90929,0.12382
1702325006914062,-6.91065,-1.789394,0.622337,-2.285316,0.148529,0.13192
1702325006921875,-6.84765,-1.759394,0.685337,-2.349916,0.207329,0.15602
1702325006929687,-6.73965,-1.683394,0.740337,-2.424316,0.255329,0.17702
1702325006937500,-6.74065,-1.453394,0.834337,-2.490716,0.290729,0.18672
1702325006945312,-6.84665,-1.115394,0.975337,-2.532816,0.329229,0.20442
1702325006953125,-6.41965,0.883394,-1.176337,-2.532816,0.375229,0.19312
1702325006960937,-5.69665,0.750394,-1.208337,-2.517016,0.464329,0.18832
1702325006968750,-5.29765,0.613394,-1.296337,-2.498316,0.573429,0.18202
1702325006976562,-5.43365,0.309394,-1.816337,-2.463816,0.661629,0.18062
1702325006984375,-6.1865,0.217606,-2.649337,-2.430516,0.703429,0.17272
1702325006992187,-6.74165,0.778606,-3.443337,-2.433616,0.719329,0.17432
1702325007000000,-7.56165,1.452606,-4.114337,-2.492116,0.706329,0.16472
1702325007007812,-8.48165,2.209606,-4.705337,-2.571016,0.628829,0.12452
1702325007015625,-9.63165,3.59606,-5.285337,-2.613016,0.543529,0.7632
1702325007023437,-10.80165,3.852606,-5.568337,-2.606216,0.477229,0.4242
1702325007031250,-11.57265,4.196606,-5.509337,-2.564816,0.498829,0.3132
1702325007039062,-11.70665,4.293606,-5.401337,-2.495116,0.703029,0.1872
1702325007046875,-11.44565,4.70606,-5.42337,-2.382916,0.964729,0.2428
1702325007054687,-11.2865,3.860606,-4.367337,-2.287616,1.148929,0.6748
1702325007062500,-10.47265,3.878606,-3.629337,-2.225216,1.188129,0.9148
1702325007070312,-10.10165,3.984606,-3.49337,-2.142616,1.48629,0.8188
1702325007078125,-9.92665,4.91606,-3.78337,-2.69316,0.837929,0.5828
1702325007085937,-9.93565,3.974606,-3.719337,-1.992716,0.744629,0.5038
1702325007093750,-10.3665,3.713606,-4.467337,-1.868416,0.781829,0.2298
1702325007101562,-10.17465,3.399606,-4.916337,-1.770116,0.859529,0.1232
1702325007109375,-10.20365,3.202606,-5.56337,-1.733816,0.895329,0.7332
1702325007117187,-10.12665,3.201606,-5.25337,-1.726716,0.882229,0.13102
1702325007125000,-10.11965,3.285606,-4.932337,-1.706816,0.841129,0.17762
1702325007132812,-10.15765,3.505606,-4.914337,-1.674116,0.793929,0.20642
1702325007140625,-10.21465,3.636606,-4.862337,-1.605316,0.747729,0.23352
1702325007148437,-10.28165,3.652606,-4.767337,-1.525516,0.709029,0.26232
1702325007156250,-10.29465,3.642606,-4.742337,-1.441016,0.671329,0.29762
1702325007164062,-10.23565,3.606606,-4.758337,-1.400416,0.609829,0.32332
1702325007171875,-10.6165,3.438606,-4.756337,-1.390816,0.542529,0.34062
1702325007179687,-9.79865,3.260606,-4.641337,-1.374616,0.523229,0.36802
1702325007187500,-9.55465,3.137606,-4.562337,-1.373016,0.541529,0.38892
1702325007195312,-9.34565,3.66606,-4.497337,-1.382716,0.544429,0.39692
1702325007203125,-9.13765,3.62606,-4.481337,-1.396816,0.504129,0.39852
1702325007210937,-8.96265,3.40606,-4.490337,-1.394916,0.480929,0.39842
1702325007218750,-8.81465,3.37606,-4.463337,-1.394616,0.439129,0.39672
1702325007226562,-8.78065,3.6606,-4.404337,-1.376516,0.400429,0.39182
1702325007234375,-8.76065,2.970606,-4.246337,-1.334516,0.347629,0.37092
1702325007242187,-8.65165,2.898606,-4.124337,-1.300616,0.305529,0.35812
1702325007250000,-8.57365,2.897606,-4.82337,-1.253916,0.287129,0.34042
1702325007257812,-8.53265,2.854606,-4.18337,-1.215016,0.262729,0.32102
1702325007265625,-8.40165,2.799606,-3.953337,-1.191016,0.233029,0.30662
1702325007273437,-8.15365,2.707606,-3.910337,-1.186316,0.207729,0.30182
1702325007281250,-7.93165,2.619606,-3.860337,-1.183916,0.197729,0.30492
1702325007289062,-7.74565,2.625606,-3.797337,-1.185716,0.186529,0.30812
1702325007296875,-7.60465,2.661606,-3.771337,-1.187416,0.183229,0.30812
1702325007304687,-7.55965,2.755606,-3.770337,-1.175916,0.194529,0.30652
1702325007312500,-7.59765,2.928606,-3.852337,-1.168116,0.186429,0.30172
1702325007320312,-7.61065,3.59606,-3.974337,-1.162916,0.152629,0.29202
1702325007328125,-7.50065,3.111606,-4.53337,-1.160316,0.143929,0.29052
1702325007335937,-7.41165,3.105606,-4.112337,-1.121116,0.154029,0.29202
1702325007343750,-7.42465,3.88606,-4.137337,-1.82916,0.172229,0.29052
1702325007351562,-7.49565,3.15606,-4.132337,-1.66016,0.168529,0.29362
1702325007359375,-7.54965,2.894606,-4.161337,-1.45016,0.169829,0.30482
1702325007367187,-7.60565,2.762606,-4.270337,-1.9616,0.171229,0.30812
1702325007375000,-7.65665,2.681606,-4.351337,0.994516,0.173529,0.31602
1702325007382812,-7.67465,2.562606,-4.394337,0.964116,0.171429,0.32092
1702325007390625,-7.72265,2.461606,-4.355337,0.933516,0.190029,0.32892
1702325007398437,-7.72265,2.335606,-4.283337,0.925716,0.202129,0.33702
1702325007406250,-7.67565,2.215606,-4.175337,0.906216,0.214729,0.34022
1702325007414062,-7.59565,2.112606,-4.100337,0.904616,0.220729,0.35142
1702325007421875,-7.49765,1.948606,-3.980337,0.894316,0.213629,0.35612
1702325007429687,-7.38765,1.759606,-3.865337,0.871916,0.211729,0.36422
1702325007437500,-7.30665,1.625606,-3.743337,0.852416,0.211429,0.38032
1702325007445312,-7.33465,1.550606,-3.705337,0.823416,0.231929,0.38192
1702325007453125,-7.47265,1.577606,-3.721337,0.800816,0.241529,0.37382
1702325007460937,-7.59165,1.609606,-3.754337,0.786316,0.251129,0.36742
1702325007468750,-7.62165,1.678606,-3.795337,0.766816,0.254429,0.36582
1702325007476562,-7.49365,1.639606,-3.793337,0.752616,0.249429,0.35942
1702325007484375,-7.38865,1.661606,-3.759337,0.707716,0.291829,0.34502
1702325007492187,-7.35765,1.730606,-3.667337,0.666016,0.311929,0.34822
1702325007500000,-7.32365,1.701606,-3.610337,0.629216,0.321029,0.34182
1702325007507812,-7.22565,1.555606,-3.551337,0.584116,0.322929,0.32902
1702325007515625,-7.965,1.366606,-3.455337,0.548716,0.341429,0.33382
1702325007523437,-6.66565,1.111606,-3.310337,0.509716,0.359129,0.33382
1702325007531250,-6.22265,0.859606,-2.992337,0.480916,0.387729,0.37242
1702325007539062,-5.75965,0.703606,-2.545337,0.482016,0.434729,0.41092
1702325007546875,-5.51865,0.457606,-2.157337,0.504516,0.488629,0.45912
1702325007554687,-5.42665,0.371606,-1.617337,0.539616,0.521029,0.50572
1702325007562500,-5.31265,0.216606,-1.154337,0.588916,0.522429,0.55382
1702325007570312,-5.24265,0.85606,0.969337,0.619416,0.504429,0.59562
1702325007578125,-5.16465,0.179606,0.973337,0.615216,0.424029,0.59862
1702325007585937,-5.4465,0.449606,-1.258337,0.614816,0.316329,0.59692
1702325007593750,-4.76865,0.733606,-1.685337,0.604516,0.202829,0.57912
1702325007601562,-4.51665,0.678606,-2.135337,0.591416,0.116229,0.53892
1702325007609375,-4.52765,0.548606,-2.528337,0.579016,0.90229,0.47792
1702325007617187,-4.80465,0.517606,-2.846337,0.528716,0.146629,0.40742
1702325007625000,-5.16665,0.568606,-2.990337,0.483316,0.228929,0.30472
1702325007632812,-5.40965,0.570606,-2.965337,0.463316,0.340729,0.19912
1702325007640625,-5.57765,0.546606,-2.879337,0.465016,0.445829,0.10132
1702325007648437,-5.78065,0.463606,-2.703337,0.447216,0.531329,0.4862
1702325007656250,-6.3765,0.301606,-2.491337,0.446216,0.591129,0.532
1702325007664062,-6.39265,0.147606,-2.296337,0.448416,0.646129,0.2998
1702325007671875,-6.76565,0.24394,-2.219337,0.455316,0.652629,0.6688
1702325007679687,-7.6965,0.86394,-2.187337,0.448516,0.635929,0.6698
1702325007687500,-7.25565,0.56394,-2.307337,0.419616,0.604229,0.6538
1702325007695312,-7.34565,0.49394,-2.614337,0.376916,0.592829,0.6878
1702325007703125,-7.33765,0.57606,-3.52337,0.311016,0.539129,0.6868
1702325007710937,-7.37265,0.283606,-3.598337,0.243816,0.443529,0.7378
1702325007718750,-7.63565,0.546606,-4.204337,0.162716,0.320329,0.8348
1702325007726562,-8.21365,0.864606,-4.883337,0.87716,0.194929,0.10938
1702325007734375,-8.92865,1.420606,-5.554337,0.5516,0.87729,0.16078
1702325007742187,-9.44165,2.9606,-6.39337,0.67084,0.36729,0.19298
1702325007750000,-10.19365,2.467606,-6.601337,0.69784,0.121029,0.20408
1702325007757812,-10.81265,2.822606,-7.208337,0.21116,0.259329,0.17348
1702325007765625,-11.5065,2.903606,-7.653337,0.106616,0.328629,0.12038
1702325007773437,-11.6465,2.961606,-7.538337,0.101616,0.384029,0.6248
1702325007781250,-10.89265,2.777606,-6.901337,0.20516,0.436929,0.1278
1702325007789062,-10.71365,2.659606,-6.86337,0.60184,0.452329,0.332
1702325007796875,-10.58865,2.469606,-5.433337,0.116484,0.431829,0.12
1702325007804687,-10.55865,2.81606,-5.130337,0.127084,0.369829,0.1922
1702325007812500,-10.52665,1.605606,-5.223337,0.167284,0.246929,0.5912
1702325007820312,-10.45565,1.255606,-5.440337,0.228784,0.66229,0.10862
1702325007828125,-10.48765,1.123606,-5.668337,0.304784,0.139771,0.16302
1702325007835937,-10.55665,1.106606,-5.932337,0.371384,0.320371,0.22532
1702325007843750,-10.46065,1.173606,-6.174337,0.395584,0.504671,0.27482
1702325007851562,-10.33565,1.357606,-6.384337,0.385584,0.622971,0.30992
1702325007859375,-10.15465,1.505606,-6.592337,0.344284,0.690071,0.33072
1702325007867187,-9.90865,1.694606,-6.777337,0.231484,0.706171,0.34522
1702325007875000,-9.60265,1.807606,-7.26337,0.100384,0.664571,0.35172
1702325007882812,-9.37365,1.790606,-7.324337,0.56416,0.577471,0.36312
1702325007890625,-9.22465,1.704606,-7.695337,0.179916,0.484671,0.36652
1702325007898437,-9.19865,1.633606,-7.925337,0.220716,0.442971,0.36332
1702325007906250,-9.38365,1.542606,-7.857337,0.196116,0.426571,0.36812
1702325007914062,-9.62165,1.462606,-7.532337,0.152816,0.429971,0.35692
1702325007921875,-9.74565,1.295606,-7.127337,0.122016,0.445171,0.34722
1702325007929687,-9.79565,1.102606,-6.888337,0.93516,0.428371,0.33442
1702325007937500,-9.85865,0.977606,-6.788337,0.61216,0.432871,0.33122
1702325007945312,-9.92365,0.929606,-6.716337,0.7916,0.468471,0.31512
1702325007953125,-10.6865,0.891606,-6.689337,0.48784,0.506771,0.29252
1702325007960937,-10.16765,0.902606,-6.623337,0.115084,0.576971,0.27962
1702325007968750,-10.27465,0.901606,-6.440337,0.171584,0.623571,0.26192
1702325007976562,-10.33665,0.846606,-6.101337,0.191284,0.648071,0.26192
1702325007984375,-10.22865,0.785606,-5.611337,0.185184,0.657271,0.27142
1702325007992187,-10.8265,0.745606,-5.336337,0.68884,0.645271,0.28272
1702325008000000,-9.94065,0.663606,-5.451337,0.103716,0.634571,0.29402
1702325008007812,-9.82765,0.638606,-5.700337,0.221616,0.677371,0.29892
1702325008015625,-9.78365,0.692606,-5.917337,0.279416,0.717971,0.29562
1702325008023437,-9.84965,0.744606,-6.5337,0.263216,0.755171,0.28602
1702325008031250,-9.99065,0.777606,-5.978337,0.209716,0.795171,0.26502
1702325008039062,-10.13965,0.784606,-5.885337,0.172316,0.833571,0.24562
1702325008046875,-10.22465,0.765606,-5.810337,0.172116,0.876771,0.23272
1702325008054687,-10.33665,0.764606,-5.769337,0.196116,0.907671,0.22302
1702325008062500,-10.53365,0.811606,-5.792337,0.226816,0.923471,0.22312
1702325008070312,-10.71165,0.876606,-5.823337,0.241516,0.920271,0.20542
1702325008078125,-10.76965,0.866606,-5.774337,0.235016,0.938971,0.20222
1702325008085937,-10.78465,0.787606,-5.667337,0.223616,0.967171,0.20382
1702325008093750,-10.72265,0.664606,-5.476337,0.223516,-1.3071,0.20222
1702325008101562,-10.64865,0.546606,-5.229337,0.234516,-1.38971,0.20692
1702325008109375,-10.56265,0.485606,-5.49337,0.268416,-1.72071,0.21342
1702325008117187,-10.42465,0.465606,-4.897337,0.291916,-1.108671,0.20522
1702325008125000,-10.23365,0.482606,-4.776337,0.301616,-1.132171,0.20202
1702325008132812,-10.5365,0.536606,-4.685337,0.275616,-1.161471,0.19232
1702325008140625,-9.91765,0.596606,-4.602337,0.241616,-1.175371,0.18912
1702325008148437,-9.90765,0.638606,-4.532337,0.205916,-1.203271,0.18902
1702325008156250,-9.99065,0.666606,-4.444337,0.197916,-1.242571,0.18422
1702325008164062,-10.17065,0.737606,-4.342337,0.187916,-1.270271,0.18412
1702325008171875,-10.47665,0.788606,-4.240337,0.226416,-1.271571,0.18572
1702325008179687,-10.91865,0.776606,-4.168337,0.270916,-1.252771,0.19232
1702325008187500,-11.30065,0.757606,-4.41337,0.348116,-1.194471,0.20032
1702325008195312,-11.55165,0.758606,-3.792337,0.395516,-1.77671,0.20362
1702325008203125,-11.79865,0.798606,-3.469337,0.454916,0.927471,0.21202
1702325008210937,-12.5365,0.837606,-3.108337,0.507716,0.766271,0.22672
1702325008218750,-12.27265,0.824606,-2.651337,0.551216,0.609771,0.25082
1702325008226562,-12.41865,0.747606,-2.195337,0.565016,0.507571,0.25902
1702325008234375,-12.49165,0.637606,-1.693337,0.562116,0.435771,0.25742
1702325008242187,-12.36765,0.540606,-1.224337,0.575416,0.398671,0.26072
1702325008250000,-12.4165,0.447606,0.743337,0.575716,0.420671,0.23992
1702325008257812,-11.59765,0.378606,0.287337,0.581816,0.459171,0.23182
1702325008265625,-11.6365,0.310606,0.7663,0.570416,0.532571,0.21732
1702325008273437,-10.50965,0.238606,0.93663,0.556816,0.622271,0.20592
1702325008281250,-9.88165,0.204606,0.158663,0.489716,0.748071,0.20412
1702325008289062,-9.23165,0.181606,0.268663,0.340816,0.844371,0.19112
1702325008296875,-8.68365,0.183606,0.250663,0.182116,0.935571,0.17172
1702325008304687,-8.14965,0.135606,0.116663,0.99416,-1.25471,0.15552
1702325008312500,-7.69565,0.85606,0.163337,0.86616,-1.86371,0.12822
1702325008320312,-7.30565,0.67606,0.486337,0.105916,-1.90271,0.10412
1702325008328125,-6.99665,0.54606,0.719337,0.116116,-1.65171,0.7042
1702325008335937,-6.85465,0.25606,0.853337,0.142716,-1.15271,0.3522
1702325008343750,-6.86765,0.13394,0.871337,0.167716,0.962371,0.802
1702325008351562,-6.95465,0.28394,0.798337,0.182716,0.909371,0.478
1702325008359375,-7.16965,0.44394,0.678337,0.176316,0.893571,0.958
1702325008367187,-7.48265,0.88394,0.498337,0.147616,0.901871,0.1268
1702325008375000,-7.86865,0.153394,0.375337,0.104116,0.900271,0.1588
1702325008382812,-8.29865,0.193394,0.332337,0.59016,0.867271,0.1588
1702325008390625,-8.70965,0.271394,0.345337,0.10616,0.810571,0.2238
1702325008398437,-9.6265,0.329394,0.359337,0.7984,0.741371,0.928
1702325008406250,-9.46365,0.286394,0.300337,0.1184,0.673071,0.682
1702325008414062,-9.82365,0.185394,0.153337,0.20016,0.625171,0.2132
1702325008421875,-10.13965,0.79394,0.129663,0.39216,0.581171,0.3412
1702325008429687,-10.41665,0.10606,0.502663,0.65116,0.512671,0.5022
1702325008437500,-10.56965,0.32606,0.888663,0.65416,0.470971,0.6312
1702325008445312,-10.59065,0.50394,1.121663,0.72216,0.454271,0.6642
1702325008453125,-10.48465,0.138394,1.191663,0.58816,0.478471,0.5672
1702325008460937,-10.34165,0.200394,1.168663,0.20316,0.522171,0.3742
1702325008468750,-10.15165,0.205394,1.111663,0.2684,0.563971,0.2932
1702325008476562,-9.88665,0.215394,1.46663,0.7416,0.582871,0.852
1702325008484375,-9.59565,0.249394,1.61663,0.20316,0.589071,0.852
1702325008492187,-9.34465,0.266394,1.124663,0.34816,0.566871,0.42
1702325008500000,-9.14065,0.262394,1.203663,0.31916,0.556371,0.268
1702325008507812,-8.93965,0.235394,1.305663,0.25116,0.543371,0.202
1702325008515625,-8.78965,0.146394,1.384663,0.26816,0.518271,0.118
1702325008523437,-8.76565,0.40394,1.447663,0.20816,0.487571,0.108
1702325008531250,-8.82065,0.37606,1.591663,0.18016,0.454971,0.578
1702325008539062,-8.94165,0.134606,1.761663,0.14716,0.403071,0.738
1702325008546875,-9.8565,0.207606,1.924663,0.4516,0.358771,0.2168
1702325008554687,-9.15565,0.230606,2.80663,0.1584,0.314971,0.3128
1702325008562500,-9.23565,0.288606,2.197663,0.1784,0.259771,0.3288
1702325008570312,-9.39065,0.331606,2.269663,0.9184,0.200971,0.3598
1702325008578125,-9.50965,0.373606,2.308663,0.1116,0.155971,0.4878
1702325008585937,-9.71465,0.460606,2.254663,0.2984,0.109271,0.7268
1702325008593750,-10.65,0.458606,2.46663,0.33284,0.70271,0.8868
1702325008601562,-10.24265,0.408606,1.915663,0.55984,0.72571,0.10808
1702325008609375,-10.28665,0.340606,1.832663,0.78584,0.83171,0.12418
1702325008617187,-10.15565,0.278606,1.724663,0.72184,0.115671,0.14348
1702325008625000,-9.94565,0.233606,1.597663,0.79884,0.139571,0.15298
1702325008632812,-9.71865,0.208606,1.481663,0.84584,0.162971,0.16428
1702325008640625,-9.56265,0.243606,1.409663,0.95984,0.186271,0.17228
1702325008648437,-9.49165,0.293606,1.355663,0.111984,0.208371,0.17548
1702325008656250,-9.48465,0.320606,1.328663,0.131584,0.231671,0.17228
1702325008664062,-9.48265,0.322606,1.294663,0.158984,0.234671,0.17548
1702325008671875,-9.39065,0.341606,1.319663,0.179284,0.239571,0.17578
1702325008679687,-9.35665,0.371606,1.350663,0.181784,0.229671,0.17238
1702325008687500,-9.49465,0.432606,1.465663,0.178884,0.216871,0.16598
1702325008695312,-9.66065,0.472606,1.669663,0.170484,0.193671,0.16918
1702325008703125,-9.76865,0.505606,1.911663,0.171784,0.162571,0.17228
1702325008710937,-9.82365,0.572606,2.150663,0.182884,0.120571,0.17068
1702325008718750,-9.86365,0.659606,2.380663,0.193984,0.97171,0.17228
1702325008726562,-9.84165,0.709606,2.577663,0.213284,0.45471,0.17068
1702325008734375,-9.85965,0.736606,2.753663,0.238284,0.13129,0.17368
1702325008742187,-9.92765,0.730606,2.943663,0.264184,0.82429,0.17538
1702325008750000,-9.98165,0.727606,3.87663,0.277884,0.145729,0.17838
1702325008757812,-10.365,0.709606,3.176663,0.298984,0.175629,0.17198
1702325008765625,-9.93365,0.700606,3.286663,0.296984,0.189029,0.16868
1702325008773437,-9.76465,0.741606,3.352663,0.287384,0.205029,0.17188
1702325008781250,-9.55265,0.807606,3.410663,0.274084,0.235629,0.16218
1702325008789062,-9.25265,0.805606,3.498663,0.270584,0.271429,0.16538
1702325008796875,-8.84165,0.734606,3.482663,0.284884,0.321429,0.17018
1702325008804687,-8.36365,0.694606,3.425663,0.292484,0.353829,0.17328
1702325008812500,-7.88865,0.653606,3.325663,0.284184,0.413329,0.18128
1702325008820312,-7.54665,0.672606,3.151663,0.258084,0.494529,0.17318
1702325008828125,-7.32465,0.725606,2.988663,0.232684,0.588429,0.16968
1702325008835937,-7.21165,0.798606,2.918663,0.208284,0.701129,0.16968
1702325008843750,-7.18565,0.873606,2.889663,0.194684,0.819329,0.16148
1702325008851562,-7.19765,0.917606,2.790663,0.187684,0.903029,0.15018
1702325008859375,-7.28265,0.937606,2.636663,0.172284,0.989529,0.14348
1702325008867187,-7.46665,0.921606,2.523663,0.169084,1.68029,0.13548
1702325008875000,-7.63265,0.933606,2.438663,0.147684,1.151929,0.12738
1702325008882812,-7.66165,0.993606,2.363663,0.127384,1.249529,0.12238
1702325008890625,-7.76865,0.993606,2.381663,0.103884,1.342329,0.12058
1702325008898437,-7.88965,0.960606,2.469663,0.83584,1.464929,0.11718
1702325008906250,-7.86865,0.964606,2.492663,0.49884,1.576829,0.12048
1702325008914062,-7.80065,0.993606,2.460663,0.35784,1.671029,0.12508
1702325008921875,-7.86365,0.990606,2.356663,0.39784,1.751629,0.12968
1702325008929687,-8.9865,0.995606,2.122663,0.36284,1.784629,0.15058
1702325008937500,-8.41665,1.5606,1.810663,0.56884,1.808129,0.16818
1702325008945312,-8.66565,1.41606,1.501663,0.57084,1.814729,0.17308
1702325008953125,-9.1565,1.80606,1.56663,0.57184,1.794729,0.17948
1702325008960937,-9.59965,1.87606,0.777663,0.82984,1.764829,0.18268
1702325008968750,-10.20565,1.126606,0.673663,0.88284,1.723229,0.18608
1702325008976562,-10.65765,1.165606,0.538663,0.89884,1.660729,0.19728
1702325008984375,-11.1965,1.209606,0.380663,0.82484,1.586429,0.20708
1702325008992187,-11.16865,1.223606,0.208663,0.79684,1.498929,0.20068
1702325009000000,-10.83665,1.174606,0.139337,0.93384,1.413529,0.19278
1702325009007812,-10.41165,1.68606,0.586337,0.129484,1.315029,0.17518
1702325009015625,-10.9665,0.964606,0.923337,0.129084,1.218829,0.15138
1702325009023437,-9.74765,0.895606,-1.217337,0.119484,1.168129,0.12718
1702325009031250,-9.50465,0.802606,-1.547337,0.123684,1.110929,0.10328
1702325009039062,-9.62565,0.711606,-1.989337,0.126084,1.22129,0.9378
1702325009046875,-10.9665,0.647606,-2.865337,0.137984,0.972729,0.9068
1702325009054687,-10.67665,0.681606,-3.789337,0.213684,0.935029,0.9548
1702325009062500,-11.36665,0.780606,-4.703337,0.260484,0.875629,0.10198
1702325009070312,-12.865,0.982606,-5.642337,0.216284,0.826729,0.10538
1702325009078125,-12.42465,1.309606,-6.687337,0.93584,0.810729,0.10368
1702325009085937,-12.62765,1.490606,-7.749337,0.14184,0.772829,0.11328
1702325009093750,-12.82665,1.385606,-8.650337,0.36516,0.745229,0.18388
1702325009101562,-13.9965,1.326606,-9.429337,0.78516,0.738229,0.22248
1702325009109375,-13.59565,1.33606,-10.20337,0.98616,0.739629,0.26088
1702325009117187,-14.41965,0.705606,-10.286337,0.81516,0.735629,0.33158
1702325009125000,-15.24365,0.592606,-10.211337,0.72416,0.690529,0.38768
1702325009132812,-15.72165,0.470606,-10.104337,0.79116,0.666429,0.44068
1702325009140625,-15.44465,0.472606,-10.154337,0.82516,0.668529,0.47768
1702325009148437,-14.60965,0.571606,-10.178337,0.36216,0.686529,0.46468
1702325009156250,-13.84965,0.515606,-10.113337,0.88484,0.708229,0.42458
1702325009164062,-13.32665,0.410606,-9.822337,0.248984,0.726929,0.36528
1702325009171875,-13.4665,0.390606,-9.244337,0.412484,0.722329,0.33008
1702325009179687,-13.6065,0.410606,-8.570337,0.542084,0.688429,0.32048
1702325009187500,-13.18965,0.465606,-8.8337,0.624784,0.621229,0.30768
1702325009195312,-13.24665,0.629606,-7.549337,0.722784,0.524029,0.30318
1702325009203125,-13.15265,0.740606,-7.147337,0.814284,0.404729,0.29858
1702325009210937,-12.93765,0.751606,-6.782337,0.893684,0.304529,0.28898
1702325009218750,-12.70165,0.602606,-6.653337,0.955284,0.216829,0.28418
1702325009226562,-12.48665,0.370606,-6.617337,0.988684,0.124129,0.27798
1702325009234375,-12.22765,0.189606,-6.543337,0.989184,0.42929,0.26848
1702325009242187,-11.92865,0.36606,-6.509337,0.959184,0.20571,0.27018
1702325009250000,-11.58965,0.41394,-6.489337,0.935384,0.59071,0.27508
1702325009257812,-11.20965,0.62394,-6.415337,0.926984,0.84471,0.28148
1702325009265625,-10.84665,0.76394,-6.302337,0.947984,0.102971,0.29598
1702325009273437,-10.52465,0.88394,-6.171337,0.977284,0.117871,0.31208
1702325009281250,-10.16465,0.76394,-5.982337,0.996384,0.144271,0.34098
1702325009289062,-9.93065,0.2394,-5.819337,1.7484,0.196771,0.39078
1702325009296875,-9.80365,0.150606,-5.736337,0.991284,0.258471,0.43908
1702325009304687,-9.72665,0.304606,-5.770337,0.969784,0.324071,0.48878
1702325009312500,-9.61565,0.407606,-5.881337,0.975984,0.372271,0.52088
1702325009320312,-9.50065,0.446606,-5.923337,1.2484,0.420871,0.54838
1702325009328125,-9.30465,0.388606,-5.908337,1.11684,0.455271,0.58208
1702325009335937,-9.2665,0.358606,-5.820337,1.33984,0.467971,0.59798
1702325009343750,-8.77665,0.305606,-5.730337,1.30584,0.477371,0.60928
1702325009351562,-8.55365,0.297606,-5.626337,1.16484,0.510971,0.61738
1702325009359375,-8.30965,0.369606,-5.484337,0.982484,0.558271,0.62378
1702325009367187,-7.99665,0.526606,-5.346337,0.955184,0.582971,0.63508
1702325009375000,-7.70465,0.760606,-5.213337,0.939384,0.634371,0.63188
1702325009382812,-7.33365,0.788606,-4.977337,0.910684,0.688771,0.63998
1702325009390625,-7.3465,0.821606,-4.873337,0.894584,0.688571,0.64158
1702325009398437,-6.85765,0.988606,-4.787337,0.890084,0.706871,0.64338
1702325009406250,-6.64465,1.117606,-4.719337,0.848384,0.719271,0.64178
1702325009414062,-6.43465,1.307606,-4.668337,0.806284,0.719571,0.63688
1702325009421875,-6.22965,1.356606,-4.672337,0.777584,0.713071,0.62578
1702325009429687,-6.7965,1.328606,-4.706337,0.770984,0.711971,0.61768
1702325009437500,-6.1265,1.356606,-4.688337,0.772384,0.696571,0.61918
1702325009445312,-5.96165,1.393606,-4.542337,0.771884,0.670471,0.62068
1702325009453125,-5.97665,1.501606,-4.313337,0.770184,0.621871,0.62708
1702325009460937,-5.99665,1.610606,-4.337,0.774484,0.583071,0.63508
1702325009468750,-6.565,1.763606,-3.620337,0.780984,0.559471,0.63508
1702325009476562,-5.99265,1.915606,-3.193337,0.769784,0.542071,0.63828
1702325009484375,-5.95665,2.27606,-2.714337,0.797584,0.555871,0.62238
1702325009492187,-5.92265,2.606,-2.224337,0.821584,0.587771,0.61418
1702325009500000,-5.90265,1.973606,-1.942337,0.823884,0.631071,0.60468
1702325009507812,-5.96165,1.917606,-1.947337,0.822284,0.654771,0.59668
1702325009515625,-5.99065,1.870606,-2.152337,0.835584,0.673071,0.59518
1702325009523437,-5.99665,1.862606,-2.279337,0.852084,0.707571,0.57588
1702325009531250,-6.7265,1.843606,-2.333337,0.867084,0.740371,0.55348
1702325009539062,-6.25865,1.855606,-2.315337,0.880184,0.754971,0.52298
1702325009546875,-6.42465,1.844606,-2.222337,0.911784,0.776371,0.48778
1702325009554687,-6.53465,1.857606,-2.86337,0.934584,0.794071,0.46048
1702325009562500,-6.62165,1.854606,-2.102337,0.970084,0.788271,0.43638
1702325009570312,-6.66565,1.779606,-2.231337,1.23584,0.767971,0.41388
1702325009578125,-6.68565,1.691606,-2.443337,1.39584,0.733971,0.39778
1702325009585937,-6.73665,1.657606,-2.628337,1.23284,0.688971,0.38968
1702325009593750,-6.99065,1.716606,-2.712337,1.584,0.649971,0.38328
1702325009601562,-7.30365,1.829606,-2.664337,0.979584,0.612571,0.37358
1702325009609375,-7.63465,1.931606,-2.530337,0.961784,0.592671,0.35908
1702325009617187,-7.92165,2.66606,-2.483337,0.957484,0.590871,0.33348
1702325009625000,-8.13265,2.242606,-2.478337,0.957384,0.600371,0.33348
1702325009632812,-8.14165,2.399606,-2.340337,0.956084,0.653771,0.31748
1702325009640625,-8.4465,2.521606,-2.205337,0.932484,0.689271,0.30798
1702325009648437,-7.86565,2.673606,-2.160337,0.913184,0.712871,0.30308
1702325009656250,-7.70765,2.602606,-2.180337,0.932684,0.714271,0.30478
1702325009664062,-7.70465,2.558606,-2.268337,0.951784,0.711271,0.30788
1702325009671875,-7.76965,2.517606,-2.361337,0.967984,0.695471,0.30638
1702325009679687,-7.87165,2.468606,-2.449337,0.990484,0.689171,0.31598
1702325009687500,-7.94665,2.404606,-2.514337,1.21184,0.665571,0.31118
1702325009695312,-7.96465,2.301606,-2.517337,1.53184,0.645771,0.30468
1702325009703125,-7.97865,2.177606,-2.530337,1.98084,0.609871,0.30788
1702325009710937,-8.12465,2.153606,-2.492337,1.136884,0.597171,0.30788
1702325009718750,-8.26065,2.157606,-2.460337,1.175684,0.609771,0.29818
1702325009726562,-8.30265,2.233606,-2.530337,1.200184,0.637571,0.30148
1702325009734375,-8.32865,2.300606,-2.566337,1.243984,0.645171,0.29518
1702325009742187,-8.23165,2.348606,-2.528337,1.306384,0.653771,0.29338
1702325009750000,-7.87465,2.386606,-2.332337,1.374784,0.648271,0.28068
1702325009757812,-7.47165,2.362606,-2.178337,1.426884,0.638671,0.26318
1702325009765625,-7.14965,2.375606,-2.72337,1.479984,0.628071,0.25188
1702325009773437,-6.92065,2.360606,-2.27337,1.531284,0.603271,0.25178
1702325009781250,-6.72265,2.309606,-2.57337,1.606784,0.569371,0.24848
1702325009789062,-6.53665,2.138606,-2.55337,1.684184,0.527071,0.23888
1702325009796875,-6.39465,1.974606,-2.52337,1.764884,0.475271,0.23248
1702325009804687,-6.30365,1.842606,-2.32337,1.840684,0.418571,0.24058
1702325009812500,-6.16965,1.736606,-1.983337,1.925484,0.334771,0.24038
1702325009820312,-5.96065,1.795606,-1.870337,2.11984,0.258471,0.24508
1702325009828125,-5.71665,1.831606,-1.730337,2.118284,0.178671,0.24028
1702325009835937,-5.60065,1.871606,-1.759337,2.214484,0.97971,0.23048
1702325009843750,-5.51465,1.921606,-1.827337,2.298084,0.27671,0.23208
1702325009851562,-5.44465,2.19606,-1.857337,2.355784,0.34629,0.23038
1702325009859375,-5.43265,2.46606,-1.809337,2.419384,0.119829,0.23338
1702325009867187,-5.48165,1.987606,-1.732337,2.488684,0.193629,0.23508
1702325009875000,-5.52365,1.917606,-1.737337,2.536284,0.271329,0.24618
1702325009882812,-5.67065,1.863606,-1.877337,2.564884,0.323129,0.26538
1702325009890625,-6.3265,1.871606,-2.134337,2.574084,0.326229,0.29588
1702325009898437,-6.43765,1.835606,-2.375337,2.578584,0.342229,0.32958
1702325009906250,-6.71365,1.684606,-2.585337,2.576784,0.361129,0.34398
1702325009914062,-6.95865,1.390606,-2.739337,2.572584,0.401029,0.35828
1702325009921875,-7.24365,0.916606,-2.901337,2.548784,0.439229,0.35678
1702325009929687,-7.37465,0.296606,-3.224337,2.495384,0.466829,0.34068
1702325009937500,-7.62065,0.294394,-3.560337,2.448284,0.506929,0.32928
1702325009945312,-8.26565,0.699394,-3.948337,2.388084,0.531129,0.32758
1702325009953125,-9.21365,0.955394,-4.356337,2.251484,0.512729,0.32118
1702325009960937,-10.19565,-1.33394,-4.708337,2.69084,0.492229,0.32438
1702325009968750,-11.3865,0.961394,-4.958337,1.891584,0.463729,0.32598
1702325009976562,-11.51865,0.925394,-4.955337,1.742984,0.483729,0.32268
1702325009984375,-11.48865,0.985394,-4.567337,1.634584,0.553629,0.30978
1702325009992187,-11.14065,0.939394,-3.930337,1.532284,0.665129,0.28878
1702325010000000,-10.79865,0.883394,-3.474337,1.409184,0.742629,0.27898
1702325010007812,-10.50765,0.874394,-3.235337,1.278784,0.725229,0.26128
1702325010015625,-10.22865,0.852394,-3.222337,1.167984,0.686429,0.25338
1702325010023437,-10.3865,0.850394,-3.348337,1.105084,0.655029,0.25658
1702325010031250,-9.86665,0.930394,-3.484337,1.67984,0.608229,0.27268
1702325010039062,-9.79665,-1.110394,-3.662337,1.30984,0.566729,0.30168
1702325010046875,-9.80265,-1.293394,-3.793337,1.24084,0.536829,0.32888
1702325010054687,-9.78765,-1.519394,-3.875337,1.25484,0.524529,0.35298
1702325010062500,-9.67165,-1.818394,-3.967337,1.22184,0.514229,0.38348
1702325010070312,-9.67565,-2.129394,-4.71337,1.41284,0.497129,0.40438
1702325010078125,-9.77165,-2.456394,-4.252337,1.77184,0.472929,0.41738
1702325010085937,-9.90065,-2.814394,-4.416337,1.109584,0.430529,0.41088
1702325010093750,-10.6265,-3.80394,-4.491337,1.148984,0.395129,0.40138
1702325010101562,-10.27965,-3.184394,-4.540337,1.153784,0.372429,0.37238
1702325010109375,-10.38065,-3.165394,-4.622337,1.107484,0.365629,0.32428
1702325010117187,-10.31965,-2.936394,-4.696337,1.69284,0.396929,0.29218
1702325010125000,-10.19965,-2.524394,-4.726337,1.29084,0.440129,0.24878
1702325010132812,-10.6665,-2.47394,-4.737337,0.973084,0.498129,0.21518
1702325010140625,-9.84665,-1.638394,-4.703337,0.935384,0.554729,0.19568
1702325010148437,-9.61865,-1.288394,-4.726337,0.877184,0.612329,0.18118
1702325010156250,-9.49765,0.980394,-4.765337,0.835484,0.618229,0.15398
1702325010164062,-9.41465,0.815394,-4.672337,0.790284,0.577129,0.14428
1702325010171875,-9.38665,0.439394,-4.440337,0.727684,0.536529,0.13308
1702325010179687,-9.26065,0.137394,-4.272337,0.647984,0.471929,0.13488
1702325010187500,-9.12565,0.147394,-4.325337,0.602684,0.431129,0.14768
1702325010195312,-9.2765,0.268394,-4.406337,0.592984,0.382829,0.16858
1702325010203125,-8.90865,0.404394,-4.440337,0.591284,0.320629,0.19908
1702325010210937,-8.78265,0.596394,-4.447337,0.587884,0.286329,0.21998
1702325010218750,-8.63065,0.912394,-4.456337,0.588484,0.262729,0.24908
1702325010226562,-8.46765,-1.272394,-4.456337,0.594684,0.240729,0.26348
1702325010234375,-8.36365,-1.656394,-4.379337,0.630184,0.251829,0.26188
1702325010242187,-8.16665,-1.975394,-4.223337,0.665584,0.242229,0.26188
1702325010250000,-8.565,-2.107394,-4.142337,0.657584,0.262829,0.26348
1702325010257812,-7.88765,-2.35394,-4.79337,0.621684,0.311029,0.26668
1702325010265625,-7.82265,-1.934394,-4.29337,0.569684,0.351129,0.26498
1702325010273437,-7.77365,-1.759394,-4.52337,0.505484,0.362429,0.26018
1702325010281250,-7.68465,-1.520394,-4.337,0.443584,0.330429,0.26808
1702325010289062,-7.56065,-1.335394,-3.930337,0.416784,0.281229,0.27948
1702325010296875,-7.38965,-1.114394,-3.858337,0.387784,0.237729,0.29558
1702325010304687,-7.26865,0.930394,-3.838337,0.381084,0.212729,0.31638
1702325010312500,-7.15465,0.768394,-3.874337,0.373184,0.189629,0.33088
1702325010320312,-7.12365,0.607394,-3.985337,0.375984,0.161529,0.36298
1702325010328125,-7.8765,0.497394,-4.111337,0.388884,0.151429,0.39838
1702325010335937,-7.9265,0.374394,-4.222337,0.405784,0.139829,0.42388
1702325010343750,-7.12665,0.356394,-4.371337,0.407184,0.135329,0.44798
1702325010351562,-7.7865,0.392394,-4.504337,0.405184,0.138929,0.48328
1702325010359375,-7.3265,0.313394,-4.615337,0.411284,0.165429,0.49928
1702325010367187,-7.26465,0.266394,-4.825337,0.429084,0.198529,0.50418
1702325010375000,-7.52365,0.322394,-5.12337,0.470984,0.186329,0.51698
1702325010382812,-7.41465,0.432394,-4.962337,0.491784,0.215029,0.54438
1702325010390625,-7.11465,0.570394,-4.732337,0.421384,0.328729,0.56828
1702325010398437,-6.94365,0.735394,-4.626337,0.343884,0.476729,0.55498
1702325010406250,-7.10365,0.848394,-4.568337,0.348684,0.548029,0.51638
1702325010414062,-7.58165,0.887394,-4.477337,0.381784,0.507129,0.46188
1702325010421875,-8.14465,0.728394,-4.497337,0.466884,0.426229,0.41708
1702325010429687,-8.59565,0.232394,-4.587337,0.516084,0.357929,0.40118
1702325010437500,-8.82465,0.297606,-4.707337,0.503084,0.368029,0.37218
1702325010445312,-8.80365,0.646606,-4.772337,0.438884,0.417829,0.33688
1702325010453125,-8.52065,0.788606,-4.757337,0.372584,0.510729,0.29508
1702325010460937,-8.18765,0.933606,-4.511337,0.304584,0.631929,0.25648
1702325010468750,-7.81865,0.981606,-4.59337,0.216784,0.740329,0.23698
1702325010476562,-7.40365,1.18606,-3.630337,0.105184,0.832429,0.23058
1702325010484375,-7.1365,1.15606,-3.301337,0.16416,0.880129,0.22718
1702325010492187,-6.53365,0.956606,-3.3337,0.113116,0.892529,0.22078
1702325010500000,-6.6965,0.901606,-2.730337,0.145416,0.854729,0.22228
1702325010507812,-5.60065,0.834606,-2.520337,0.134916,0.775729,0.21288
1702325010515625,-5.19665,0.949606,-2.426337,0.106716,0.672829,0.20178
1702325010523437,-4.66265,1.10606,-2.480337,0.62216,0.541929,0.18098
1702325010531250,-4.35665,1.206606,-2.663337,0.23716,0.409929,0.16198
1702325010539062,-4.28565,1.279606,-3.70337,0.3816,0.334529,0.12508
1702325010546875,-4.35165,1.224606,-3.581337,0.12616,0.280229,0.10758
1702325010554687,-4.58965,0.996606,-4.258337,0.49716,0.269029,0.10118
1702325010562500,-4.77165,0.632606,-4.944337,0.42216,0.301729,0.11708
1702325010570312,-4.81665,0.369606,-5.396337,0.7884,0.341229,0.12358
1702325010578125,-4.88565,0.180606,-5.624337,0.46584,0.390929,0.10108
1702325010585937,-5.5565,0.34606,-5.628337,0.74084,0.397129,0.9308
1702325010593750,-5.29965,0.8394,-5.423337,0.124384,0.341029,0.9468
1702325010601562,-5.63065,0.5394,-5.154337,0.153784,0.235229,0.10768
1702325010609375,-5.94365,0.74606,-5.7337,0.166984,0.163829,0.12858
1702325010617187,-6.20965,0.206606,-4.925337,0.161984,0.164129,0.15108
1702325010625000,-6.40765,0.429606,-4.842337,0.147784,0.210029,0.17488
1702325010632812,-6.39365,0.524606,-4.758337,0.137984,0.249629,0.19748
1702325010640625,-6.36365,0.587606,-4.618337,0.150584,0.315529,0.21188
1702325010648437,-6.33065,0.609606,-4.507337,0.204784,0.387029,0.22138
1702325010656250,-6.46465,0.612606,-4.451337,0.301984,0.393729,0.20868
1702325010664062,-6.71265,0.590606,-4.516337,0.429884,0.296829,0.19428
1702325010671875,-7.7765,0.558606,-4.818337,0.572284,0.102729,0.16408
1702325010679687,-7.48565,0.566606,-5.204337,0.669684,0.125671,0.12918
1702325010687500,-7.93665,0.621606,-5.816337,0.694184,0.293071,0.10708
1702325010695312,-8.48065,0.535606,-6.624337,0.698884,0.395071,0.11828
1702325010703125,-9.18165,0.329606,-7.408337,0.715884,0.401771,0.14538
1702325010710937,-9.86565,0.85606,-8.127337,0.780384,0.368071,0.17278
1702325010718750,-10.24965,0.263394,-8.525337,0.880084,0.294571,0.18078
1702325010726562,-10.25765,0.609394,-8.504337,0.835084,0.173671,0.19978
1702325010742187,-10.9065,0.745394,-8.109337,0.429284,0.126329,0.23138
1702325010750000,-9.93265,0.504394,-7.748337,0.307584,0.154029,0.25538
1702325010757812,-9.71865,0.344394,-7.430337,0.248284,0.115729,0.27158
1702325010765625,-9.51765,0.143394,-7.195337,0.230984,0.65829,0.26198
1702325010773437,-9.27765,0.116606,-7.91337,0.221384,0.31429,0.26358
1702325010781250,-9.7465,0.361606,-7.272337,0.219684,0.4629,0.26198
1702325010789062,-8.92465,0.486606,-7.561337,0.184884,0.33871,0.25728
1702325010796875,-8.82465,0.558606,-7.880337,0.137984,0.44971,0.26208
1702325010804687,-8.83165,0.494606,-8.180337,0.132884,0.67271,0.26038
