time,Acceleration X (m/s^2),Acceleration Y (m/s^2),Acceleration Z (m/s^2),Angular Velocity X (rad/s),Angular Velocity Y (rad/s),Angular Velocity Z (rad/s)
1696784215507812,-9.583168,1.208648,-0.386928,,,
1696784215515625,-9.620168,1.233648,0.409928,0.328951,0.6723,0.109944
1696784215523437,-9.590168,1.257648,0.313928,0.309551,0.11123,0.90944
1696784215531250,-9.664168,1.306648,0.266928,0.297351,0.13377,0.82544
1696784215539062,-9.798168,1.306648,0.359928,0.286751,0.20977,0.72944
1696784215546875,-9.900168,1.330648,0.421928,0.277551,0.35977,0.72544
1696784215562500,-10.95168,1.386648,0.469928,0.253351,0.40177,0.56444
1696784215570312,-10.182168,1.421648,0.535928,0.236951,0.25577,0.40944
1696784215578125,-10.232168,1.441648,0.562928,0.220351,0.13277,0.36344
1696784215585937,-10.206168,1.396648,0.565928,0.213051,0.2377,0.19244
1696784215609375,-10.203168,1.260648,0.624928,0.157351,0.38723,0.6956
1696784215617187,-10.191168,1.211648,0.655928,0.128951,0.57223,0.35056
1696784215625000,-10.106168,1.158648,0.537928,0.97251,0.75223,0.47556
1696784215632812,-9.975168,1.140648,0.457928,0.59451,0.80123,0.63356
1696784215640625,-9.927168,1.111648,0.464928,0.30751,0.84423,0.77756
1696784215648437,-9.928168,1.65648,0.459928,0.10249,0.83923,0.87456
1696784215656250,-9.830168,1.20648,0.411928,0.43249,0.92023,0.111256
1696784215664062,-9.736168,0.947648,0.336928,0.82649,0.90123,0.125756
1696784215671875,-9.676168,0.877648,0.294928,0.120749,0.87423,0.127656
1696784215679687,-9.696168,0.841648,0.345928,0.166449,0.74023,0.139156
1696784215687500,-9.908168,0.764648,0.353928,0.228649,0.62323,0.157256
1696784215695312,-10.20168,0.631648,0.440928,0.283049,0.61723,0.188956
1696784215703125,-9.953168,0.562648,0.540928,0.352549,0.71023,0.219256
1696784215710937,-9.935168,0.567648,0.513928,0.437649,0.66523,0.238856
1696784215718750,-10.45168,0.594648,0.504928,0.516349,0.63023,0.269256
1696784215726562,-10.169168,0.583648,0.636928,0.599549,0.61223,0.310856
1696784215734375,-10.233168,0.603648,0.707928,0.680949,0.80023,0.356656
1696784215742187,-10.283168,0.696648,0.686928,0.770149,0.103323,0.396156
1696784215750000,-10.337168,0.815648,0.638928,0.855949,0.109123,0.456556
1696784215757812,-10.363168,0.891648,0.639928,0.914249,0.137823,0.514556
1696784215765625,-10.320168,0.942648,0.657928,0.998249,0.157623,0.588756
1696784215773437,-10.166168,0.926648,0.607928,1.60949,0.173323,0.656556
1696784215781250,-9.865168,0.800648,0.545928,1.111849,0.189723,0.706956
1696784215789062,-9.656168,0.716648,0.442928,1.175649,0.180123,0.728056
1696784215796875,-9.604168,0.706648,0.367928,1.222849,0.159523,0.733556
1696784215804687,-9.665168,0.734648,0.376928,1.253449,0.154823,0.729156
1696784215812500,-9.758168,0.755648,0.422928,1.288549,0.157323,0.726156
1696784215820312,-9.851168,0.743648,0.408928,1.297649,0.176123,0.725756
1696784215828125,-9.890168,0.756648,0.308928,1.308249,0.181423,0.722556
1696784215835937,-9.956168,0.796648,0.292928,1.315949,0.177823,0.721156
1696784215843750,-10.2168,0.839648,0.320928,1.298949,0.197923,0.730156
1696784215851562,-10.48168,0.946648,0.333928,1.292349,0.205423,0.755156
1696784215859375,-10.53168,0.905648,0.288928,1.273549,0.223023,0.776656
1696784215867187,-9.883168,0.910648,0.267928,1.241049,0.236623,0.801356
1696784215875000,-9.831168,0.923648,0.236928,1.218149,0.222923,0.807756
1696784215882812,-9.914168,0.893648,0.226928,1.181449,0.215623,0.818756
1696784215890625,-9.888168,0.795648,0.240928,1.138749,0.229923,0.816556
1696784215898437,-9.838168,0.635648,0.185928,1.105449,0.228723,0.802156
1696784215906250,-9.769168,0.484648,0.96928,1.69049,0.221023,0.792656
1696784215914062,-9.703168,0.382648,0.148928,1.28149,0.202723,0.784956
1696784215921875,-9.775168,0.294648,0.177928,1.11549,0.190323,0.777156
1696784215929687,-9.878168,0.149648,0.148928,0.969049,0.181223,0.770656
1696784215937500,-9.880168,0.9648,0.149928,0.937349,0.181323,0.751656
1696784215945312,-9.845168,0.90352,0.197928,0.908749,0.171623,0.734356
1696784215953125,-9.797168,0.206352,0.201928,0.883549,0.152623,0.701556
1696784215960937,-9.749168,0.312352,0.167928,0.867349,0.151223,0.665156
1696784215968750,-9.705168,0.352352,0.157928,0.848249,0.124323,0.637356
1696784215976562,-9.689168,0.371352,0.132928,0.821549,0.112123,0.596456
1696784215984375,-9.759168,0.424352,0.66928,0.793349,0.108323,0.552156
1696784215992187,-9.887168,0.475352,0.73928,0.763449,0.87823,0.522556
1696784216000000,-10.31168,0.596352,0.112928,0.734949,0.88123,0.498656
1696784216007812,-10.77168,0.699352,0.134928,0.713849,0.96923,0.482656
1696784216015625,-10.42168,0.770352,0.66928,0.701649,0.95123,0.480956
1696784216023437,-9.998168,0.864352,0.36928,0.683249,0.100123,0.485456
1696784216031250,-9.914168,-1.12352,0.49928,0.684749,0.91823,0.490356
1696784216039062,-9.833168,-1.194352,0.72928,0.683049,0.92323,0.501356
1696784216046875,-9.810168,-1.336352,0.73928,0.683149,0.81923,0.498456
1696784216054687,-9.749168,-1.409352,0.89928,0.686349,0.70123,0.493956
1696784216062500,-9.683168,-1.426352,0.103928,0.703049,0.60723,0.498956
1696784216070312,-9.618168,-1.430352,0.64928,0.693949,0.66623,0.495756
1696784216078125,-9.603168,-1.419352,0.48928,0.684949,0.62923,0.486356
1696784216085937,-9.628168,-1.406352,0.62928,0.672849,0.69123,0.478156
1696784216093750,-9.699168,-1.378352,0.57928,0.651749,0.78123,0.460556
1696784216101562,-9.836168,-1.296352,0.26928,0.644349,0.74223,0.452756
1696784216109375,-10.24168,-1.233352,0.1928,0.610949,0.86323,0.439656
1696784216117187,-10.144168,-1.218352,0.19072,0.586649,0.95623,0.431456
1696784216125000,-10.160168,-1.277352,0.87072,0.550149,0.103123,0.419856
1696784216132812,-10.82168,-1.351352,0.142072,0.521549,0.116623,0.394256
1696784216140625,-9.995168,-1.428352,0.213072,0.503749,0.131823,0.363856
1696784216148437,-9.901168,-1.492352,0.274072,0.470549,0.123723,0.343356
1696784216156250,-9.837168,-1.524352,0.313072,0.449649,0.113723,0.321456
1696784216164062,-9.844168,-1.534352,0.340072,0.427149,0.101323,0.304056
1696784216171875,-9.848168,-1.586352,0.338072,0.412049,0.98723,0.296256
1696784216179687,-9.772168,-1.673352,0.331072,0.398449,0.93523,0.292956
1696784216187500,-9.567168,-1.782352,0.320072,0.390849,0.88323,0.294656
1696784216195312,-9.414168,-1.855352,0.318072,0.377149,0.62823,0.298256
1696784216203125,-9.452168,-1.919352,0.232072,0.380249,0.32923,0.305256
1696784216210937,-9.590168,-1.966352,0.159072,0.372649,0.16223,0.311856
1696784216218750,-9.679168,-2.352,0.61072,0.369549,0.19523,0.316556
1696784216226562,-9.701168,-2.38352,0.21072,0.367949,0.21223,0.319656
1696784216234375,-9.678168,-2.98352,0.47928,0.354149,0.16223,0.327556
1696784216242187,-9.610168,-2.130352,0.120928,0.341849,0.22923,0.328856
1696784216250000,-9.562168,-2.119352,0.115928,0.332749,0.22323,0.324156
1696784216257812,-9.647168,-2.69352,0.108928,0.307249,0.27523,0.300256
1696784216265625,-9.815168,-2.14352,0.145928,0.293749,0.21823,0.289256
1696784216273437,-9.922168,-1.969352,0.216928,0.264849,0.37523,0.277656
1696784216281250,-9.971168,-1.982352,0.193928,0.229749,0.58423,0.272356
1696784216289062,-9.998168,-2.22352,0.104928,0.219449,0.65923,0.251556
1696784216296875,-10.43168,-2.80352,0.111928,0.190849,0.62923,0.230956
1696784216304687,-10.1168,-2.160352,0.138928,0.165149,0.71723,0.211656
1696784216312500,-9.935168,-2.186352,0.67928,0.158249,0.76923,0.172056
1696784216320312,-9.922168,-2.148352,0.37072,0.146649,0.76623,0.134256
1696784216328125,-9.991168,-2.115352,0.55072,0.132049,0.78523,0.94656
1696784216335937,-10.32168,-2.74352,0.34072,0.129549,0.87123,0.61456
1696784216343750,-10.11168,-1.992352,0.114072,0.114449,0.103223,0.48356
1696784216351562,-9.975168,-1.921352,0.248072,0.93449,0.121923,0.20956
1696784216359375,-10.42168,-1.843352,0.309072,0.76749,0.129523,0.9756
1696784216367187,-10.140168,-1.801352,0.336072,0.66149,0.134423,0.9556
1696784216375000,-10.179168,-1.807352,0.371072,0.43049,0.152223,0.15456
1696784216382812,-10.148168,-1.839352,0.430072,0.33549,0.163223,0.33956
1696784216390625,-10.40168,-1.911352,0.503072,0.18149,0.162723,0.38656
1696784216398437,-9.885168,-2.14352,0.553072,0.5949,0.171023,0.39956
1696784216406250,-9.744168,-2.92352,0.594072,0.4549,0.160823,0.36956
1696784216414062,-9.655168,-2.114352,0.651072,0.4849,0.140423,0.24756
1696784216421875,-9.564168,-2.160352,0.670072,0.5149,0.124923,0.12456
1696784216429687,-9.460168,-2.174352,0.656072,0.849,0.107423,0.3356
1696784216437500,-9.340168,-2.153352,0.668072,0.3451,0.75023,0.3744
1696784216445312,-9.263168,-2.127352,0.659072,0.9251,0.51023,0.11144
1696784216453125,-9.245168,-2.121352,0.599072,0.1151,0.13723,0.27744
1696784216460937,-9.283168,-2.102352,0.529072,0.2351,0.13677,0.33344
1696784216468750,-9.325168,-2.64352,0.460072,0.9851,0.29077,0.37844
1696784216476562,-9.371168,-2.12352,0.405072,0.5151,0.37677,0.43844
1696784216484375,-9.449168,-1.972352,0.305072,0.351,0.52877,0.48244
1696784216492187,-9.556168,-1.933352,0.225072,0.6651,0.57477,0.34044
1696784216500000,-9.692168,-1.889352,0.166072,0.10049,0.52077,0.32444
1696784216507812,-9.845168,-1.809352,0.122072,0.2249,0.40377,0.31144
1696784216515625,-10.4168,-1.776352,0.79072,0.13251,0.29777,0.17444
1696784216523437,-10.85168,-1.778352,0.38072,0.15251,0.3723,0.3744
1696784216531250,-10.71168,-1.825352,0.27072,0.14251,0.38323,0.17556
1696784216539062,-9.998168,-1.874352,0.77072,0.26651,0.58723,0.21656
1696784216546875,-10.28168,-1.891352,0.134072,0.26851,0.69323,0.32356
1696784216554687,-10.150168,-1.879352,0.120072,0.36051,0.70923,0.35456
1696784216562500,-10.203168,-1.849352,0.106072,0.37751,0.106023,0.31556
1696784216570312,-10.134168,-1.841352,0.157072,0.39251,0.130723,0.21556
1696784216578125,-9.976168,-1.866352,0.250072,0.57551,0.147023,0.13156
1696784216585937,-9.839168,-1.876352,0.334072,0.66451,0.154523,0.4344
1696784216593750,-9.715168,-1.856352,0.425072,0.73751,0.175323,0.28444
1696784216601562,-9.607168,-1.820352,0.505072,0.105251,0.173523,0.56944
1696784216609375,-9.585168,-1.793352,0.580072,0.110951,0.169123,0.80544
1696784216617187,-9.582168,-1.782352,0.596072,0.119751,0.158123,0.96044
1696784216625000,-9.535168,-1.791352,0.596072,0.137951,0.146023,0.95944
1696784216632812,-9.511168,-1.854352,0.631072,0.125751,0.124523,0.89044
1696784216640625,-9.465168,-1.906352,0.633072,0.115051,0.98123,0.80544
1696784216648437,-9.453168,-1.944352,0.626072,0.110451,0.86623,0.77144
1696784216656250,-9.496168,-1.988352,0.608072,0.102751,0.68423,0.75144
1696784216664062,-9.508168,-2.39352,0.551072,0.82951,0.58623,0.74744
1696784216671875,-9.554168,-2.75352,0.526072,0.66151,0.47823,0.69844
1696784216679687,-9.596168,-2.109352,0.549072,0.58551,0.42723,0.69544
1696784216687500,-9.660168,-2.108352,0.501072,0.40051,0.27823,0.72344
1696784216695312,-9.749168,-2.110352,0.455072,0.27751,0.18123,0.76844
1696784216703125,-9.821168,-2.91352,0.449072,0.14251,0.17123,0.64144
1696784216710937,-9.850168,-2.97352,0.437072,0.10049,0.26023,0.60944
1696784216718750,-9.829168,-2.110352,0.417072,0.9949,0.27523,0.59244
1696784216726562,-9.805168,-2.104352,0.412072,0.11449,0.32923,0.57944
1696784216734375,-9.832168,-2.64352,0.414072,0.29749,0.36423,0.60944
1696784216742187,-9.860168,-2.14352,0.410072,0.28349,0.37923,0.68944
1696784216750000,-9.862168,-1.959352,0.414072,0.26949,0.47823,0.77144
1696784216757812,-9.859168,-1.905352,0.448072,0.19549,0.50223,0.91244
1696784216765625,-9.819168,-1.883352,0.460072,0.1549,0.55923,0.108844
1696784216773437,-9.744168,-1.871352,0.462072,0.1551,0.62423,0.112144
1696784216781250,-9.672168,-1.866352,0.480072,0.16551,0.56923,0.124944
1696784216789062,-9.624168,-1.924352,0.521072,0.30051,0.52823,0.132744
1696784216796875,-9.609168,-2.4352,0.524072,0.43451,0.49923,0.154744
1696784216804687,-9.606168,-2.24352,0.522072,0.38651,0.41123,0.163944
1696784216812500,-9.663168,-1.984352,0.521072,0.42951,0.25523,0.174644
1696784216820312,-9.743168,-1.949352,0.478072,0.46151,0.15723,0.163444
1696784216828125,-9.768168,-1.973352,0.439072,0.47751,0.14223,0.157044
1696784216835937,-9.738168,-2.18352,0.453072,0.44851,0.13123,0.147644
1696784216843750,-9.722168,-2.5352,0.437072,0.37151,0.8577,0.145544
1696784216851562,-9.768168,-1.967352,0.389072,0.37151,0.13277,0.142444
1696784216859375,-9.845168,-1.932352,0.350072,0.43151,0.13977,0.148544
1696784216867187,-9.900168,-1.880352,0.350072,0.34051,0.8677,0.147044
1696784216875000,-9.903168,-1.826352,0.346072,0.41651,0.17277,0.145344
1696784216882812,-9.908168,-1.800352,0.309072,0.46251,0.8877,0.148744
1696784216890625,-9.875168,-1.773352,0.300072,0.56751,0.14377,0.155044
1696784216898437,-9.845168,-1.733352,0.280072,0.61251,0.8177,0.161344
1696784216906250,-9.837168,-1.677352,0.238072,0.62551,0.8677,0.175644
1696784216914062,-9.806168,-1.649352,0.241072,0.74351,0.2023,0.198044
1696784216921875,-9.781168,-1.669352,0.250072,0.91051,0.3123,0.206044
1696784216929687,-9.752168,-1.689352,0.215072,0.89351,0.6523,0.215744
1696784216937500,-9.727168,-1.716352,0.204072,0.96751,0.877,0.228244
1696784216945312,-9.704168,-1.724352,0.206072,0.89051,0.9277,0.229444
1696784216953125,-9.713168,-1.693352,0.195072,0.78351,0.12577,0.229344
1696784216960937,-9.774168,-1.656352,0.181072,0.59651,0.33077,0.246044
1696784216968750,-9.813168,-1.620352,0.147072,0.58051,0.36677,0.250644
1696784216976562,-9.821168,-1.555352,0.138072,0.54851,0.38577,0.255244
1696784216984375,-9.857168,-1.494352,0.113072,0.40851,0.37377,0.272344
1696784216992187,-9.875168,-1.416352,0.94072,0.46851,0.32477,0.280544
1696784217000000,-9.870168,-1.341352,0.69072,0.46751,0.29177,0.287044
1696784217007812,-9.863168,-1.240352,0.60072,0.37551,0.26177,0.293244
1696784217015625,-9.894168,-1.159352,0.64072,0.48251,0.26277,0.291744
1696784217023437,-9.906168,-1.110352,0.39072,0.46951,0.20777,0.282444
1696784217031250,-9.881168,-1.79352,0.34072,0.56251,0.13977,0.273144
1696784217039062,-9.859168,-1.48352,0.53072,0.45751,0.8377,0.265244
1696784217046875,-9.850168,-1.57352,0.71072,0.49051,0.8723,0.254644
1696784217054687,-9.846168,-1.87352,0.73072,0.47951,0.8123,0.234244
1696784217062500,-9.849168,-1.86352,0.78072,0.40451,0.1677,0.219644
1696784217070312,-9.944168,-1.82352,0.114072,0.34651,0.2223,0.207044
1696784217078125,-10.30168,-1.88352,0.119072,0.35051,0.3223,0.183444
1696784217085937,-10.44168,-1.77352,0.84072,0.23151,0.9223,0.164644
1696784217093750,-10.33168,-1.70352,0.98072,0.17251,0.18123,0.156944
1696784217101562,-10.26168,-1.80352,0.123072,0.649,0.17823,0.134744
1696784217109375,-10.17168,-1.73352,0.100072,0.14249,0.19923,0.130044
1696784217117187,-10.36168,-1.53352,0.123072,0.11049,0.20223,0.122244
1696784217125000,-10.18168,-1.35352,0.102072,0.18749,0.25323,0.126944
1696784217132812,-9.956168,-1.44352,0.100072,0.21549,0.28923,0.114344
1696784217140625,-9.900168,-1.55352,0.134072,0.20049,0.37523,0.116244
1696784217148437,-9.854168,-1.59352,0.103072,0.32349,0.42423,0.122444
1696784217156250,-9.854168,-1.59352,0.87072,0.36949,0.42023,0.128644
1696784217164062,-9.837168,-1.10352,0.125072,0.38749,0.50123,0.143044
1696784217171875,-9.788168,0.971352,0.164072,0.35649,0.50223,0.141544
1696784217179687,-9.746168,0.978352,0.187072,0.38749,0.51823,0.143044
1696784217187500,-9.701168,-1.6352,0.171072,0.38549,0.50623,0.132044
1696784217195312,-9.696168,-1.46352,0.191072,0.36849,0.52523,0.125844
1696784217203125,-9.713168,-1.99352,0.192072,0.39949,0.44023,0.123944
1696784217210937,-9.745168,-1.128352,0.194072,0.50649,0.22723,0.118744
1696784217218750,-9.820168,-1.138352,0.176072,0.53549,0.23423,0.107844
1696784217226562,-9.885168,-1.155352,0.164072,0.65549,0.15623,0.96544
1696784217234375,-9.914168,-1.146352,0.151072,0.83849,0.17623,0.94844
1696784217242187,-9.949168,-1.118352,0.155072,0.79149,0.16123,0.88544
1696784217250000,-9.971168,-1.86352,0.135072,0.82149,0.11023,0.85144
1696784217257812,-10.13168,-1.33352,0.155072,0.83849,0.15923,0.94744
1696784217265625,-10.50168,0.964352,0.157072,0.79349,0.20723,0.102844
1696784217273437,-10.52168,0.895352,0.166072,0.71749,0.25623,0.103044
1696784217281250,-10.30168,0.822352,0.177072,0.62449,0.37423,0.101844
1696784217289062,-10.4168,0.785352,0.195072,0.48749,0.44023,0.102144
1696784217296875,-9.997168,0.748352,0.225072,0.31649,0.47323,0.84844
1696784217304687,-9.958168,0.748352,0.241072,0.37649,0.49223,0.78444
1696784217312500,-9.886168,0.754352,0.245072,0.28049,0.60023,0.58344
1696784217320312,-9.830168,0.817352,0.305072,0.30949,0.47123,0.43844
1696784217328125,-9.782168,0.883352,0.298072,0.26449,0.38623,0.46844
1696784217335937,-9.743168,0.953352,0.294072,0.21749,0.40623,0.39144
1696784217343750,-9.711168,0.971352,0.330072,0.34049,0.27323,0.37144
1696784217351562,-9.710168,0.981352,0.339072,0.34149,0.25223,0.43244
1696784217359375,-9.728168,0.997352,0.323072,0.35849,0.4923,0.49144
1696784217367187,-9.744168,0.978352,0.321072,0.37449,0.1423,0.48944
1696784217375000,-9.817168,0.949352,0.307072,0.57149,0.14277,0.36044
1696784217382812,-9.879168,0.917352,0.257072,0.41849,0.27877,0.31144
1696784217390625,-9.923168,0.899352,0.243072,0.40149,0.17277,0.25144
1696784217398437,-9.949168,0.873352,0.246072,0.40049,0.27477,0.16944
1696784217406250,-9.955168,0.840352,0.232072,0.33749,0.26877,0.2944
1696784217414062,-9.936168,0.851352,0.209072,0.33649,0.20077,0.1756
1696784217421875,-9.907168,0.838352,0.221072,0.34949,0.28077,0.14556
1696784217429687,-9.889168,0.814352,0.227072,0.19749,0.29977,0.12856
1696784217437500,-9.933168,0.830352,0.170072,0.7249,0.26077,0.28356
1696784217445312,-9.989168,0.862352,0.118072,0.10149,0.27277,0.41056
1696784217453125,-9.985168,0.888352,0.111072,0.8449,0.20677,0.45756
1696784217460937,-10.17168,0.892352,0.109072,0.2349,0.23977,0.52056
1696784217468750,-10.46168,0.919352,0.59072,0.3851,0.10577,0.50156
1696784217476562,-10.53168,0.955352,0.22072,0.11551,0.3023,0.49656
1696784217484375,-10.36168,-1.3352,0.36072,0.16351,0.4723,0.62356
1696784217492187,-10.16168,-1.62352,0.27072,0.27151,0.13423,0.68256
1696784217500000,-10.21168,-1.108352,0.18072,0.18051,0.15023,0.68356
1696784217507812,-10.15168,-1.115352,0.12072,0.17951,0.15023,0.65256
1696784217515625,-10.20168,-1.95352,0.30072,0.20951,0.21423,0.57156
1696784217523437,-10.17168,-1.81352,0.37072,0.34551,0.27323,0.50756
1696784217531250,-10.6168,-1.77352,0.18072,0.40651,0.30623,0.49056
1696784217539062,-10.11168,-1.53352,0.16072,0.51051,0.26523,0.31656
1696784217546875,-10.20168,-1.17352,0.48072,0.66051,0.32323,0.20456
1696784217554687,-10.12168,0.979352,0.68072,0.64451,0.45423,0.7556
1696784217562500,-10.16168,0.961352,0.59072,0.81051,0.43023,0.1256
1696784217570312,-10.21168,0.944352,0.86072,0.88651,0.49523,0.2144
1696784217578125,-9.994168,0.922352,0.100072,0.105451,0.60923,0.4044
1696784217585937,-9.956168,0.946352,0.120072,0.113251,0.73023,0.1444
1696784217593750,-9.921168,0.976352,0.137072,0.124151,0.78023,0.11156
1696784217601562,-9.891168,-1.10352,0.155072,0.124251,0.78123,0.17556
1696784217609375,-9.910168,0.999352,0.194072,0.127351,0.78323,0.18956
1696784217617187,-9.925168,-1.34352,0.180072,0.139551,0.74723,0.23756
1696784217625000,-9.895168,-1.77352,0.135072,0.136751,0.75323,0.39556
1696784217632812,-9.878168,-1.117352,0.148072,0.130551,0.78523,0.31656
1696784217640625,-9.836168,-1.118352,0.162072,0.130751,0.85623,0.37756
1696784217648437,-9.809168,-1.103352,0.185072,0.135151,0.96723,0.23256
1696784217656250,-9.827168,-1.91352,0.198072,0.138151,0.103123,0.16856
1696784217664062,-9.852168,-1.111352,0.219072,0.136351,0.102623,0.1056
1696784217671875,-9.877168,-1.127352,0.212072,0.131651,0.97623,0.3544
1696784217679687,-9.849168,-1.154352,0.239072,0.116451,0.104823,0.444
1696784217687500,-9.808168,-1.190352,0.276072,0.111851,0.103023,0.5144
1696784217695312,-9.823168,-1.212352,0.294072,0.102451,0.101023,0.14344
1696784217703125,-9.858168,-1.206352,0.280072,0.79351,0.86223,0.25044
1696784217710937,-9.846168,-1.163352,0.294072,0.71551,0.94023,0.40844
1696784217718750,-9.779168,-1.95352,0.340072,0.65351,0.90523,0.43844
1696784217726562,-9.736168,-1.76352,0.347072,0.47151,0.87423,0.38744
1696784217734375,-9.706168,-1.90352,0.333072,0.39351,0.89123,0.46644
1696784217742187,-9.677168,-1.116352,0.335072,0.37951,0.76123,0.36944
1696784217750000,-9.631168,-1.142352,0.342072,0.29051,0.76723,0.22644
1696784217757812,-9.595168,-1.204352,0.301072,0.15551,0.72923,0.10144
1696784217765625,-9.625168,-1.270352,0.247072,0.5749,0.61523,0.1644
1696784217773437,-9.690168,-1.343352,0.240072,0.13149,0.47423,0.17456
1696784217781250,-9.734168,-1.405352,0.201072,0.31349,0.41423,0.25556
1696784217789062,-9.736168,-1.453352,0.154072,0.32949,0.31123,0.25956
1696784217796875,-9.761168,-1.478352,0.131072,0.43649,0.28223,0.21156
1696784217804687,-9.860168,-1.467352,0.129072,0.59149,0.24523,0.8856
1696784217812500,-9.965168,-1.448352,0.69072,0.62149,0.26323,0.10356
1696784217820312,-10.17168,-1.441352,0.24072,0.71349,0.39723,0.656
1696784217828125,-10.29168,-1.445352,0.60072,0.68149,0.46723,0.8356
1696784217835937,-10.6168,-1.459352,0.44072,0.63649,0.54623,0.356
1696784217843750,-9.988168,-1.468352,0.10072,0.56249,0.55823,0.10844
1696784217851562,-10.28168,-1.425352,0.56072,0.57849,0.65423,0.18844
1696784217859375,-10.111168,-1.382352,0.83072,0.53449,0.71723,0.33244
1696784217867187,-10.183168,-1.356352,0.53072,0.55049,0.68123,0.34644
1696784217875000,-10.224168,-1.346352,0.62072,0.41049,0.90123,0.25744
1696784217882812,-10.196168,-1.364352,0.112072,0.33349,0.100723,0.24744
1696784217890625,-10.102168,-1.391352,0.117072,0.34849,0.103623,0.24644
1696784217898437,-10.20168,-1.397352,0.144072,0.34849,0.103623,0.26244
1696784217906250,-10.11168,-1.383352,0.178072,0.50449,0.86523,0.36644
1696784217914062,-9.996168,-1.372352,0.176072,0.55249,0.84523,0.52444
1696784217921875,-9.971168,-1.330352,0.174072,0.56949,0.82223,0.63244
1696784217929687,-9.899168,-1.266352,0.190072,0.64949,0.75123,0.78844
1696784217937500,-9.853168,-1.202352,0.196072,0.50049,0.62223,0.99144
1696784217945312,-9.851168,-1.149352,0.176072,0.59449,0.50423,0.105144
1696784217953125,-9.870168,-1.82352,0.144072,0.59649,0.51723,0.121044
1696784217960937,-9.894168,0.993352,0.155072,0.62749,0.55023,0.122644
1696784217968750,-9.902168,0.919352,0.155072,0.65749,0.61623,0.124244
1696784217976562,-9.911168,0.852352,0.152072,0.58149,0.56523,0.121044
1696784217984375,-9.910168,0.810352,0.159072,0.45649,0.65323,0.110444
1696784217992187,-9.890168,0.788352,0.191072,0.36449,0.63623,0.104144
1696784218000000,-9.883168,0.763352,0.200072,0.36249,0.68823,0.93044
1696784218007812,-9.891168,0.743352,0.197072,0.34349,0.76423,0.77644
1696784218015625,-9.886168,0.743352,0.214072,0.32749,0.76523,0.68044
1696784218023437,-9.858168,0.739352,0.252072,0.18749,0.80123,0.54044
1696784218031250,-9.879168,0.712352,0.295072,0.8049,0.73223,0.50844
1696784218039062,-9.904168,0.705352,0.296072,0.10949,0.67023,0.38044
1696784218046875,-9.917168,0.704352,0.314072,0.1749,0.70123,0.36544
1696784218054687,-9.927168,0.692352,0.327072,0.10551,0.71923,0.35244
1696784218062500,-9.910168,0.654352,0.339072,0.13551,0.68423,0.36744
1696784218070312,-9.914168,0.642352,0.341072,0.28851,0.71523,0.32144
1696784218078125,-9.943168,0.612352,0.377072,0.37851,0.64823,0.36944
1696784218085937,-9.994168,0.575352,0.370072,0.40951,0.67623,0.38444
1696784218093750,-10.19168,0.577352,0.359072,0.54551,0.64023,0.40044
1696784218101562,-9.947168,0.593352,0.338072,0.66951,0.75723,0.34044
1696784218109375,-9.856168,0.631352,0.386072,0.64051,0.78023,0.26344
1696784218117187,-9.843168,0.659352,0.402072,0.71551,0.72323,0.30844
1696784218125000,-9.875168,0.692352,0.339072,0.83851,0.63923,0.24444
1696784218132812,-9.880168,0.704352,0.302072,0.85451,0.56123,0.14944
1696784218140625,-9.859168,0.717352,0.366072,0.85651,0.64523,0.8744
1696784218148437,-9.800168,0.774352,0.368072,0.88751,0.63323,0.944
1696784218156250,-9.762168,0.848352,0.328072,0.76751,0.53923,0.13556
1696784218164062,-9.763168,0.866352,0.343072,0.62951,0.59223,0.5556
1696784218171875,-9.767168,0.872352,0.357072,0.67551,0.52523,0.11956
1696784218179687,-9.782168,0.903352,0.339072,0.64551,0.47723,0.16856
1696784218187500,-9.801168,0.935352,0.312072,0.64551,0.30423,0.17456
1696784218195312,-9.819168,0.944352,0.326072,0.52251,0.29123,0.15856
1696784218203125,-9.838168,0.949352,0.301072,0.38451,0.19123,0.11456
1696784218210937,-9.874168,0.937352,0.278072,0.39851,0.8923,0.6956
1696784218218750,-9.915168,0.912352,0.271072,0.39651,0.11923,0.1044
1696784218226562,-9.957168,0.894352,0.248072,0.35051,0.12023,0.5844
1696784218234375,-9.984168,0.854352,0.243072,0.31851,0.16823,0.16944
1696784218242187,-9.996168,0.809352,0.250072,0.36451,0.21723,0.13844
1696784218250000,-10.46168,0.773352,0.264072,0.37851,0.19823,0.21744
1696784218257812,-10.88168,0.723352,0.250072,0.47151,0.39923,0.17444
1696784218265625,-10.99168,0.700352,0.261072,0.63951,0.54223,0.25644
1696784218273437,-10.106168,0.696352,0.309072,0.62451,0.59423,0.24244
1696784218281250,-10.110168,0.691352,0.314072,0.71651,0.51023,0.17844
1696784218289062,-10.79168,0.707352,0.311072,0.82551,0.69523,0.12044
1696784218296875,-10.50168,0.724352,0.341072,0.99451,0.76523,0.4544
1696784218304687,-10.26168,0.746352,0.368072,0.110151,0.62823,0.3756
1696784218312500,-10.21168,0.764352,0.348072,0.120851,0.65923,0.1956
1696784218320312,-9.999168,0.771352,0.337072,0.134651,0.65823,0.6656
1696784218328125,-9.937168,0.783352,0.380072,0.136151,0.67323,0.1856
1696784218335937,-9.866168,0.810352,0.382072,0.154351,0.63423,0.1856
1696784218343750,-9.805168,0.865352,0.355072,0.161851,0.49723,0.2644
1696784218351562,-9.757168,0.874352,0.371072,0.163051,0.45723,0.19944
1696784218359375,-9.733168,0.893352,0.382072,0.173551,0.35423,0.27844
1696784218367187,-9.794168,0.888352,0.337072,0.185351,0.32723,0.46744
1696784218375000,-9.872168,0.910352,0.303072,0.183751,0.35623,0.51344
1696784218382812,-9.859168,0.902352,0.285072,0.189851,0.45323,0.56244
1696784218390625,-9.857168,0.878352,0.328072,0.192651,0.43123,0.72044
1696784218398437,-9.899168,0.851352,0.346072,0.195651,0.51523,0.77144
1696784218406250,-9.944168,0.835352,0.316072,0.207851,0.49623,0.78744
1696784218414062,-9.951168,0.853352,0.282072,0.204951,0.51723,0.69344
1696784218421875,-9.873168,0.900352,0.302072,0.185351,0.59323,0.55144
1696784218429687,-9.832168,0.954352,0.334072,0.188451,0.54423,0.50344
1696784218437500,-9.879168,0.992352,0.316072,0.181151,0.48523,0.32844
1696784218445312,-10.6168,0.981352,0.273072,0.164451,0.42323,0.26244
1696784218453125,-10.90168,0.955352,0.264072,0.159851,0.45623,0.27844
1696784218460937,-10.81168,0.952352,0.268072,0.163051,0.62923,0.25244
1696784218468750,-10.33168,0.961352,0.300072,0.155551,0.64823,0.17244
1696784218476562,-10.2168,0.966352,0.323072,0.150951,0.63223,0.20444
1696784218484375,-9.968168,0.964352,0.302072,0.150951,0.71523,0.23744
1696784218492187,-9.927168,0.956352,0.302072,0.135651,0.70023,0.25144
1696784218500000,-9.921168,0.938352,0.337072,0.143151,0.69723,0.31544
1696784218507812,-9.941168,0.938352,0.330072,0.149251,0.74423,0.36344
1696784218515625,-9.949168,0.926352,0.321072,0.141651,0.79323,0.37944
1696784218523437,-9.976168,0.918352,0.316072,0.139851,0.77123,0.48844
1696784218531250,-9.982168,0.946352,0.323072,0.136751,0.81723,0.53444
1696784218539062,-9.976168,0.963352,0.319072,0.136851,0.83723,0.52044
1696784218546875,-9.992168,0.969352,0.316072,0.135351,0.88923,0.50644
1696784218554687,-9.991168,0.978352,0.314072,0.132451,0.92623,0.44344
1696784218562500,-9.978168,0.972352,0.337072,0.114051,0.97923,0.52344
1696784218570312,-9.940168,0.978352,0.337072,0.106651,0.100323,0.41344
1696784218578125,-9.872168,0.983352,0.341072,0.108051,0.101623,0.47644
1696784218585937,-9.822168,0.981352,0.371072,0.98751,0.99623,0.53744
1696784218593750,-9.814168,0.966352,0.380072,0.83551,0.102123,0.52344
1696784218601562,-9.836168,0.939352,0.373072,0.86551,0.88323,0.53544
1696784218609375,-9.851168,0.885352,0.389072,0.77351,0.88723,0.51944
1696784218617187,-9.833168,0.839352,0.409072,0.65151,0.80523,0.53244
1696784218625000,-9.808168,0.837352,0.412072,0.63651,0.78823,0.51644
1696784218632812,-9.779168,0.817352,0.405072,0.62051,0.80323,0.53144
1696784218640625,-9.770168,0.817352,0.405072,0.63751,0.72423,0.42044
1696784218648437,-9.849168,0.795352,0.382072,0.57451,0.56923,0.46144
1696784218656250,-9.949168,0.763352,0.341072,0.57451,0.53723,0.46144
1696784218664062,-10.4168,0.753352,0.316072,0.54451,0.57223,0.44744
1696784218671875,-10.20168,0.742352,0.291072,0.65051,0.63423,0.52744
1696784218679687,-10.20168,0.738352,0.277072,0.61951,0.58723,0.51144
1696784218687500,-9.994168,0.760352,0.268072,0.63651,0.70223,0.49744
1696784218695312,-9.983168,0.786352,0.271072,0.60451,0.63423,0.52644
1696784218703125,-9.991168,0.788352,0.300072,0.57451,0.68423,0.51144
1696784218710937,-9.996168,0.789352,0.296072,0.65151,0.76823,0.53044
1696784218718750,-9.952168,0.817352,0.312072,0.62151,0.76623,0.49644
1696784218726562,-9.939168,0.823352,0.362072,0.60451,0.73423,0.54444
1696784218734375,-9.946168,0.814352,0.364072,0.39151,0.75723,0.54444
1696784218742187,-9.965168,0.770352,0.377072,0.40651,0.72523,0.54544
1696784218750000,-10.34168,0.726352,0.402072,0.39051,0.68823,0.60644
1696784218757812,-10.68168,0.689352,0.409072,0.38951,0.75423,0.67144
1696784218765625,-10.52168,0.650352,0.416072,0.42051,0.71823,0.63844
1696784218773437,-10.22168,0.618352,0.441072,0.37351,0.73523,0.71744
1696784218781250,-9.983168,0.586352,0.448072,0.43451,0.78123,0.71744
1696784218789062,-9.936168,0.565352,0.445072,0.43551,0.78523,0.68744
1696784218796875,-9.873168,0.557352,0.447072,0.54051,0.79923,0.75244
1696784218804687,-9.841168,0.558352,0.457072,0.64651,0.77723,0.81544
1696784218812500,-9.818168,0.547352,0.452072,0.59951,0.72423,0.86044
1696784218820312,-9.805168,0.525352,0.425072,0.69051,0.73823,0.90944
1696784218828125,-9.771168,0.518352,0.445072,0.65951,0.77223,0.90944
1696784218835937,-9.749168,0.522352,0.461072,0.76551,0.70423,0.92544
1696784218843750,-9.758168,0.539352,0.441072,0.87251,0.65123,0.90844
1696784218851562,-9.774168,0.550352,0.447072,0.84351,0.69023,0.81544
1696784218859375,-9.814168,0.563352,0.459072,0.76851,0.62623,0.76644
1696784218867187,-9.882168,0.555352,0.452072,0.80051,0.61023,0.65444
1696784218875000,-9.913168,0.577352,0.429072,0.84651,0.54523,0.59144
1696784218882812,-9.942168,0.596352,0.445072,0.80251,0.56523,0.51244
1696784218890625,-9.958168,0.605352,0.457072,0.74251,0.55323,0.46444
1696784218898437,-9.974168,0.609352,0.448072,0.74251,0.56823,0.46444
1696784218906250,-10.6168,0.596352,0.448072,0.74351,0.50523,0.38444
1696784218914062,-10.24168,0.586352,0.448072,0.72951,0.52423,0.30544
1696784218921875,-10.25168,0.580352,0.445072,0.82151,0.49323,0.25944
1696784218929687,-10.17168,0.575352,0.448072,0.74551,0.47223,0.27244
1696784218937500,-9.995168,0.565352,0.450072,0.73051,0.50923,0.27444
1696784218945312,-9.984168,0.556352,0.441072,0.82151,0.45723,0.24244
1696784218953125,-9.959168,0.547352,0.425072,0.88451,0.40923,0.14644
1696784218960937,-9.903168,0.566352,0.445072,0.86851,0.47823,0.16544
1696784218968750,-9.879168,0.588352,0.418072,0.86851,0.39323,0.16244
1696784218976562,-9.882168,0.600352,0.372072,0.79351,0.39823,0.11544
1696784218984375,-9.877168,0.597352,0.354072,0.77751,0.36223,0.11344
1696784218992187,-9.888168,0.613352,0.354072,0.77751,0.34623,0.11344
1696784219000000,-9.888168,0.626352,0.341072,0.64051,0.40123,0.9844
1696784219007812,-9.879168,0.635352,0.336072,0.67151,0.41623,0.11444
1696784219015625,-9.863168,0.636352,0.338072,0.62651,0.50323,0.10044
1696784219023437,-9.872168,0.640352,0.373072,0.58251,0.55623,0.2244
1696784219031250,-9.884168,0.629352,0.379072,0.62851,0.50923,0.4056
1696784219039062,-9.916168,0.611352,0.379072,0.64451,0.50923,0.5556
1696784219046875,-9.952168,0.587352,0.397072,0.55451,0.56123,0.11956
1696784219054687,-9.966168,0.562352,0.400072,0.50951,0.54923,0.21456
1696784219062500,-9.987168,0.556352,0.406072,0.54151,0.53723,0.29256
1696784219070312,-9.991168,0.531352,0.411072,0.61851,0.41723,0.34356
1696784219078125,-9.983168,0.525352,0.388072,0.63251,0.46823,0.27756
1696784219085937,-9.960168,0.519352,0.390072,0.67951,0.50223,0.35556
1696784219093750,-9.946168,0.541352,0.418072,0.84751,0.51523,0.35456
1696784219101562,-9.900168,0.566352,0.416072,0.102951,0.45923,0.32356
1696784219109375,-9.900168,0.572352,0.404072,0.114951,0.51923,0.21156
1696784219117187,-9.933168,0.587352,0.377072,0.111951,0.46823,0.24456
1696784219125000,-9.936168,0.610352,0.343072,0.130251,0.45023,0.22656
1696784219132812,-9.895168,0.592352,0.354072,0.139351,0.51423,0.20956
1696784219140625,-9.931168,0.576352,0.411072,0.134751,0.47723,0.18056
1696784219148437,-9.997168,0.576352,0.384072,0.145451,0.46223,0.19456
1696784219156250,-9.981168,0.600352,0.329072,0.159251,0.52723,0.23956
1696784219164062,-9.881168,0.667352,0.384072,0.162351,0.64723,0.21956
1696784219171875,-9.751168,0.751352,0.448072,0.165551,0.66423,0.28256
1696784219179687,-9.749168,0.804352,0.416072,0.159351,0.46223,0.30456
1696784219187500,-9.872168,0.806352,0.373072,0.154551,0.21023,0.29456
1696784219195312,-9.963168,0.801352,0.348072,0.144051,0.31523,0.30756
1696784219203125,-10.3168,0.789352,0.359072,0.139551,0.33323,0.38856
1696784219210937,-10.5168,0.793352,0.362072,0.136651,0.42123,0.43256
1696784219218750,-9.992168,0.823352,0.352072,0.138251,0.39123,0.49556
1696784219226562,-9.980168,0.843352,0.343072,0.119951,0.46323,0.47956
1696784219234375,-9.957168,0.850352,0.327072,0.118551,0.51223,0.49456
1696784219242187,-9.939168,0.866352,0.337072,0.114051,0.59823,0.49256
1696784219250000,-9.903168,0.874352,0.339072,0.115451,0.46423,0.47856
1696784219257812,-9.905168,0.882352,0.346072,0.115451,0.51423,0.49456
1696784219265625,-9.927168,0.870352,0.316072,0.109251,0.44323,0.45056
1696784219273437,-9.948168,0.893352,0.305072,0.103151,0.44723,0.43356
1696784219281250,-9.934168,0.911352,0.305072,0.90951,0.48423,0.43356
1696784219289062,-9.936168,0.911352,0.341072,0.84951,0.43623,0.49856
1696784219296875,-9.966168,0.913352,0.323072,0.78851,0.53823,0.48056
1696784219304687,-9.966168,0.923352,0.302072,0.78851,0.50423,0.48156
1696784219312500,-9.934168,0.924352,0.332072,0.69651,0.55423,0.44956
1696784219320312,-9.950168,0.908352,0.353072,0.68051,0.53723,0.40256
1696784219328125,-9.943168,0.928352,0.346072,0.63451,0.55423,0.38656
1696784219335937,-9.898168,0.931352,0.343072,0.65051,0.52123,0.40256
1696784219343750,-9.902168,0.929352,0.405072,0.63451,0.50423,0.38756
1696784219351562,-9.875168,0.934352,0.380072,0.64851,0.51723,0.27656
1696784219359375,-9.878168,0.919352,0.382072,0.64651,0.43323,0.23056
1696784219367187,-9.934168,0.897352,0.389072,0.64551,0.39523,0.18556
1696784219375000,-9.962168,0.884352,0.343072,0.64451,0.40923,0.10556
1696784219382812,-9.930168,0.864352,0.366072,0.64451,0.45923,0.10556
1696784219390625,-9.960168,0.855352,0.396072,0.64251,0.47423,0.644
1696784219398437,-10.19168,0.837352,0.370072,0.64251,0.52223,0.5444
1696784219406250,-10.37168,0.811352,0.364072,0.71651,0.56123,0.19544
1696784219414062,-10.6168,0.801352,0.380072,0.74651,0.61123,0.26144
1696784219421875,-9.961168,0.775352,0.368072,0.74651,0.66223,0.27844
1696784219429687,-9.936168,0.778352,0.395072,0.79251,0.64623,0.24744
1696784219437500,-9.931168,0.795352,0.405072,0.89851,0.66023,0.26444
1696784219445312,-9.924168,0.808352,0.377072,0.86751,0.60823,0.27744
1696784219453125,-9.945168,0.824352,0.389072,0.88351,0.65923,0.29544
1696784219460937,-9.945168,0.831352,0.409072,0.83651,0.67523,0.34244
1696784219468750,-9.929168,0.811352,0.409072,0.71451,0.67623,0.37344
1696784219476562,-9.917168,0.797352,0.448072,0.82151,0.75523,0.39044
1696784219484375,-9.911168,0.798352,0.418072,0.88251,0.74123,0.37644
1696784219492187,-9.879168,0.832352,0.418072,0.79151,0.79223,0.37644
1696784219500000,-9.845168,0.832352,0.473072,0.89651,0.83623,0.47244
1696784219507812,-9.836168,0.799352,0.523072,0.81851,0.76923,0.53344
1696784219515625,-9.839168,0.770352,0.505072,0.81851,0.70223,0.51644
1696784219523437,-9.845168,0.740352,0.507072,0.87951,0.64723,0.51344
1696784219531250,-9.866168,0.733352,0.560072,0.83251,0.58023,0.52744
1696784219539062,-9.888168,0.747352,0.555072,0.87951,0.46623,0.43244
1696784219546875,-9.932168,0.737352,0.525072,0.77351,0.45323,0.41544
1696784219554687,-9.936168,0.721352,0.519072,0.81951,0.38523,0.35044
1696784219562500,-9.913168,0.717352,0.498072,0.84851,0.41523,0.44544
1696784219570312,-9.905168,0.720352,0.496072,0.85051,0.43623,0.36844
1696784219578125,-9.909168,0.728352,0.477072,0.75651,0.43423,0.47744
1696784219585937,-9.934168,0.737352,0.459072,0.78651,0.38223,0.52444
1696784219593750,-9.947168,0.689352,0.457072,0.83151,0.40923,0.55544
1696784219601562,-9.989168,0.676352,0.445072,0.87751,0.47723,0.58944
1696784219609375,-9.994168,0.665352,0.427072,0.86251,0.54523,0.57544
1696784219617187,-9.973168,0.665352,0.432072,0.87851,0.54623,0.54344
1696784219625000,-9.960168,0.657352,0.448072,0.87851,0.51523,0.51244
1696784219632812,-9.955168,0.670352,0.430072,0.103151,0.59323,0.52944
1696784219640625,-9.944168,0.679352,0.420072,0.100051,0.62723,0.56244
1696784219648437,-9.922168,0.655352,0.464072,0.89451,0.66623,0.51544
1696784219656250,-9.892168,0.671352,0.473072,0.100051,0.57923,0.56244
1696784219664062,-9.878168,0.685352,0.457072,0.109151,0.57623,0.57844
1696784219671875,-9.890168,0.676352,0.486072,0.110451,0.52323,0.65644
1696784219679687,-9.890168,0.676352,0.511072,0.107451,0.47323,0.65544
1696784219687500,-9.860168,0.656352,0.495072,0.111851,0.48423,0.74944
1696784219695312,-9.858168,0.644352,0.498072,0.107351,0.38423,0.65144
1696784219703125,-9.885168,0.621352,0.498072,0.107151,0.31323,0.72744
1696784219710937,-9.894168,0.612352,0.470072,0.108651,0.33023,0.76044
1696784219718750,-9.902168,0.588352,0.475072,0.111651,0.34623,0.77644
1696784219726562,-9.902168,0.577352,0.475072,0.111551,0.31323,0.82444
1696784219734375,-9.918168,0.562352,0.466072,0.111551,0.27923,0.83944
1696784219742187,-9.893168,0.546352,0.450072,0.111551,0.37723,0.88844
1696784219750000,-9.853168,0.542352,0.445072,0.111451,0.37623,0.90444
1696784219757812,-9.821168,0.535352,0.457072,0.119151,0.47323,0.93844
1696784219765625,-9.807168,0.515352,0.464072,0.120551,0.47023,0.98444
1696784219773437,-9.846168,0.499352,0.459072,0.118951,0.38423,0.102944
1696784219781250,-9.885168,0.481352,0.438072,0.112951,0.37223,0.96644
1696784219789062,-9.919168,0.471352,0.438072,0.109851,0.32223,0.94944
1696784219796875,-9.923168,0.498352,0.450072,0.111351,0.28623,0.97944
1696784219804687,-9.971168,0.502352,0.413072,0.111551,0.24323,0.85344
1696784219812500,-10.32168,0.502352,0.356072,0.103951,0.18123,0.77344
1696784219820312,-10.73168,0.499352,0.368072,0.102651,0.21823,0.67944
1696784219828125,-10.93168,0.522352,0.347072,0.96751,0.25523,0.56844
1696784219835937,-10.100168,0.554352,0.327072,0.86251,0.34723,0.50844
1696784219843750,-10.90168,0.576352,0.336072,0.89351,0.44623,0.49444
1696784219851562,-10.61168,0.570352,0.350072,0.77351,0.46923,0.41544
1696784219859375,-10.69168,0.588352,0.320072,0.65251,0.49023,0.36744
1696784219867187,-10.13168,0.605352,0.302072,0.63751,0.45923,0.35244
1696784219875000,-9.952168,0.589352,0.338072,0.62151,0.47423,0.36744
1696784219882812,-9.936168,0.542352,0.366072,0.62051,0.45423,0.41344
1696784219890625,-9.970168,0.533352,0.354072,0.64851,0.33123,0.50444
1696784219898437,-9.986168,0.492352,0.347072,0.55751,0.36623,0.52044
1696784219906250,-9.915168,0.481352,0.322072,0.55951,0.35623,0.41144
1696784219914062,-9.835168,0.504352,0.352072,0.56051,0.36123,0.31844
1696784219921875,-9.839168,0.501352,0.375072,0.37751,0.17823,0.29544
1696784219929687,-9.910168,0.474352,0.313072,0.39251,0.4723,0.21444
1696784219937500,-9.997168,0.438352,0.244072,0.36451,0.17123,0.13944
1696784219945312,-10.1168,0.446352,0.279072,0.36551,0.22023,0.10744
1696784219953125,-9.948168,0.468352,0.311072,0.25951,0.35223,0.12444
1696784219960937,-9.912168,0.466352,0.279072,0.35051,0.43323,0.15744
1696784219968750,-9.962168,0.462352,0.274072,0.30551,0.40523,0.11044
1696784219976562,-9.979168,0.431352,0.308072,0.22951,0.57423,0.16144
1696784219984375,-9.981168,0.392352,0.308072,0.35051,0.51723,0.20744
1696784219992187,-9.993168,0.353352,0.301072,0.35051,0.55523,0.17844
1696784220000000,-9.992168,0.333352,0.335072,0.41351,0.59323,0.7044
1696784220007812,-9.967168,0.284352,0.342072,0.46051,0.67423,0.7044
1696784220015625,-9.929168,0.237352,0.374072,0.58151,0.60123,0.8444
1696784220023437,-9.898168,0.205352,0.406072,0.75051,0.60423,0.2356
1696784220031250,-9.898168,0.196352,0.410072,0.88851,0.66923,0.3656
1696784220039062,-9.884168,0.214352,0.404072,0.105851,0.62123,0.19456
1696784220046875,-9.845168,0.237352,0.426072,0.113551,0.57123,0.22556
1696784220054687,-9.862168,0.262352,0.461072,0.130551,0.56923,0.38356
1696784220062500,-9.857168,0.341352,0.443072,0.139851,0.47223,0.49456
1696784220070312,-9.827168,0.413352,0.434072,0.145951,0.42223,0.51056
1696784220078125,-9.819168,0.444352,0.479072,0.161251,0.45323,0.55656
1696784220085937,-9.844168,0.475352,0.470072,0.161151,0.35223,0.54356
1696784220093750,-9.871168,0.512352,0.443072,0.162751,0.27023,0.60856
1696784220101562,-9.922168,0.536352,0.448072,0.162751,0.21923,0.62556
1696784220109375,-9.950168,0.550352,0.445072,0.162751,0.23823,0.60756
1696784220117187,-9.940168,0.596352,0.411072,0.162851,0.24123,0.68656
1696784220125000,-9.874168,0.642352,0.407072,0.161251,0.20723,0.65556
1696784220132812,-9.862168,0.637352,0.411072,0.159451,0.5023,0.54956
1696784220140625,-10.8168,0.602352,0.404072,0.162451,0.1523,0.50256
1696784220148437,-10.45168,0.582352,0.370072,0.163751,0.11123,0.35856
1696784220156250,-9.981168,0.573352,0.336072,0.166851,0.15823,0.35856
1696784220164062,-9.952168,0.576352,0.397072,0.159251,0.26023,0.30856
1696784220171875,-9.910168,0.648352,0.393072,0.177451,0.10823,0.35756
1696784220179687,-9.839168,0.723352,0.345072,0.186551,0.5523,0.31056
1696784220187500,-9.841168,0.722352,0.382072,0.178851,0.1277,0.31256
1696784220195312,-9.872168,0.724352,0.368072,0.184851,0.6677,0.28256
1696784220203125,-9.913168,0.757352,0.295072,0.178651,0.16577,0.25356
1696784220210937,-9.915168,0.784352,0.275072,0.175651,0.11477,0.23656
1696784220218750,-9.879168,0.802352,0.302072,0.161951,0.2777,0.25156
1696784220226562,-9.883168,0.800352,0.305072,0.160351,0.17977,0.23956
1696784220234375,-9.927168,0.802352,0.250072,0.160251,0.24477,0.22356
1696784220242187,-9.913168,0.810352,0.211072,0.151151,0.7777,0.18956
1696784220250000,-9.915168,0.794352,0.232072,0.146551,0.4577,0.14256
1696784220257812,-9.947168,0.786352,0.222072,0.131251,0.22577,0.14656
1696784220265625,-9.960168,0.791352,0.173072,0.128251,0.19377,0.16356
1696784220273437,-9.986168,0.785352,0.190072,0.117551,0.15477,0.12956
1696784220281250,-9.997168,0.788352,0.179072,0.115851,0.20577,0.8356
1696784220289062,-10.22168,0.800352,0.127072,0.114251,0.17777,0.2156
1696784220296875,-10.47168,0.797352,0.106072,0.106651,0.17577,0.2156
1696784220304687,-10.110168,0.792352,0.113072,0.99051,0.13977,0.456
1696784220312500,-10.132168,0.784352,0.72072,0.89851,0.2577,0.4244
1696784220320312,-10.148168,0.784352,0.40072,0.86851,0.2477,0.4244
1696784220328125,-10.128168,0.771352,0.63072,0.91351,0.12323,0.10844
1696784220335937,-10.80168,0.773352,0.61072,0.88351,0.25523,0.14244
1696784220343750,-10.48168,0.774352,0.61072,0.86751,0.27023,0.17344
1696784220351562,-9.994168,0.765352,0.63072,0.82051,0.33423,0.28444
1696784220359375,-9.941168,0.775352,0.93072,0.88051,0.39523,0.38044
1696784220367187,-9.896168,0.782352,0.125072,0.83351,0.49523,0.44544
1696784220375000,-9.876168,0.767352,0.139072,0.87851,0.42323,0.50644
1696784220382812,-9.874168,0.760352,0.166072,0.83151,0.49123,0.55544
1696784220390625,-9.826168,0.750352,0.168072,0.86151,0.42123,0.60144
1696784220398437,-9.793168,0.708352,0.200072,0.76951,0.40723,0.61644
1696784220406250,-9.836168,0.660352,0.234072,0.66151,0.33723,0.69244
1696784220414062,-9.880168,0.616352,0.200072,0.67451,0.28623,0.75544
1696784220421875,-9.875168,0.579352,0.186072,0.66051,0.32323,0.74144
1696784220429687,-9.875168,0.527352,0.224072,0.67551,0.29023,0.72544
1696784220437500,-9.928168,0.482352,0.247072,0.66051,0.19223,0.64444
1696784220445312,-10.11168,0.462352,0.204072,0.75151,0.10223,0.67344
1696784220453125,-10.44168,0.449352,0.156072,0.72351,0.20923,0.56544
1696784220460937,-10.40168,0.438352,0.167072,0.78351,0.19123,0.62944
1696784220468750,-10.30168,0.425352,0.195072,0.69151,0.17423,0.61244
1696784220476562,-10.60168,0.456352,0.151072,0.85951,0.8823,0.59644
1696784220484375,-10.43168,0.493352,0.65072,0.85951,0.13723,0.62844
1696784220492187,-9.932168,0.502352,0.67072,0.87251,0.26623,0.77344
1696784220500000,-9.851168,0.476352,0.138072,0.82451,0.14623,0.84844
1696784220507812,-9.867168,0.464352,0.106072,0.86951,0.15823,0.91144
1696784220515625,-9.880168,0.473352,0.28072,0.85251,0.22323,0.102444
1696784220523437,-9.881168,0.440352,0.65072,0.80751,0.20823,0.102344
1696784220531250,-9.892168,0.408352,0.120072,0.86851,0.23823,0.102344
1696784220539062,-9.908168,0.401352,0.101072,0.82351,0.25823,0.94444
1696784220546875,-9.958168,0.362352,0.104072,0.76351,0.24223,0.87944
1696784220554687,-10.15168,0.317352,0.117072,0.73751,0.35223,0.70944
1696784220562500,-10.82168,0.308352,0.108072,0.72351,0.24223,0.56644
1696784220570312,-10.109168,0.296352,0.99072,0.75651,0.38023,0.47444
1696784220578125,-10.140168,0.297352,0.94072,0.72751,0.29723,0.36144
1696784220585937,-10.157168,0.305352,0.94072,0.75851,0.33723,0.31744
1696784220593750,-10.172168,0.318352,0.64072,0.68251,0.23823,0.29844
1696784220601562,-10.209168,0.306352,0.44072,0.62151,0.22223,0.28144
1696784220609375,-10.173168,0.318352,0.19072,0.63651,0.29123,0.30044
1696784220617187,-10.62168,0.315352,0.12072,0.62151,0.45723,0.36644
1696784220625000,-10.28168,0.280352,0.78072,0.63451,0.46623,0.50844
1696784220632812,-10.44168,0.255352,0.69072,0.61751,0.41323,0.56944
1696784220640625,-10.1168,0.242352,0.21072,0.63051,0.45823,0.74444
1696784220648437,-9.911168,0.196352,0.53072,0.61451,0.55623,0.79344
1696784220656250,-9.856168,0.188352,0.101072,0.62951,0.47123,0.77444
1696784220664062,-9.886168,0.186352,0.117072,0.55551,0.47823,0.68044
1696784220671875,-9.945168,0.167352,0.82072,0.51151,0.43223,0.56944
1696784220679687,-9.952168,0.187352,0.71072,0.54351,0.43523,0.45844
1696784220687500,-9.870168,0.210352,0.128072,0.50051,0.49123,0.31744
1696784220695312,-9.817168,0.263352,0.158072,0.50251,0.64623,0.29044
1696784220703125,-9.835168,0.298352,0.149072,0.60851,0.56023,0.25744
1696784220710937,-9.855168,0.307352,0.135072,0.45651,0.64723,0.27444
1696784220718750,-9.867168,0.311352,0.142072,0.48751,0.63323,0.22744
1696784220726562,-9.811168,0.376352,0.126072,0.49051,0.68523,0.10144
1696784220734375,-9.728168,0.459352,0.104072,0.49151,0.63723,0.3744
1696784220742187,-9.658168,0.485352,0.124072,0.42951,0.62223,0.5244
1696784220750000,-9.678168,0.473352,0.129072,0.46051,0.63723,0.3644
1696784220757812,-9.767168,0.445352,0.95072,0.35351,0.55523,0.3444
1696784220765625,-9.876168,0.399352,0.83072,0.35351,0.52223,0.3344
1696784220773437,-9.991168,0.358352,0.78072,0.40251,0.59823,0.16856
1696784220781250,-10.93168,0.326352,0.62072,0.38851,0.51923,0.28056
1696784220789062,-10.179168,0.318352,0.48072,0.40751,0.69223,0.40156
1696784220796875,-10.197168,0.304352,0.53072,0.39651,0.73223,0.62356
1696784220804687,-10.210168,0.317352,0.94072,0.38351,0.73723,0.78056
1696784220812500,-10.196168,0.362352,0.92072,0.41651,0.79423,0.92056
1696784220820312,-10.139168,0.403352,0.78072,0.41851,0.91423,0.96456
1696784220828125,-10.137168,0.416352,0.131072,0.40151,0.84323,0.88856
1696784220835937,-10.187168,0.398352,0.158072,0.44551,0.98923,0.77456
1696784220843750,-10.226168,0.369352,0.158072,0.50551,0.107023,0.67756
1696784220851562,-10.235168,0.343352,0.181072,0.63951,0.112323,0.45556
1696784220859375,-10.213168,0.313352,0.213072,0.63651,0.120123,0.24856
1696784220867187,-10.150168,0.317352,0.199072,0.81851,0.126523,0.19756
1696784220875000,-10.55168,0.284352,0.210072,0.89251,0.133823,0.2356
1696784220882812,-10.14168,0.233352,0.290072,0.84251,0.126223,0.22644
1696784220890625,-9.956168,0.201352,0.319072,0.100651,0.133523,0.43344
1696784220898437,-9.852168,0.197352,0.281072,0.112651,0.131123,0.54444
1696784220906250,-9.747168,0.214352,0.311072,0.114251,0.139223,0.56044
1696784220914062,-9.688168,0.224352,0.388072,0.121851,0.137423,0.56144
1696784220921875,-9.699168,0.241352,0.370072,0.131051,0.130823,0.46544
1696784220929687,-9.715168,0.263352,0.327072,0.126951,0.131923,0.19744
1696784220937500,-9.662168,0.331352,0.347072,0.127351,0.132923,0.556
1696784220945312,-9.602168,0.403352,0.411072,0.126051,0.131723,0.14856
1696784220953125,-9.562168,0.477352,0.386072,0.118651,0.123923,0.29256
1696784220960937,-9.557168,0.546352,0.366072,0.115751,0.126023,0.37056
1696784220968750,-9.616168,0.607352,0.405072,0.109551,0.119723,0.37156
1696784220976562,-9.712168,0.616352,0.430072,0.103351,0.111023,0.32756
1696784220984375,-9.865168,0.583352,0.405072,0.94051,0.104323,0.25056
1696784220992187,-10.11168,0.542352,0.391072,0.88051,0.111423,0.26356
1696784221000000,-10.93168,0.500352,0.436072,0.89451,0.119423,0.16756
1696784221007812,-10.125168,0.453352,0.452072,0.87751,0.121023,0.10356
1696784221015625,-10.155168,0.397352,0.468072,0.89251,0.118723,0.4256
1696784221023437,-10.206168,0.359352,0.497072,0.95151,0.123623,0.3844
1696784221031250,-10.230168,0.313352,0.543072,0.108851,0.129323,0.11744
1696784221039062,-10.190168,0.269352,0.579072,0.119351,0.127223,0.19744
1696784221046875,-10.178168,0.223352,0.659072,0.131251,0.128223,0.34044
1696784221054687,-10.191168,0.196352,0.693072,0.155651,0.127423,0.37244
1696784221062500,-10.208168,0.188352,0.683072,0.161551,0.118823,0.46744
1696784221070312,-10.172168,0.165352,0.697072,0.176651,0.113123,0.49744
1696784221078125,-10.75168,0.172352,0.736072,0.184351,0.108323,0.46644
1696784221085937,-9.965168,0.206352,0.752072,0.190251,0.104323,0.52844
1696784221093750,-9.885168,0.254352,0.743072,0.205351,0.97023,0.59044
1696784221101562,-9.788168,0.265352,0.718072,0.209851,0.80523,0.58944
1696784221109375,-9.708168,0.289352,0.727072,0.215751,0.64623,0.66344
1696784221117187,-9.649168,0.315352,0.721072,0.217151,0.57723,0.67744
1696784221125000,-9.617168,0.325352,0.679072,0.223151,0.52523,0.74044
1696784221132812,-9.624168,0.317352,0.643072,0.209451,0.41023,0.68844
1696784221140625,-9.629168,0.313352,0.607072,0.209351,0.31123,0.68744
1696784221148437,-9.626168,0.301352,0.591072,0.203451,0.24823,0.57444
1696784221156250,-9.674168,0.301352,0.543072,0.203351,0.19823,0.59044
1696784221164062,-9.737168,0.284352,0.500072,0.197351,0.14923,0.52444
1696784221171875,-9.835168,0.265352,0.488072,0.183651,0.10323,0.52344
1696784221179687,-9.890168,0.231352,0.447072,0.180651,0.7123,0.47444
1696784221187500,-9.962168,0.212352,0.420072,0.171551,0.12423,0.44344
1696784221195312,-10.33168,0.193352,0.408072,0.162651,0.17923,0.36544
1696784221203125,-10.76168,0.208352,0.399072,0.159551,0.16523,0.35044
1696784221210937,-10.98168,0.221352,0.351072,0.161151,0.29923,0.33644
1696784221218750,-10.164168,0.200352,0.365072,0.159951,0.35623,0.16444
1696784221226562,-10.306168,0.184352,0.406072,0.158651,0.40623,0.10044
1696784221234375,-10.395168,0.206352,0.381072,0.161851,0.47723,0.4044
1696784221242187,-10.376168,0.262352,0.372072,0.162051,0.65023,0.3356
1696784221250000,-10.305168,0.325352,0.418072,0.157651,0.71923,0.12856
1696784221257812,-10.198168,0.374352,0.447072,0.154651,0.62523,0.19156
1696784221265625,-10.98168,0.437352,0.445072,0.146951,0.65623,0.12956
1696784221273437,-10.79168,0.491352,0.445072,0.140851,0.62423,0.13056
1696784221281250,-10.88168,0.525352,0.448072,0.140951,0.64323,0.16156
1696784221289062,-9.994168,0.563352,0.430072,0.136251,0.65723,0.11456
1696784221296875,-9.869168,0.630352,0.448072,0.122451,0.64323,0.5156
1696784221304687,-9.744168,0.705352,0.473072,0.128351,0.65623,0.2844
1696784221312500,-9.666168,0.760352,0.455072,0.119151,0.62423,0.7444
1696784221320312,-9.642168,0.766352,0.451072,0.111251,0.59923,0.21344
1696784221328125,-9.596168,0.770352,0.466072,0.112451,0.62823,0.40444
1696784221335937,-9.562168,0.744352,0.469072,0.104651,0.59223,0.54544
1696784221343750,-9.549168,0.676352,0.462072,0.87451,0.45223,0.71344
1696784221351562,-9.559168,0.610352,0.455072,0.87351,0.43423,0.79244
1696784221359375,-9.571168,0.527352,0.445072,0.82451,0.36023,0.96344
1696784221367187,-9.628168,0.429352,0.470072,0.82151,0.25723,0.108844
1696784221375000,-9.740168,0.289352,0.502072,0.86251,0.19323,0.132244
1696784221382812,-9.834168,0.175352,0.468072,0.86251,0.20923,0.132144
1696784221390625,-9.844168,0.109352,0.440072,0.101651,0.19223,0.126044
1696784221398437,-9.822168,0.87352,0.504072,0.112651,0.28323,0.109044
1696784221406250,-9.886168,0.64352,0.535072,0.111151,0.11823,0.99244
1696784221414062,-10.63168,0.0,0.487072,0.131151,0.9877,0.84744
1696784221421875,-10.260168,0.59648,0.442072,0.134351,0.9777,0.73544
1696784221429687,-10.399168,0.91648,0.453072,0.142251,0.723,0.59744
1696784221437500,-10.428168,0.79648,0.453072,0.159251,0.5623,0.50344
1696784221445312,-10.394168,0.27648,0.444072,0.174651,0.12523,0.41244
1696784221453125,-10.318168,0.56352,0.428072,0.182551,0.22923,0.28944
1696784221460937,-10.198168,0.152352,0.417072,0.193451,0.22923,0.17944
1696784221468750,-10.57168,0.273352,0.413072,0.205651,0.24623,0.14944
1696784221476562,-9.956168,0.374352,0.393072,0.193451,0.9823,0.9744
1696784221484375,-9.873168,0.480352,0.354072,0.187451,0.3423,0.6444
1696784221492187,-9.820168,0.563352,0.304072,0.185851,0.223,0.6444
1696784221500000,-9.779168,0.608352,0.273072,0.175151,0.11177,0.2944
1696784221507812,-9.801168,0.661352,0.225072,0.161451,0.14277,0.2844
1696784221515625,-9.845168,0.706352,0.170072,0.156951,0.5577,0.156
1696784221523437,-9.896168,0.692352,0.143072,0.137151,0.5077,0.1344
1696784221531250,-9.982168,0.661352,0.154072,0.120551,0.5523,0.8056
1696784221539062,-10.94168,0.620352,0.129072,0.107051,0.8023,0.15856
1696784221546875,-10.192168,0.570352,0.104072,0.102651,0.18623,0.23456
1696784221554687,-10.251168,0.515352,0.99072,0.90751,0.44123,0.34256
1696784221562500,-10.259168,0.482352,0.122072,0.84951,0.51623,0.45056
1696784221570312,-10.229168,0.473352,0.128072,0.85151,0.63723,0.54256
1696784221578125,-10.178168,0.466352,0.153072,0.89951,0.69223,0.63456
1696784221585937,-10.141168,0.472352,0.186072,0.85351,0.78923,0.60256
1696784221593750,-10.61168,0.498352,0.231072,0.91551,0.92523,0.59856
1696784221601562,-9.986168,0.539352,0.261072,0.97451,0.100223,0.50256
1696784221609375,-9.909168,0.572352,0.313072,0.89751,0.95323,0.45656
1696784221617187,-9.852168,0.575352,0.336072,0.88051,0.83223,0.38056
1696784221625000,-9.843168,0.546352,0.343072,0.103051,0.79123,0.23756
1696784221632812,-9.853168,0.508352,0.361072,0.89051,0.72123,0.13056
1696784221640625,-9.834168,0.503352,0.345072,0.100951,0.69423,0.2644
1696784221648437,-9.757168,0.483352,0.357072,0.103951,0.70723,0.5744
1696784221656250,-9.718168,0.452352,0.368072,0.97851,0.66123,0.8944
1696784221664062,-9.733168,0.424352,0.359072,0.105451,0.59223,0.2444
1696784221671875,-9.804168,0.408352,0.299072,0.107151,0.44723,0.8756
1696784221679687,-9.934168,0.377352,0.290072,0.96651,0.58623,0.18056
1696784221687500,-10.48168,0.345352,0.304072,0.104551,0.45923,0.37156
1696784221695312,-10.102168,0.353352,0.276072,0.106451,0.63223,0.52556
1696784221703125,-10.61168,0.387352,0.308072,0.109751,0.78623,0.60056
1696784221710937,-9.985168,0.450352,0.365072,0.114451,0.78923,0.71056
1696784221718750,-9.953168,0.502352,0.420072,0.94651,0.74323,0.71256
1696784221726562,-9.955168,0.507352,0.452072,0.108351,0.80823,0.71056
1696784221734375,-9.989168,0.504352,0.470072,0.111151,0.75023,0.56956
1696784221742187,-9.982168,0.504352,0.463072,0.109551,0.66523,0.52456
1696784221750000,-9.950168,0.533352,0.493072,0.115451,0.67723,0.44556
1696784221757812,-9.870168,0.547352,0.532072,0.115351,0.63923,0.38356
1696784221765625,-9.823168,0.540352,0.552072,0.118151,0.53623,0.25856
1696784221773437,-9.810168,0.511352,0.541072,0.111851,0.44923,0.16656
1696784221781250,-9.839168,0.488352,0.514072,0.114551,0.35823,0.2656
1696784221789062,-9.819168,0.486352,0.491072,0.117551,0.27323,0.344
1696784221796875,-9.805168,0.502352,0.482072,0.111451,0.25623,0.1844
1696784221804687,-9.789168,0.504352,0.455072,0.112951,0.22123,0.0
1696784221812500,-9.807168,0.501352,0.452072,0.114451,0.17023,0.1544
1696784221820312,-9.807168,0.508352,0.436072,0.115851,0.15223,0.4744
1696784221828125,-9.807168,0.522352,0.409072,0.112651,0.1577,0.9144
1696784221835937,-9.818168,0.521352,0.395072,0.106551,0.0,0.12144
1696784221843750,-9.843168,0.525352,0.359072,0.101951,0.6677,0.8844
1696784221851562,-9.839168,0.520352,0.320072,0.103351,0.13077,0.13644
1696784221859375,-9.864168,0.492352,0.288072,0.86451,0.28077,0.14744
1696784221867187,-9.915168,0.453352,0.263072,0.88051,0.29777,0.13144
1696784221875000,-9.947168,0.399352,0.224072,0.88151,0.34477,0.5144
1696784221882812,-9.998168,0.381352,0.171072,0.85151,0.32277,0.1056
1696784221890625,-10.4168,0.367352,0.137072,0.82351,0.32077,0.10556
1696784221898437,-10.17168,0.358352,0.128072,0.73151,0.31977,0.12356
1696784221906250,-10.27168,0.369352,0.69072,0.70351,0.19777,0.19856
1696784221914062,-10.80168,0.360352,0.28072,0.79651,0.14377,0.25856
1696784221921875,-10.116168,0.357352,0.23072,0.76751,0.10677,0.33656
1696784221929687,-10.86168,0.376352,0.12072,0.69251,0.0,0.41356
1696784221937500,-10.65168,0.418352,0.3072,0.63151,0.5177,0.40056
1696784221945312,-10.75168,0.455352,0.928,0.64751,0.4723,0.41456
1696784221953125,-10.73168,0.468352,0.34928,0.55351,0.7723,0.27356
1696784221960937,-10.73168,0.414352,0.48928,0.44751,0.14623,0.28856
1696784221968750,-10.74168,0.393352,0.28928,0.41851,0.33323,0.26856
1696784221976562,-10.95168,0.380352,0.19928,0.38751,0.43523,0.20156
1696784221984375,-10.100168,0.341352,0.1928,0.41751,0.53223,0.18456
1696784221992187,-10.121168,0.305352,0.32072,0.47951,0.73123,0.13256
1696784222000000,-10.92168,0.279352,0.82072,0.49651,0.90223,0.19156
1696784222007812,-10.15168,0.278352,0.144072,0.62051,0.112023,0.23356
1696784222015625,-9.930168,0.315352,0.228072,0.65151,0.111823,0.26556
1696784222023437,-9.869168,0.313352,0.292072,0.63451,0.108123,0.18856
1696784222031250,-9.889168,0.327352,0.338072,0.75651,0.98123,0.23656
1696784222039062,-9.898168,0.343352,0.363072,0.86351,0.96523,0.26656
1696784222046875,-9.903168,0.343352,0.406072,0.89451,0.91523,0.29856
1696784222054687,-9.909168,0.346352,0.445072,0.95551,0.90923,0.28456
1696784222062500,-9.900168,0.345352,0.452072,0.106151,0.82523,0.28456
1696784222070312,-9.864168,0.368352,0.443072,0.113751,0.77323,0.28556
1696784222078125,-9.818168,0.384352,0.484072,0.118351,0.68923,0.31856
1696784222085937,-9.810168,0.419352,0.490072,0.130351,0.57023,0.23956
1696784222093750,-9.808168,0.471352,0.461072,0.137851,0.46223,0.21156
1696784222101562,-9.822168,0.433352,0.454072,0.136051,0.39123,0.10256
1696784222109375,-9.861168,0.394352,0.456072,0.132751,0.36823,0.6944
1696784222117187,-9.906168,0.387352,0.454072,0.139951,0.25723,0.27244
1696784222125000,-9.881168,0.425352,0.422072,0.137051,0.37723,0.21144
1696784222132812,-9.813168,0.462352,0.402072,0.144551,0.27623,0.22644
1696784222140625,-9.790168,0.480352,0.416072,0.136851,0.22623,0.25644
1696784222148437,-9.819168,0.484352,0.379072,0.133651,0.923,0.26744
1696784222156250,-9.924168,0.465352,0.304072,0.120051,0.8677,0.20144
1696784222164062,-10.22168,0.434352,0.279072,0.120051,0.11877,0.15344
1696784222171875,-10.85168,0.395352,0.281072,0.112651,0.13277,0.7344
1696784222179687,-10.117168,0.395352,0.235072,0.111351,0.677,0.6456
1696784222187500,-10.96168,0.438352,0.231072,0.113051,0.7723,0.9456
1696784222195312,-10.57168,0.491352,0.247072,0.111651,0.24523,0.13956
1696784222203125,-10.11168,0.499352,0.252072,0.105451,0.16223,0.12656
1696784222210937,-10.50168,0.496352,0.238072,0.100951,0.16323,0.12656
1696784222218750,-10.56168,0.500352,0.231072,0.91851,0.26523,0.12556
1696784222226562,-10.11168,0.508352,0.231072,0.96351,0.28223,0.10756
1696784222234375,-9.982168,0.500352,0.254072,0.99351,0.28023,0.4456
1696784222242187,-9.966168,0.488352,0.252072,0.90151,0.34523,0.1844
1696784222250000,-9.935168,0.450352,0.217072,0.90051,0.22623,0.3144
1696784222257812,-9.901168,0.401352,0.236072,0.94451,0.33723,0.14344
1696784222265625,-9.861168,0.394352,0.242072,0.103751,0.47223,0.11644
1696784222273437,-9.811168,0.399352,0.220072,0.111251,0.28523,0.12844
1696784222281250,-9.802168,0.417352,0.188072,0.111051,0.29823,0.23944
1696784222289062,-9.824168,0.428352,0.213072,0.112551,0.33123,0.25644
1696784222296875,-9.847168,0.409352,0.206072,0.111051,0.29623,0.27044
1696784222304687,-9.892168,0.408352,0.163072,0.112651,0.21523,0.17444
1696784222312500,-9.958168,0.410352,0.156072,0.108151,0.20023,0.12644
1696784222320312,-10.8168,0.425352,0.140072,0.105251,0.22223,0.6444
1696784222328125,-10.34168,0.477352,0.92072,0.109851,0.18723,0.0
1696784222335937,-10.29168,0.509352,0.54072,0.97751,0.19323,0.3156
1696784222343750,-10.22168,0.538352,0.51072,0.102351,0.21023,0.4656
1696784222351562,-10.23168,0.557352,0.38072,0.90151,0.18323,0.7856
1696784222359375,-10.79168,0.562352,0.17072,0.82551,0.23323,0.4656
1696784222367187,-10.168168,0.559352,0.12072,0.65651,0.23623,0.0
1696784222375000,-10.174168,0.568352,0.12072,0.62651,0.33623,0.3344
1696784222382812,-10.160168,0.572352,0.47072,0.65851,0.45023,0.344
1696784222390625,-10.81168,0.598352,0.67072,0.53451,0.52023,0.10044
1696784222398437,-10.28168,0.630352,0.58072,0.38351,0.47623,0.5144
1696784222406250,-10.51168,0.630352,0.51072,0.15451,0.36223,0.3044
1696784222414062,-10.46168,0.623352,0.65072,0.3251,0.39923,0.156
1696784222421875,-10.19168,0.594352,0.67072,0.7249,0.51823,0.1556
1696784222429687,-10.17168,0.567352,0.70072,0.27049,0.40723,0.6656
1696784222437500,-10.77168,0.518352,0.35072,0.36149,0.37923,0.14556
1696784222445312,-10.64168,0.473352,0.40072,0.43549,0.49823,0.19156
1696784222453125,-9.987168,0.430352,0.56072,0.52549,0.70523,0.25056
1696784222460937,-9.911168,0.393352,0.76072,0.58649,0.69023,0.25156
1696784222468750,-9.873168,0.367352,0.74072,0.60049,0.71023,0.29756
1696784222476562,-9.862168,0.316352,0.76072,0.69249,0.69423,0.28356
1696784222484375,-9.881168,0.250352,0.133072,0.64649,0.77523,0.28256
1696784222492187,-9.900168,0.197352,0.219072,0.56949,0.100823,0.22856
1696784222500000,-9.839168,0.185352,0.262072,0.49249,0.102423,0.24356
1696784222507812,-9.746168,0.215352,0.310072,0.38649,0.103923,0.22656
1696784222515625,-9.754168,0.237352,0.358072,0.29549,0.85123,0.24656
1696784222523437,-9.807168,0.250352,0.356072,0.31149,0.77023,0.23156
1696784222531250,-9.872168,0.228352,0.333072,0.14549,0.69123,0.15456
1696784222539062,-9.911168,0.213352,0.363072,0.8449,0.69323,0.18556
1696784222546875,-9.938168,0.235352,0.392072,0.8351,0.57423,0.20156
1696784222554687,-9.933168,0.293352,0.372072,0.17451,0.45423,0.21956
1696784222562500,-9.968168,0.337352,0.361072,0.20351,0.54923,0.10756
1696784222570312,-10.36168,0.352352,0.376072,0.26451,0.55023,0.10656
1696784222578125,-10.77168,0.347352,0.363072,0.44751,0.61323,0.10356
1696784222585937,-10.97168,0.360352,0.383072,0.43151,0.69223,0.2456
1696784222593750,-10.110168,0.386352,0.390072,0.53751,0.65523,0.2244
1696784222601562,-10.89168,0.395352,0.365072,0.61351,0.70323,0.844
1696784222609375,-10.69168,0.427352,0.390072,0.67451,0.82023,0.9144
1696784222617187,-10.28168,0.443352,0.395072,0.65651,0.74723,0.19944
1696784222625000,-9.962168,0.442352,0.384072,0.80751,0.77323,0.29444
1696784222632812,-9.937168,0.444352,0.409072,0.88051,0.78123,0.48444
1696784222640625,-9.879168,0.446352,0.409072,0.84951,0.93423,0.55244
1696784222648437,-9.829168,0.428352,0.416072,0.84751,0.95823,0.70844
1696784222656250,-9.806168,0.401352,0.452072,0.75351,0.87223,0.81644
1696784222664062,-9.780168,0.387352,0.452072,0.82851,0.87023,0.89644
1696784222671875,-9.757168,0.364352,0.443072,0.82751,0.76523,0.92444
1696784222679687,-9.797168,0.298352,0.451072,0.78051,0.78423,0.97344
1696784222687500,-9.845168,0.238352,0.463072,0.82751,0.66523,0.90744
1696784222695312,-9.883168,0.213352,0.442072,0.84151,0.49623,0.87144
1696784222703125,-9.902168,0.182352,0.451072,0.84351,0.51823,0.79444
1696784222710937,-9.925168,0.116352,0.465072,0.89051,0.60023,0.74744
1696784222718750,-9.926168,0.84352,0.456072,0.84651,0.46023,0.57244
1696784222726562,-9.900168,0.76352,0.442072,0.100051,0.50623,0.49344
1696784222734375,-9.865168,0.75352,0.454072,0.113851,0.45723,0.43144
1696784222742187,-9.849168,0.46352,0.463072,0.112651,0.42923,0.27344
1696784222750000,-9.886168,0.39352,0.449072,0.111251,0.28523,0.12844
1696784222757812,-9.858168,0.73352,0.419072,0.120551,0.33723,0.3644
1696784222765625,-9.839168,0.122352,0.408072,0.122351,0.25923,0.15556
1696784222773437,-9.850168,0.193352,0.395072,0.117951,0.31323,0.20156
1696784222781250,-9.831168,0.256352,0.358072,0.125651,0.30023,0.29456
1696784222789062,-9.826168,0.294352,0.320072,0.113551,0.25323,0.34356
1696784222796875,-9.841168,0.322352,0.320072,0.112151,0.20323,0.42556
1696784222804687,-9.879168,0.378352,0.290072,0.103051,0.15823,0.48956
1696784222812500,-9.896168,0.442352,0.231072,0.100051,0.9423,0.53756
1696784222820312,-9.896168,0.484352,0.224072,0.83451,0.13623,0.64856
1696784222828125,-9.936168,0.508352,0.202072,0.63651,0.1077,0.70056
1696784222835937,-9.956168,0.547352,0.156072,0.63851,0.4123,0.76256
1696784222843750,-9.919168,0.606352,0.115072,0.51551,0.1223,0.74756
1696784222851562,-9.921168,0.599352,0.120072,0.24151,0.1777,0.76656
1696784222859375,-10.8168,0.576352,0.118072,0.14851,0.6777,0.67356
1696784222867187,-10.86168,0.537352,0.67072,0.5551,0.177,0.56156
1696784222875000,-10.88168,0.513352,0.24072,0.6649,0.1577,0.59456
1696784222882812,-10.15168,0.511352,0.42072,0.8049,0.2977,0.65756
1696784222890625,-9.984168,0.528352,0.38072,0.8049,0.6177,0.67356
1696784222898437,-10.41168,0.514352,0.7928,0.11249,0.29677,0.64756
1696784222906250,-10.100168,0.483352,0.73928,0.21949,0.6477,0.56556
1696784222914062,-10.132168,0.447352,0.78928,0.11249,0.223,0.57856
1696784222921875,-10.135168,0.423352,0.53928,0.8149,0.15223,0.52756
1696784222929687,-10.85168,0.433352,0.53928,0.6549,0.30423,0.52356
1696784222937500,-10.23168,0.442352,0.57928,0.4949,0.42023,0.55356
1696784222945312,-10.47168,0.434352,0.23928,0.7251,0.43723,0.53556
1696784222953125,-10.71168,0.444352,0.5928,0.14951,0.61923,0.53056
1696784222960937,-10.46168,0.460352,0.5928,0.19651,0.70323,0.56056
1696784222968750,-10.14168,0.460352,0.51072,0.24351,0.81823,0.55856
1696784222976562,-9.990168,0.459352,0.133072,0.32051,0.93723,0.57056
1696784222984375,-9.994168,0.461352,0.149072,0.41251,0.86923,0.61856
1696784222992187,-10.168,0.458352,0.186072,0.42751,0.83223,0.62056
1696784223000000,-10.1168,0.463352,0.222072,0.56351,0.79623,0.58856
1696784223007812,-9.976168,0.451352,0.242072,0.64151,0.78323,0.68156
1696784223015625,-9.926168,0.440352,0.254072,0.67151,0.79723,0.65056
1696784223023437,-9.922168,0.454352,0.274072,0.71651,0.74523,0.61956
1696784223031250,-9.914168,0.455352,0.272072,0.80651,0.72223,0.55656
1696784223039062,-9.897168,0.420352,0.281072,0.89551,0.58223,0.46456
1696784223046875,-9.865168,0.398352,0.256072,0.91151,0.53423,0.54456
1696784223054687,-9.849168,0.396352,0.247072,0.92651,0.51623,0.52956
1696784223062500,-9.843168,0.390352,0.247072,0.109451,0.56423,0.51056
1696784223070312,-9.864168,0.340352,0.226072,0.110851,0.31123,0.51656
1696784223078125,-9.927168,0.318352,0.185072,0.112451,0.44123,0.51456
1696784223085937,-9.920168,0.321352,0.158072,0.121851,0.49723,0.66956
1696784223093750,-9.862168,0.300352,0.183072,0.129751,0.66823,0.75956
1696784223101562,-9.876168,0.262352,0.208072,0.132851,0.70323,0.77456
1696784223109375,-10.19168,0.213352,0.201072,0.136151,0.75623,0.88356
1696784223117187,-10.134168,0.161352,0.219072,0.139751,0.96823,0.114656
1696784223125000,-10.184168,0.156352,0.271072,0.156851,0.114023,0.131456
1696784223132812,-10.160168,0.200352,0.326072,0.166851,0.125423,0.175256
1696784223140625,-10.120168,0.324352,0.385072,0.164351,0.133523,0.203456
1696784223148437,-9.994168,0.442352,0.427072,0.166251,0.134323,0.227056
1696784223156250,-9.932168,0.548352,0.463072,0.157451,0.122123,0.249356
1696784223164062,-9.926168,0.632352,0.482072,0.140751,0.105823,0.262556
1696784223171875,-9.963168,0.691352,0.473072,0.133251,0.86223,0.275656
1696784223179687,-9.955168,0.789352,0.430072,0.121051,0.83223,0.275756
1696784223187500,-9.820168,0.882352,0.417072,0.120851,0.67623,0.271456
1696784223195312,-9.734168,0.946352,0.453072,0.106951,0.59623,0.265256
1696784223203125,-9.682168,-1.45352,0.385072,0.91451,0.54223,0.249756
1696784223210937,-9.636168,-1.159352,0.312072,0.83451,0.52223,0.230856
1696784223218750,-9.679168,-1.179352,0.342072,0.64751,0.46523,0.205956
1696784223226562,-9.751168,-1.142352,0.321072,0.51951,0.41923,0.171556
1696784223234375,-9.797168,-1.121352,0.219072,0.40951,0.31523,0.156056
1696784223242187,-9.770168,-1.90352,0.210072,0.25751,0.45023,0.151156
1696784223250000,-9.779168,-1.83352,0.271072,0.25651,0.43323,0.148056
1696784223257812,-9.787168,-1.59352,0.219072,0.17951,0.33523,0.149856
1696784223265625,-9.828168,-1.13352,0.166072,0.11751,0.26723,0.145356
1696784223273437,-9.876168,0.964352,0.196072,0.19551,0.38523,0.148156
1696784223281250,-9.876168,0.960352,0.200072,0.16651,0.38923,0.157556
1696784223289062,-9.887168,0.984352,0.187072,0.19751,0.35723,0.163956
1696784223296875,-9.894168,-1.31352,0.193072,0.21551,0.38123,0.176356
1696784223304687,-9.927168,-1.36352,0.191072,0.20151,0.42923,0.181156
1696784223312500,-9.998168,-1.36352,0.216072,0.21651,0.38223,0.184356
1696784223320312,-10.66168,-1.67352,0.214072,0.24751,0.55323,0.183856
1696784223328125,-10.108168,-1.83352,0.210072,0.31051,0.61523,0.188556
1696784223335937,-10.109168,-1.105352,0.246072,0.37251,0.63323,0.198056
1696784223343750,-10.109168,-1.148352,0.310072,0.39051,0.65523,0.210556
1696784223351562,-10.125168,-1.216352,0.294072,0.39151,0.71223,0.216556
1696784223359375,-10.107168,-1.302352,0.283072,0.43851,0.66023,0.223056
1696784223367187,-10.42168,-1.362352,0.303072,0.42251,0.71223,0.218056
1696784223375000,-9.988168,-1.397352,0.342072,0.40651,0.59023,0.218556
1696784223382812,-9.953168,-1.455352,0.304072,0.43351,0.58323,0.199556
1696784223390625,-9.893168,-1.513352,0.277072,0.41551,0.55923,0.183956
1696784223398437,-9.819168,-1.540352,0.302072,0.39951,0.64223,0.175856
1696784223406250,-9.780168,-1.578352,0.325072,0.39551,0.61723,0.150656
1696784223414062,-9.720168,-1.592352,0.307072,0.37451,0.52023,0.122656
1696784223421875,-9.657168,-1.597352,0.279072,0.41651,0.42723,0.103956
1696784223429687,-9.648168,-1.586352,0.293072,0.39651,0.30123,0.82156
1696784223437500,-9.650168,-1.597352,0.243072,0.40851,0.24423,0.64956
1696784223445312,-9.612168,-1.618352,0.184072,0.39151,0.25923,0.53756
1696784223453125,-9.578168,-1.632352,0.197072,0.37551,0.27623,0.48956
1696784223460937,-9.614168,-1.629352,0.209072,0.30951,0.14723,0.22656
1696784223468750,-9.712168,-1.624352,0.170072,0.35051,0.977,0.2356
1696784223476562,-9.823168,-1.618352,0.97072,0.39251,0.5277,0.18144
1696784223484375,-9.863168,-1.621352,0.56072,0.36151,0.3777,0.24344
1696784223492187,-9.879168,-1.628352,0.60072,0.16251,0.8377,0.25744
1696784223500000,-9.909168,-1.641352,0.56072,0.10051,0.11977,0.35044
1696784223507812,-9.956168,-1.633352,0.13072,0.6951,0.5477,0.36744
1696784223515625,-9.999168,-1.635352,0.32928,0.8349,0.12077,0.39544
1696784223523437,-10.12168,-1.639352,0.32928,0.11549,0.577,0.50844
1696784223531250,-10.14168,-1.647352,0.32928,0.9949,0.5823,0.49244
1696784223539062,-10.66168,-1.669352,0.29928,0.31349,0.6023,0.55444
1696784223546875,-10.89168,-1.694352,0.48928,0.36049,0.1977,0.56944
1696784223554687,-10.62168,-1.696352,0.66928,0.34649,0.14423,0.68344
1696784223562500,-10.50168,-1.689352,0.27928,0.42249,0.21123,0.69944
1696784223570312,-10.48168,-1.681352,0.36928,0.56049,0.31323,0.79644
1696784223578125,-9.981168,-1.642352,0.64928,0.57649,0.41123,0.90944
1696784223585937,-9.955168,-1.572352,0.7928,0.62549,0.50623,0.113244
1696784223593750,-9.965168,-1.489352,0.55072,0.59749,0.55023,0.127544
1696784223601562,-10.15168,-1.378352,0.51072,0.55449,0.62123,0.146344
1696784223609375,-10.26168,-1.249352,0.71072,0.41749,0.73423,0.153044
1696784223617187,-9.978168,-1.185352,0.142072,0.18849,0.79823,0.151744
1696784223625000,-9.946168,-1.166352,0.210072,0.8249,0.77823,0.151744
1696784223632812,-9.987168,-1.127352,0.212072,0.2149,0.82623,0.153444
1696784223640625,-10.51168,-1.66352,0.198072,0.14751,0.70823,0.143844
1696784223648437,-10.73168,0.997352,0.246072,0.43951,0.92523,0.136644
1696784223656250,-10.2168,0.980352,0.330072,0.59251,0.110423,0.138644
1696784223664062,-9.980168,0.976352,0.378072,0.86751,0.105223,0.137344
1696784223671875,-9.985168,0.963352,0.387072,0.111251,0.115023,0.133044
1696784223679687,-9.972168,0.955352,0.398072,0.126351,0.122723,0.144344
1696784223687500,-9.910168,0.951352,0.442072,0.155351,0.118723,0.138044
1696784223695312,-9.840168,0.971352,0.455072,0.158351,0.120123,0.142744
1696784223703125,-9.758168,0.977352,0.460072,0.168851,0.116023,0.153644
1696784223710937,-9.726168,0.953352,0.483072,0.183851,0.106823,0.164644
1696784223718750,-9.720168,0.908352,0.458072,0.191251,0.106023,0.178744
1696784223726562,-9.671168,0.884352,0.448072,0.206251,0.100523,0.189944
1696784223734375,-9.622168,0.825352,0.482072,0.207651,0.103723,0.196344
1696784223742187,-9.620168,0.767352,0.517072,0.216851,0.106623,0.197944
1696784223750000,-9.673168,0.719352,0.471072,0.231851,0.92523,0.205644
1696784223757812,-9.719168,0.688352,0.441072,0.230551,0.83123,0.189644
1696784223765625,-9.736168,0.689352,0.450072,0.232251,0.94923,0.181944
1696784223773437,-9.766168,0.714352,0.434072,0.230951,0.82423,0.162844
1696784223781250,-9.779168,0.735352,0.400072,0.232551,0.67623,0.151544
1696784223789062,-9.804168,0.751352,0.394072,0.225151,0.68223,0.140444
1696784223796875,-9.849168,0.762352,0.403072,0.222351,0.68823,0.127844
1696784223804687,-9.951168,0.787352,0.350072,0.213351,0.67823,0.115244
1696784223812500,-10.23168,0.813352,0.334072,0.206051,0.68523,0.100944
1696784223820312,-10.56168,0.841352,0.350072,0.195651,0.67623,0.85144
1696784223828125,-10.50168,0.871352,0.353072,0.188151,0.70023,0.77344
1696784223835937,-10.61168,0.879352,0.332072,0.182051,0.68523,0.74144
1696784223843750,-10.118168,0.881352,0.341072,0.167051,0.74423,0.64744
1696784223851562,-10.115168,0.870352,0.348072,0.162451,0.80923,0.67944
1696784223859375,-10.81168,0.881352,0.332072,0.159451,0.76123,0.64744
1696784223867187,-10.29168,0.886352,0.332072,0.160951,0.86023,0.66444
1696784223875000,-9.982168,0.917352,0.355072,0.159451,0.98123,0.68444
1696784223882812,-9.906168,0.946352,0.344072,0.156451,0.86423,0.64944
1696784223890625,-9.874168,0.955352,0.323072,0.137851,0.72423,0.78544
1696784223898437,-9.874168,0.926352,0.342072,0.128651,0.80923,0.81744
1696784223906250,-9.918168,0.883352,0.328072,0.120851,0.75823,0.92744
1696784223914062,-9.928168,0.834352,0.284072,0.114551,0.75623,0.102144
1696784223921875,-9.914168,0.801352,0.298072,0.109951,0.77023,0.106844
1696784223929687,-9.916168,0.773352,0.329072,0.111351,0.82223,0.115044
1696784223937500,-9.888168,0.736352,0.314072,0.111451,0.88623,0.111844
1696784223945312,-9.881168,0.696352,0.337072,0.106651,0.81323,0.124144
1696784223953125,-9.914168,0.627352,0.359072,0.106451,0.82823,0.132144
1696784223960937,-9.915168,0.583352,0.350072,0.110951,0.89423,0.138644
1696784223968750,-9.961168,0.531352,0.375072,0.109451,0.87723,0.140244
1696784223976562,-10.23168,0.470352,0.404072,0.110951,0.86023,0.141744
1696784223984375,-10.26168,0.434352,0.409072,0.111151,0.96223,0.134044
1696784223992187,-10.1168,0.401352,0.416072,0.111251,0.101323,0.127744
1696784224000000,-9.954168,0.368352,0.447072,0.123551,0.102923,0.123144
1696784224007812,-9.922168,0.348352,0.470072,0.129851,0.96723,0.108944
1696784224015625,-9.907168,0.360352,0.465072,0.137451,0.88523,0.105744
1696784224023437,-9.856168,0.385352,0.459072,0.137551,0.86823,0.100944
1696784224031250,-9.829168,0.372352,0.488072,0.137651,0.83923,0.91444
1696784224039062,-9.812168,0.355352,0.506072,0.146851,0.73923,0.86644
1696784224046875,-9.837168,0.335352,0.486072,0.153051,0.72223,0.81944
1696784224054687,-9.845168,0.359352,0.481072,0.152951,0.73723,0.83444
1696784224062500,-9.838168,0.372352,0.481072,0.154751,0.70923,0.67644
1696784224070312,-9.834168,0.392352,0.466072,0.139451,0.61323,0.65844
1696784224078125,-9.818168,0.402352,0.443072,0.144251,0.65123,0.56544
1696784224085937,-9.833168,0.428352,0.447072,0.138251,0.68523,0.53344
1696784224093750,-9.860168,0.450352,0.445072,0.136851,0.62223,0.45344
1696784224101562,-9.896168,0.470352,0.443072,0.135551,0.61223,0.29644
1696784224109375,-9.960168,0.493352,0.427072,0.128051,0.63423,0.21744
1696784224117187,-9.987168,0.493352,0.441072,0.111551,0.77523,0.10844
1696784224125000,-10.7168,0.498352,0.459072,0.113351,0.78223,0.3256
1696784224132812,-10.27168,0.523352,0.454072,0.111951,0.76723,0.14356
1696784224140625,-10.22168,0.553352,0.459072,0.113651,0.80423,0.20556
1696784224148437,-9.996168,0.559352,0.489072,0.112251,0.72023,0.28756
1696784224156250,-9.983168,0.573352,0.507072,0.106051,0.70623,0.27156
1696784224164062,-9.970168,0.580352,0.520072,0.100051,0.69323,0.30356
1696784224171875,-9.983168,0.580352,0.530072,0.104551,0.65723,0.28856
1696784224179687,-9.970168,0.594352,0.509072,0.98451,0.67823,0.28656
1696784224187500,-9.883168,0.610352,0.505072,0.106051,0.67223,0.25656
1696784224195312,-9.827168,0.619352,0.548072,0.110351,0.50423,0.19556
1696784224203125,-9.806168,0.639352,0.523072,0.104051,0.49823,0.3856
1696784224210937,-9.808168,0.626352,0.462072,0.108451,0.44123,0.544
1696784224218750,-9.790168,0.616352,0.471072,0.99251,0.37723,0.2044
1696784224226562,-9.759168,0.604352,0.461072,0.94551,0.39523,0.10044
1696784224234375,-9.786168,0.581352,0.438072,0.83751,0.24323,0.12744
1696784224242187,-9.859168,0.562352,0.422072,0.79151,0.22623,0.14244
1696784224250000,-9.866168,0.561352,0.363072,0.77651,0.9523,0.7644
1696784224257812,-9.843168,0.579352,0.306072,0.67051,0.3123,0.2644
1696784224265625,-9.842168,0.614352,0.302072,0.61051,0.4823,0.556
1696784224273437,-9.896168,0.623352,0.291072,0.41251,0.3823,0.5356
1696784224281250,-9.985168,0.594352,0.227072,0.39651,0.223,0.2456
1696784224289062,-10.78168,0.566352,0.188072,0.28951,0.2977,0.2556
1696784224296875,-10.167168,0.554352,0.183072,0.20051,0.12923,0.11656
1696784224304687,-10.193168,0.539352,0.167072,0.17351,0.30523,0.22256
1696784224312500,-10.178168,0.534352,0.165072,0.14351,0.35423,0.27056
1696784224320312,-10.168168,0.506352,0.197072,0.16151,0.49423,0.36056
1696784224328125,-10.200168,0.492352,0.217072,0.14651,0.61123,0.31056
1696784224335937,-10.228168,0.477352,0.238072,0.16151,0.67923,0.29256
1696784224343750,-10.166168,0.477352,0.254072,0.14851,0.73123,0.40356
1696784224351562,-10.5168,0.501352,0.306072,0.17951,0.83223,0.40056
1696784224359375,-9.870168,0.566352,0.357072,0.16451,0.84923,0.41556
1696784224367187,-9.842168,0.595352,0.368072,0.16551,0.74923,0.48156
1696784224375000,-9.877168,0.573352,0.363072,0.16451,0.70123,0.44956
1696784224382812,-9.928168,0.525352,0.393072,0.23851,0.64523,0.35656
1696784224390625,-9.945168,0.538352,0.368072,0.31551,0.71123,0.38656
1696784224398437,-9.911168,0.579352,0.359072,0.36251,0.74523,0.41656
1696784224406250,-9.879168,0.588352,0.420072,0.42151,0.77223,0.30556
1696784224414062,-9.879168,0.581352,0.443072,0.35851,0.73623,0.22856
1696784224421875,-9.897168,0.576352,0.400072,0.45051,0.66823,0.24556
1696784224429687,-9.902168,0.615352,0.393072,0.43551,0.73723,0.24256
1696784224437500,-9.849168,0.633352,0.443072,0.51151,0.76823,0.22656
1696784224445312,-9.840168,0.644352,0.448072,0.60251,0.73123,0.21056
1696784224453125,-9.874168,0.646352,0.420072,0.56951,0.56223,0.11956
1696784224460937,-9.921168,0.641352,0.404072,0.64551,0.67523,0.6956
1696784224468750,-9.926168,0.629352,0.436072,0.62851,0.65323,0.744
1696784224476562,-9.951168,0.611352,0.461072,0.63051,0.70523,0.5456
1696784224484375,-9.964168,0.606352,0.446072,0.69151,0.62123,0.10356
1696784224492187,-9.965168,0.594352,0.445072,0.66151,0.69323,0.11656
1696784224500000,-9.960168,0.603352,0.461072,0.72451,0.72923,0.21056
1696784224507812,-9.908168,0.644352,0.450072,0.81651,0.74523,0.22456
1696784224515625,-9.860168,0.651352,0.473072,0.86051,0.77523,0.14456
1696784224523437,-9.851168,0.669352,0.502072,0.89151,0.74123,0.16156
1696784224531250,-9.881168,0.658352,0.486072,0.98251,0.72323,0.16056
1696784224539062,-9.887168,0.648352,0.482072,0.108851,0.64823,0.13156
1696784224546875,-9.885168,0.637352,0.516072,0.113351,0.70023,0.9656
1696784224554687,-9.880168,0.646352,0.512072,0.113451,0.64923,0.13056
1696784224562500,-9.883168,0.684352,0.496072,0.110351,0.73423,0.9656
1696784224570312,-9.853168,0.694352,0.496072,0.124051,0.76623,0.9456
1696784224578125,-9.887168,0.675352,0.516072,0.133251,0.69423,0.9656
1696784224585937,-10.2168,0.660352,0.498072,0.134751,0.69323,0.8056
1696784224593750,-10.34168,0.677352,0.480072,0.136351,0.76223,0.12656
1696784224601562,-10.7168,0.680352,0.530072,0.151651,0.81123,0.17156
1696784224609375,-10.2168,0.687352,0.548072,0.160951,0.86223,0.20056
1696784224617187,-10.11168,0.720352,0.537072,0.160951,0.77923,0.24956
1696784224625000,-10.42168,0.762352,0.528072,0.162751,0.85223,0.40556
1696784224632812,-10.31168,0.794352,0.528072,0.161351,0.78923,0.48556
1696784224640625,-10.21168,0.820352,0.530072,0.162851,0.80223,0.43856
1696784224648437,-10.23168,0.838352,0.539072,0.158251,0.78923,0.47056
1696784224656250,-10.25168,0.854352,0.505072,0.158051,0.68523,0.37756
1696784224664062,-9.993168,0.854352,0.498072,0.156551,0.81623,0.32856
1696784224671875,-9.968168,0.854352,0.512072,0.156451,0.79623,0.26656
1696784224679687,-9.913168,0.872352,0.501072,0.160851,0.80723,0.17256
1696784224687500,-9.855168,0.889352,0.480072,0.156051,0.75523,0.4656
1696784224695312,-9.816168,0.887352,0.492072,0.143651,0.75123,0.6144
1696784224703125,-9.796168,0.868352,0.512072,0.134351,0.81723,0.18944
1696784224710937,-9.801168,0.827352,0.505072,0.132651,0.78123,0.26744
1696784224718750,-9.842168,0.787352,0.523072,0.134051,0.74523,0.31344
1696784224726562,-9.854168,0.758352,0.525072,0.114351,0.80223,0.26644
1696784224734375,-9.865168,0.742352,0.528072,0.112851,0.80123,0.28244
1696784224742187,-9.868168,0.740352,0.560072,0.111351,0.78823,0.21944
1696784224750000,-9.866168,0.724352,0.582072,0.113051,0.77523,0.10844
1696784224757812,-9.884168,0.713352,0.569072,0.111551,0.64323,0.5844
1696784224765625,-9.886168,0.704352,0.564072,0.108551,0.69423,0.4344
1696784224773437,-9.908168,0.719352,0.576072,0.97951,0.67923,0.1044
1696784224781250,-9.904168,0.728352,0.578072,0.94951,0.61623,0.5356
1696784224789062,-9.881168,0.717352,0.562072,0.88951,0.53523,0.11956
1696784224796875,-9.879168,0.726352,0.553072,0.87451,0.52023,0.15156
1696784224804687,-9.862168,0.784352,0.553072,0.93451,0.55023,0.10256
1696784224812500,-9.810168,0.826352,0.505072,0.90351,0.50223,0.5556
1696784224820312,-9.764168,0.841352,0.512072,0.77851,0.34623,0.4944
1696784224828125,-9.762168,0.843352,0.487072,0.72851,0.27023,0.26744
1696784224835937,-9.812168,0.840352,0.455072,0.69651,0.23423,0.36144
1696784224843750,-9.898168,0.821352,0.432072,0.64951,0.24723,0.45544
1696784224851562,-9.889168,0.796352,0.416072,0.63251,0.22823,0.53344
1696784224859375,-9.865168,0.788352,0.389072,0.63151,0.25923,0.61344
1696784224867187,-9.879168,0.795352,0.409072,0.61551,0.31023,0.67844
1696784224875000,-9.877168,0.798352,0.391072,0.62951,0.22023,0.70544
1696784224882812,-9.903168,0.794352,0.359072,0.58451,0.32323,0.70844
1696784224890625,-9.917168,0.783352,0.380072,0.55351,0.37423,0.74144
1696784224898437,-9.965168,0.765352,0.389072,0.49351,0.32923,0.66144
1696784224906250,-10.41168,0.775352,0.389072,0.49251,0.20923,0.67444
1696784224914062,-10.64168,0.806352,0.343072,0.37251,0.26623,0.62844
1696784224921875,-10.62168,0.810352,0.337072,0.34251,0.36823,0.61444
1696784224929687,-10.57168,0.826352,0.359072,0.20351,0.45023,0.72544
1696784224937500,-10.11168,0.835352,0.362072,0.14251,0.46623,0.77244
1696784224945312,-9.986168,0.831352,0.357072,0.12451,0.44123,0.92844
1696784224953125,-9.969168,0.798352,0.364072,0.7549,0.36123,0.98944
1696784224960937,-9.989168,0.779352,0.355072,0.12249,0.35823,0.105044
1696784224968750,-9.997168,0.747352,0.345072,0.9449,0.27423,0.114544
1696784224976562,-9.986168,0.693352,0.336072,0.24749,0.28823,0.120644
1696784224984375,-10.168,0.655352,0.350072,0.33949,0.39123,0.125644
1696784224992187,-10.2168,0.635352,0.345072,0.34049,0.35423,0.130144
1696784225000000,-9.937168,0.607352,0.341072,0.37049,0.43823,0.135144
1696784225007812,-9.908168,0.560352,0.386072,0.35449,0.48923,0.127244
1696784225015625,-9.897168,0.531352,0.418072,0.37049,0.61923,0.136944
1696784225023437,-9.897168,0.502352,0.427072,0.32449,0.61623,0.140044
1696784225031250,-9.916168,0.473352,0.441072,0.27949,0.71423,0.148244
1696784225039062,-9.937168,0.424352,0.445072,0.17149,0.76823,0.139044
1696784225046875,-9.935168,0.399352,0.466072,0.12349,0.80323,0.126444
1696784225054687,-9.927168,0.389352,0.516072,0.4549,0.84223,0.118844
1696784225062500,-9.920168,0.348352,0.520072,0.10651,0.82023,0.117244
1696784225070312,-9.988168,0.312352,0.543072,0.7751,0.73923,0.107544
1696784225078125,-10.13168,0.303352,0.554072,0.26251,0.72423,0.98244
1696784225085937,-9.945168,0.319352,0.564072,0.40251,0.85823,0.84344
1696784225093750,-9.838168,0.356352,0.614072,0.48051,0.83023,0.71844
1696784225101562,-9.813168,0.392352,0.627072,0.51251,0.70023,0.57444
1696784225109375,-9.901168,0.402352,0.605072,0.63451,0.48023,0.52244
1696784225117187,-9.994168,0.415352,0.541072,0.66551,0.48423,0.46144
1696784225125000,-10.5168,0.414352,0.534072,0.74351,0.56823,0.39944
1696784225132812,-9.983168,0.406352,0.559072,0.80551,0.60123,0.38544
1696784225140625,-9.971168,0.423352,0.557072,0.88151,0.59823,0.38544
1696784225148437,-9.978168,0.448352,0.523072,0.91251,0.66623,0.38744
1696784225156250,-9.930168,0.464352,0.518072,0.104951,0.69523,0.38844
1696784225164062,-9.869168,0.468352,0.552072,0.112551,0.76123,0.43844
1696784225171875,-9.898168,0.453352,0.539072,0.111051,0.74423,0.37344
1696784225179687,-9.968168,0.461352,0.518072,0.112751,0.74723,0.32744
1696784225187500,-9.968168,0.470352,0.507072,0.123551,0.89823,0.26844
1696784225195312,-9.943168,0.500352,0.545072,0.138751,0.86223,0.30044
1696784225203125,-9.957168,0.502352,0.568072,0.140351,0.89523,0.28544
1696784225210937,-9.991168,0.497352,0.545072,0.137251,0.96223,0.30244
1696784225218750,-9.995168,0.493352,0.550072,0.134251,0.104823,0.28844
1696784225226562,-9.991168,0.486352,0.582072,0.143551,0.109823,0.22644
1696784225234375,-9.970168,0.486352,0.593072,0.140651,0.108423,0.14744
1696784225242187,-9.952168,0.488352,0.591072,0.139151,0.98523,0.9744
1696784225250000,-9.991168,0.475352,0.589072,0.140751,0.103823,0.5244
1696784225257812,-10.13168,0.472352,0.589072,0.154551,0.96823,0.344
1696784225265625,-10.7168,0.466352,0.584072,0.160751,0.97123,0.4256
1696784225273437,-9.991168,0.426352,0.600072,0.154751,0.102423,0.10556
1696784225281250,-10.10168,0.397352,0.604072,0.154751,0.101023,0.12056
1696784225289062,-10.24168,0.401352,0.620072,0.160951,0.109223,0.13456
1696784225296875,-10.17168,0.401352,0.623072,0.161051,0.112823,0.18056
1696784225304687,-9.985168,0.402352,0.629072,0.164051,0.107823,0.19656
1696784225312500,-9.928168,0.438352,0.618072,0.164151,0.112923,0.22756
1696784225320312,-9.894168,0.456352,0.646072,0.164051,0.116023,0.16456
1696784225328125,-9.857168,0.450352,0.707072,0.163851,0.113823,0.5456
1696784225335937,-9.856168,0.404352,0.686072,0.171351,0.101823,0.2244
1696784225343750,-9.875168,0.395352,0.664072,0.166751,0.108623,0.4044
1696784225351562,-9.856168,0.397352,0.693072,0.168251,0.111823,0.7244
1696784225359375,-9.850168,0.398352,0.718072,0.165351,0.107323,0.2256
1696784225367187,-9.865168,0.407352,0.709072,0.160851,0.100623,0.12056
1696784225375000,-9.912168,0.422352,0.691072,0.162451,0.100623,0.16856
1696784225382812,-9.975168,0.457352,0.712072,0.159451,0.96023,0.20056
1696784225390625,-10.5168,0.468352,0.716072,0.142851,0.88623,0.34456
1696784225398437,-10.36168,0.506352,0.732072,0.137051,0.95823,0.45356
1696784225406250,-10.18168,0.522352,0.723072,0.135551,0.87723,0.48656
1696784225414062,-9.977168,0.525352,0.737072,0.115651,0.79523,0.47456
1696784225421875,-9.931168,0.543352,0.730072,0.112551,0.74523,0.49156
1696784225429687,-9.920168,0.552352,0.703072,0.112551,0.66423,0.50856
1696784225437500,-9.985168,0.562352,0.623072,0.89551,0.56523,0.48156
1696784225445312,-10.14168,0.550352,0.594072,0.89551,0.54723,0.49856
1696784225453125,-10.15168,0.526352,0.571072,0.88051,0.59723,0.44956
1696784225460937,-9.986168,0.513352,0.566072,0.90951,0.62723,0.36956
1696784225468750,-9.907168,0.516352,0.532072,0.89151,0.70623,0.19456
1696784225476562,-9.801168,0.512352,0.536072,0.87451,0.77223,0.6556
1696784225484375,-9.740168,0.503352,0.564072,0.88851,0.76623,0.4344
1696784225492187,-9.735168,0.496352,0.571072,0.87051,0.72823,0.15244
1696784225500000,-9.751168,0.483352,0.527072,0.88451,0.74123,0.26344
1696784225507812,-9.756168,0.404352,0.538072,0.86751,0.75323,0.34244
1696784225515625,-9.778168,0.360352,0.595072,0.100651,0.80423,0.26544
1696784225523437,-9.804168,0.347352,0.598072,0.108251,0.86623,0.28144
1696784225531250,-9.766168,0.344352,0.593072,0.105351,0.83923,0.20344
1696784225539062,-9.762168,0.345352,0.632072,0.107151,0.84723,0.6344
1696784225546875,-9.819168,0.335352,0.643072,0.96751,0.73723,0.12956
1696784225554687,-9.846168,0.375352,0.620072,0.99951,0.69223,0.27156
1696784225562500,-9.903168,0.414352,0.630072,0.97151,0.67923,0.41556
1696784225570312,-9.966168,0.460352,0.627072,0.89651,0.63423,0.51056
1696784225578125,-10.168,0.502352,0.598072,0.88151,0.61823,0.52756
1696784225585937,-10.51168,0.539352,0.618072,0.80551,0.62123,0.54256
1696784225593750,-10.89168,0.567352,0.600072,0.80651,0.53723,0.60956
1696784225601562,-10.105168,0.627352,0.557072,0.76051,0.55823,0.62356
1696784225609375,-10.103168,0.673352,0.569072,0.68451,0.60623,0.59256
1696784225617187,-10.49168,0.723352,0.567072,0.63851,0.57323,0.57756
1696784225625000,-10.35168,0.773352,0.539072,0.63651,0.52123,0.49956
1696784225632812,-10.77168,0.786352,0.535072,0.51451,0.52323,0.48456
1696784225640625,-10.143168,0.792352,0.507072,0.54351,0.50423,0.42156
1696784225648437,-10.145168,0.798352,0.489072,0.38851,0.60123,0.24756
1696784225656250,-10.89168,0.793352,0.496072,0.34351,0.73623,0.19656
1696784225664062,-10.8168,0.778352,0.532072,0.30951,0.78023,0.2356
1696784225671875,-9.962168,0.740352,0.560072,0.15651,0.76223,0.5344
1696784225679687,-10.2168,0.680352,0.566072,0.15351,0.72623,0.18044
1696784225687500,-10.41168,0.630352,0.553072,0.15251,0.77223,0.24344
1696784225695312,-10.26168,0.591352,0.598072,0.21551,0.99023,0.24844
1696784225703125,-9.971168,0.544352,0.641072,0.19951,0.107023,0.28044
1696784225710937,-9.926168,0.515352,0.673072,0.15451,0.107223,0.24844
1696784225718750,-9.902168,0.507352,0.703072,0.13951,0.117323,0.26644
1696784225726562,-9.836168,0.492352,0.721072,0.18551,0.120523,0.28344
1696784225734375,-9.833168,0.422352,0.789072,0.18451,0.115623,0.29844
1696784225742187,-9.933168,0.391352,0.812072,0.16951,0.110623,0.26544
1696784225750000,-9.994168,0.437352,0.743072,0.36751,0.108523,0.28244
1696784225757812,-9.940168,0.504352,0.776072,0.39951,0.123523,0.23744
1696784225765625,-9.850168,0.506352,0.849072,0.38451,0.126923,0.27044
1696784225773437,-9.924168,0.516352,0.842072,0.30751,0.116823,0.26644
1696784225781250,-9.965168,0.538352,0.846072,0.39951,0.130323,0.28744
1696784225789062,-9.841168,0.536352,0.899072,0.40051,0.135523,0.25744
1696784225796875,-9.804168,0.504352,0.978072,0.36851,0.126823,0.28544
1696784225804687,-9.866168,0.502352,1.19072,0.39751,0.115123,0.33244
1696784225812500,-9.860168,0.544352,0.949072,0.51951,0.116223,0.31544
1696784225820312,-9.815168,0.554352,0.969072,0.41351,0.105023,0.26544
1696784225828125,-9.751168,0.577352,1.45072,0.42851,0.108323,0.28244
1696784225835937,-9.733168,0.609352,1.56072,0.44351,0.83423,0.23044
1696784225843750,-9.803168,0.625352,1.4072,0.41051,0.64723,0.27344
1696784225851562,-9.882168,0.626352,0.974072,0.36651,0.66423,0.20944
1696784225859375,-9.957168,0.617352,0.988072,0.45951,0.67023,0.11744
1696784225867187,-9.939168,0.595352,1.3072,0.39951,0.68923,0.8544
1696784225875000,-9.914168,0.622352,0.992072,0.46051,0.65623,0.3844
1696784225882812,-9.946168,0.648352,0.997072,0.42951,0.57323,0.3644
1696784225890625,-9.934168,0.680352,0.988072,0.39951,0.59123,0.2044
1696784225898437,-9.883168,0.726352,0.954072,0.42851,0.56823,0.9744
1696784225906250,-9.851168,0.751352,0.993072,0.39551,0.46223,0.22144
1696784225914062,-9.835168,0.758352,0.979072,0.39251,0.40623,0.34544
1696784225921875,-9.823168,0.785352,0.945072,0.37651,0.35523,0.40844
1696784225929687,-9.860168,0.765352,0.936072,0.29751,0.18623,0.51444
1696784225937500,-9.904168,0.708352,0.915072,0.23451,0.14923,0.60744
1696784225945312,-9.938168,0.641352,0.899072,0.12751,0.16623,0.65444
1696784225953125,-9.987168,0.591352,0.908072,0.14251,0.16723,0.63944
1696784225960937,-10.25168,0.582352,0.876072,0.12851,0.26823,0.62544
1696784225968750,-9.955168,0.616352,0.833072,0.14351,0.38423,0.64344
1696784225976562,-9.832168,0.640352,0.910072,0.9951,0.50623,0.63144
1696784225984375,-9.808168,0.598352,0.976072,0.11749,0.30423,0.71944
1696784225992187,-9.897168,0.570352,0.942072,0.8649,0.23723,0.71844
1696784226000000,-9.930168,0.574352,0.901072,0.8449,0.24123,0.59144
1696784226007812,-9.881168,0.562352,0.958072,0.16049,0.19423,0.54344
1696784226015625,-9.823168,0.534352,1.42072,0.29749,0.20023,0.52844
1696784226023437,-9.781168,0.448352,1.83072,0.37549,0.5277,0.56944
1696784226031250,-9.714168,0.344352,1.156072,0.26949,0.7477,0.58344
1696784226039062,-9.668168,0.168352,1.255072,0.16449,0.32977,0.59444
1696784226046875,-9.542168,0.67648,1.392072,0.3051,0.59077,0.68444
1696784226054687,-9.309168,0.269648,1.555072,0.42451,0.98577,0.71144
1696784226062500,-9.191168,0.418648,1.723072,0.90751,0.170377,0.73044
1696784226070312,-9.167168,0.478648,1.735072,0.157551,0.246877,0.59244
1696784226078125,-9.174168,0.447648,1.562072,0.213551,0.330277,0.53144
1696784226085937,-9.165168,0.433648,1.491072,0.271451,0.401177,0.33144
1696784226093750,-9.203168,0.402648,1.496072,0.332151,0.472577,0.19544
1696784226101562,-9.281168,0.333648,1.339072,0.382151,0.542677,0.13444
1696784226109375,-9.377168,0.242648,1.100072,0.426351,0.595177,0.3156
1696784226117187,-9.473168,0.141648,0.970072,0.466051,0.624377,0.14656
1696784226125000,-9.592168,0.58648,0.852072,0.485851,0.657977,0.27856
1696784226132812,-9.490168,0.87352,0.752072,0.513551,0.669577,0.46756
1696784226140625,-9.531168,0.246352,0.671072,0.527251,0.694877,0.55156
1696784226148437,-9.791168,0.280352,0.452072,0.498451,0.718877,0.73156
1696784226156250,-9.840168,0.375352,0.331072,0.503451,0.694677,0.88356
1696784226164062,-9.870168,0.497352,0.259072,0.501951,0.687777,0.91356
1696784226171875,-9.921168,0.548352,0.193072,0.467151,0.684977,0.104156
1696784226179687,-10.16168,0.685352,0.59928,0.450851,0.666677,0.125756
1696784226187500,-10.77168,0.815352,0.191928,0.422051,0.640977,0.127056
1696784226195312,-10.93168,0.873352,0.229928,0.377951,0.619677,0.123656
1696784226203125,-10.140168,0.865352,0.327928,0.352151,0.592477,0.123356
1696784226210937,-10.224168,0.886352,0.478928,0.312751,0.574377,0.129456
1696784226218750,-10.280168,0.916352,0.530928,0.265851,0.537877,0.138456
1696784226226562,-10.290168,0.969352,0.577928,0.234051,0.501977,0.136356
1696784226234375,-10.288168,0.942352,0.657928,0.184251,0.468377,0.151756
1696784226242187,-10.313168,0.831352,0.762928,0.146651,0.437877,0.176456
1696784226250000,-10.300168,0.624352,0.733928,0.104751,0.403877,0.205956
1696784226257812,-10.309168,0.432352,0.611928,0.73351,0.370277,0.230656
1696784226265625,-10.232168,0.389352,0.618928,0.75451,0.342477,0.255256
1696784226273437,-10.56168,0.394352,0.643928,0.90751,0.334077,0.254856
1696784226281250,-10.44168,0.391352,0.565928,0.89051,0.328077,0.245456
1696784226289062,-9.977168,0.408352,0.661928,0.107251,0.308577,0.229056
1696784226296875,-9.869168,0.318352,0.700928,0.131251,0.298277,0.205056
1696784226304687,-9.967168,0.295352,0.577928,0.152251,0.297677,0.185956
1696784226312500,-10.37168,0.337352,0.679928,0.170551,0.291277,0.184056
1696784226320312,-10.155168,0.412352,0.882928,0.175251,0.287977,0.191956
1696784226328125,-10.238168,0.475352,0.886928,0.184651,0.261377,0.194556
1696784226335937,-10.207168,0.582352,0.920928,0.197151,0.249477,0.210056
1696784226343750,-10.131168,0.699352,-1.40928,0.194151,0.222477,0.203056
1696784226351562,-10.71168,0.809352,-1.88928,0.197151,0.207677,0.194856
1696784226359375,-10.48168,0.854352,-1.134928,0.187751,0.199677,0.175756
1696784226367187,-10.199168,0.876352,-1.172928,0.162951,0.191777,0.150656
1696784226375000,-10.363168,-1.8352,-1.265928,0.163051,0.166677,0.145256
1696784226382812,-10.396168,-1.250352,-1.365928,0.141751,0.128077,0.132056
1696784226390625,-10.278168,-1.494352,-1.426928,0.103951,0.66677,0.129356
1696784226398437,-10.145168,-1.578352,-1.394928,0.55251,0.38977,0.125956
1696784226406250,-10.176168,-1.578352,-1.330928,0.1249,0.19877,0.114956
1696784226414062,-10.249168,-1.609352,-1.367928,0.60649,0.13323,0.106656
1696784226421875,-10.162168,-1.683352,-1.396928,0.100349,0.52123,0.87256
1696784226429687,-10.12168,-1.696352,-1.309928,0.163049,0.75923,0.66756
1696784226437500,-9.963168,-1.607352,-1.264928,0.216649,0.81523,0.51256
1696784226445312,-10.15168,-1.489352,-1.253928,0.259449,0.92223,0.37056
1696784226453125,-10.125168,-1.405352,-1.260928,0.303849,0.105923,0.21256
1696784226460937,-10.175168,-1.333352,-1.242928,0.335749,0.130123,0.22556
1696784226468750,-10.197168,-1.269352,-1.176928,0.366249,0.152523,0.14356
1696784226476562,-10.181168,-1.195352,-1.126928,0.399449,0.165223,0.25456
1696784226484375,-10.142168,-1.130352,-1.85928,0.420649,0.192823,0.23256
1696784226492187,-10.126168,-1.78352,-1.5928,0.423649,0.194423,0.26556
1696784226500000,-10.142168,-1.61352,0.980928,0.435649,0.213223,0.35756
1696784226507812,-10.120168,-1.67352,-1.19928,0.465849,0.231323,0.43356
1696784226515625,-10.33168,-1.88352,0.935928,0.470249,0.251823,0.49256
1696784226523437,-9.963168,-1.119352,0.862928,0.483849,0.260723,0.49056
1696784226531250,-9.946168,-1.143352,0.894928,0.500749,0.250423,0.44856
1696784226539062,-9.966168,-1.172352,0.910928,0.511649,0.263623,0.28756
1696784226546875,-9.927168,-1.207352,0.834928,0.517749,0.268523,0.25656
1696784226554687,-9.929168,-1.277352,0.820928,0.531749,0.258523,0.16456
1696784226562500,-9.913168,-1.265352,0.886928,0.553449,0.261323,0.5444
1696784226570312,-9.938168,-1.214352,0.859928,0.570349,0.262823,0.16344
1696784226578125,-9.942168,-1.117352,0.725928,0.593449,0.276323,0.37144
1696784226585937,-9.911168,-1.46352,0.737928,0.593749,0.280823,0.51344
1696784226593750,-9.971168,0.989352,0.730928,0.604349,0.286023,0.51344
1696784226601562,-10.21168,0.928352,0.650928,0.602749,0.299223,0.53144
1696784226609375,-9.958168,0.885352,0.603928,0.595149,0.319123,0.58444
1696784226617187,-9.828168,0.811352,0.569928,0.595149,0.332323,0.66644
1696784226625000,-9.768168,0.707352,0.478928,0.585949,0.342223,0.63644
1696784226632812,-9.764168,0.527352,0.382928,0.570949,0.326423,0.72944
1696784226640625,-9.914168,0.458352,0.380928,0.544949,0.322823,0.68344
1696784226648437,-9.839168,0.502352,0.408928,0.509649,0.349423,0.61344
1696784226656250,-9.622168,0.530352,0.285928,0.489949,0.352123,0.71044
1696784226664062,-9.608168,0.492352,0.41928,0.464349,0.333923,0.86444
1696784226671875,-9.742168,0.430352,0.82928,0.419049,0.310523,0.98844
1696784226679687,-9.852168,0.359352,0.148928,0.382549,0.309423,0.106944
1696784226687500,-9.883168,0.265352,0.17072,0.344049,0.319423,0.88444
1696784226695312,-9.885168,0.248352,0.165072,0.295249,0.302123,0.75844
1696784226703125,-9.851168,0.248352,0.126072,0.250849,0.288223,0.61644
1696784226710937,-9.744168,0.265352,0.140072,0.203449,0.285723,0.50744
1696784226718750,-9.569168,0.308352,0.306072,0.133349,0.284423,0.51244
1696784226726562,-9.438168,0.319352,0.391072,0.83149,0.264823,0.51244
1696784226734375,-9.423168,0.288352,0.397072,0.17949,0.237823,0.65344
1696784226742187,-9.575168,0.219352,0.386072,0.45651,0.202323,0.79144
1696784226750000,-9.771168,0.163352,0.358072,0.92651,0.167823,0.77144
1696784226757812,-9.775168,0.196352,0.320072,0.156851,0.148423,0.61344
1696784226765625,-9.708168,0.246352,0.286072,0.210351,0.126023,0.43844
1696784226773437,-9.730168,0.324352,0.288072,0.244151,0.92623,0.19844
1696784226781250,-9.810168,0.440352,0.188072,0.276351,0.62423,0.1156
1696784226789062,-9.849168,0.600352,0.93072,0.316051,0.40423,0.17056
1696784226796875,-9.628168,0.536352,0.42072,0.334451,0.30323,0.26556
1696784226804687,-9.756168,0.468352,0.95072,0.355751,0.15077,0.40056
1696784226812500,-9.981168,0.540352,0.18928,0.390851,0.35877,0.49756
1696784226820312,-9.949168,0.619352,0.198928,0.419951,0.19377,0.47556
1696784226828125,-9.927168,0.663352,0.161928,0.423051,0.25977,0.57156
1696784226835937,-9.979168,0.694352,0.79928,0.447551,0.34577,0.66656
1696784226843750,-10.1168,0.787352,0.289928,0.456851,0.34277,0.75956
1696784226851562,-9.954168,0.838352,0.327928,0.454051,0.19077,0.80456
1696784226859375,-9.920168,0.908352,0.236928,0.460251,0.7077,0.88056
1696784226867187,-9.914168,0.950352,0.293928,0.460351,0.15277,0.96056
1696784226875000,-9.946168,-1.13352,0.411928,0.456051,0.423,0.101956
1696784226882812,-9.941168,-1.51352,0.375928,0.456051,0.20523,0.95156
1696784226890625,-9.941168,-1.53352,0.343928,0.448551,0.25823,0.103156
1696784226898437,-9.979168,-1.57352,0.406928,0.442551,0.44323,0.101156
1696784226906250,-10.60168,-1.51352,0.429928,0.433551,0.51323,0.105856
1696784226914062,-10.140168,-1.12352,0.391928,0.417051,0.64023,0.116656
1696784226921875,-10.133168,0.941352,0.393928,0.409651,0.81523,0.127356
1696784226929687,-10.124168,0.869352,0.373928,0.408451,0.96823,0.138156
1696784226937500,-10.45168,0.788352,0.305928,0.410551,0.122123,0.165656
1696784226945312,-9.910168,0.668352,0.253928,0.410951,0.127523,0.186156
1696784226953125,-9.856168,0.591352,0.191928,0.426751,0.131523,0.216056
1696784226960937,-9.795168,0.599352,0.132928,0.460351,0.129523,0.222056
1696784226968750,-9.716168,0.537352,0.102928,0.484751,0.125623,0.223656
1696784226976562,-9.727168,0.414352,0.64928,0.513951,0.113823,0.239456
1696784226984375,-9.832168,0.402352,0.107928,0.556851,0.110423,0.258056
1696784226992187,-9.822168,0.418352,0.169928,0.596751,0.113423,0.273456
1696784227000000,-9.797168,0.478352,0.150928,0.635451,0.112223,0.304756
1696784227007812,-9.834168,0.556352,0.125928,0.679851,0.109923,0.315556
1696784227015625,-9.883168,0.664352,0.202928,0.713451,0.108023,0.324756
1696784227023437,-9.908168,0.804352,0.286928,0.754851,0.123923,0.328956
1696784227031250,-9.886168,0.919352,0.291928,0.776451,0.137623,0.339456
1696784227039062,-9.857168,-1.110352,0.277928,0.799451,0.149123,0.346956
1696784227046875,-9.799168,-1.318352,0.317928,0.823751,0.156723,0.340356
1696784227054687,-9.745168,-1.479352,0.333928,0.825151,0.149723,0.332656
1696784227062500,-9.782168,-1.651352,0.305928,0.824851,0.152623,0.315156
1696784227070312,-9.765168,-1.835352,0.316928,0.803351,0.137423,0.311056
1696784227078125,-9.791168,-1.942352,0.332928,0.780051,0.128623,0.289356
1696784227085937,-9.817168,-2.20352,0.259928,0.752251,0.123423,0.269156
1696784227093750,-9.897168,-2.114352,0.247928,0.745551,0.107123,0.236456
1696784227101562,-9.928168,-2.192352,0.308928,0.707151,0.115523,0.216056
1696784227109375,-9.924168,-2.237352,0.318928,0.679351,0.128923,0.190656
1696784227117187,-9.975168,-2.245352,0.244928,0.639551,0.130823,0.181556
1696784227125000,-10.15168,-2.228352,0.254928,0.596751,0.143623,0.171856
1696784227132812,-9.965168,-2.228352,0.347928,0.570851,0.165523,0.162156
1696784227140625,-9.903168,-2.249352,0.240928,0.538551,0.180423,0.141656
1696784227148437,-9.889168,-2.236352,0.133928,0.507651,0.181823,0.118156
1696784227156250,-9.891168,-2.185352,0.213928,0.482851,0.179923,0.91456
1696784227164062,-9.983168,-2.177352,0.263928,0.455051,0.189623,0.67856
1696784227171875,-9.947168,-2.168352,0.176928,0.430651,0.216523,0.58056
1696784227179687,-9.886168,-2.154352,0.92928,0.407551,0.220023,0.45456
1696784227187500,-9.886168,-2.164352,0.81928,0.383051,0.220123,0.39456
1696784227195312,-9.937168,-2.174352,0.81928,0.355451,0.226523,0.22256
1696784227203125,-9.953168,-2.215352,0.63928,0.335551,0.233823,0.15756
1696784227210937,-9.951168,-2.175352,0.18072,0.309351,0.237023,0.156
1696784227218750,-10.17168,-2.321352,0.32072,0.287851,0.225223,0.5644
1696784227226562,-9.729168,-2.306352,0.60928,0.261651,0.245023,0.29444
1696784227234375,-9.820168,-2.161352,0.110072,0.208151,0.234423,0.33744
1696784227242187,-10.62168,-2.187352,0.178072,0.189451,0.233923,0.57244
1696784227250000,-10.52168,-2.244352,0.15928,0.174151,0.248923,0.66844
1696784227257812,-9.932168,-2.235352,0.82072,0.115951,0.261223,0.87244
1696784227265625,-9.753168,-2.238352,0.349072,0.88151,0.262523,0.109044
1696784227273437,-9.585168,-2.385352,0.265072,0.55651,0.248823,0.130544
1696784227281250,-9.567168,-2.416352,0.281072,0.0,0.228223,0.170744
1696784227289062,-9.749168,-2.383352,0.367072,0.41749,0.206323,0.196844
1696784227296875,-9.870168,-2.310352,0.262072,0.85049,0.182723,0.224444
1696784227304687,-9.838168,-2.188352,0.226072,0.120149,0.201623,0.237244
1696784227312500,-9.802168,-2.99352,0.367072,0.147749,0.205023,0.244944
1696784227320312,-9.776168,-1.991352,0.419072,0.192349,0.178623,0.258244
1696784227328125,-9.786168,-1.923352,0.337072,0.221449,0.175523,0.264244
1696784227335937,-9.796168,-1.888352,0.346072,0.235349,0.175423,0.278444
1696784227343750,-9.802168,-1.797352,0.437072,0.272049,0.157723,0.279444
1696784227351562,-9.787168,-1.707352,0.443072,0.295149,0.149423,0.285344
1696784227359375,-9.844168,-1.644352,0.439072,0.305849,0.142723,0.288144
1696784227367187,-9.881168,-1.605352,0.450072,0.316649,0.144323,0.292844
1696784227375000,-9.800168,-1.565352,0.457072,0.330549,0.144423,0.305444
1696784227382812,-9.724168,-1.494352,0.536072,0.330849,0.148623,0.324344
1696784227390625,-9.745168,-1.412352,0.575072,0.334149,0.129823,0.331844
1696784227398437,-9.806168,-1.311352,0.522072,0.337349,0.126223,0.341244
1696784227406250,-9.816168,-1.197352,0.538072,0.334449,0.124223,0.349044
1696784227414062,-9.777168,-1.73352,0.601072,0.337549,0.125823,0.352244
1696784227421875,-9.772168,0.942352,0.608072,0.331449,0.120923,0.349044
1696784227429687,-9.789168,0.796352,0.615072,0.325249,0.107523,0.339244
1696784227437500,-9.830168,0.673352,0.642072,0.305249,0.109223,0.331644
1696784227445312,-9.867168,0.599352,0.646072,0.286849,0.99123,0.322044
1696784227453125,-9.843168,0.558352,0.625072,0.263849,0.102423,0.314544
1696784227460937,-9.825168,0.513352,0.655072,0.245149,0.102623,0.290844
1696784227468750,-9.780168,0.471352,0.700072,0.220649,0.100823,0.283144
1696784227476562,-9.797168,0.460352,0.687072,0.188449,0.97323,0.270744
1696784227484375,-9.835168,0.448352,0.655072,0.156349,0.86923,0.262844
1696784227492187,-9.833168,0.471352,0.632072,0.131649,0.92123,0.245844
1696784227500000,-9.767168,0.487352,0.607072,0.114649,0.92323,0.230144
1696784227507812,-9.730168,0.514352,0.637072,0.93249,0.81923,0.223744
1696784227515625,-9.707168,0.563352,0.614072,0.70449,0.66423,0.220444
1696784227523437,-9.723168,0.550352,0.566072,0.58149,0.48123,0.212344
1696784227531250,-9.766168,0.549352,0.584072,0.44349,0.52923,0.206144
1696784227539062,-9.754168,0.585352,0.577072,0.36449,0.41823,0.188744
1696784227546875,-9.763168,0.641352,0.543072,0.37849,0.24023,0.175744
1696784227554687,-9.805168,0.696352,0.534072,0.36149,0.6123,0.158044
1696784227562500,-9.850168,0.733352,0.537072,0.34549,0.5477,0.146744
1696784227570312,-9.902168,0.753352,0.500072,0.37449,0.11577,0.138844
1696784227578125,-9.885168,0.777352,0.457072,0.35849,0.18177,0.127444
1696784227585937,-9.849168,0.800352,0.473072,0.44949,0.27877,0.122444
1696784227593750,-9.828168,0.831352,0.457072,0.49549,0.39677,0.123744
1696784227601562,-9.826168,0.863352,0.407072,0.60249,0.39377,0.125344
1696784227609375,-9.780168,0.847352,0.353072,0.64949,0.32877,0.130144
1696784227617187,-9.724168,0.817352,0.362072,0.78749,0.32877,0.137944
1696784227625000,-9.722168,0.777352,0.348072,0.88149,0.36377,0.148844
1696784227632812,-9.832168,0.698352,0.309072,0.101949,0.47777,0.151744
1696784227640625,-9.935168,0.609352,0.275072,0.105349,0.50277,0.172144
1696784227648437,-9.965168,0.539352,0.218072,0.109949,0.42077,0.175344
1696784227656250,-9.982168,0.499352,0.199072,0.109849,0.38477,0.173944
1696784227664062,-9.971168,0.466352,0.213072,0.111249,0.33077,0.166144
1696784227671875,-9.955168,0.454352,0.158072,0.109549,0.31277,0.154944
1696784227679687,-9.901168,0.420352,0.138072,0.113949,0.25677,0.147344
1696784227687500,-9.939168,0.368352,0.190072,0.113949,0.32277,0.145644
1696784227695312,-10.12168,0.334352,0.149072,0.109249,0.33677,0.137844
1696784227703125,-10.5168,0.336352,0.76072,0.113549,0.24777,0.126944
1696784227710937,-9.954168,0.357352,0.142072,0.108649,0.2677,0.116344
1696784227718750,-9.908168,0.322352,0.260072,0.107049,0.5577,0.105344
1696784227726562,-9.948168,0.306352,0.183072,0.90049,0.22277,0.89244
1696784227734375,-10.168,0.309352,0.133072,0.85249,0.21777,0.75144
1696784227742187,-10.1168,0.308352,0.178072,0.78749,0.12477,0.55044
1696784227750000,-9.964168,0.321352,0.215072,0.63349,0.11077,0.43944
1696784227757812,-9.968168,0.330352,0.199072,0.60049,0.5477,0.33144
1696784227765625,-9.982168,0.357352,0.178072,0.41449,0.3377,0.17644
1696784227773437,-9.968168,0.348352,0.192072,0.44349,0.13177,0.4744
1696784227781250,-9.954168,0.361352,0.183072,0.43949,0.5777,0.18856
1696784227789062,-9.927168,0.395352,0.131072,0.27049,0.2377,0.26456
1696784227796875,-9.928168,0.433352,0.108072,0.25249,0.11777,0.43956
1696784227804687,-9.975168,0.440352,0.101072,0.25249,0.10277,0.45656
1696784227812500,-10.66168,0.437352,0.47072,0.31149,0.6377,0.51856
1696784227820312,-10.143168,0.474352,0.19928,0.32449,0.3977,0.65856
1696784227828125,-10.131168,0.541352,0.9928,0.32149,0.28123,0.71556
1696784227835937,-10.59168,0.631352,0.15072,0.21449,0.34623,0.71356
1696784227843750,-10.4168,0.663352,0.38072,0.32349,0.47523,0.55456
1696784227851562,-9.991168,0.670352,0.42072,0.30949,0.37323,0.49256
1696784227859375,-9.991168,0.668352,0.42072,0.23649,0.41623,0.31756
1696784227867187,-9.960168,0.674352,0.70072,0.16049,0.49923,0.23556
1696784227875000,-9.937168,0.693352,0.120072,0.17749,0.52723,0.15756
1696784227882812,-9.898168,0.716352,0.127072,0.24049,0.45523,0.3356
1696784227890625,-9.862168,0.691352,0.149072,0.16649,0.45223,0.7844
1696784227898437,-9.847168,0.655352,0.184072,0.7549,0.49823,0.12644
1696784227906250,-9.840168,0.637352,0.195072,0.10849,0.44223,0.25044
1696784227914062,-9.862168,0.589352,0.229072,0.4451,0.49223,0.25444
1696784227921875,-9.932168,0.557352,0.242072,0.12051,0.49223,0.27144
1696784227929687,-9.955168,0.531352,0.258072,0.31851,0.50123,0.25544
1696784227937500,-9.994168,0.500352,0.263072,0.36551,0.48823,0.17744
1696784227945312,-10.9168,0.506352,0.261072,0.39851,0.58923,0.8444
1696784227953125,-9.929168,0.558352,0.293072,0.59651,0.66923,0.10244
1696784227960937,-9.865168,0.581352,0.334072,0.64151,0.63123,0.13244
1696784227968750,-9.956168,0.558352,0.334072,0.62451,0.47823,0.22544
1696784227976562,-10.13168,0.548352,0.281072,0.80651,0.60523,0.30744
1696784227984375,-9.981168,0.562352,0.290072,0.88151,0.67023,0.37344
1696784227992187,-9.925168,0.572352,0.341072,0.101951,0.70123,0.35844
1696784228000000,-9.906168,0.621352,0.327072,0.103251,0.46523,0.38544
1696784228007812,-9.916168,0.658352,0.272072,0.103151,0.47723,0.44744
1696784228015625,-9.903168,0.652352,0.256072,0.95551,0.49723,0.46444
1696784228023437,-9.937168,0.642352,0.307072,0.106151,0.49123,0.51144
1696784228031250,-9.968168,0.644352,0.304072,0.110651,0.48723,0.52644
1696784228039062,-9.983168,0.627352,0.265072,0.103051,0.47623,0.51144
1696784228046875,-9.994168,0.631352,0.279072,0.101551,0.52523,0.54344
1696784228054687,-9.987168,0.645352,0.295072,0.99951,0.50923,0.57544
1696784228062500,-9.994168,0.649352,0.279072,0.112251,0.50723,0.51244
1696784228070312,-10.3168,0.624352,0.275072,0.98451,0.47723,0.52744
1696784228078125,-9.999168,0.597352,0.263072,0.110651,0.47323,0.51144
1696784228085937,-9.987168,0.604352,0.250072,0.99951,0.44123,0.52544
1696784228093750,-10.10168,0.612352,0.243072,0.102951,0.45623,0.55744
1696784228101562,-10.26168,0.617352,0.222072,0.99651,0.50123,0.73144
1696784228109375,-10.24168,0.585352,0.206072,0.99651,0.56523,0.77944
1696784228117187,-10.15168,0.552352,0.195072,0.94951,0.62923,0.89144
1696784228125000,-9.986168,0.546352,0.204072,0.90251,0.67923,0.97144
1696784228132812,-9.977168,0.512352,0.236072,0.94751,0.72523,0.101944
1696784228140625,-9.999168,0.468352,0.208072,0.92851,0.66923,0.123944
1696784228148437,-9.999168,0.437352,0.179072,0.85151,0.67023,0.123844
1696784228156250,-9.977168,0.393352,0.213072,0.91251,0.73523,0.128844
1696784228164062,-9.986168,0.340352,0.270072,0.92851,0.69923,0.125444
1696784228171875,-10.3168,0.296352,0.269072,0.101951,0.61623,0.125544
1696784228179687,-9.953168,0.281352,0.274072,0.108151,0.76523,0.124244
1696784228187500,-9.872168,0.289352,0.319072,0.111251,0.66923,0.113044
1696784228195312,-9.817168,0.324352,0.340072,0.111251,0.60223,0.112944
1696784228203125,-9.808168,0.308352,0.335072,0.114251,0.51723,0.111144
1696784228210937,-9.878168,0.296352,0.335072,0.109651,0.50023,0.114244
1696784228218750,-9.938168,0.262352,0.312072,0.111251,0.45423,0.106344
1696784228226562,-9.972168,0.250352,0.328072,0.109851,0.33923,0.94944
1696784228234375,-9.972168,0.252352,0.306072,0.111351,0.32323,0.95044
1696784228242187,-9.931168,0.235352,0.269072,0.111451,0.32423,0.88644
1696784228250000,-9.918168,0.238352,0.306072,0.111551,0.26223,0.80744
1696784228257812,-9.924168,0.230352,0.310072,0.110351,0.23323,0.63244
1696784228265625,-9.947168,0.225352,0.265072,0.112051,0.18623,0.50444
1696784228273437,-9.967168,0.232352,0.235072,0.101351,0.13823,0.51844
1696784228281250,-9.994168,0.285352,0.215072,0.87951,0.16323,0.36144
1696784228289062,-10.3168,0.296352,0.199072,0.88151,0.16923,0.23544
1696784228296875,-9.996168,0.291352,0.192072,0.88151,0.28423,0.25344
1696784228304687,-9.975168,0.262352,0.206072,0.86551,0.25023,0.26744
1696784228312500,-10.10168,0.254352,0.240072,0.81951,0.26923,0.28444
1696784228320312,-10.23168,0.266352,0.187072,0.85051,0.41623,0.33444
1696784228328125,-9.976168,0.281352,0.203072,0.85051,0.48623,0.36844
1696784228335937,-9.942168,0.261352,0.299072,0.83351,0.46423,0.44544
1696784228343750,-9.940168,0.244352,0.283072,0.83351,0.48123,0.47844
1696784228351562,-9.956168,0.241352,0.249072,0.84851,0.47923,0.49444
1696784228359375,-9.938168,0.244352,0.296072,0.83451,0.48523,0.41644
1696784228367187,-9.936168,0.271352,0.335072,0.89751,0.48823,0.30644
1696784228375000,-9.877168,0.333352,0.338072,0.86751,0.52023,0.27444
1696784228382812,-9.853168,0.327352,0.347072,0.88251,0.40623,0.22544
1696784228390625,-9.931168,0.259352,0.360072,0.69851,0.23923,0.26744
1696784228398437,-10.4168,0.280352,0.315072,0.70051,0.25723,0.13944
1696784228406250,-9.973168,0.300352,0.322072,0.74851,0.31223,0.0
1696784228414062,-9.939168,0.313352,0.379072,0.68851,0.36923,0.2856
1696784228421875,-9.942168,0.313352,0.370072,0.68951,0.25623,0.12556
1696784228429687,-9.942168,0.308352,0.306072,0.65951,0.18923,0.15856
1696784228437500,-9.932168,0.317352,0.301072,0.63151,0.24323,0.26856
1696784228445312,-9.916168,0.342352,0.338072,0.64651,0.23023,0.31556
1696784228453125,-9.912168,0.338352,0.324072,0.63251,0.23223,0.36256
1696784228460937,-9.939168,0.333352,0.303072,0.64751,0.5123,0.42856
1696784228468750,-9.948168,0.322352,0.304072,0.60251,0.8523,0.44456
1696784228476562,-9.910168,0.293352,0.310072,0.57351,0.20323,0.47456
1696784228484375,-9.880168,0.289352,0.342072,0.63451,0.23623,0.50556
1696784228492187,-9.933168,0.298352,0.340072,0.64851,0.2023,0.49256
1696784228500000,-9.982168,0.326352,0.267072,0.78651,0.3223,0.50856
1696784228507812,-9.994168,0.312352,0.281072,0.75651,0.16823,0.48856
1696784228515625,-9.973168,0.304352,0.335072,0.86351,0.16523,0.50456
1696784228523437,-9.987168,0.328352,0.281072,0.89251,0.1423,0.49156
1696784228531250,-10.29168,0.394352,0.226072,0.101551,0.7823,0.50556
1696784228539062,-10.15168,0.416352,0.215072,0.109051,0.19123,0.42356
1696784228546875,-9.954168,0.436352,0.233072,0.110651,0.27723,0.43656
1696784228554687,-9.924168,0.462352,0.208072,0.108851,0.27123,0.29556
1696784228562500,-9.896168,0.471352,0.160072,0.101051,0.25023,0.18656
1696784228570312,-9.922168,0.474352,0.144072,0.88951,0.22223,0.21956
1696784228578125,-9.967168,0.491352,0.119072,0.87251,0.23523,0.10856
1696784228585937,-9.989168,0.512352,0.63072,0.64351,0.23923,0.11056
1696784228593750,-10.2168,0.460352,0.78072,0.59751,0.29323,0.9256
1696784228601562,-10.22168,0.410352,0.131072,0.44651,0.29723,0.14156
1696784228609375,-10.17168,0.412352,0.99072,0.46351,0.31523,0.23656
1696784228617187,-9.977168,0.406352,0.126072,0.35751,0.45223,0.24956
1696784228625000,-9.945168,0.395352,0.197072,0.28451,0.49223,0.40756
1696784228632812,-9.929168,0.393352,0.204072,0.19351,0.39523,0.47356
1696784228640625,-9.911168,0.389352,0.217072,0.25451,0.34523,0.47356
1696784228648437,-9.933168,0.422352,0.261072,0.26951,0.32923,0.50556
1696784228656250,-9.935168,0.464352,0.238072,0.17751,0.29723,0.49056
1696784228664062,-9.878168,0.487352,0.229072,0.22351,0.24623,0.50656
1696784228671875,-9.844168,0.497352,0.258072,0.17751,0.26323,0.49156
1696784228679687,-9.905168,0.529352,0.258072,0.13051,0.11223,0.44756
1696784228687500,-9.985168,0.606352,0.154072,0.5251,0.7523,0.37056
1696784228695312,-10.1168,0.641352,0.113072,0.19049,0.16623,0.40156
1696784228703125,-9.971168,0.682352,0.168072,0.32749,0.20123,0.38656
1696784228710937,-9.927168,0.743352,0.145072,0.39049,0.6823,0.34156
1696784228718750,-9.935168,0.785352,0.63072,0.70949,0.6023,0.40756
1696784228726562,-9.983168,0.764352,0.72072,0.101549,0.8123,0.34556
1696784228734375,-10.25168,0.749352,0.81072,0.127549,0.6923,0.28356
1696784228742187,-10.58168,0.747352,0.40072,0.129049,0.11823,0.28356
1696784228750000,-10.52168,0.730352,0.33072,0.156349,0.40923,0.26356
1696784228757812,-9.971168,0.682352,0.102072,0.179149,0.56423,0.24656
1696784228765625,-9.912168,0.654352,0.170072,0.188249,0.60023,0.26156
1696784228773437,-9.878168,0.654352,0.191072,0.191449,0.58123,0.18356
1696784228781250,-9.892168,0.654352,0.193072,0.202349,0.44423,0.6156
1696784228789062,-9.942168,0.632352,0.202072,0.214449,0.43523,0.12456
1696784228796875,-9.962168,0.604352,0.220072,0.225249,0.41423,0.6356
1696784228804687,-9.982168,0.615352,0.222072,0.228349,0.36423,0.8156
1696784228812500,-9.974168,0.629352,0.206072,0.225249,0.30023,0.11256
1696784228820312,-10.8168,0.637352,0.206072,0.236049,0.26623,0.1956
1696784228828125,-10.39168,0.623352,0.181072,0.239349,0.19423,0.5644
1696784228835937,-10.51168,0.565352,0.152072,0.240849,0.31023,0.9044
1696784228843750,-10.50168,0.510352,0.181072,0.251549,0.31423,0.13844
1696784228851562,-10.41168,0.499352,0.179072,0.239349,0.37723,0.17144
1696784228859375,-9.985168,0.484352,0.135072,0.239549,0.44123,0.28444
1696784228867187,-9.967168,0.439352,0.135072,0.242749,0.42023,0.34544
1696784228875000,-9.986168,0.370352,0.135072,0.235249,0.49723,0.47344
1696784228882812,-9.985168,0.276352,0.131072,0.223249,0.53923,0.60044
1696784228890625,-9.995168,0.211352,0.78072,0.208149,0.71723,0.76344
1696784228898437,-9.974168,0.109352,0.82072,0.202149,0.81323,0.84444
1696784228906250,-9.941168,0.8648,0.141072,0.179549,0.83523,0.97144
1696784228914062,-9.904168,0.94648,0.168072,0.161249,0.88223,0.99044
1696784228921875,-9.898168,0.197648,0.189072,0.133749,0.99223,0.100944
1696784228929687,-9.888168,0.293648,0.223072,0.111049,0.106623,0.112244
1696784228937500,-9.835168,0.322648,0.252072,0.75849,0.109923,0.108044
1696784228945312,-9.818168,0.295648,0.270072,0.42149,0.101123,0.95444
1696784228953125,-9.856168,0.224648,0.250072,0.21949,0.85123,0.68544
