time,Acceleration X (m/s^2),Acceleration Y (m/s^2),Acceleration Z (m/s^2),Angular Velocity X (rad/s),Angular Velocity Y (rad/s),Angular Velocity Z (rad/s)
1696784350507812,-8.62025,-3.550671,2.172297,-0.067856,,
1696784350515625,-8.41725,-3.602671,2.186297,0.54056,0.246904,0.44503
1696784350523437,-8.32625,-3.628671,2.218297,0.40156,0.200204,0.47103
1696784350531250,-8.45025,-3.632671,2.225297,0.16956,0.151604,0.46803
1696784350539062,-8.62925,-3.666671,2.104297,0.16856,0.95204,0.63703
1696784350546875,-8.77825,-3.712671,2.13297,0.9456,0.65604,0.81803
1696784350562500,-8.90725,-3.893671,1.865297,0.10344,0.14996,0.111903
1696784350570312,-9.825,-3.994671,1.717297,0.30344,0.44896,0.114303
1696784350578125,-9.19125,-4.43671,1.590297,0.33444,0.74596,0.119503
1696784350585937,-9.41325,-4.37671,1.455297,0.58244,0.95296,0.104603
1696784350609375,-9.73525,-4.73671,1.50297,0.109444,0.95696,0.51203
1696784350617187,-9.68525,-4.44671,0.936297,0.128344,0.75396,0.10103
1696784350625000,-9.68925,-3.928671,0.879297,0.141244,0.59896,0.35897
1696784350632812,-9.76325,-3.768671,0.831297,0.159844,0.35496,0.62997
1696784350640625,-9.80625,-3.659671,0.760297,0.178444,0.14096,0.86997
1696784350648437,-9.81825,-3.553671,0.739297,0.187444,0.3896,0.85497
1696784350656250,-9.69825,-3.684671,0.769297,0.193644,0.35904,0.102097
1696784350664062,-9.36225,-3.597671,0.803297,0.213544,0.50904,0.116397
1696784350671875,-9.35825,-3.230671,0.887297,0.233344,0.49904,0.113197
1696784350679687,-9.66125,-2.932671,0.995297,0.228044,0.64504,0.77197
1696784350687500,-9.79925,-2.880671,0.950297,0.230044,0.71804,0.15897
1696784350695312,-9.45925,-2.943671,0.984297,0.213844,0.122004,0.22203
1696784350703125,-9.11125,-2.973671,1.262297,0.183044,0.133304,0.34503
1696784350710937,-8.98025,-2.897671,1.321297,0.177244,0.131404,0.20103
1696784350718750,-9.2025,-2.842671,1.289297,0.148344,0.110304,0.20503
1696784350726562,-9.11425,-2.833671,1.387297,0.125544,0.95104,0.23703
1696784350734375,-9.12325,-2.833671,1.437297,0.93444,0.81204,0.31703
1696784350742187,-9.15725,-2.808671,1.460297,0.68944,0.60804,0.46203
1696784350750000,-9.12025,-2.853671,1.476297,0.41044,0.54604,0.74503
1696784350757812,-8.88925,-3.10671,1.472297,0.17944,0.28304,0.100103
1696784350765625,-8.68725,-3.172671,1.447297,0.5056,0.5396,0.118103
1696784350773437,-8.78725,-3.258671,1.406297,0.18556,0.50696,0.122003
1696784350781250,-9.7225,-3.286671,1.294297,0.35356,0.80696,0.135103
1696784350789062,-9.10825,-3.429671,1.117297,0.56856,0.91096,0.147903
1696784350796875,-8.92925,-3.630671,1.68297,0.63156,0.107296,0.163903
1696784350804687,-8.86225,-3.769671,1.4297,0.66056,0.137496,0.166103
1696784350812500,-8.97825,-3.852671,0.854297,0.61156,0.157896,0.158703
1696784350820312,-9.24125,-3.895671,0.735297,0.62456,0.165096,0.144603
1696784350828125,-9.45925,-3.943671,0.633297,0.60756,0.168896,0.138503
1696784350835937,-9.57225,-4.15671,0.524297,0.45556,0.166596,0.141603
1696784350843750,-9.64625,-4.94671,0.426297,0.42456,0.158596,0.132103
1696784350851562,-9.72325,-4.254671,0.381297,0.33156,0.143596,0.119103
1696784350859375,-9.56725,-4.382671,0.304297,0.31156,0.116696,0.80903
1696784350867187,-9.52625,-4.202671,0.249297,0.4856,0.101996,0.54003
1696784350875000,-9.90025,-4.25671,0.276297,0.8844,0.93496,0.52403
1696784350882812,-10.11625,-4.114671,0.191297,0.10044,0.56196,0.54603
1696784350890625,-10.25,-4.214671,0.139297,0.11544,0.4396,0.42503
1696784350898437,-9.83025,-4.160671,0.239297,0.11844,0.49404,0.403
1696784350906250,-9.77125,-4.14671,0.360297,0.24544,0.73604,0.36297
1696784350914062,-9.76825,-3.930671,0.380297,0.21844,0.111104,0.68597
1696784350921875,-9.70525,-3.882671,0.480297,0.11244,0.148904,0.85197
1696784350929687,-9.74825,-3.701671,0.642297,0.34344,0.155404,0.104097
1696784350937500,-9.77925,-3.542671,0.732297,0.34044,0.187604,0.96897
1696784350945312,-9.63825,-3.456671,0.837297,0.35244,0.220004,0.88197
1696784350953125,-9.45125,-3.391671,0.983297,0.22844,0.238204,0.83897
1696784350960937,-9.30925,-3.347671,1.89297,0.22744,0.243704,0.77797
1696784350968750,-9.23325,-3.249671,1.165297,0.13444,0.243704,0.68297
1696784350976562,-9.25225,-3.138671,1.244297,0.11844,0.235404,0.64997
1696784350984375,-9.28925,-3.73671,1.321297,0.4044,0.250604,0.58997
1696784350992187,-9.26125,-3.34671,1.415297,0.21856,0.255204,0.59397
1696784351000000,-9.22725,-3.6671,1.515297,0.44756,0.256604,0.58097
1696784351007812,-9.23825,-3.17671,1.583297,0.58356,0.259304,0.66097
1696784351015625,-9.27425,-3.50671,1.610297,0.72156,0.262504,0.64697
1696784351023437,-9.34025,-3.138671,1.672297,0.99456,0.274804,0.74497
1696784351031250,-9.19125,-3.312671,1.748297,0.114156,0.291604,0.112797
1696784351039062,-8.84325,-3.256671,1.818297,0.126056,0.283904,0.129997
1696784351046875,-8.89225,-3.82671,1.895297,0.132156,0.262204,0.118397
1696784351054687,-9.14325,-3.143671,1.950297,0.132556,0.241204,0.91197
1696784351062500,-9.18925,-3.328671,1.821297,0.123756,0.221004,0.60897
1696784351070312,-9.925,-3.530671,1.821297,0.131556,0.247304,0.62897
1696784351078125,-8.77625,-3.667671,1.983297,0.126656,0.247004,0.80297
1696784351085937,-8.63925,-3.743671,1.979297,0.95556,0.228004,0.111197
1696784351093750,-8.72725,-3.775671,1.977297,0.79856,0.205604,0.130997
1696784351101562,-8.96125,-3.712671,2.58297,0.58156,0.190404,0.144797
1696784351109375,-9.17125,-3.618671,2.51297,0.24556,0.182804,0.146097
1696784351117187,-9.27225,-3.557671,2.60297,0.4756,0.180204,0.141197
1696784351125000,-9.24725,-3.523671,2.122297,0.10344,0.192104,0.138097
1696784351132812,-9.15025,-3.509671,2.142297,0.25544,0.191004,0.136397
1696784351140625,-9.11225,-3.470671,2.99297,0.39544,0.187404,0.150497
1696784351148437,-9.12525,-3.358671,2.144297,0.51744,0.192504,0.153597
1696784351156250,-9.21725,-3.203671,2.203297,0.56344,0.209204,0.158597
1696784351164062,-9.38725,-3.16671,2.218297,0.45844,0.208604,0.169697
1696784351171875,-9.46425,-2.879671,2.243297,0.19644,0.225204,0.159197
1696784351179687,-9.31725,-2.816671,2.305297,0.1856,0.246504,0.158197
1696784351187500,-9.20125,-2.784671,2.448297,0.27656,0.260404,0.172697
1696784351195312,-9.29325,-2.744671,2.532297,0.53156,0.254404,0.193397
1696784351203125,-9.40825,-2.664671,2.527297,0.77056,0.262804,0.223697
1696784351210937,-9.35425,-2.576671,2.582297,0.113456,0.286304,0.246397
1696784351218750,-9.10825,-2.549671,2.732297,0.146656,0.291904,0.262597
1696784351226562,-8.95425,-2.555671,2.785297,0.178456,0.283804,0.276797
1696784351234375,-8.87625,-2.616671,2.755297,0.205556,0.279204,0.294097
1696784351242187,-8.66425,-2.724671,2.844297,0.237056,0.289104,0.329297
1696784351250000,-8.51325,-2.508671,2.983297,0.254856,0.261204,0.344597
1696784351257812,-8.85825,-2.225671,3.7297,0.270156,0.226004,0.332897
1696784351265625,-9.43425,-2.168671,3.11297,0.284856,0.217704,0.272897
1696784351273437,-9.55225,-2.380671,2.884297,0.310456,0.233404,0.204097
1696784351281250,-9.12725,-2.647671,2.880297,0.329756,0.271904,0.157897
1696784351289062,-8.81625,-2.854671,3.65297,0.328456,0.257304,0.140197
1696784351296875,-8.84325,-2.923671,3.61297,0.317656,0.239204,0.141397
1696784351304687,-8.93425,-3.3671,2.943297,0.308556,0.222704,0.131397
1696784351312500,-8.87125,-3.131671,3.297,0.302756,0.228304,0.115697
1696784351320312,-8.74425,-3.287671,3.87297,0.289256,0.205904,0.97797
1696784351328125,-8.58625,-3.476671,3.49297,0.275056,0.170404,0.109597
1696784351335937,-8.45025,-3.609671,3.47297,0.256656,0.150704,0.109097
1696784351343750,-8.37325,-3.677671,3.54297,0.228656,0.108404,0.128497
1696784351351562,-8.46225,-3.780671,3.52297,0.202056,0.60704,0.155497
1696784351359375,-8.61725,-3.832671,3.6297,0.166356,0.22004,0.174897
1696784351367187,-8.69525,-3.811671,2.872297,0.132556,0.20996,0.178597
1696784351375000,-8.82225,-3.822671,2.794297,0.107556,0.58396,0.201297
1696784351382812,-8.98525,-3.805671,2.744297,0.75156,0.86596,0.213097
1696784351390625,-9.9325,-3.818671,2.589297,0.51856,0.107096,0.228197
1696784351398437,-9.15925,-3.800671,2.509297,0.28756,0.120396,0.237197
1696784351406250,-9.27125,-3.722671,2.500297,0.444,0.140396,0.247597
1696784351414062,-9.42425,-3.635671,2.427297,0.16144,0.144296,0.269397
1696784351421875,-9.56325,-3.576671,2.361297,0.18044,0.146696,0.291497
1696784351429687,-9.61825,-3.543671,2.342297,0.36944,0.129596,0.335797
1696784351437500,-9.60525,-3.535671,2.322297,0.39044,0.127196,0.368997
1696784351445312,-9.54825,-3.511671,2.308297,0.41444,0.125996,0.422497
1696784351453125,-9.51725,-3.480671,2.313297,0.57644,0.129396,0.475797
1696784351460937,-9.51525,-3.435671,2.301297,0.87644,0.129496,0.536997
1696784351468750,-9.47325,-3.380671,2.260297,0.102244,0.134696,0.588697
1696784351476562,-9.39525,-3.299671,2.239297,0.135244,0.157496,0.635397
1696784351484375,-9.25525,-3.272671,2.235297,0.148044,0.158596,0.673097
1696784351492187,-9.11725,-3.222671,2.196297,0.183644,0.174296,0.699097
1696784351500000,-9.7525,-3.126671,2.141297,0.226944,0.186396,0.730097
1696784351507812,-9.10825,-2.999671,2.146297,0.253244,0.193196,0.748597
1696784351515625,-9.21325,-2.844671,2.154297,0.297244,0.201796,0.737197
1696784351523437,-9.32125,-2.703671,2.97297,0.324644,0.200896,0.730897
1696784351531250,-9.31825,-2.629671,2.95297,0.340744,0.185996,0.701097
1696784351539062,-9.21025,-2.595671,2.158297,0.338844,0.178396,0.680897
1696784351546875,-9.17425,-2.542671,2.181297,0.359444,0.168196,0.639897
1696784351554687,-9.30225,-2.462671,2.176297,0.363444,0.164996,0.605397
1696784351562500,-9.39425,-2.456671,2.176297,0.369044,0.160596,0.580197
1696784351570312,-9.29425,-2.527671,2.172297,0.378944,0.148696,0.539397
1696784351578125,-9.15625,-2.540671,2.206297,0.383444,0.168296,0.527997
1696784351585937,-9.15625,-2.475671,2.229297,0.385144,0.186896,0.527497
1696784351593750,-9.27325,-2.369671,2.190297,0.387144,0.214596,0.547297
1696784351601562,-9.45825,-2.266671,2.142297,0.376944,0.240696,0.568997
1696784351609375,-9.53225,-2.165671,2.100297,0.358944,0.229996,0.588197
1696784351617187,-9.53025,-2.158671,2.87297,0.339544,0.254496,0.601997
1696784351625000,-9.50325,-2.167671,1.970297,0.331044,0.267696,0.636497
1696784351632812,-9.56325,-2.66671,1.891297,0.320944,0.282596,0.664497
1696784351640625,-9.84225,-1.891671,1.828297,0.316844,0.306896,0.687797
1696784351648437,-10.13625,-1.706671,1.742297,0.305244,0.313496,0.719197
1696784351656250,-10.24025,-1.582671,1.625297,0.290344,0.324596,0.736397
1696784351664062,-10.19325,-1.482671,1.548297,0.292144,0.336996,0.746897
1696784351671875,-10.20425,-1.237671,1.463297,0.284644,0.355396,0.745197
1696784351679687,-10.42825,-1.51671,1.439297,0.287944,0.382396,0.750897
1696784351687500,-10.43025,-1.41671,1.250297,0.266544,0.387896,0.744497
1696784351695312,-10.6725,-1.119671,1.91297,0.270844,0.385496,0.728697
1696784351703125,-9.61725,-1.243671,1.71297,0.262744,0.379596,0.703797
1696784351710937,-9.32725,-1.288671,1.44297,0.278144,0.414196,0.699997
1696784351718750,-9.37025,-1.237671,0.907297,0.292144,0.449796,0.703597
1696784351726562,-9.49825,-1.148671,0.716297,0.304344,0.456096,0.703497
1696784351734375,-9.37925,-1.61671,0.656297,0.317944,0.440496,0.700597
1696784351742187,-9.17625,-1.21671,0.622297,0.310344,0.455596,0.695597
1696784351750000,-9.12125,-1.46671,0.504297,0.327144,0.482096,0.691697
1696784351757812,-9.11225,0.985671,0.347297,0.337844,0.482096,0.691497
1696784351765625,-9.19525,0.790671,0.271297,0.351644,0.486596,0.693097
1696784351773437,-9.40825,0.593671,0.211297,0.351544,0.486596,0.689897
1696784351781250,-9.55025,0.497671,0.116297,0.340744,0.474896,0.683797
1696784351789062,-9.60225,0.533671,0.61297,0.345144,0.474296,0.674497
1696784351796875,-9.61225,0.575671,0.22297,0.344944,0.455696,0.670097
1696784351804687,-9.68325,0.536671,0.6297,0.363244,0.448596,0.676597
1696784351812500,-9.90425,0.397671,0.55703,0.366344,0.458796,0.676197
1696784351820312,-10.9025,0.218671,0.92703,0.364844,0.427196,0.683197
1696784351828125,-10.21225,0.60671,0.94703,0.364644,0.401896,0.680497
1696784351835937,-10.20025,0.64329,0.142703,0.364244,0.372896,0.666897
1696784351843750,-10.15425,0.183329,0.133703,0.346944,0.336996,0.648997
1696784351851562,-10.18025,0.248329,0.97703,0.339044,0.301696,0.646697
1696784351859375,-10.21825,0.355329,0.154703,0.322044,0.274896,0.641097
1696784351867187,-10.37925,0.581329,0.105703,0.313744,0.239096,0.614897
1696784351875000,-10.63025,0.693329,0.23703,0.285644,0.196596,0.590897
1696784351882812,-10.58225,0.694329,0.35703,0.247944,0.148296,0.544997
1696784351890625,-10.34425,0.669329,0.51297,0.228744,0.105296,0.504997
1696784351898437,-10.13125,0.632329,0.170297,0.194544,0.79596,0.477497
1696784351906250,-10.7625,0.625329,0.193297,0.189644,0.70496,0.457297
1696784351914062,-10.12325,0.696329,0.179297,0.173944,0.62996,0.435597
1696784351921875,-10.12025,0.767329,0.228297,0.149244,0.49496,0.423597
1696784351929687,-10.2825,0.780329,0.324297,0.138244,0.42796,0.407797
1696784351937500,-9.95725,0.798329,0.306297,0.124144,0.43496,0.384397
1696784351945312,-9.90425,0.794329,0.308297,0.113344,0.41996,0.373297
1696784351953125,-9.78625,0.781329,0.322297,0.97844,0.46896,0.359097
1696784351960937,-9.75925,0.792329,0.334297,0.79444,0.48496,0.349797
1696784351968750,-9.83225,0.820329,0.313297,0.62644,0.60496,0.346497
1696784351976562,-9.87325,0.865329,0.299297,0.61044,0.75396,0.336697
1696784351984375,-9.87625,0.894329,0.294297,0.54544,0.76196,0.313197
1696784351992187,-9.82925,0.922329,0.299297,0.39344,0.89796,0.309897
1696784352000000,-9.75925,0.957329,0.292297,0.37444,0.97296,0.286097
1696784352007812,-9.68525,0.989329,0.283297,0.29644,0.103596,0.273497
1696784352015625,-9.61525,1.24329,0.310297,0.25144,0.113796,0.271597
1696784352023437,-9.52225,1.27329,0.297297,0.12644,0.113496,0.257597
1696784352031250,-9.47425,1.27329,0.342297,0.15744,0.115396,0.258997
1696784352039062,-9.38525,1.42329,0.317297,0.11144,0.119996,0.257597
1696784352046875,-9.41125,1.174329,0.298297,0.17344,0.146596,0.249097
1696784352054687,-9.69825,1.250329,0.294297,0.9444,0.151196,0.231697
1696784352062500,-9.82125,1.271329,0.225297,0.5944,0.149996,0.206697
1696784352070312,-9.85925,1.306329,0.191297,0.8544,0.162596,0.176297
1696784352078125,-9.75925,1.269329,0.164297,0.2656,0.148396,0.148197
1696784352085937,-9.71025,1.199329,0.153297,0.4644,0.147596,0.130797
1696784352093750,-9.73025,1.119329,0.57297,0.12144,0.153896,0.124397
1696784352101562,-9.80625,1.51329,0.7297,0.13644,0.145196,0.123097
1696784352109375,-9.96225,1.52329,0.26703,0.36544,0.146596,0.122797
1696784352117187,-10.16425,1.72329,0.115703,0.36244,0.134296,0.110497
1696784352125000,-10.32525,1.85329,0.152703,0.58744,0.114896,0.99797
1696784352132812,-10.35725,1.103329,0.172703,0.70444,0.88496,0.78197
1696784352140625,-10.30225,1.90329,0.181703,0.82344,0.56396,0.73997
1696784352148437,-10.17025,1.46329,0.138703,0.69944,0.19496,0.70097
1696784352156250,-10.5025,0.998329,0.81703,0.74544,0.796,0.78497
1696784352164062,-9.99125,0.998329,0.31703,0.62744,0.6204,0.107097
1696784352171875,-9.92025,0.957329,0.5703,0.61444,0.30404,0.126397
1696784352179687,-9.84325,0.907329,0.42297,0.55644,0.26304,0.146897
1696784352187500,-9.80425,0.889329,0.94297,0.58944,0.27604,0.157897
1696784352195312,-9.82525,0.931329,0.117297,0.62444,0.18304,0.181297
1696784352203125,-9.86225,1.5329,0.119297,0.56744,0.12404,0.204897
1696784352210937,-9.86225,1.70329,0.148297,0.55344,0.11904,0.211097
1696784352218750,-9.82425,1.92329,0.162297,0.52244,0.13604,0.209597
1696784352226562,-9.76025,1.64329,0.169297,0.52344,0.8404,0.210997
1696784352234375,-9.80125,1.75329,0.189297,0.64544,0.2896,0.209197
1696784352242187,-9.85625,1.92329,0.171297,0.61544,0.12896,0.207497
1696784352250000,-9.87225,1.132329,0.171297,0.64444,0.15996,0.196297
1696784352257812,-9.93925,1.162329,0.173297,0.81044,0.16796,0.188397
1696784352265625,-9.94525,1.158329,0.139297,0.85344,0.2996,0.179097
1696784352273437,-9.93725,1.215329,0.166297,0.84944,0.6304,0.157297
1696784352281250,-9.98125,1.264329,0.189297,0.89244,0.15604,0.144997
1696784352289062,-10.425,1.308329,0.187297,0.85944,0.20704,0.130797
1696784352296875,-10.25,1.312329,0.186297,0.82444,0.40004,0.113997
1696784352304687,-9.95025,1.324329,0.184297,0.85244,0.50604,0.103197
1696784352312500,-9.88925,1.337329,0.223297,0.68144,0.62604,0.87797
1696784352320312,-9.80525,1.302329,0.284297,0.44044,0.66504,0.102197
1696784352328125,-9.73625,1.245329,0.335297,0.34944,0.74504,0.111897
1696784352335937,-9.75125,1.230329,0.355297,0.30644,0.70304,0.125897
1696784352343750,-9.83525,1.243329,0.369297,0.12444,0.59604,0.127397
1696784352351562,-9.86925,1.203329,0.371297,0.4844,0.54804,0.124297
1696784352359375,-9.85525,1.140329,0.349297,0.13356,0.47504,0.125797
1696784352367187,-9.86425,1.113329,0.330297,0.11856,0.29504,0.117597
1696784352375000,-9.89925,1.110329,0.317297,0.13556,0.11204,0.101297
1696784352382812,-9.90925,1.116329,0.289297,0.12256,0.3904,0.85597
1696784352390625,-9.90225,1.121329,0.276297,0.13756,0.6196,0.83697
1696784352398437,-9.89125,1.154329,0.239297,0.13756,0.8096,0.83597
1696784352406250,-9.92025,1.175329,0.210297,0.13956,0.6196,0.75697
1696784352414062,-9.94625,1.188329,0.164297,0.13956,0.10796,0.69397
1696784352421875,-9.91025,1.215329,0.128297,0.14256,0.12196,0.55097
1696784352429687,-9.91925,1.240329,0.116297,0.14556,0.14896,0.37697
1696784352437500,-9.99525,1.260329,0.61297,0.14656,0.10896,0.30097
1696784352445312,-10.1325,1.330329,0.13297,0.13556,0.6696,0.4897
1696784352453125,-10.2125,1.382329,0.36297,0.18656,0.7504,0.16803
1696784352460937,-10.6525,1.415329,0.18297,0.35656,0.16004,0.27503
1696784352468750,-10.7625,1.483329,0.2297,0.55856,0.34604,0.44403
1696784352476562,-10.8025,1.541329,0.29297,0.65156,0.51504,0.48603
1696784352484375,-10.1025,1.573329,0.63297,0.88356,0.70004,0.63903
1696784352492187,-9.95125,1.583329,0.99297,0.108556,0.78804,0.80803
1696784352500000,-9.91225,1.583329,0.127297,0.133256,0.82104,0.94803
1696784352507812,-9.86225,1.511329,0.156297,0.156456,0.82404,0.116703
1696784352515625,-9.72125,1.380329,0.202297,0.173056,0.90004,0.107003
1696784352523437,-9.61625,1.285329,0.282297,0.187756,0.80104,0.77203
1696784352531250,-9.67225,1.241329,0.305297,0.202456,0.60204,0.52403
1696784352539062,-9.81725,1.231329,0.237297,0.226556,0.54404,0.38003
1696784352546875,-9.88325,1.214329,0.223297,0.235456,0.50304,0.20703
1696784352554687,-9.87225,1.214329,0.271297,0.235256,0.48204,0.9703
1696784352562500,-9.86525,1.210329,0.264297,0.256356,0.37204,0.403
1696784352570312,-9.93725,1.208329,0.193297,0.253156,0.32104,0.5797
1696784352578125,-9.99825,1.194329,0.175297,0.259056,0.23104,0.11897
1696784352585937,-10.925,1.205329,0.182297,0.259256,0.35104,0.7397
1696784352593750,-10.925,1.244329,0.166297,0.256256,0.36604,0.7297
1696784352601562,-10.3825,1.310329,0.164297,0.274456,0.38004,0.12297
1696784352609375,-10.2425,1.330329,0.150297,0.282156,0.47804,0.10897
1696784352617187,-9.97225,1.307329,0.152297,0.294256,0.57504,0.20797
1696784352625000,-9.87425,1.221329,0.139297,0.309456,0.70404,0.24197
1696784352632812,-9.76525,1.96329,0.153297,0.306356,0.74904,0.32097
1696784352640625,-9.73325,1.14329,0.157297,0.302956,0.64604,0.49297
1696784352648437,-9.76825,0.968329,0.121297,0.281356,0.57704,0.61497
1696784352656250,-9.85025,1.12329,0.128297,0.261356,0.59104,0.73997
1696784352664062,-9.88525,1.61329,0.141297,0.252156,0.69504,0.78997
1696784352671875,-9.87325,1.107329,0.155297,0.223156,0.63504,0.80297
1696784352679687,-9.85125,1.160329,0.180297,0.207856,0.63804,0.80197
1696784352687500,-9.79725,1.228329,0.191297,0.180556,0.68004,0.76997
1696784352695312,-9.75525,1.310329,0.232297,0.157756,0.60304,0.68797
1696784352703125,-9.71125,1.381329,0.232297,0.145756,0.56304,0.54597
1696784352710937,-9.71225,1.441329,0.223297,0.133756,0.50104,0.40097
1696784352718750,-9.74225,1.475329,0.206297,0.121956,0.48004,0.16397
1696784352726562,-9.75525,1.507329,0.159297,0.116256,0.32004,0.10903
1696784352734375,-9.70825,1.538329,0.168297,0.104556,0.41804,0.39203
1696784352742187,-9.67225,1.605329,0.225297,0.103256,0.28804,0.53703
1696784352750000,-9.62525,1.664329,0.229297,0.115456,0.27004,0.58403
1696784352757812,-9.58525,1.694329,0.252297,0.129356,0.30604,0.66003
1696784352765625,-9.58825,1.703329,0.325297,0.138356,0.17004,0.64603
1696784352773437,-9.62225,1.672329,0.336297,0.156656,0.8496,0.69703
1696784352781250,-9.66325,1.620329,0.327297,0.161156,0.32096,0.76603
1696784352789062,-9.66725,1.537329,0.329297,0.180856,0.52496,0.75303
1696784352796875,-9.65925,1.445329,0.348297,0.185556,0.80496,0.94803
1696784352804687,-9.63525,1.349329,0.305297,0.194756,0.98896,0.103003
1696784352812500,-9.58525,1.261329,0.291297,0.200656,0.130896,0.102003
1696784352820312,-9.56625,1.244329,0.296297,0.206656,0.158196,0.104203
1696784352828125,-9.56125,1.185329,0.264297,0.203356,0.189796,0.104803
1696784352835937,-9.62225,1.71329,0.180297,0.189556,0.214896,0.108703
1696784352843750,-9.68925,0.992329,0.110297,0.186356,0.230296,0.101203
1696784352851562,-9.77025,0.935329,0.44297,0.184556,0.259096,0.95503
1696784352859375,-9.88625,0.887329,0.26703,0.164556,0.246896,0.81003
1696784352867187,-10.4525,0.787329,0.149703,0.158356,0.246896,0.79503
1696784352875000,-10.17025,0.617329,0.299703,0.138656,0.236396,0.79403
1696784352882812,-10.23725,0.370329,0.428703,0.103756,0.205196,0.80503
1696784352890625,-10.36225,0.27329,0.605703,0.65756,0.177696,0.75403
1696784352898437,-10.54925,0.334671,0.864703,0.4756,0.135196,0.59303
1696784352906250,-10.72525,0.594671,-1.59703,0.81844,0.59796,0.47203
1696784352914062,-10.84425,0.655671,-1.93703,0.182644,0.5204,0.18103
1696784352921875,-10.89525,0.572671,-1.59703,0.283344,0.76804,0.12697
1696784352929687,-10.87725,0.400671,0.993703,0.368544,0.145104,0.29197
1696784352937500,-10.81825,0.241671,0.905703,0.452444,0.203404,0.52097
1696784352945312,-10.69325,0.72671,0.773703,0.519144,0.275304,0.59497
1696784352953125,-10.51725,0.166329,0.648703,0.583244,0.336004,0.83897
1696784352960937,-10.34925,0.439329,0.487703,0.616644,0.368804,0.89197
1696784352968750,-10.19925,0.722329,0.290703,0.642544,0.401104,0.97697
1696784352976562,-10.3325,0.997329,0.99703,0.645744,0.412604,0.110597
1696784352984375,-9.87025,1.265329,0.95297,0.624544,0.414904,0.118497
1696784352992187,-9.74425,1.540329,0.282297,0.589644,0.406804,0.127897
1696784353000000,-9.67025,1.741329,0.418297,0.540744,0.386304,0.110497
1696784353007812,-9.59525,1.926329,0.541297,0.485644,0.362304,0.88197
1696784353015625,-9.52925,2.49329,0.656297,0.414044,0.329204,0.81697
1696784353023437,-9.48225,2.151329,0.729297,0.328644,0.282604,0.60697
1696784353031250,-9.44525,2.248329,0.779297,0.249244,0.234704,0.38197
1696784353039062,-9.44525,2.293329,0.811297,0.151444,0.196504,0.12797
1696784353046875,-9.45125,2.292329,0.811297,0.61444,0.145304,0.9603
1696784353054687,-9.43425,2.246329,0.802297,0.37856,0.108704,0.36603
1696784353062500,-9.43625,2.188329,0.772297,0.123156,0.63804,0.48003
1696784353070312,-9.46425,2.85329,0.718297,0.209956,0.12204,0.62603
1696784353078125,-9.43925,1.898329,0.643297,0.284556,0.14596,0.67503
1696784353085937,-9.38125,1.655329,0.587297,0.356156,0.43096,0.72403
1696784353093750,-9.33725,1.415329,0.496297,0.404556,0.89896,0.65303
1696784353101562,-9.33825,1.192329,0.417297,0.436256,0.114496,0.54503
1696784353109375,-9.52225,0.993329,0.360297,0.454156,0.153496,0.48803
1696784353117187,-9.67625,0.838329,0.245297,0.452156,0.171296,0.27203
1696784353125000,-9.80025,0.790329,0.183297,0.454756,0.185796,0.2303
1696784353132812,-9.95025,0.814329,0.183297,0.437456,0.181496,0.27597
1696784353140625,-10.11025,0.790329,0.117297,0.425056,0.171696,0.41897
1696784353148437,-10.20025,0.756329,0.31297,0.403756,0.161396,0.44997
1696784353156250,-10.20925,0.779329,0.12297,0.379456,0.150896,0.41797
1696784353164062,-10.14925,0.802329,0.40297,0.355256,0.126596,0.42297
1696784353171875,-10.13125,0.855329,0.21297,0.332456,0.120996,0.40697
1696784353179687,-10.18225,0.885329,0.5703,0.308256,0.110196,0.32897
1696784353187500,-10.22425,0.934329,0.22703,0.284156,0.86896,0.20797
1696784353195312,-10.23525,0.975329,0.24703,0.272356,0.67896,0.6897
1696784353203125,-10.19425,0.988329,0.19703,0.246856,0.58096,0.16803
1696784353210937,-10.11325,0.980329,0.44703,0.237756,0.44496,0.15003
1696784353218750,-9.99325,1.1329,0.30703,0.227256,0.29096,0.16303
1696784353226562,-9.86025,1.48329,0.12703,0.209056,0.31896,0.22803
1696784353234375,-9.76125,1.88329,0.12297,0.212156,0.24896,0.24103
1696784353242187,-9.73525,1.148329,0.55297,0.207156,0.27596,0.2597
1696784353250000,-9.67025,1.259329,0.93297,0.220456,0.30396,0.24697
1696784353257812,-9.66225,1.450329,0.145297,0.238356,0.38196,0.46697
1696784353265625,-9.63825,1.677329,0.231297,0.263756,0.48096,0.73497
1696784353273437,-9.54125,1.896329,0.351297,0.327056,0.51096,0.114797
1696784353281250,-9.45025,2.122329,0.458297,0.400956,0.71196,0.154097
1696784353289062,-9.39925,2.326329,0.544297,0.482456,0.99296,0.188797
1696784353296875,-9.38525,2.488329,0.582297,0.594256,0.123796,0.240997
1696784353304687,-9.35925,2.599329,0.660297,0.710556,0.160396,0.294497
1696784353312500,-9.32925,2.670329,0.700297,0.855556,0.215996,0.352697
1696784353320312,-9.28625,2.734329,0.660297,0.983956,0.266396,0.405897
1696784353328125,-9.20425,2.684329,0.584297,-1.130556,0.318596,0.459297
1696784353335937,-9.20125,2.591329,0.480297,-1.253156,0.376496,0.491897
1696784353343750,-9.29325,2.498329,0.391297,-1.373856,0.446396,0.543297
1696784353351562,-9.45225,2.453329,0.241297,-1.497656,0.501996,0.596197
1696784353359375,-9.63325,2.409329,0.66297,-1.597256,0.536096,0.640197
1696784353367187,-9.81325,2.295329,0.106703,-1.684956,0.553996,0.673697
1696784353375000,-9.92325,2.210329,0.329703,-1.763856,0.579696,0.686297
1696784353382812,-10.5025,2.160329,0.473703,-1.811056,0.585896,0.691297
1696784353390625,-10.15325,2.79329,0.612703,-1.858156,0.573596,0.699797
1696784353398437,-10.22325,2.67329,0.732703,-1.891856,0.564096,0.693897
1696784353406250,-10.21825,2.88329,0.780703,-1.910556,0.535596,0.681897
1696784353414062,-10.15525,2.26329,0.839703,-1.916756,0.513596,0.682497
1696784353421875,-10.13825,1.971329,0.896703,-1.901856,0.506096,0.666797
1696784353429687,-10.18525,1.911329,0.923703,-1.885556,0.481296,0.646797
1696784353437500,-10.18925,1.928329,-1.32703,-1.848156,0.449596,0.621797
1696784353445312,-10.3025,1.845329,0.959703,-1.818256,0.423996,0.593997
1696784353453125,-9.87925,1.729329,0.907703,-1.768256,0.397496,0.583097
1696784353460937,-9.87625,1.752329,0.911703,-1.709056,0.394396,0.573197
1696784353468750,-9.93125,1.746329,0.979703,-1.657556,0.372496,0.559197
1696784353476562,-9.97625,1.751329,0.920703,-1.585056,0.352996,0.527597
1696784353484375,-9.93325,1.715329,0.897703,-1.509556,0.329696,0.491397
1696784353492187,-9.86525,1.711329,0.918703,-1.430856,0.313396,0.461397
1696784353500000,-9.85425,1.742329,0.870703,-1.350656,0.305296,0.431197
1696784353507812,-9.84925,1.765329,0.868703,-1.259956,0.286996,0.391397
1696784353515625,-9.83625,1.796329,0.854703,-1.179856,0.265696,0.361397
1696784353523437,-9.86625,1.859329,0.841703,-1.90656,0.250396,0.321797
1696784353531250,-9.88525,1.897329,0.822703,-1.9156,0.218896,0.285597
1696784353539062,-9.86125,1.937329,0.834703,0.929056,0.192196,0.251097
1696784353546875,-9.78325,2.85329,0.773703,0.853656,0.172196,0.211597
1696784353554687,-9.62925,2.220329,0.666703,0.787056,0.147996,0.191297
1696784353562500,-9.50925,2.384329,0.594703,0.733956,0.134596,0.178597
1696784353570312,-9.44925,2.537329,0.507703,0.692956,0.113796,0.181897
1696784353578125,-9.44025,2.681329,0.498703,0.671456,0.118596,0.186397
1696784353585937,-9.46825,2.789329,0.503703,0.668156,0.124096,0.198797
1696784353593750,-9.52325,2.812329,0.517703,0.662056,0.125696,0.201897
1696784353601562,-9.53125,2.838329,0.540703,0.645456,0.129596,0.186097
1696784353609375,-9.49725,2.842329,0.558703,0.644356,0.132196,0.163897
1696784353617187,-9.50325,2.849329,0.574703,0.620056,0.129896,0.158997
1696784353625000,-9.54025,2.896329,0.583703,0.602056,0.133496,0.136897
1696784353632812,-9.58425,2.920329,0.624703,0.593156,0.144596,0.119197
1696784353640625,-9.59325,2.931329,0.620703,0.572356,0.142896,0.89197
1696784353648437,-9.61325,2.956329,0.611703,0.549956,0.141596,0.63797
1696784353656250,-9.61825,2.954329,0.631703,0.545856,0.132096,0.35597
1696784353664062,-9.58425,2.964329,0.604703,0.509856,0.123396,0.7197
1696784353671875,-9.54025,2.958329,0.576703,0.493656,0.118796,0.26103
1696784353679687,-9.43125,2.920329,0.567703,0.478856,0.110696,0.47903
1696784353687500,-9.26725,2.791329,0.553703,0.472956,0.114996,0.60603
1696784353695312,-9.17725,2.671329,0.508703,0.452856,0.129696,0.54603
1696784353703125,-9.21725,2.645329,0.469703,0.446456,0.128796,0.34203
1696784353710937,-9.34925,2.665329,0.455703,0.432056,0.141796,0.0
1696784353718750,-9.50725,2.665329,0.544703,0.428756,0.137296,0.17397
1696784353726562,-9.58625,2.644329,0.585703,0.413456,0.142296,0.21797
1696784353734375,-9.54125,2.580329,0.578703,0.404256,0.143696,0.24997
1696784353742187,-9.52625,2.520329,0.585703,0.386056,0.148296,0.18397
1696784353750000,-9.58425,2.479329,0.662703,0.369156,0.164696,0.19597
1696784353757812,-9.61125,2.462329,0.723703,0.347756,0.165996,0.19397
1696784353765625,-9.62525,2.482329,0.721703,0.325056,0.171796,0.8097
1696784353773437,-9.65725,2.491329,0.771703,0.297756,0.167696,0.3197
1696784353781250,-9.69625,2.493329,0.817703,0.258156,0.169696,0.3303
1696784353789062,-9.74125,2.510329,0.842703,0.240156,0.160696,0.14303
1696784353796875,-9.78925,2.522329,0.865703,0.208456,0.146096,0.28403
1696784353804687,-9.86925,2.550329,0.888703,0.182856,0.136396,0.45603
1696784353812500,-9.87525,2.679329,0.879703,0.149656,0.114996,0.56403
1696784353820312,-9.82425,2.787329,0.802703,0.134856,0.91996,0.76503
1696784353828125,-9.77825,2.900329,0.757703,0.115556,0.72196,0.98203
1696784353835937,-9.69425,3.67329,0.711703,0.112956,0.54996,0.115303
1696784353843750,-9.59125,3.228329,0.632703,0.143556,0.42096,0.118003
1696784353851562,-9.52525,3.329329,0.577703,0.174056,0.25696,0.115703
1696784353859375,-9.45825,3.357329,0.600703,0.221256,0.20296,0.109003
1696784353867187,-9.36725,3.345329,0.582703,0.271456,0.18396,0.102403
1696784353875000,-9.24925,3.283329,0.580703,0.303256,0.34196,0.94603
1696784353882812,-9.10925,3.165329,0.611703,0.335156,0.55196,0.94903
1696784353890625,-9.1025,3.21329,0.677703,0.365456,0.87596,0.98503
1696784353898437,-9.6025,2.866329,0.706703,0.377456,0.112996,0.95703
1696784353906250,-9.24225,2.765329,0.790703,0.383256,0.142096,0.85203
1696784353914062,-9.46525,2.734329,0.851703,0.393756,0.148196,0.79203
1696784353921875,-9.58225,2.669329,0.924703,0.404256,0.145296,0.69603
1696784353929687,-9.59925,2.560329,0.974703,0.399756,0.129996,0.67703
1696784353937500,-9.64725,2.440329,0.990703,0.387456,0.113396,0.54803
1696784353945312,-9.70525,2.327329,-1.74703,0.378256,0.106496,0.49903
1696784353953125,-9.75525,2.296329,-1.99703,0.355556,0.84096,0.51203
1696784353960937,-9.83625,2.313329,-1.67703,0.325356,0.66496,0.58903
1696784353968750,-9.86325,2.309329,-1.67703,0.302756,0.43896,0.66503
1696784353976562,-9.83625,2.309329,-1.47703,0.275456,0.34596,0.74303
1696784353984375,-9.80725,2.358329,0.990703,0.251256,0.13796,0.77203
1696784353992187,-9.79525,2.433329,0.924703,0.224056,0.7204,0.83203
1696784354000000,-9.77725,2.452329,0.910703,0.212056,0.21504,0.92403
1696784354007812,-9.77525,2.461329,0.894703,0.197156,0.29004,0.106503
1696784354015625,-9.74525,2.431329,0.874703,0.180456,0.28004,0.111303
1696784354023437,-9.65625,2.375329,0.885703,0.168456,0.45304,0.119003
1696784354031250,-9.61625,2.355329,0.846703,0.150256,0.38804,0.125703
1696784354039062,-9.62425,2.357329,0.801703,0.133456,0.44304,0.122403
1696784354046875,-9.62625,2.397329,0.803703,0.119656,0.47604,0.114603
1696784354054687,-9.64725,2.440329,0.762703,0.108656,0.48904,0.98903
1696784354062500,-9.61925,2.495329,0.714703,0.105556,0.53904,0.94103
1696784354070312,-9.59425,2.541329,0.685703,0.105456,0.61804,0.81303
1696784354078125,-9.62225,2.586329,0.662703,0.88556,0.61904,0.75103
1696784354085937,-9.65625,2.618329,0.676703,0.87056,0.65304,0.75003
1696784354093750,-9.67925,2.618329,0.665703,0.67556,0.69804,0.90803
1696784354101562,-9.67625,2.614329,0.681703,0.64756,0.68704,0.109803
1696784354109375,-9.66025,2.589329,0.692703,0.42156,0.71404,0.124103
1696784354117187,-9.69725,2.573329,0.699703,0.19856,0.73504,0.158703
1696784354125000,-9.72425,2.550329,0.721703,0.5444,0.80204,0.191903
1696784354132812,-9.70825,2.534329,0.735703,0.33744,0.83804,0.225003
1696784354140625,-9.71025,2.502329,0.724703,0.69744,0.89604,0.262903
1696784354148437,-9.66625,2.477329,0.749703,0.102444,0.90304,0.307203
1696784354156250,-9.61525,2.372329,0.744703,0.133644,0.94304,0.356203
1696784354164062,-9.58625,2.200329,0.787703,0.183144,0.92304,0.407003
1696784354171875,-9.54625,2.15329,0.845703,0.241644,0.87004,0.461103
1696784354179687,-9.52225,1.854329,0.866703,0.307844,0.87304,0.515003
1696784354187500,-9.51425,1.737329,0.859703,0.375644,0.80704,0.562803
1696784354195312,-9.51925,1.645329,0.861703,0.455544,0.70904,0.620303
1696784354203125,-9.57125,1.605329,0.863703,0.537344,0.72204,0.652303
1696784354210937,-9.60025,1.567329,0.858703,0.611444,0.86804,0.682403
1696784354218750,-9.57025,1.511329,0.840703,0.667444,0.103704,0.698203
1696784354226562,-9.52025,1.492329,0.820703,0.716244,0.116504,0.691803
1696784354234375,-9.50225,1.486329,0.822703,0.766844,0.120104,0.674803
1696784354242187,-9.51825,1.529329,0.785703,0.802144,0.135004,0.652703
1696784354250000,-9.55525,1.638329,0.735703,0.828344,0.141604,0.633803
1696784354257812,-9.57925,1.703329,0.724703,0.842244,0.149804,0.622803
1696784354265625,-9.55225,1.689329,0.747703,0.848344,0.145004,0.624503
1696784354273437,-9.51725,1.631329,0.763703,0.866444,0.120704,0.640903
1696784354281250,-9.49225,1.574329,0.751703,0.872544,0.109504,0.644203
1696784354289062,-9.52725,1.538329,0.749703,0.877344,0.74204,0.649803
1696784354296875,-9.57625,1.494329,0.785703,0.863744,0.47004,0.651903
1696784354304687,-9.57125,1.440329,0.826703,0.853044,0.28704,0.655303
1696784354312500,-9.66125,1.426329,0.783703,0.860744,0.13704,0.660403
1696784354320312,-9.77525,1.328329,0.783703,0.831944,0.11796,0.654303
1696784354328125,-9.82625,1.223329,0.837703,0.810744,0.9596,0.651203
1696784354335937,-9.86925,1.138329,0.885703,0.788144,0.15396,0.636903
1696784354343750,-9.91625,1.99329,0.873703,0.777844,0.16696,0.611603
1696784354351562,-9.97325,1.92329,0.894703,0.761544,0.19496,0.584803
1696784354359375,-9.97525,1.75329,0.928703,0.729644,0.17096,0.576603
1696784354367187,-9.95825,1.44329,0.923703,0.693344,0.8796,0.557403
1696784354375000,-9.88925,0.992329,0.912703,0.666244,0.6596,0.539803
1696784354382812,-9.83425,0.919329,0.909703,0.649644,0.22196,0.535303
1696784354390625,-9.78625,0.850329,0.891703,0.632944,0.27596,0.533703
1696784354398437,-9.73025,0.769329,0.927703,0.619344,0.49996,0.531003
1696784354406250,-9.68925,0.717329,0.945703,0.608844,0.75496,0.533103
1696784354414062,-9.64725,0.657329,0.954703,0.612144,0.105796,0.529003
1696784354421875,-9.64225,0.601329,0.986703,0.612344,0.121396,0.518303
1696784354429687,-9.66925,0.571329,-1.31703,0.600644,0.139196,0.501303
1696784354437500,-9.73225,0.555329,-1.75703,0.590244,0.154896,0.485703
1696784354445312,-9.81125,0.555329,-1.111703,0.587744,0.159596,0.459103
1696784354453125,-9.87425,0.553329,-1.141703,0.586544,0.157196,0.435503
1696784354460937,-9.93225,0.587329,-1.162703,0.572844,0.147196,0.433503
1696784354468750,-9.91725,0.604329,-1.184703,0.559044,0.147296,0.436503
1696784354476562,-9.91125,0.583329,-1.209703,0.545344,0.139496,0.434803
1696784354484375,-9.89525,0.540329,-1.234703,0.530044,0.144796,0.436303
1696784354492187,-9.86825,0.513329,-1.255703,0.514744,0.143096,0.440903
1696784354500000,-9.81025,0.445329,-1.286703,0.513044,0.137696,0.451803
1696784354507812,-9.78525,0.410329,-1.343703,0.493044,0.137896,0.459603
1696784354515625,-9.86125,0.386329,-1.373703,0.488544,0.133196,0.456303
1696784354523437,-9.96525,0.359329,-1.389703,0.471944,0.118896,0.441703
1696784354531250,-10.1325,0.361329,-1.459703,0.445944,0.102596,0.438003
1696784354539062,-9.99925,0.342329,-1.477703,0.414144,0.74096,0.413603
1696784354546875,-10.2925,0.344329,-1.412703,0.391444,0.54796,0.398803
1696784354554687,-9.99025,0.352329,-1.414703,0.361444,0.43096,0.366803
1696784354562500,-9.92925,0.327329,-1.409703,0.331544,0.36796,0.331903
1696784354570312,-9.90825,0.291329,-1.384703,0.297044,0.40596,0.297103
1696784354578125,-9.85625,0.197329,-1.434703,0.263844,0.33796,0.277903
1696784354585937,-9.75125,0.67329,-1.490703,0.235444,0.38896,0.246303
1696784354593750,-9.68825,0.15671,-1.476703,0.216344,0.57796,0.207303
1696784354601562,-9.76025,0.14671,-1.463703,0.186844,0.80496,0.160303
1696784354609375,-9.88425,0.13671,-1.547703,0.159944,0.90296,0.128703
1696784354617187,-9.91125,0.27329,-1.645703,0.140544,0.86896,0.101803
1696784354625000,-9.84625,0.30329,-1.664703,0.108944,0.81596,0.74603
1696784354632812,-9.81125,0.36329,-1.623703,0.80444,0.88296,0.54203
1696784354640625,-9.85725,0.77329,-1.721703,0.49044,0.98696,0.18003
1696784354648437,-9.87025,0.187329,-1.812703,0.23744,0.97396,0.18397
1696784354656250,-9.85325,0.296329,-1.748703,0.18756,0.108796,0.26297
1696784354664062,-9.87525,0.414329,-1.753703,0.59656,0.114796,0.34397
1696784354671875,-9.89325,0.528329,-1.783703,0.103856,0.104196,0.42897
1696784354679687,-9.74425,0.780329,-1.756703,0.172556,0.97096,0.40297
1696784354687500,-9.45225,1.325329,-1.655703,0.270056,0.124296,0.30797
1696784354695312,-9.35125,1.684329,-1.615703,0.399456,0.168696,0.24497
1696784354703125,-9.54425,1.758329,-1.754703,0.529156,0.186196,0.15597
1696784354710937,-9.67025,1.840329,-1.948703,0.684456,0.207796,0.14597
1696784354718750,-9.42525,2.162329,-1.900703,0.838756,0.208996,0.203
1696784354726562,-9.19725,2.430329,-1.703703,-1.356,0.243596,0.17203
1696784354734375,-9.39325,2.293329,-1.725703,-1.166756,0.291496,0.43903
1696784354742187,-9.89625,1.774329,-2.23703,-1.299656,0.310196,0.67003
1696784354750000,-10.30425,1.268329,-2.306703,-1.396456,0.284096,0.102103
1696784354757812,-10.35025,0.851329,-2.365703,-1.458556,0.244596,0.154303
1696784354765625,-10.6125,0.414329,-2.313703,-1.468856,0.177896,0.197003
1696784354773437,-9.80625,0.46671,-2.189703,-1.457256,0.154396,0.228003
1696784354781250,-9.75525,0.439671,-2.223703,-1.420956,0.144796,0.242303
1696784354789062,-9.82325,0.638671,-2.295703,-1.351356,0.122296,0.261203
1696784354796875,-9.72525,0.701671,-2.174703,-1.283156,0.107996,0.284903
1696784354804687,-9.56625,0.741671,-2.10703,-1.222656,0.117596,0.312303
1696784354812500,-9.64225,0.755671,-1.951703,-1.178456,0.143396,0.321103
1696784354820312,-9.78725,0.789671,-2.12703,-1.128256,0.161996,0.334403
1696784354828125,-9.85125,0.802671,-2.79703,-1.82556,0.171796,0.345703
1696784354835937,-9.94125,0.837671,-1.958703,-1.49056,0.176196,0.349303
1696784354843750,-10.8025,0.960671,-2.3703,-1.10956,0.186896,0.352903
1696784354851562,-10.28925,-1.115671,-2.44703,0.966756,0.172796,0.348203
1696784354859375,-10.58925,-1.372671,-2.71703,0.928356,0.152796,0.324403
1696784354867187,-10.70225,-1.681671,-2.166703,0.859756,0.95396,0.298503
1696784354875000,-10.78525,-2.81671,-2.174703,0.773956,0.34496,0.256803
1696784354882812,-10.87425,-2.539671,-2.218703,0.661156,0.48804,0.222803
1696784354890625,-10.85425,-2.824671,-2.345703,0.506956,0.132804,0.179503
1696784354898437,-10.74425,-2.934671,-2.381703,0.336456,0.218204,0.166303
1696784354906250,-10.52625,-2.793671,-2.259703,0.143356,0.276704,0.175703
1696784354914062,-10.32125,-2.476671,-2.77703,0.32844,0.325304,0.196103
1696784354921875,-10.23125,-2.145671,-1.975703,0.193844,0.351204,0.218803
1696784354929687,-10.32325,-1.881671,-1.981703,0.317144,0.372604,0.223803
1696784354937500,-10.37125,-1.600671,-1.952703,0.400844,0.408204,0.222003
1696784354945312,-10.43925,-1.218671,-1.923703,0.467744,0.434604,0.217103
1696784354953125,-10.45725,0.839671,-1.844703,0.480044,0.494404,0.190703
1696784354960937,-10.29325,0.551671,-1.763703,0.459244,0.527504,0.150603
1696784354968750,-10.10725,0.411671,-1.731703,0.408544,0.532404,0.82403
1696784354976562,-10.11725,0.540671,-1.722703,0.324544,0.537304,0.3297
1696784354984375,-10.33225,-1.5671,-1.723703,0.245844,0.539204,0.128297
1696784354992187,-10.47225,-1.479671,-1.876703,0.181444,0.539904,0.281197
1696784355000000,-10.36125,-1.877671,-2.28703,0.139744,0.556704,0.437897
1696784355007812,-10.26225,-2.59671,-2.35703,0.146644,0.566604,0.581397
1696784355015625,-10.24425,-2.60671,-2.44703,0.192344,0.577704,0.671197
1696784355023437,-10.2825,-1.802671,-2.97703,0.257244,0.584104,0.721397
1696784355031250,-9.81125,-1.199671,-1.914703,0.315544,0.572404,0.744297
1696784355039062,-9.92825,0.764671,-1.568703,0.341544,0.569704,0.745697
1696784355046875,-10.16825,0.593671,-1.671703,0.397444,0.575204,0.715397
1696784355054687,-9.62325,0.330671,-1.858703,0.433544,0.606804,0.701697
1696784355062500,-8.60725,0.305329,-1.99703,0.405744,0.596804,0.767697
1696784355070312,-8.1325,1.122329,0.201703,0.307944,0.459104,0.885197
1696784355078125,-8.36225,1.482329,0.363703,0.167544,0.348404,1.15997
1696784355085937,-9.11325,1.426329,-1.22703,0.60644,0.351504,1.93897
1696784355093750,-9.52425,1.417329,-1.111703,0.15456,0.350004,1.97797
1696784355101562,-9.55025,1.562329,0.751703,0.57256,0.352204,1.63497
1696784355109375,-9.38425,1.666329,0.537703,0.95956,0.332704,1.22397
1696784355117187,-9.45225,1.631329,0.651703,0.121056,0.302404,0.966797
1696784355125000,-9.65725,1.739329,0.720703,0.137456,0.302904,0.899097
1696784355132812,-9.93225,1.881329,0.579703,0.145156,0.276304,0.797797
1696784355140625,-9.99225,1.906329,0.586703,0.152056,0.291404,0.667497
1696784355148437,-9.89525,1.983329,0.659703,0.128456,0.278904,0.522097
1696784355156250,-9.86625,1.874329,0.533703,0.121756,0.280704,0.383297
1696784355164062,-9.52225,1.722329,0.506703,0.111256,0.289904,0.284297
1696784355171875,-9.17125,1.713329,0.412703,0.81956,0.256704,0.199897
1696784355179687,-9.23225,1.849329,0.396703,0.66056,0.230804,0.140997
1696784355187500,-9.50425,2.35329,0.265703,0.63856,0.207904,0.83797
1696784355195312,-9.56425,2.5329,0.228703,0.90656,0.212404,0.31997
1696784355203125,-9.36425,2.85329,0.226703,0.93156,0.206204,0.26403
1696784355210937,-9.57625,2.201329,0.88703,0.115356,0.184704,0.86503
1696784355218750,-9.84425,2.104329,0.99703,0.156456,0.181904,0.171303
1696784355226562,-9.68225,1.818329,0.182703,0.168556,0.171304,0.256603
1696784355234375,-9.24025,1.646329,0.243703,0.178856,0.177404,0.325603
1696784355242187,-9.32125,1.582329,0.20703,0.166056,0.123304,0.396103
1696784355250000,-9.56925,1.423329,0.209703,0.188056,0.86204,0.448703
1696784355257812,-9.49125,1.200329,0.409703,0.191756,0.72804,0.496203
1696784355265625,-9.35725,1.73329,0.290703,0.190756,0.53804,0.532903
1696784355273437,-9.42925,0.980329,0.294703,0.181856,0.19904,0.560403
1696784355281250,-9.66125,0.915329,0.504703,0.168856,0.0,0.608203
1696784355289062,-9.84125,0.781329,0.656703,0.174356,0.7796,0.666603
1696784355296875,-9.80225,0.578329,0.715703,0.160456,0.11904,0.735603
1696784355304687,-9.66125,0.392329,0.680703,0.129156,0.17404,0.776603
1696784355312500,-9.64525,0.206329,0.707703,0.126156,0.14204,0.779903
1696784355320312,-9.80425,0.109329,0.725703,0.110556,0.27004,0.757703
1696784355328125,-10.1825,0.154329,0.719703,0.99456,0.54504,0.722503
1696784355335937,-10.19025,0.285329,0.680703,0.114456,0.90304,0.693303
1696784355343750,-10.25225,0.339329,0.592703,0.135656,0.122804,0.675103
1696784355351562,-10.17925,0.284329,0.573703,0.166256,0.152404,0.671103
1696784355359375,-10.9625,0.197329,0.632703,0.180056,0.155504,0.675703
1696784355367187,-9.99725,0.86329,0.609703,0.206056,0.165004,0.673703
1696784355375000,-9.84225,0.24671,0.623703,0.236256,0.152104,0.662803
1696784355382812,-9.74425,0.77671,0.657703,0.251056,0.131104,0.644203
1696784355390625,-9.65025,0.192671,0.647703,0.282556,0.109404,0.620803
1696784355398437,-9.59225,0.372671,0.644703,0.305756,0.76104,0.564803
1696784355406250,-9.61725,0.555671,0.726703,0.319956,0.45204,0.510203
1696784355414062,-9.70825,0.712671,0.828703,0.335356,0.13704,0.444603
1696784355421875,-9.81325,0.781671,0.892703,0.360456,0.7704,0.395803
1696784355429687,-9.92925,0.791671,0.924703,0.365956,0.1596,0.367603
1696784355437500,-10.3025,0.838671,0.976703,0.365556,0.5996,0.345703
1696784355445312,-10.12025,0.929671,-1.26703,0.370056,0.9396,0.342503
1696784355453125,-10.14125,0.984671,-1.71703,0.365556,0.2204,0.340803
1696784355460937,-10.15925,-1.51671,-1.94703,0.351756,0.4204,0.336003
1696784355468750,-10.22125,-1.114671,-1.89703,0.333256,0.9004,0.323503
1696784355476562,-10.34125,-1.144671,-1.144703,0.313356,0.19304,0.313903
1696784355484375,-10.40025,-1.119671,-1.169703,0.304256,0.47704,0.305503
1696784355492187,-10.43725,-1.121671,-1.115703,0.281456,0.76704,0.297103
1696784355500000,-10.34825,-1.146671,-1.89703,0.264556,0.109804,0.280803
1696784355507812,-10.21025,-1.137671,-1.26703,0.253856,0.133004,0.266303
1696784355515625,-10.11525,-1.94671,0.916703,0.241256,0.160604,0.234203
1696784355523437,-9.97825,-1.24671,0.823703,0.233556,0.182104,0.221303
1696784355531250,-9.83425,0.947671,0.698703,0.227356,0.185504,0.213303
1696784355539062,-9.78725,0.867671,0.552703,0.240756,0.176304,0.202403
1696784355546875,-9.71825,0.842671,0.507703,0.245356,0.178004,0.202303
1696784355554687,-9.59725,0.852671,0.443703,0.260656,0.160904,0.208903
1696784355562500,-9.46125,0.883671,0.393703,0.263656,0.142804,0.217103
1696784355570312,-9.34725,0.911671,0.363703,0.268056,0.120604,0.214503
1696784355578125,-9.40025,0.902671,0.352703,0.277056,0.81804,0.215203
1696784355585937,-9.51925,0.900671,0.374703,0.304356,0.64304,0.213803
1696784355593750,-9.60625,0.908671,0.395703,0.319456,0.52104,0.210803
1696784355601562,-9.63025,0.934671,0.415703,0.340856,0.55204,0.215303
1696784355609375,-9.59825,0.993671,0.441703,0.359056,0.46604,0.212103
1696784355617187,-9.64425,-1.90671,0.461703,0.368156,0.39404,0.212303
1696784355625000,-9.75525,-1.151671,0.538703,0.368056,0.22604,0.209503
1696784355632812,-9.86925,-1.196671,0.606703,0.375656,0.18904,0.209603
1696784355640625,-9.96625,-1.273671,0.650703,0.374056,0.20804,0.207903
1696784355648437,-10.1225,-1.352671,0.711703,0.357556,0.33104,0.215603
1696784355656250,-9.94825,-1.456671,0.747703,0.360556,0.39704,0.209103
1696784355664062,-9.88125,-1.539671,0.729703,0.334356,0.49504,0.191803
1696784355671875,-9.94925,-1.536671,0.695703,0.309656,0.44504,0.173103
1696784355679687,-10.11525,-1.485671,0.724703,0.286356,0.47304,0.149603
1696784355687500,-10.28625,-1.423671,0.729703,0.270956,0.42604,0.141803
1696784355695312,-10.35925,-1.436671,0.750703,0.258756,0.49604,0.140203
1696784355703125,-10.32425,-1.454671,0.731703,0.239056,0.64904,0.140103
1696784355710937,-10.19225,-1.499671,0.740703,0.227056,0.68804,0.149603
1696784355718750,-10.14925,-1.453671,0.697703,0.199456,0.82304,0.138503
1696784355726562,-10.19125,-1.368671,0.654703,0.190156,0.87104,0.125803
1696784355734375,-10.18825,-1.288671,0.666703,0.188656,0.97104,0.124003
1696784355742187,-10.17825,-1.197671,0.632703,0.191756,0.115504,0.122103
1696784355750000,-10.14325,-1.109671,0.600703,0.187356,0.127804,0.124803
1696784355757812,-10.4625,-1.74671,0.564703,0.191856,0.129304,0.123203
1696784355765625,-9.96525,-1.47671,0.516703,0.197956,0.130804,0.118303
1696784355773437,-9.91725,-1.18671,0.493703,0.209856,0.127804,0.101203
1696784355781250,-9.89525,0.971671,0.491703,0.214056,0.122104,0.82303
1696784355789062,-9.88225,0.956671,0.468703,0.215456,0.128504,0.75903
1696784355796875,-9.78725,0.942671,0.438703,0.232156,0.126104,0.68003
1696784355804687,-9.70125,0.938671,0.388703,0.231956,0.120804,0.61803
1696784355812500,-9.67625,0.910671,0.391703,0.225656,0.108804,0.51003
1696784355820312,-9.69025,0.876671,0.384703,0.219356,0.88604,0.50003
1696784355828125,-9.67525,0.840671,0.359703,0.213356,0.77304,0.59703
1696784355835937,-9.63125,0.807671,0.348703,0.207356,0.71404,0.67603
1696784355843750,-9.63525,0.801671,0.352703,0.194056,0.63904,0.93203
1696784355851562,-9.71825,0.802671,0.407703,0.186456,0.45804,0.101503
1696784355859375,-9.81925,0.773671,0.475703,0.165256,0.28704,0.114403
1696784355867187,-9.88625,0.694671,0.530703,0.165356,0.29104,0.123903
1696784355875000,-9.88725,0.590671,0.558703,0.163856,0.22104,0.125703
1696784355882812,-9.87725,0.486671,0.631703,0.157756,0.18804,0.124303
1696784355890625,-9.94225,0.356671,0.713703,0.141056,0.8004,0.134003
1696784355898437,-9.98525,0.221671,0.784703,0.144256,0.11604,0.140203
1696784355906250,-9.91625,0.97671,0.828703,0.144656,0.3904,0.165603
1696784355914062,-9.76125,0.30329,0.821703,0.141956,0.6304,0.189303
1696784355921875,-9.59125,0.173329,0.796703,0.139256,0.16196,0.215003
1696784355929687,-9.60125,0.284329,0.771703,0.150356,0.35096,0.249903
1696784355937500,-9.71625,0.367329,0.808703,0.161656,0.50396,0.292703
1696784355945312,-9.66725,0.387329,0.829703,0.171656,0.55296,0.344703
1696784355953125,-9.49825,0.313329,0.724703,0.206256,0.60296,0.409103
1696784355960937,-9.22025,0.58329,0.668703,0.232956,0.69196,0.458003
1696784355968750,-9.25,0.314671,0.683703,0.260956,0.80296,0.491203
1696784355976562,-9.6325,0.534671,0.644703,0.267056,0.105096,0.504203
1696784355984375,-9.38925,0.588671,0.633703,0.282256,0.128596,0.509303
1696784355992187,-9.68425,0.736671,0.696703,0.303756,0.125496,0.517003
1696784356000000,-9.77025,0.990671,0.775703,0.323656,0.111096,0.516603
1696784356007812,-9.72825,-1.272671,0.768703,0.341956,0.81296,0.507903
1696784356015625,-9.68225,-1.531671,0.802703,0.347656,0.70596,0.480903
1696784356023437,-9.74125,-1.692671,0.869703,0.345656,0.58596,0.447603
1696784356031250,-9.81925,-1.823671,0.919703,0.354556,0.44296,0.426703
1696784356039062,-9.87225,-1.918671,0.915703,0.337356,0.39996,0.400003
1696784356046875,-9.96025,-1.953671,0.933703,0.315556,0.35296,0.373203
1696784356054687,-10.10325,-1.935671,0.915703,0.309356,0.22196,0.358803
1696784356062500,-10.10925,-1.973671,0.878703,0.292556,0.10296,0.352303
1696784356070312,-9.95925,-2.56671,0.883703,0.289556,0.4804,0.350403
1696784356078125,-9.91025,-2.103671,0.864703,0.266556,0.19996,0.354303
1696784356085937,-9.96025,-2.118671,0.864703,0.253156,0.12296,0.366803
1696784356093750,-10.2825,-2.123671,0.887703,0.229056,0.16196,0.387603
1696784356101562,-10.7525,-2.125671,0.898703,0.214256,0.16496,0.414403
1696784356109375,-10.10925,-2.115671,0.901703,0.191756,0.18796,0.436803
1696784356117187,-10.3025,-2.103671,0.932703,0.170956,0.3796,0.463303
1696784356125000,-9.85625,-2.114671,0.910703,0.165256,0.7304,0.485203
1696784356132812,-9.59625,-2.182671,0.868703,0.151456,0.604,0.480703
1696784356140625,-9.39925,-2.200671,0.875703,0.142156,0.11096,0.474703
1696784356148437,-9.38325,-2.189671,0.902703,0.140156,0.37196,0.456403
1696784356156250,-9.44325,-2.189671,0.891703,0.138256,0.49396,0.437703
1696784356164062,-9.48825,-2.177671,0.893703,0.136356,0.58396,0.420603
1696784356171875,-9.42725,-2.158671,0.932703,0.160356,0.61496,0.400003
1696784356179687,-9.39125,-2.115671,0.882703,0.160156,0.55496,0.385803
1696784356187500,-9.37825,-2.103671,0.850703,0.166356,0.48596,0.388703
1696784356195312,-9.29625,-2.150671,0.868703,0.169556,0.48296,0.398203
1696784356203125,-9.16625,-2.237671,0.898703,0.178756,0.58296,0.404603
1696784356210937,-9.11225,-2.344671,0.945703,0.169856,0.67596,0.422203
1696784356218750,-9.15125,-2.410671,-1.38703,0.147156,0.76996,0.432003
1696784356226562,-9.36125,-2.467671,-1.125703,0.136256,0.95496,0.429403
1696784356234375,-9.48325,-2.510671,-1.209703,0.118156,0.76396,0.430603
1696784356242187,-9.47425,-2.549671,-1.271703,0.118056,0.69596,0.422503
1696784356250000,-9.40425,-2.559671,-1.309703,0.107056,0.55096,0.400203
1696784356257812,-9.31325,-2.598671,-1.318703,0.97656,0.50496,0.382803
1696784356265625,-9.24525,-2.614671,-1.368703,0.92656,0.44596,0.357503
1696784356273437,-9.19525,-2.644671,-1.405703,0.86256,0.41696,0.336903
1696784356281250,-9.14925,-2.680671,-1.402703,0.86056,0.43996,0.327703
1696784356289062,-9.10525,-2.718671,-1.423703,0.78456,0.42196,0.327703
1696784356296875,-9.7125,-2.750671,-1.473703,0.72356,0.42196,0.324603
1696784356304687,-9.6825,-2.787671,-1.505703,0.69656,0.33096,0.343303
1696784356312500,-9.12525,-2.791671,-1.539703,0.68456,0.38996,0.363903
1696784356320312,-9.18625,-2.792671,-1.511703,0.65656,0.28396,0.377903
1696784356328125,-9.27325,-2.833671,-1.457703,0.84156,0.23496,0.385603
1696784356335937,-9.51325,-2.864671,-1.427703,0.102356,0.23796,0.382303
1696784356343750,-9.69825,-2.949671,-1.470703,0.114556,0.8996,0.377103
1696784356351562,-9.73525,-3.55671,-1.484703,0.127056,0.6004,0.386203
1696784356359375,-9.74425,-3.186671,-1.449703,0.137856,0.7804,0.395603
1696784356367187,-9.75625,-3.338671,-1.406703,0.141056,0.14604,0.400103
1696784356375000,-9.71025,-3.429671,-1.410703,0.144156,0.30104,0.398103
1696784356382812,-9.66925,-3.435671,-1.351703,0.140756,0.37404,0.376003
1696784356390625,-9.58525,-3.441671,-1.276703,0.157356,0.54904,0.359703
1696784356398437,-9.44225,-3.441671,-1.237703,0.167656,0.57204,0.337603
1696784356406250,-9.33325,-3.460671,-1.237703,0.167256,0.39704,0.319103
1696784356414062,-9.31525,-3.474671,-1.237703,0.171356,0.32004,0.293903
1696784356421875,-9.32125,-3.477671,-1.243703,0.186256,0.27304,0.273603
1696784356429687,-9.28325,-3.517671,-1.255703,0.190656,0.25404,0.264003
1696784356437500,-9.23725,-3.537671,-1.234703,0.188856,0.13104,0.254903
1696784356445312,-9.42225,-3.561671,-1.120703,0.190256,0.2904,0.253603
1696784356453125,-9.64125,-3.630671,-1.4703,0.191956,0.8204,0.258103
1696784356460937,-9.62125,-3.778671,0.915703,0.189156,0.18904,0.272103
1696784356468750,-9.48425,-3.934671,0.762703,0.166556,0.15004,0.284903
1696784356476562,-9.39125,-4.94671,0.630703,0.166556,0.3096,0.296303
1696784356484375,-9.38925,-4.241671,0.623703,0.134256,0.13296,0.277903
1696784356492187,-9.44125,-4.353671,0.638703,0.102956,0.17796,0.235703
1696784356500000,-9.42525,-4.394671,0.640703,0.86756,0.20996,0.180603
1696784356507812,-9.30725,-4.373671,0.636703,0.67256,0.13596,0.106703
1696784356515625,-9.24125,-4.273671,0.625703,0.37356,0.6696,0.50003
1696784356523437,-9.31825,-4.99671,0.607703,0.18556,0.9204,0.15203
1696784356531250,-9.39925,-3.942671,0.584703,0.13856,0.30604,0.1097
1696784356539062,-9.32925,-3.805671,0.567703,0.13956,0.64104,0.11297
1696784356546875,-9.16625,-3.693671,0.491703,0.18656,0.75404,0.8197
1696784356554687,-8.94425,-3.709671,0.355703,0.40056,0.78604,0.3797
1696784356562500,-8.69625,-3.822671,0.325703,0.41556,0.58504,0.197
1696784356570312,-8.51825,-3.931671,0.425703,0.42956,0.23504,0.8403
1696784356578125,-8.51525,-4.20671,0.422703,0.32156,0.19696,0.17303
1696784356585937,-8.66325,-4.115671,0.429703,0.13256,0.63696,0.3797
1696784356593750,-8.72725,-4.180671,0.502703,0.11256,0.78396,0.30097
1696784356601562,-8.72525,-4.234671,0.561703,0.344,0.83196,0.81997
1696784356609375,-8.71725,-4.314671,0.622703,0.19744,0.105096,0.138097
1696784356617187,-8.78925,-4.346671,0.770703,0.59044,0.145196,0.195297
1696784356625000,-9.9125,-4.165671,0.912703,0.105844,0.174996,0.246297
1696784356632812,-9.65225,-3.808671,0.949703,0.147244,0.201196,0.248497
1696784356640625,-10.16625,-3.489671,-1.52703,0.180644,0.200296,0.240397
1696784356648437,-10.34025,-3.313671,-1.144703,0.175544,0.165996,0.223897
1696784356656250,-10.15825,-3.260671,-1.44703,0.171944,0.118296,0.210797
1696784356664062,-9.87625,-3.341671,-1.7703,0.149044,0.102096,0.211297
1696784356671875,-9.77725,-3.474671,-1.114703,0.137244,0.99896,0.238197
1696784356679687,-9.85125,-3.563671,-1.159703,0.127144,0.102996,0.271397
1696784356687500,-9.93025,-3.596671,-1.221703,0.111044,0.99496,0.312697
1696784356695312,-9.92325,-3.622671,-1.289703,0.114744,0.94396,0.348797
1696784356703125,-9.80325,-3.734671,-1.400703,0.115444,0.101196,0.389497
1696784356710937,-9.60025,-3.828671,-1.498703,0.138144,0.125296,0.462897
1696784356718750,-9.42325,-3.763671,-1.617703,0.174744,0.149396,0.540997
1696784356726562,-9.45825,-3.500671,-1.701703,0.218944,0.170196,0.623697
1696784356734375,-9.71825,-3.92671,-1.759703,0.240044,0.174796,0.698697
1696784356742187,-9.90725,-2.722671,-1.872703,0.245344,0.159396,0.746397
1696784356750000,-9.96625,-2.455671,-1.906703,0.260844,0.146596,0.763797
1696784356757812,-9.91925,-2.293671,-1.895703,0.248644,0.116996,0.778697
1696784356765625,-9.79125,-2.217671,-1.964703,0.245544,0.100096,0.777597
1696784356773437,-9.71825,-2.186671,-2.2703,0.245144,0.79496,0.762197
1696784356781250,-9.70125,-2.145671,-1.989703,0.241744,0.56996,0.748597
1696784356789062,-9.60325,-2.172671,-2.11703,0.241044,0.19096,0.724197
1696784356796875,-9.42525,-2.296671,-1.995703,0.240244,0.19404,0.688897
1696784356804687,-9.29625,-2.478671,-1.947703,0.230644,0.31804,0.668797
1696784356812500,-9.23725,-2.637671,-1.974703,0.238144,0.45604,0.662697
1696784356820312,-9.24725,-2.729671,-1.994703,0.266644,0.48604,0.637197
1696784356828125,-9.36125,-2.756671,-2.8703,0.301444,0.45104,0.624497
1696784356835937,-9.43525,-2.750671,-2.65703,0.349844,0.45504,0.597397
1696784356843750,-9.36425,-2.672671,-2.120703,0.399744,0.50504,0.576597
1696784356851562,-9.27125,-2.498671,-2.97703,0.452944,0.47204,0.563597
1696784356859375,-9.17525,-2.272671,-2.96703,0.483044,0.28804,0.537897
1696784356867187,-9.13025,-2.7671,-2.71703,0.508644,0.21404,0.518497
1696784356875000,-9.17725,-1.744671,-2.81703,0.522244,0.9396,0.498997
1696784356882812,-9.30625,-1.562671,-2.93703,0.508344,0.17396,0.481597
1696784356890625,-9.43225,-1.426671,-2.123703,0.503444,0.36696,0.457597
1696784356898437,-9.50225,-1.280671,-2.166703,0.472644,0.15296,0.447097
1696784356906250,-9.52525,-1.221671,-2.107703,0.437244,0.8796,0.428497
1696784356914062,-9.46225,-1.261671,-2.102703,0.415444,0.304,0.405397
1696784356921875,-9.27225,-1.377671,-2.143703,0.378344,0.10604,0.382297
1696784356929687,-9.12525,-1.526671,-2.88703,0.348944,0.16004,0.355797
1696784356937500,-9.10025,-1.673671,-2.17703,0.335044,0.10804,0.346197
1696784356945312,-9.16025,-1.782671,-2.56703,0.333644,0.7504,0.349397
1696784356953125,-9.34025,-1.744671,-2.44703,0.321444,0.15504,0.351097
1696784356960937,-9.55325,-1.622671,-1.919703,0.305844,0.37204,0.340597
1696784356968750,-9.62725,-1.542671,-1.812703,0.290444,0.47604,0.331597
1696784356976562,-9.68425,-1.532671,-1.758703,0.262844,0.57204,0.325597
1696784356984375,-9.79025,-1.564671,-1.737703,0.226244,0.58104,0.327397
1696784356992187,-9.85425,-1.596671,-1.690703,0.192744,0.71004,0.331297
1696784357000000,-9.75325,-1.652671,-1.630703,0.154744,0.76404,0.340997
1696784357007812,-9.65025,-1.754671,-1.591703,0.136644,0.62404,0.347197
1696784357015625,-9.61825,-1.893671,-1.602703,0.124444,0.50404,0.343797
1696784357023437,-9.67925,-1.937671,-1.652703,0.113844,0.16904,0.338497
1696784357031250,-9.91925,-1.933671,-1.711703,0.113944,0.18396,0.328097
1696784357039062,-10.4525,-1.939671,-1.736703,0.113744,0.34696,0.310397
1696784357046875,-10.10025,-1.948671,-1.755703,0.111844,0.60396,0.283197
1696784357054687,-10.17425,-1.980671,-1.773703,0.116344,0.70096,0.270197
1696784357062500,-10.17325,-2.40671,-1.802703,0.116344,0.75196,0.273297
1696784357070312,-10.7325,-1.998671,-1.862703,0.111844,0.76696,0.275097
1696784357078125,-10.1225,-1.911671,-1.823703,0.113344,0.75196,0.274997
1696784357085937,-10.10225,-1.844671,-1.782703,0.114944,0.65096,0.281597
1696784357093750,-10.12925,-1.826671,-1.851703,0.112244,0.67596,0.302097
1696784357101562,-10.13825,-1.829671,-1.889703,0.109344,0.38196,0.318297
1696784357109375,-10.24025,-1.770671,-1.808703,0.97044,0.296,0.328597
1696784357117187,-10.20025,-1.611671,-1.804703,0.101744,0.28104,0.345097
1696784357125000,-10.17225,-1.432671,-1.738703,0.97044,0.57704,0.350297
1696784357132812,-10.18225,-1.451671,-1.610703,0.89344,0.81204,0.355797
1696784357140625,-9.86625,-1.526671,-1.681703,0.87744,0.112904,0.362697
1696784357148437,-9.56025,-1.501671,-1.621703,0.92644,0.119004,0.381697
1696784357156250,-9.51125,-1.446671,-1.521703,0.98944,0.123604,0.394397
1696784357164062,-9.48725,-1.350671,-1.537703,0.112544,0.122304,0.389497
1696784357171875,-9.44125,-1.247671,-1.542703,0.117144,0.121004,0.387897
1696784357179687,-9.36325,-1.146671,-1.419703,0.134944,0.137504,0.364597
1696784357187500,-9.35125,-1.59671,-1.360703,0.128744,0.124304,0.356497
1696784357195312,-9.42425,-1.22671,-1.406703,0.118144,0.127204,0.358097
1696784357203125,-9.43325,-1.21671,-1.404703,0.110344,0.144304,0.353997
1696784357210937,-9.36725,0.992671,-1.310703,0.95144,0.163404,0.365397
1696784357218750,-9.25025,0.897671,-1.249703,0.73844,0.169104,0.370097
1696784357226562,-9.22125,0.597671,-1.199703,0.64744,0.172404,0.375097
1696784357234375,-9.59425,0.421671,-1.66703,0.43344,0.147204,0.360497
1696784357242187,-9.80125,0.382671,-1.27703,0.9544,0.157004,0.346697
1696784357250000,-9.56425,0.452671,-1.120703,0.5844,0.146904,0.303997
1696784357257812,-9.28625,0.601671,-1.152703,0.11356,0.145804,0.282197
1696784357265625,-9.16025,0.696671,-1.65703,0.13056,0.129504,0.267697
1696784357273437,-9.29325,0.645671,-1.136703,0.844,0.89704,0.258797
1696784357281250,-9.63125,0.585671,-1.250703,0.8344,0.63504,0.243997
1696784357289062,-9.91025,0.539671,-1.211703,0.22944,0.58704,0.202897
1696784357296875,-9.96125,0.594671,-1.252703,0.36044,0.58304,0.171197
1696784357304687,-9.89225,0.679671,-1.272703,0.57144,0.46304,0.148797
1696784357312500,-10.9025,0.655671,-1.243703,0.79844,0.42404,0.136097
1696784357320312,-10.39825,0.583671,-1.298703,0.90044,0.39804,0.110597
1696784357328125,-10.56225,0.519671,-1.339703,0.95744,0.59504,0.90597
1696784357335937,-10.52725,0.500671,-1.319703,0.84744,0.84804,0.84897
1696784357343750,-10.34525,0.518671,-1.262703,0.75444,0.114704,0.87197
1696784357351562,-10.14025,0.560671,-1.289703,0.55844,0.123704,0.101597
1696784357359375,-9.96525,0.630671,-1.275703,0.42544,0.142604,0.133697
1696784357367187,-9.79725,0.651671,-1.218703,0.17444,0.171604,0.189497
1696784357375000,-9.71125,0.646671,-1.115703,0.1556,0.197504,0.246797
1696784357382812,-9.74225,0.555671,-1.54703,0.26556,0.208404,0.307197
1696784357390625,-9.78125,0.483671,-1.4703,0.50356,0.234804,0.348797
1696784357398437,-9.72525,0.295671,0.925703,0.77756,0.264104,0.362297
1696784357406250,-9.95025,0.128671,0.746703,0.94756,0.259504,0.348297
1696784357414062,-10.22325,0.146671,0.677703,0.132056,0.273504,0.309297
1696784357421875,-10.23925,0.246671,0.713703,0.146856,0.281804,0.252797
1696784357429687,-10.14125,0.365671,0.661703,0.169256,0.307204,0.195197
1696784357437500,-10.2625,0.482671,0.449703,0.192756,0.325004,0.164397
1696784357445312,-10.2725,0.553671,0.389703,0.203756,0.312004,0.140497
1696784357453125,-10.10525,0.679671,0.373703,0.210156,0.314204,0.124797
1696784357460937,-10.10325,0.826671,0.282703,0.221056,0.311104,0.110697
1696784357468750,-9.96325,0.993671,0.243703,0.218056,0.303104,0.105797
1696784357476562,-9.82525,-1.124671,0.174703,0.207156,0.281004,0.113097
1696784357484375,-9.77425,-1.210671,0.76703,0.188356,0.263904,0.131497
1696784357492187,-9.81525,-1.144671,0.21703,0.177256,0.243104,0.154597
1696784357500000,-9.96025,0.995671,0.32297,0.173656,0.228604,0.180997
1696784357507812,-10.10325,0.836671,0.139297,0.179256,0.232704,0.209597
1696784357515625,-9.99725,0.762671,0.207297,0.177456,0.230404,0.223697
1696784357523437,-9.72525,0.756671,0.287297,0.179056,0.223704,0.218797
1696784357531250,-9.58825,0.728671,0.339297,0.186456,0.196704,0.223097
1696784357539062,-9.64025,0.662671,0.375297,0.183256,0.179704,0.224097
1696784357546875,-9.68925,0.574671,0.350297,0.184656,0.156004,0.223597
1696784357554687,-9.54225,0.529671,0.311297,0.190756,0.137704,0.215397
1696784357562500,-9.23925,0.546671,0.250297,0.186156,0.102904,0.205197
1696784357570312,-9.9625,0.562671,0.182297,0.175156,0.47604,0.207097
1696784357578125,-9.23725,0.470671,0.79297,0.157756,0.96,0.227897
1696784357585937,-9.43825,0.327671,0.77703,0.160156,0.36296,0.249197
1696784357593750,-9.54825,0.138671,0.160703,0.155256,0.63596,0.261197
1696784357601562,-9.69225,0.9671,0.235703,0.148956,0.95196,0.260597
1696784357609375,-9.80425,0.16329,0.395703,0.126056,0.109696,0.256997
1696784357617187,-9.84625,0.44671,0.575703,0.113656,0.124896,0.264497
1696784357625000,-9.84925,0.27671,0.684703,0.90656,0.136196,0.268897
1696784357632812,-9.89925,0.39329,0.762703,0.55556,0.139296,0.269897
1696784357640625,-9.98325,0.66329,0.882703,0.28256,0.138196,0.261997
1696784357648437,-10.3725,0.50329,0.960703,0.144,0.118396,0.238497
1696784357656250,-10.4125,0.5671,-1.23703,0.30244,0.98296,0.218397
1696784357664062,-10.325,0.73671,-1.65703,0.63344,0.71296,0.201597
1696784357671875,-10.6825,0.56671,-1.55703,0.85944,0.52396,0.192197
1696784357679687,-10.21425,0.39329,-1.71703,0.108544,0.34896,0.187697
1696784357687500,-10.30825,0.125329,-1.83703,0.118844,0.12096,0.170797
1696784357695312,-10.25825,0.149329,-1.63703,0.136644,0.7504,0.150597
1696784357703125,-10.7325,0.94329,-1.38703,0.131644,0.33604,0.130797
1696784357710937,-9.84825,0.30329,0.976703,0.147944,0.43404,0.110597
1696784357718750,-9.73125,0.7329,0.948703,0.159844,0.39104,0.88197
1696784357726562,-9.70925,0.10671,0.930703,0.179244,0.30604,0.64297
1696784357734375,-9.70925,0.33671,0.926703,0.181944,0.16904,0.35797
1696784357742187,-9.67525,0.40671,0.910703,0.180144,0.10404,0.21397
1696784357750000,-9.60025,0.38671,0.905703,0.179944,0.4104,0.3897
1696784357757812,-9.52425,0.108671,0.909703,0.175244,0.8996,0.7403
1696784357765625,-9.38425,0.201671,0.977703,0.169244,0.14296,0.6003
1696784357773437,-9.25725,0.267671,-1.36703,0.179844,0.25696,0.9403
1696784357781250,-9.19325,0.326671,-1.57703,0.185944,0.40396,0.16003
1696784357789062,-9.16925,0.368671,-1.109703,0.201144,0.48396,0.21103
1696784357796875,-9.12425,0.393671,-1.205703,0.207344,0.76596,0.26403
1696784357804687,-8.97125,0.449671,-1.245703,0.222444,0.90896,0.42603
1696784357812500,-8.81325,0.490671,-1.277703,0.242044,0.111196,0.60303
1696784357820312,-8.87925,0.464671,-1.346703,0.271144,0.142596,0.61203
1696784357828125,-9.34125,0.295671,-1.408703,0.314044,0.172096,0.62203
1696784357835937,-9.78925,0.133671,-1.431703,0.330644,0.182996,0.75103
1696784357843750,-9.90525,0.89671,-1.499703,0.360444,0.170896,0.109703
1696784357851562,-9.88825,0.144671,-1.579703,0.393144,0.170096,0.161903
1696784357859375,-9.88325,0.238671,-1.595703,0.433444,0.172196,0.212603
1696784357867187,-9.89325,0.314671,-1.613703,0.482844,0.169296,0.261703
1696784357875000,-9.93525,0.384671,-1.679703,0.532344,0.173096,0.315703
1696784357882812,-10.925,0.434671,-1.676703,0.578744,0.178696,0.365003
1696784357890625,-10.12425,0.462671,-1.635703,0.632744,0.178896,0.417303
1696784357898437,-10.28925,0.482671,-1.610703,0.689744,0.188696,0.477703
1696784357906250,-10.41625,0.566671,-1.617703,0.741744,0.196096,0.555303
1696784357914062,-10.41625,0.735671,-1.690703,0.796944,0.185396,0.627903
1696784357921875,-10.43825,0.899671,-1.659703,0.859844,0.180296,0.688103
1696784357929687,-10.45525,-1.51671,-1.650703,0.914144,0.167596,0.718103
1696784357937500,-10.49625,-1.148671,-1.691703,0.962444,0.134296,0.738303
1696784357945312,-10.55925,-1.214671,-1.698703,1.3144,0.100796,0.748803
1696784357953125,-10.57925,-1.298671,-1.677703,1.36444,0.64996,0.753103
1696784357960937,-10.46825,-1.400671,-1.631703,1.68344,0.15696,0.741203
1696784357968750,-10.37725,-1.474671,-1.592703,1.70144,0.10604,0.715303
1696784357976562,-10.39925,-1.471671,-1.540703,1.84444,0.39304,0.672303
1696784357984375,-10.37525,-1.432671,-1.431703,1.69944,0.80504,0.609903
1696784357992187,-10.30025,-1.349671,-1.346703,1.38844,0.107404,0.549303
1696784358000000,-10.22125,-1.229671,-1.249703,0.995444,0.121504,0.495103
1696784358007812,-10.6225,-1.183671,-1.132703,0.948944,0.143504,0.445603
1696784358015625,-9.83225,-1.196671,-1.69703,0.890444,0.137304,0.393303
1696784358023437,-9.64625,-1.217671,-1.32703,0.831544,0.138004,0.355103
1696784358031250,-9.49625,-1.234671,0.984703,0.774444,0.116504,0.315803
1696784358039062,-9.44025,-1.215671,0.978703,0.711344,0.96804,0.271703
1696784358046875,-9.43325,-1.170671,0.971703,0.654144,0.85504,0.229103
1696784358054687,-9.42725,-1.128671,0.987703,0.584844,0.70404,0.184803
1696784358062500,-9.39525,-1.121671,0.989703,0.516944,0.62504,0.149903
1696784358070312,-9.38125,-1.155671,-1.14703,0.450544,0.34904,0.118503
1696784358078125,-9.36725,-1.222671,-1.78703,0.390344,0.23404,0.75903
1696784358085937,-9.31325,-1.298671,-1.125703,0.325344,0.18904,0.44103
1696784358093750,-9.29125,-1.330671,-1.137703,0.268244,0.2804,0.1503
1696784358101562,-9.46425,-1.276671,-1.169703,0.227644,0.9196,0.28497
1696784358109375,-9.78925,-1.152671,-1.194703,0.188444,0.15696,0.49197
1696784358117187,-10.8325,-1.84671,-1.274703,0.153344,0.16496,0.49397
1696784358125000,-10.12125,-1.85671,-1.327703,0.106044,0.1004,0.50097
1696784358132812,-9.97525,-1.136671,-1.333703,0.78144,0.8004,0.26697
1696784358140625,-9.92025,-1.233671,-1.306703,0.50544,0.6204,0.15897
1696784358148437,-9.99325,-1.321671,-1.367703,0.18244,0.19304,0.5297
1696784358156250,-10.3925,-1.404671,-1.430703,0.8944,0.29204,0.803
1696784358164062,-9.99525,-1.546671,-1.428703,0.8844,0.34704,0.3703
1696784358171875,-9.97025,-1.697671,-1.423703,0.5744,0.41204,0.3603
1696784358179687,-9.99325,-1.837671,-1.505703,0.21144,0.29604,0.797
1696784358187500,-10.1025,-1.908671,-1.566703,0.42644,0.33004,0.8497
1696784358195312,-10.6025,-1.880671,-1.571703,0.62744,0.46104,0.29097
1696784358203125,-10.13125,-1.810671,-1.582703,0.82644,0.52804,0.35397
1696784358210937,-10.15025,-1.734671,-1.616703,0.101144,0.57804,0.49597
1696784358218750,-10.16725,-1.649671,-1.612703,0.108644,0.74804,0.49897
1696784358226562,-10.24825,-1.543671,-1.594703,0.107044,0.96504,0.53497
1696784358234375,-10.26825,-1.434671,-1.613703,0.108444,0.123404,0.58897
1696784358242187,-10.16425,-1.373671,-1.592703,0.106844,0.145004,0.57597
1696784358250000,-10.1525,-1.312671,-1.501703,0.91444,0.161504,0.58097
1696784358257812,-9.94625,-1.260671,-1.426703,0.70044,0.181304,0.60297
1696784358265625,-9.90425,-1.196671,-1.390703,0.48644,0.199304,0.63997
1696784358273437,-9.82925,-1.159671,-1.319703,0.19644,0.210404,0.62797
1696784358281250,-9.74925,-1.218671,-1.217703,0.10244,0.227104,0.58497
1696784358289062,-9.73125,-1.300671,-1.157703,0.10444,0.222204,0.63297
1696784358296875,-9.77025,-1.334671,-1.121703,0.4244,0.230104,0.64897
1696784358304687,-9.73425,-1.351671,-1.30703,0.4756,0.234904,0.74697
1696784358312500,-9.60025,-1.400671,0.911703,0.4756,0.226704,0.69797
1696784358320312,-9.68825,-1.374671,0.813703,0.12044,0.206904,0.64397
1696784358328125,-9.81825,-1.337671,0.818703,0.13644,0.205304,0.65997
1696784358335937,-9.83225,-1.313671,0.761703,0.11944,0.217404,0.59997
1696784358343750,-9.81425,-1.302671,0.654703,0.11844,0.209004,0.53397
1696784358351562,-9.74725,-1.363671,0.658703,0.8644,0.217504,0.47297
1696784358359375,-9.73825,-1.442671,0.638703,0.7144,0.211104,0.48897
1696784358367187,-9.85025,-1.491671,0.633703,0.10244,0.192604,0.45297
1696784358375000,-9.90925,-1.549671,0.670703,0.25544,0.184904,0.43597
1696784358382812,-9.89425,-1.640671,0.665703,0.31644,0.186404,0.44997
1696784358390625,-9.79025,-1.705671,0.633703,0.42544,0.183304,0.54597
1696784358398437,-9.75325,-1.720671,0.621703,0.64144,0.176104,0.71497
1696784358406250,-9.80725,-1.722671,0.662703,0.82744,0.157504,0.83497
1696784358414062,-9.81725,-1.770671,0.712703,0.102844,0.153804,0.97397
1696784358421875,-9.74525,-1.938671,0.742703,0.123244,0.153004,0.131897
1696784358429687,-9.71725,-2.93671,0.778703,0.145244,0.145804,0.166497
1696784358437500,-9.80925,-2.242671,0.868703,0.185744,0.142704,0.216397
1696784358445312,-9.95325,-2.368671,0.948703,0.226144,0.143604,0.263497
1696784358453125,-10.5725,-2.475671,0.984703,0.268044,0.139304,0.303897
1696784358460937,-10.8525,-2.619671,-1.39703,0.320744,0.146704,0.360497
1696784358468750,-10.17325,-2.806671,-1.86703,0.381144,0.164404,0.417197
1696784358476562,-10.30125,-2.919671,-1.118703,0.450544,0.173704,0.471997
1696784358484375,-10.41725,-2.867671,-1.111703,0.521944,0.192404,0.550697
1696784358492187,-10.43625,-2.759671,-1.109703,0.591344,0.218504,0.610597
1696784358500000,-10.34325,-2.663671,-1.61703,0.662344,0.243104,0.667397
1696784358507812,-10.20625,-2.594671,0.982703,0.711744,0.270904,0.718197
1696784358515625,-10.2525,-2.581671,0.936703,0.766144,0.291504,0.782897
1696784358523437,-9.87525,-2.594671,0.897703,0.817544,0.301704,0.850397
1696784358531250,-9.81225,-2.523671,0.841703,0.885544,0.312504,0.911597
1696784358539062,-9.74325,-2.456671,0.752703,0.936844,0.319804,0.972997
1696784358546875,-9.67125,-2.390671,0.713703,0.983144,0.327804,1.7397
1696784358554687,-9.70925,-2.237671,0.666703,1.56844,0.326204,1.38197
1696784358562500,-9.76225,-2.37671,0.600703,1.110744,0.328204,1.71297
1696784358570312,-9.74325,-1.752671,0.512703,1.161244,0.351804,1.93397
1696784358578125,-9.72025,-1.424671,0.444703,1.202844,0.356704,1.116697
1696784358585937,-9.64025,-1.107671,0.349703,1.236344,0.372304,1.124797
1696784358593750,-9.57225,0.812671,0.268703,1.266744,0.381504,1.123297
1696784358601562,-9.54325,0.605671,0.207703,1.268144,0.385204,1.115497
1696784358609375,-9.43225,0.411671,0.198703,1.286044,0.383204,1.91697
1696784358617187,-9.25525,0.239671,0.210703,1.292044,0.381804,1.81997
1696784358625000,-9.7225,0.38671,0.178703,1.291744,0.375704,1.64597
1696784358632812,-9.8425,0.177329,0.110703,1.294944,0.334004,1.55697
1696784358640625,-9.30425,0.382329,0.111703,1.290644,0.297004,1.59897
1696784358648437,-9.40225,0.571329,0.175703,1.275244,0.276804,1.46797
1696784358656250,-9.38425,0.837329,0.217703,1.258144,0.250604,1.13197
1696784358664062,-9.57725,1.139329,0.172703,1.240744,0.226904,0.972097
1696784358671875,-9.90125,1.457329,0.114703,1.208044,0.198004,0.922997
1696784358679687,-10.14725,1.734329,0.99703,1.167644,0.180604,0.872497
1696784358687500,-10.31825,1.913329,0.113703,1.113344,0.169904,0.807797
1696784358695312,-10.24825,1.912329,0.117703,1.58944,0.179304,0.748497
1696784358703125,-9.99525,1.811329,0.121703,1.10544,0.177404,0.684097
1696784358710937,-9.80125,1.683329,0.100703,0.962644,0.159804,0.636897
1696784358718750,-9.78425,1.619329,0.123703,0.927144,0.138404,0.603597
1696784358726562,-9.81225,1.649329,0.162703,0.890144,0.128404,0.576697
1696784358734375,-9.83625,1.758329,0.141703,0.867044,0.106804,0.557497
1696784358742187,-9.82325,1.922329,0.90703,0.829844,0.106104,0.516897
1696784358750000,-9.82425,2.58329,0.60703,0.782044,0.97804,0.483897
1696784358757812,-9.82325,2.140329,0.61703,0.738944,0.93104,0.457497
1696784358765625,-9.80125,2.115329,0.95703,0.680644,0.101104,0.442397
1696784358773437,-9.72125,1.957329,0.119703,0.624044,0.120004,0.435097
1696784358781250,-9.63425,1.848329,0.112703,0.584444,0.126004,0.438697
1696784358789062,-9.62025,1.859329,0.92703,0.553944,0.125304,0.435697
1696784358796875,-9.62125,1.967329,0.35703,0.519044,0.125404,0.449897
1696784358804687,-9.60025,2.62329,0.5297,0.483844,0.123804,0.436097
1696784358812500,-9.58825,2.162329,0.87297,0.436444,0.123104,0.428597
1696784358820312,-9.61825,2.184329,0.166297,0.389244,0.125404,0.432097
1696784358828125,-9.54625,2.103329,0.210297,0.347944,0.139604,0.432697
1696784358835937,-9.32825,1.992329,0.258297,0.316044,0.132304,0.434397
1696784358843750,-9.18825,1.904329,0.326297,0.290244,0.119604,0.437297
1696784358851562,-9.16525,1.857329,0.329297,0.284544,0.88904,0.449397
1696784358859375,-9.22625,1.869329,0.290297,0.283244,0.63304,0.453397
1696784358867187,-9.42325,2.16329,0.296297,0.284944,0.31404,0.452797
1696784358875000,-9.63625,2.213329,0.303297,0.283444,0.11604,0.446197
1696784358882812,-9.80225,2.393329,0.289297,0.269544,0.204,0.431897
1696784358890625,-9.89125,2.484329,0.282297,0.250844,0.6196,0.408197
1696784358898437,-9.86425,2.499329,0.241297,0.224244,0.8596,0.365697
1696784358906250,-9.84925,2.537329,0.234297,0.208444,0.6096,0.335897
1696784358914062,-9.85125,2.506329,0.200297,0.180344,0.8404,0.297097
1696784358921875,-9.70125,2.364329,0.182297,0.144744,0.26904,0.272497
1696784358929687,-9.58225,2.185329,0.214297,0.120244,0.25104,0.267997
1696784358937500,-9.45725,2.65329,0.171297,0.107744,0.27004,0.247397
1696784358945312,-9.40525,1.973329,0.198297,0.95544,0.30504,0.250997
1696784358953125,-9.40625,1.924329,0.322297,0.92644,0.21804,0.255597
1696784358960937,-9.43125,1.938329,0.338297,0.89744,0.12904,0.259997
1696784358968750,-9.53625,1.987329,0.365297,0.86444,0.13304,0.247397
1696784358976562,-9.63625,2.53329,0.412297,0.90544,0.7604,0.220397
1696784358984375,-9.66525,2.66329,0.447297,0.82444,0.11904,0.188997
1696784358992187,-9.62625,2.51329,0.456297,0.75744,0.12804,0.157497
1696784359000000,-9.70825,2.27329,0.433297,0.84544,0.4296,0.128797
1696784359007812,-9.83225,1.968329,0.353297,0.83844,0.2596,0.87897
1696784359015625,-9.76125,1.936329,0.331297,0.92344,0.4004,0.51797
1696784359023437,-9.67925,1.885329,0.317297,0.96444,0.16504,0.29897
1696784359031250,-9.51125,1.844329,0.311297,0.88644,0.26904,0.23997
1696784359039062,-9.44725,1.812329,0.322297,0.87244,0.20004,0.26997
1696784359046875,-9.51525,1.768329,0.276297,0.91844,0.20104,0.31697
1696784359054687,-9.54725,1.648329,0.256297,0.101144,0.28304,0.42897
1696784359062500,-9.52825,1.610329,0.234297,0.118044,0.26704,0.45797
1696784359070312,-9.49125,1.681329,0.224297,0.133244,0.35204,0.48997
1696784359078125,-9.52125,1.811329,0.295297,0.147044,0.31904,0.51897
1696784359085937,-9.61425,1.956329,0.335297,0.154644,0.38904,0.55297
1696784359093750,-9.82725,2.86329,0.264297,0.157644,0.39304,0.48997
1696784359101562,-10.5325,2.185329,0.243297,0.151244,0.51504,0.38297
1696784359109375,-10.24525,2.231329,0.291297,0.147544,0.74104,0.5597
1696784359117187,-10.40725,2.266329,0.232297,0.136344,0.80104,0.20903
1696784359125000,-10.53025,2.338329,0.222297,0.129644,0.101404,0.47103
1696784359132812,-10.72625,2.444329,0.256297,0.130344,0.128104,0.89103
1696784359140625,-10.86525,2.470329,0.245297,0.124744,0.153504,0.138903
1696784359148437,-10.78725,2.427329,0.238297,0.114944,0.179704,0.169803
1696784359156250,-10.60525,2.384329,0.307297,0.89744,0.214104,0.203603
1696784359164062,-10.47825,2.355329,0.350297,0.77244,0.222904,0.217403
1696784359171875,-10.35725,2.224329,0.330297,0.54344,0.221104,0.225203
1696784359179687,-10.15925,2.41329,0.323297,0.29944,0.237104,0.216803
1696784359187500,-9.86025,2.4329,0.374297,0.13344,0.228004,0.210603
1696784359195312,-9.62425,1.956329,0.447297,0.10756,0.222004,0.194803
1696784359203125,-9.47125,1.865329,0.445297,0.36256,0.192204,0.181103
1696784359210937,-9.43225,1.867329,0.404297,0.49756,0.171204,0.175303
1696784359218750,-9.46425,1.915329,0.388297,0.70856,0.155204,0.166103
1696784359226562,-9.56625,2.42329,0.401297,0.98356,0.131904,0.178803
1696784359234375,-9.69725,2.171329,0.389297,0.135056,0.109904,0.193203
1696784359242187,-9.79725,2.201329,0.357297,0.173556,0.109904,0.216603
1696784359250000,-9.81325,2.241329,0.325297,0.215056,0.105104,0.241603
1696784359257812,-9.73025,2.316329,0.325297,0.262756,0.93204,0.268303
1696784359265625,-9.65825,2.315329,0.350297,0.319556,0.84704,0.296503
1696784359273437,-9.56725,2.234329,0.314297,0.368656,0.74404,0.315203
1696784359281250,-9.45125,1.921329,0.224297,0.414556,0.60304,0.331103
1696784359289062,-9.37125,1.562329,0.127297,0.437256,0.41204,0.329803
1696784359296875,-9.31025,1.331329,0.68297,0.433856,0.20704,0.317603
1696784359304687,-9.30725,1.66329,0.21297,0.421056,0.1796,0.289803
1696784359312500,-9.37425,0.879329,0.12703,0.388456,0.22496,0.258903
1696784359320312,-9.53025,0.804329,0.96703,0.348256,0.32896,0.229503
1696784359328125,-9.68225,0.886329,0.83703,0.297656,0.37296,0.218903
1696784359335937,-9.87325,1.40329,0.26703,0.250556,0.34396,0.222303
1696784359343750,-10.5025,1.129329,0.33703,0.201956,0.29696,0.235203
1696784359351562,-10.13225,1.179329,0.75703,0.165756,0.21496,0.254103
1696784359359375,-10.15025,1.259329,0.102703,0.137256,0.7104,0.272503
1696784359367187,-10.6925,1.310329,0.70703,0.110256,0.46404,0.279803
1696784359375000,-9.92625,1.315329,0.29703,0.96656,0.78604,0.279203
1696784359382812,-9.86625,1.333329,0.36703,0.91856,0.106804,0.256403
1696784359390625,-9.84125,1.396329,0.20703,0.105456,0.130804,0.238603
1696784359398437,-9.82225,1.507329,0.10297,0.117556,0.151704,0.224003
1696784359406250,-9.79625,1.622329,0.26297,0.132756,0.161404,0.218903
1696784359414062,-9.75225,1.722329,0.90297,0.157156,0.167504,0.217003
1696784359421875,-9.72725,1.697329,0.119297,0.190756,0.172004,0.223103
1696784359429687,-9.69625,1.594329,0.145297,0.210956,0.180604,0.238503
1696784359437500,-9.74325,1.541329,0.177297,0.227856,0.159104,0.254503
1696784359445312,-9.86025,1.498329,0.220297,0.240056,0.155604,0.257703
1696784359453125,-9.87525,1.319329,0.198297,0.256856,0.169804,0.254303
1696784359460937,-9.84925,1.161329,0.184297,0.264056,0.167604,0.232103
1696784359468750,-9.91825,1.58329,0.205297,0.242556,0.169004,0.218103
1696784359476562,-10.3025,0.975329,0.203297,0.239156,0.171704,0.200703
1696784359484375,-10.15625,0.932329,0.187297,0.219356,0.183704,0.195903
1696784359492187,-10.22425,0.889329,0.228297,0.214856,0.187604,0.197203
1696784359500000,-10.21225,0.841329,0.251297,0.190656,0.209804,0.198603
1696784359507812,-10.9525,0.795329,0.281297,0.180256,0.219104,0.215803
1696784359515625,-9.85625,0.716329,0.408297,0.164856,0.233904,0.201503
1696784359523437,-9.66525,0.610329,0.491297,0.167556,0.233104,0.177803
1696784359531250,-9.58725,0.587329,0.559297,0.165156,0.212804,0.134203
1696784359539062,-9.56225,0.560329,0.593297,0.162756,0.204204,0.87103
1696784359546875,-9.53625,0.540329,0.621297,0.162256,0.181304,0.64103
1696784359554687,-9.57325,0.527329,0.659297,0.149656,0.156104,0.48803
1696784359562500,-9.66525,0.574329,0.645297,0.138656,0.126004,0.43103
1696784359570312,-9.78125,0.615329,0.611297,0.133756,0.105604,0.30903
1696784359578125,-9.83425,0.557329,0.550297,0.132056,0.85004,0.25203
1696784359585937,-9.84525,0.481329,0.468297,0.115156,0.73504,0.22403
1696784359593750,-9.88925,0.417329,0.393297,0.111856,0.51404,0.15003
1696784359601562,-9.92525,0.411329,0.279297,0.87256,0.38004,0.6003
1696784359609375,-9.98225,0.414329,0.199297,0.65656,0.19804,0.1297
1696784359617187,-10.2525,0.397329,0.147297,0.50256,0.9604,0.8897
1696784359625000,-10.8825,0.356329,0.38297,0.14756,0.2196,0.27197
1696784359632812,-10.17625,0.363329,0.41703,0.9944,0.7404,0.47697
1696784359640625,-10.30125,0.442329,0.84703,0.38844,0.14804,0.49197
1696784359648437,-10.37525,0.519329,0.89703,0.57044,0.35204,0.51097
1696784359656250,-10.34025,0.592329,0.110703,0.81244,0.59704,0.45197
1696784359664062,-10.30225,0.674329,0.85703,0.97744,0.72304,0.34397
1696784359671875,-10.26325,0.748329,0.62703,0.95844,0.93004,0.23897
1696784359679687,-10.28025,0.860329,0.54703,0.104744,0.118804,0.14997
1696784359687500,-10.29025,0.934329,0.26703,0.87544,0.127404,0.8503
1696784359695312,-10.17925,0.959329,0.5297,0.79644,0.137904,0.20803
1696784359703125,-10.825,1.13329,0.50297,0.59344,0.150004,0.40903
1696784359710937,-9.88125,1.22329,0.87297,0.39444,0.155004,0.48503
1696784359718750,-9.80225,1.81329,0.91297,0.15044,0.142804,0.51803
1696784359726562,-9.76725,1.170329,0.123297,0.15656,0.140804,0.61103
1696784359734375,-9.70725,1.250329,0.166297,0.53656,0.128204,0.62703
1696784359742187,-9.64525,1.356329,0.186297,0.81156,0.119304,0.67503
1696784359750000,-9.58725,1.447329,0.214297,0.125356,0.98304,0.77203
1696784359757812,-9.58625,1.543329,0.264297,0.171156,0.72604,0.90003
1696784359765625,-9.63525,1.623329,0.236297,0.220256,0.52404,0.112103
1696784359773437,-9.70825,1.660329,0.158297,0.270656,0.20104,0.131403
1696784359781250,-9.79225,1.688329,0.138297,0.309056,0.1496,0.158403
1696784359789062,-9.88125,1.725329,0.76297,0.358456,0.14496,0.196103
1696784359796875,-9.88825,1.787329,0.51297,0.406156,0.31196,0.229203
1696784359804687,-9.82625,1.869329,0.46297,0.453856,0.32596,0.257203
1696784359812500,-9.77125,1.991329,0.44297,0.504856,0.42196,0.299703
1696784359820312,-9.75825,2.207329,0.46297,0.565056,0.43596,0.343403
1696784359828125,-9.73825,2.456329,0.56297,0.643556,0.51896,0.390403
1696784359835937,-9.77325,2.704329,0.67297,0.737456,0.50096,0.444803
1696784359843750,-9.80325,2.946329,0.90297,0.843656,0.47096,0.500803
1696784359851562,-9.69725,3.86329,0.41297,0.968356,0.41496,0.572203
1696784359859375,-9.42025,3.99329,0.44297,-1.106756,0.15196,0.636903
1696784359867187,-9.11025,3.72329,0.5297,-1.260356,0.10796,0.700303
1696784359875000,-8.96825,3.43329,0.78703,-1.393956,0.15996,0.764103
1696784359882812,-9.2425,2.997329,0.158703,-1.523156,0.32896,0.832903
1696784359890625,-9.19125,2.837329,0.258703,-1.649256,0.58196,0.905103
1696784359898437,-9.24225,2.551329,0.373703,-1.751156,0.78996,0.988403
1696784359906250,-9.15325,2.225329,0.475703,-1.822256,0.101496,-1.57703
1696784359914062,-9.8425,1.927329,0.492703,-1.876656,0.141896,-1.132203
1696784359921875,-9.6525,1.662329,0.533703,-1.922856,0.173096,-1.173503
1696784359929687,-9.19625,1.335329,0.546703,-1.956556,0.187296,-1.181503
1696784359937500,-9.32525,0.830329,0.631703,-1.994156,0.193996,-1.154603
1696784359945312,-9.35925,0.298329,0.735703,-2.21056,0.172396,-1.117703
1696784359953125,-9.56125,0.95671,0.777703,-2.6556,0.168696,-1.73603
1696784359960937,-9.96525,0.306671,0.804703,-1.975856,0.170496,-1.56603
1696784359968750,-10.29925,0.424671,0.786703,-1.942556,0.147696,-1.62603
1696784359976562,-10.37225,0.569671,0.763703,-1.908056,0.117196,-1.85803
1696784359984375,-10.17425,0.793671,0.710703,-1.870556,0.93596,-1.115503
1696784359992187,-9.91325,-1.38671,0.684703,-1.828056,0.88896,-1.125103
1696784360000000,-9.70625,-1.245671,0.688703,-1.783656,0.91896,-1.111303
1696784360007812,-9.42325,-1.454671,0.661703,-1.738856,0.110296,-1.85203
1696784360015625,-9.13025,-1.688671,0.580703,-1.697956,0.148896,-1.26403
1696784360023437,-8.88525,-2.7671,0.556703,-1.664256,0.185296,0.937703
1696784360031250,-8.81825,-2.404671,0.608703,-1.625656,0.237196,0.839903
1696784360039062,-9.4525,-2.767671,0.767703,-1.554856,0.302096,0.729903
1696784360046875,-9.52625,-2.934671,0.944703,-1.473556,0.344596,0.628903
1696784360054687,-10.625,-2.878671,-1.33703,-1.377956,0.365396,0.568603
1696784360062500,-10.32225,-2.816671,-1.22703,-1.295056,0.357996,0.535903
1696784360070312,-10.38325,-2.822671,-1.65703,-1.211156,0.321496,0.518403
1696784360078125,-10.32325,-2.865671,-1.106703,-1.131856,0.281896,0.500803
1696784360085937,-10.41025,-2.815671,-1.56703,-1.46356,0.258596,0.488203
1696784360093750,-10.63925,-2.649671,-1.32703,0.974756,0.217496,0.473703
1696784360101562,-10.84625,-2.394671,-1.7703,0.906656,0.136996,0.472403
1696784360109375,-10.95725,-2.195671,0.894703,0.869156,0.46896,0.475403
1696784360117187,-10.87825,-2.32671,0.728703,0.852756,0.32604,0.472203
1696784360125000,-10.58525,-1.915671,0.573703,0.831856,0.105204,0.470803
1696784360132812,-10.13225,-1.902671,0.448703,0.835156,0.144004,0.471503
1696784360140625,-9.69225,-1.941671,0.329703,0.831956,0.162204,0.460103
1696784360148437,-9.43125,-1.958671,0.217703,0.828556,0.143004,0.446503
1696784360156250,-9.37825,-1.895671,0.172703,0.827956,0.113704,0.421803
1696784360164062,-9.40325,-1.831671,0.181703,0.825956,0.75904,0.403803
1696784360171875,-9.36325,-1.799671,0.243703,0.827156,0.43804,0.399703
1696784360179687,-9.24125,-1.823671,0.295703,0.822456,0.1296,0.403803
1696784360187500,-9.9525,-1.912671,0.386703,0.807156,0.49096,0.417503
1696784360195312,-8.99525,-1.991671,0.513703,0.781256,0.94796,0.437503
1696784360203125,-9.4525,-2.98671,0.679703,0.759856,0.142896,0.451403
1696784360210937,-9.22725,-2.245671,0.875703,0.724856,0.158396,0.461303
1696784360218750,-9.41825,-2.376671,-1.62703,0.698856,0.159696,0.453603
1696784360226562,-9.60225,-2.469671,-1.148703,0.662156,0.146296,0.441103
1696784360234375,-9.77125,-2.540671,-1.184703,0.615056,0.108496,0.437503
1696784360242187,-9.92425,-2.621671,-1.221703,0.575556,0.85496,0.437203
1696784360250000,-10.5025,-2.679671,-1.280703,0.525456,0.59096,0.444803
1696784360257812,-10.2425,-2.741671,-1.311703,0.483456,0.20296,0.469503
1696784360265625,-9.93025,-2.728671,-1.189703,0.447456,0.21904,0.490803
1696784360273437,-10.3425,-2.685671,0.990703,0.412956,0.45304,0.511003
1696784360281250,-10.24325,-2.680671,0.929703,0.405656,0.81104,0.519803
1696784360289062,-10.25825,-2.713671,0.879703,0.406256,0.104004,0.544503
1696784360296875,-10.2125,-2.798671,0.715703,0.430956,0.142104,0.549903
1696784360304687,-9.77725,-2.931671,0.539703,0.438456,0.150104,0.541803
1696784360312500,-9.59425,-3.83671,0.513703,0.445656,0.142404,0.521403
1696784360320312,-9.45625,-3.196671,0.504703,0.454056,0.123604,0.479303
1696784360328125,-9.44125,-3.259671,0.472703,0.462156,0.81304,0.434503
1696784360335937,-9.52325,-3.287671,0.533703,0.462956,0.51504,0.402003
1696784360343750,-9.59525,-3.323671,0.615703,0.468456,0.28504,0.375703
1696784360351562,-9.68725,-3.342671,0.702703,0.464756,0.7304,0.346203
1696784360359375,-9.76525,-3.332671,0.782703,0.471856,0.8996,0.318103
1696784360367187,-9.77025,-3.285671,0.877703,0.466756,0.8396,0.289903
1696784360375000,-9.75425,-3.227671,0.952703,0.454056,0.21196,0.260303
1696784360382812,-9.66025,-3.199671,-1.12703,0.447556,0.29896,0.244703
1696784360390625,-9.47325,-3.227671,-1.112703,0.433556,0.26696,0.224103
1696784360398437,-9.21125,-3.276671,-1.137703,0.408856,0.18896,0.202203
1696784360406250,-8.96925,-3.357671,-1.152703,0.399056,0.5096,0.162603
1696784360414062,-8.80625,-3.409671,-1.139703,0.378356,0.16396,0.115703
1696784360421875,-8.84525,-3.343671,-1.166703,0.351756,0.25996,0.75203
1696784360429687,-9.3325,-3.191671,-1.162703,0.321056,0.17596,0.59503
1696784360437500,-9.12525,-3.86671,-1.156703,0.307456,0.13496,0.64103
1696784360445312,-9.2825,-3.49671,-1.142703,0.290856,0.6196,0.72003
1696784360453125,-8.89925,-3.78671,-1.94703,0.283256,0.4296,0.75203
1696784360460937,-8.78525,-3.108671,-1.126703,0.260356,0.8996,0.73903
1696784360468750,-8.72625,-3.93671,-1.178703,0.235756,0.33896,0.68303
1696784360476562,-8.84025,-3.33671,-1.180703,0.224956,0.42296,0.65403
1696784360484375,-9.13625,-2.914671,-1.229703,0.192856,0.63296,0.69203
1696784360492187,-9.47525,-2.780671,-1.309703,0.182156,0.68096,0.69403
1696784360500000,-9.65825,-2.733671,-1.359703,0.186956,0.44196,0.75003
1696784360507812,-9.58725,-2.754671,-1.395703,0.185656,0.38896,0.82803
1696784360515625,-9.53825,-2.814671,-1.377703,0.187256,0.18996,0.79303
1696784360523437,-9.64625,-2.862671,-1.379703,0.208456,0.22996,0.76103
1696784360531250,-9.71825,-2.885671,-1.404703,0.214556,0.14896,0.74403
1696784360539062,-9.79925,-2.958671,-1.399703,0.240256,0.4396,0.53503
1696784360546875,-9.82625,-3.95671,-1.413703,0.253856,0.10004,0.45303
1696784360554687,-9.83425,-3.207671,-1.424703,0.264256,0.14004,0.23003
1696784360562500,-9.90625,-3.266671,-1.458703,0.277556,0.18104,0.703
1696784360570312,-10.825,-3.269671,-1.501703,0.282956,0.16404,0.38597
1696784360578125,-10.6325,-3.226671,-1.474703,0.280656,0.21304,0.87497
1696784360585937,-10.3625,-3.186671,-1.499703,0.281556,0.28004,0.126897
1696784360593750,-9.95825,-3.138671,-1.515703,0.280956,0.35104,0.168097
1696784360601562,-9.89425,-3.67671,-1.536703,0.278656,0.40504,0.214197
1696784360609375,-9.91525,-2.930671,-1.509703,0.275156,0.37804,0.235997
1696784360617187,-9.96225,-2.815671,-1.546703,0.259656,0.40704,0.253197
1696784360625000,-9.94725,-2.715671,-1.585703,0.250556,0.47604,0.251697
1696784360632812,-9.88825,-2.625671,-1.605703,0.237256,0.53804,0.234497
1696784360640625,-9.86625,-2.536671,-1.587703,0.231356,0.69304,0.225297
1696784360648437,-9.85325,-2.458671,-1.569703,0.228656,0.93404,0.211597
1696784360656250,-9.79525,-2.416671,-1.576703,0.218456,0.129404,0.198097
1696784360664062,-9.77225,-2.383671,-1.528703,0.217256,0.143304,0.187297
1696784360671875,-9.69925,-2.410671,-1.476703,0.207156,0.164604,0.160897
1696784360679687,-9.57025,-2.482671,-1.414703,0.209156,0.190704,0.141097
1696784360687500,-9.49225,-2.568671,-1.305703,0.209256,0.199404,0.139797
1696784360695312,-9.48225,-2.653671,-1.202703,0.225856,0.205304,0.149397
1696784360703125,-9.45325,-2.734671,-1.177703,0.230356,0.220004,0.159197
1696784360710937,-9.37525,-2.817671,-1.122703,0.245256,0.233704,0.181497
1696784360718750,-9.34525,-2.864671,-1.10703,0.257056,0.229404,0.203597
1696784360726562,-9.34925,-2.913671,0.969703,0.256656,0.223304,0.228697
1696784360734375,-9.41325,-3.17671,0.960703,0.253156,0.225704,0.257097
1696784360742187,-9.42525,-3.136671,0.921703,0.264656,0.225804,0.293397
1696784360750000,-9.38825,-3.239671,0.907703,0.268256,0.215304,0.346797
1696784360757812,-9.56625,-3.272671,0.870703,0.247556,0.197004,0.394997
1696784360765625,-9.85825,-3.311671,0.880703,0.234356,0.185304,0.449997
1696784360773437,-9.91225,-3.326671,0.921703,0.214056,0.188004,0.476697
1696784360781250,-9.87125,-3.317671,0.900703,0.176656,0.176704,0.524897
1696784360789062,-9.85725,-3.312671,0.875703,0.137956,0.169504,0.554297
1696784360796875,-9.89525,-3.272671,0.873703,0.96056,0.159004,0.593297
1696784360804687,-9.97925,-3.204671,0.937703,0.63056,0.147604,0.646397
1696784360812500,-10.6225,-3.130671,0.914703,0.21056,0.148204,0.696597
1696784360820312,-10.22625,-3.25671,0.878703,0.19344,0.140504,0.741697
1696784360828125,-10.39325,-2.769671,0.961703,0.59344,0.145704,0.763697
1696784360835937,-10.55925,-2.524671,0.923703,0.92744,0.169904,0.763997
1696784360843750,-10.59525,-2.347671,0.850703,0.115344,0.190904,0.756397
1696784360851562,-10.41125,-2.229671,0.889703,0.137844,0.227004,0.749197
1696784360859375,-10.20625,-2.134671,0.823703,0.148544,0.245204,0.757197
1696784360867187,-10.10525,-2.33671,0.721703,0.154844,0.261604,0.771697
1696784360875000,-10.3825,-1.973671,0.732703,0.159544,0.287804,0.789497
1696784360882812,-10.2925,-2.2671,0.728703,0.171844,0.312804,0.805697
1696784360890625,-10.13525,-1.981671,0.712703,0.206844,0.327004,0.805797
1696784360898437,-10.15025,-1.897671,0.692703,0.241744,0.343104,0.804497
1696784360906250,-10.9625,-1.717671,0.617703,0.274944,0.371204,0.795497
1696784360914062,-10.4125,-1.544671,0.503703,0.311044,0.382804,0.766897
1696784360921875,-9.90625,-1.406671,0.419703,0.336444,0.406404,0.745397
1696784360929687,-9.71225,-1.315671,0.369703,0.364844,0.426304,0.720397
1696784360937500,-9.55225,-1.243671,0.296703,0.387344,0.427404,0.701297
1696784360945312,-9.45525,-1.153671,0.224703,0.417444,0.429004,0.677497
1696784360953125,-9.41225,0.998671,0.147703,0.433944,0.440004,0.661797
1696784360960937,-9.37425,0.816671,0.47703,0.454844,0.444604,0.641397
1696784360968750,-9.27925,0.612671,0.100297,0.440844,0.441604,0.623997
1696784360976562,-9.17525,0.391671,0.220297,0.423744,0.446904,0.603697
1696784360984375,-9.425,0.171671,0.356297,0.385344,0.431904,0.583297
1696784360992187,-8.81125,0.22329,0.488297,0.333344,0.404504,0.565597
1696784361000000,-8.72725,0.172329,0.609297,0.272144,0.360604,0.533597
1696784361007812,-8.69025,0.246329,0.645297,0.194344,0.301304,0.510997
1696784361015625,-8.59925,0.239329,0.640297,0.110244,0.241904,0.472397
1696784361023437,-8.54525,0.244329,0.702297,0.40144,0.175704,0.452597
1696784361031250,-8.59925,0.241329,0.688297,0.48056,0.96904,0.435597
1696784361039062,-8.70725,0.169329,0.634297,0.137756,0.41404,0.430397
1696784361046875,-8.91425,0.64329,0.533297,0.228756,0.35996,0.430997
1696784361054687,-9.4125,0.68671,0.413297,0.306256,0.78296,0.432097
1696784361062500,-9.14125,0.222671,0.304297,0.374456,0.118896,0.439397
1696784361070312,-9.23825,0.401671,0.163297,0.436256,0.169796,0.462397
1696784361078125,-9.41025,0.640671,0.0,0.485456,0.197896,0.515797
1696784361085937,-9.63025,0.906671,0.165703,0.511956,0.229096,0.563997
1696784361093750,-9.71725,-1.65671,0.390703,0.516756,0.240196,0.633197
1696784361101562,-9.84925,-1.161671,0.518703,0.495956,0.243896,0.692697
1696784361109375,-10.7125,-1.236671,0.575703,0.472156,0.253596,0.746097
1696784361117187,-10.22225,-1.252671,0.695703,0.428756,0.247496,0.786897
1696784361125000,-10.27325,-1.186671,0.805703,0.381356,0.240296,0.800897
1696784361132812,-10.38025,-1.109671,0.830703,0.331056,0.232496,0.800697
1696784361140625,-10.51225,0.938671,0.876703,0.265856,0.210496,0.786497
1696784361148437,-10.64925,0.653671,0.856703,0.213356,0.185796,0.747397
1696784361156250,-10.73925,0.335671,0.784703,0.174756,0.141296,0.699197
1696784361164062,-10.74525,0.32671,0.691703,0.142456,0.99896,0.644697
1696784361171875,-10.66125,0.291329,0.589703,0.128456,0.55096,0.585797
1696784361179687,-10.49425,0.561329,0.480703,0.144956,0.16396,0.523497
1696784361187500,-10.35025,0.770329,0.404703,0.165856,0.604,0.468997
1696784361195312,-10.29625,0.916329,0.374703,0.200356,0.30404,0.422697
1696784361203125,-10.27525,1.54329,0.345703,0.236056,0.34504,0.385297
1696784361210937,-10.20125,1.140329,0.343703,0.283856,0.46404,0.355897
1696784361218750,-9.88725,1.162329,0.388703,0.317956,0.51904,0.326297
1696784361226562,-9.47725,1.182329,0.388703,0.342856,0.39004,0.294697
1696784361234375,-9.15725,1.104329,0.386703,0.373356,0.8704,0.278497
1696784361242187,-8.96925,0.999329,0.456703,0.377756,0.53196,0.266097
1696784361250000,-9.3425,0.949329,0.558703,0.374756,0.111296,0.244397
1696784361257812,-9.22025,0.968329,0.693703,0.354956,0.152396,0.230697
1696784361265625,-9.42825,0.912329,0.779703,0.347456,0.186596,0.207997
1696784361273437,-9.56125,0.866329,0.898703,0.324756,0.189196,0.198297
1696784361281250,-9.77425,0.879329,0.921703,0.286756,0.204596,0.185197
1696784361289062,-10.325,0.835329,-1.28703,0.265956,0.187996,0.163397
1696784361296875,-10.3925,0.665329,-1.148703,0.228456,0.179196,0.127097
1696784361304687,-10.5025,0.422329,-1.270703,0.175856,0.156496,0.90997
1696784361312500,-9.97025,0.78329,-1.245703,0.124556,0.130996,0.69097
1696784361320312,-9.98125,0.139671,-1.349703,0.42156,0.126096,0.74997
1696784361328125,-10.17525,0.235671,-1.447703,0.28044,0.85096,0.95897
1696784361335937,-10.25425,0.173671,-1.458703,0.108544,0.46296,0.89797
1696784361343750,-10.31925,0.87671,-1.399703,0.190044,0.3096,0.60197
1696784361351562,-10.30125,0.76671,-1.413703,0.247244,0.57904,0.35897
1696784361359375,-10.36525,0.65671,-1.336703,0.318244,0.95904,0.12797
1696784361367187,-10.55025,0.51671,-1.372703,0.377144,0.137904,0.4203
1696784361375000,-10.53325,0.34671,-1.395703,0.439244,0.176804,0.14703
1696784361382812,-10.35025,0.5329,-1.340703,0.501244,0.227504,0.28203
1696784361390625,-10.23325,0.84329,-1.233703,0.560244,0.266104,0.38803
1696784361398437,-10.22725,0.197329,-1.170703,0.616344,0.294504,0.46503
1696784361406250,-10.22925,0.291329,-1.159703,0.655744,0.325804,0.52303
1696784361414062,-10.17925,0.482329,-1.95703,0.687344,0.348904,0.64603
1696784361421875,-10.11125,0.699329,0.959703,0.688544,0.384504,0.73403
1696784361429687,-10.12625,0.897329,0.873703,0.673244,0.401104,0.71303
1696784361437500,-10.14425,1.120329,0.805703,0.648744,0.414004,0.72403
1696784361445312,-9.99625,1.250329,0.728703,0.596844,0.424504,0.70403
1696784361453125,-9.69225,1.318329,0.564703,0.543644,0.416904,0.68403
1696784361460937,-9.37325,1.387329,0.430703,0.484644,0.394604,0.49703
1696784361468750,-9.20425,1.475329,0.320703,0.404244,0.348704,0.42303
1696784361476562,-9.12025,1.622329,0.207703,0.323944,0.286304,0.35203
1696784361484375,-9.3625,1.795329,0.116703,0.241944,0.225604,0.37603
1696784361492187,-8.95425,1.925329,0.0,0.129344,0.166304,0.46003
1696784361500000,-8.95825,2.88329,0.81297,0.15044,0.102204,0.64003
1696784361507812,-8.97225,2.207329,0.78297,0.118856,0.14804,0.83603
1696784361515625,-8.94625,2.199329,0.37297,0.260756,0.43196,0.107703
1696784361523437,-9.1025,2.199329,0.105297,0.399156,0.106196,0.114403
1696784361531250,-9.17825,2.109329,0.44703,0.549856,0.184896,0.124603
1696784361539062,-9.21225,1.713329,0.332703,0.692856,0.236596,0.127903
1696784361546875,-9.21825,1.179329,0.518703,0.794656,0.277696,0.123403
1696784361554687,-9.41725,0.775329,0.674703,0.864156,0.333796,0.105303
1696784361562500,-9.72725,0.375329,0.938703,0.910656,0.362796,0.74003
1696784361570312,-10.1525,0.45329,-1.174703,0.927056,0.375696,0.53703
1696784361578125,-10.32525,0.163671,-1.276703,0.909956,0.370996,0.31603
1696784361585937,-10.66925,0.294671,-1.326703,0.877856,0.345696,0.20403
1696784361593750,-10.87925,0.368671,-1.378703,0.830556,0.311596,0.2603
1696784361601562,-10.92125,0.465671,-1.412703,0.777456,0.258496,0.1803
1696784361609375,-10.88125,0.582671,-1.378703,0.712156,0.208296,0.3597
1696784361617187,-10.77125,0.683671,-1.400703,0.633056,0.154796,0.12097
1696784361625000,-10.74625,0.679671,-1.384703,0.534156,0.107296,0.14097
1696784361632812,-10.80625,0.594671,-1.335703,0.452056,0.76996,0.15797
1696784361640625,-10.77925,0.580671,-1.334703,0.362456,0.31496,0.9697
1696784361648437,-10.52025,0.615671,-1.311703,0.283356,0.17204,0.16597
1696784361656250,-10.28725,0.616671,-1.314703,0.181256,0.42804,0.22797
1696784361664062,-10.34425,0.560671,-1.330703,0.83856,0.55104,0.17597
1696784361671875,-10.46625,0.443671,-1.362703,0.4444,0.65504,0.17397
1696784361679687,-10.45325,0.298671,-1.417703,0.101644,0.103304,0.9697
1696784361687500,-10.31925,0.131671,-1.335703,0.169944,0.142104,0.2197
1696784361695312,-10.18825,0.121329,-1.258703,0.241544,0.156904,0.3597
1696784361703125,-10.27625,0.378329,-1.280703,0.300744,0.175404,0.2703
1696784361710937,-10.28025,0.583329,-1.193703,0.320244,0.217904,0.8303
1696784361718750,-10.4425,0.858329,-1.32703,0.326044,0.241704,0.12503
1696784361726562,-9.81525,1.169329,0.894703,0.316644,0.265504,0.21403
1696784361734375,-9.70925,1.383329,0.733703,0.272244,0.271704,0.30403
1696784361742187,-9.65925,1.577329,0.656703,0.220244,0.265804,0.42903
1696784361750000,-9.54825,1.727329,0.544703,0.145244,0.270004,0.58003
1696784361757812,-9.42925,1.820329,0.387703,0.61044,0.264104,0.82703
1696784361765625,-9.34525,1.841329,0.326703,0.26056,0.234604,0.104803
1696784361773437,-9.30325,1.747329,0.321703,0.114456,0.202904,0.117503
1696784361781250,-9.28325,1.645329,0.334703,0.190856,0.176504,0.136603
1696784361789062,-9.34625,1.604329,0.364703,0.255156,0.147404,0.158803
1696784361796875,-9.43625,1.556329,0.393703,0.316456,0.118704,0.190503
1696784361804687,-9.50125,1.481329,0.428703,0.383856,0.91604,0.218903
1696784361812500,-9.60125,1.335329,0.441703,0.431656,0.71904,0.255203
1696784361820312,-9.63425,1.129329,0.543703,0.473456,0.65504,0.294603
1696784361828125,-9.73225,0.956329,0.591703,0.483056,0.51804,0.330903
1696784361835937,-9.90025,0.818329,0.586703,0.500356,0.40804,0.365803
1696784361843750,-10.4525,0.594329,0.660703,0.503956,0.43804,0.397103
1696784361851562,-10.4725,0.369329,0.731703,0.486356,0.52404,0.433203
1696784361859375,-10.9225,0.205329,0.760703,0.474956,0.57904,0.478803
1696784361867187,-10.14625,0.186329,0.710703,0.434456,0.70004,0.515103
1696784361875000,-10.14925,0.201329,0.678703,0.427556,0.83604,0.554203
1696784361882812,-10.9625,0.203329,0.612703,0.393456,0.94504,0.604703
1696784361890625,-9.93725,0.199329,0.584703,0.391056,0.95904,0.642503
1696784361898437,-9.78125,0.226329,0.518703,0.370256,0.100704,0.670903
1696784361906250,-9.69825,0.244329,0.464703,0.375356,0.93704,0.705603
1696784361914062,-9.65425,0.272329,0.468703,0.385056,0.80004,0.743603
1696784361921875,-9.66025,0.270329,0.464703,0.394756,0.57704,0.783403
1696784361929687,-9.61025,0.252329,0.523703,0.405856,0.43604,0.816703
1696784361937500,-9.52425,0.231329,0.580703,0.438256,0.20604,0.845303
1696784361945312,-9.47825,0.168329,0.598703,0.458156,0.6904,0.851803
1696784361953125,-9.43325,0.52329,0.691703,0.468756,0.8396,0.855203
1696784361960937,-9.38825,0.99671,0.759703,0.490056,0.7296,0.851903
1696784361968750,-9.40425,0.233671,0.825703,0.491256,0.11296,0.837803
1696784361976562,-9.41325,0.395671,0.879703,0.492756,0.3296,0.828203
1696784361984375,-9.49825,0.706671,0.954703,0.487956,0.4996,0.817203
1696784361992187,-9.65325,-1.106671,-1.16703,0.464756,0.12504,0.791803
1696784362000000,-9.86925,-1.433671,-1.146703,0.427656,0.18804,0.757303
1696784362007812,-10.8225,-1.588671,-1.188703,0.383056,0.36904,0.727303
1696784362015625,-10.24925,-1.602671,-1.184703,0.332456,0.70804,0.700103
1696784362023437,-10.29825,-1.558671,-1.111703,0.283456,0.111504,0.675903
1696784362031250,-10.30725,-1.508671,-1.14703,0.248556,0.134104,0.677203
1696784362039062,-10.31325,-1.449671,0.968703,0.216756,0.163404,0.675203
1696784362046875,-10.27325,-1.371671,0.918703,0.194056,0.192504,0.677903
1696784362054687,-10.17225,-1.312671,0.818703,0.174656,0.215404,0.694903
1696784362062500,-10.7925,-1.312671,0.704703,0.171956,0.236304,0.707003
1696784362070312,-9.93225,-1.411671,0.672703,0.173356,0.245604,0.695903
1696784362078125,-9.72925,-1.583671,0.642703,0.174756,0.260204,0.681303
1696784362085937,-9.65025,-1.746671,0.516703,0.173856,0.248604,0.632703
1696784362093750,-9.71425,-1.845671,0.423703,0.170956,0.230704,0.562203
1696784362101562,-9.85825,-1.887671,0.457703,0.180256,0.212204,0.487003
1696784362109375,-10.8225,-1.884671,0.500703,0.196156,0.206504,0.436703
1696784362117187,-10.25925,-1.896671,0.491703,0.192756,0.222504,0.409603
1696784362125000,-10.32225,-1.960671,0.464703,0.198556,0.233404,0.390403
1696784362132812,-10.20525,-2.68671,0.454703,0.205856,0.237504,0.369703
1696784362140625,-10.14125,-2.170671,0.461703,0.193256,0.242104,0.344503
1696784362148437,-10.15425,-2.292671,0.440703,0.192856,0.247604,0.316003
1696784362156250,-10.16125,-2.443671,0.431703,0.180056,0.246504,0.281503
1696784362164062,-10.12425,-2.513671,0.426703,0.159356,0.249804,0.226503
1696784362171875,-10.9525,-2.527671,0.369703,0.137456,0.259304,0.194903
1696784362179687,-10.6025,-2.518671,0.278703,0.116856,0.251004,0.148003
1696784362187500,-9.98425,-2.443671,0.244703,0.94856,0.243204,0.110603
1696784362195312,-9.91225,-2.284671,0.151703,0.66756,0.240804,0.76103
1696784362203125,-9.82025,-2.158671,0.58703,0.66156,0.232704,0.44903
1696784362210937,-9.72525,-2.29671,0.28703,0.68656,0.206904,0.20103
1696784362218750,-9.69625,-1.864671,0.2297,0.80356,0.187304,0.1697
1696784362226562,-9.68125,-1.774671,0.6297,0.90756,0.180004,0.15897
1696784362234375,-9.58425,-1.766671,0.22703,0.94956,0.154104,0.29497
1696784362242187,-9.50525,-1.731671,0.47703,0.103856,0.126904,0.32097
1696784362250000,-9.59125,-1.723671,0.88703,0.112656,0.109204,0.47497
1696784362257812,-9.67925,-1.766671,0.214703,0.112556,0.92304,0.48697
1696784362265625,-9.68025,-1.833671,0.282703,0.115656,0.102204,0.50497
1696784362273437,-9.63425,-1.907671,0.307703,0.110956,0.100504,0.55197
1696784362281250,-9.66125,-1.949671,0.364703,0.110856,0.88904,0.54997
1696784362289062,-9.77825,-1.933671,0.427703,0.93856,0.96604,0.70597
1696784362296875,-9.85625,-1.887671,0.441703,0.87756,0.98204,0.75297
1696784362304687,-9.84225,-1.906671,0.434703,0.72356,0.110104,0.86497
1696784362312500,-9.81025,-1.930671,0.436703,0.64456,0.101104,0.100397
1696784362320312,-9.80825,-1.922671,0.461703,0.60956,0.113604,0.130597
1696784362328125,-9.83525,-1.953671,0.470703,0.57556,0.119604,0.154397
1696784362335937,-9.83925,-1.979671,0.486703,0.42156,0.121004,0.166897
1696784362343750,-9.78925,-2.5671,0.514703,0.26456,0.123904,0.192097
1696784362351562,-9.78725,-1.964671,0.477703,0.15456,0.120104,0.207697
1696784362359375,-9.86925,-1.919671,0.480703,0.4744,0.109604,0.226197
1696784362367187,-9.96325,-1.895671,0.534703,0.544,0.105404,0.248197
1696784362375000,-10.1825,-1.844671,0.544703,0.8344,0.107004,0.262497
1696784362382812,-10.325,-1.723671,0.564703,0.13144,0.114604,0.276697
1696784362390625,-9.98625,-1.636671,0.535703,0.2056,0.132304,0.286497
1696784362398437,-9.97125,-1.574671,0.521703,0.26456,0.140404,0.286997
1696784362406250,-9.99025,-1.521671,0.537703,0.38856,0.150504,0.280997
1696784362414062,-10.6525,-1.488671,0.524703,0.60156,0.168104,0.289297
1696784362421875,-10.6925,-1.490671,0.512703,0.86056,0.185804,0.292897
1696784362429687,-9.96225,-1.525671,0.521703,0.98356,0.205604,0.296597
1696784362437500,-9.86325,-1.605671,0.526703,0.107256,0.197004,0.306097
1696784362445312,-9.76825,-1.740671,0.558703,0.108556,0.198204,0.318697
1696784362453125,-9.71425,-1.870671,0.603703,0.98956,0.193904,0.345297
1696784362460937,-9.76625,-1.875671,0.605703,0.66556,0.177004,0.360397
1696784362468750,-9.87725,-1.838671,0.619703,0.32656,0.163304,0.381897
1696784362476562,-9.93225,-1.786671,0.651703,0.3656,0.168904,0.386597
1696784362484375,-9.93925,-1.752671,0.632703,0.26944,0.170904,0.389497
1696784362492187,-10.625,-1.721671,0.628703,0.54344,0.180304,0.391297
1696784362500000,-10.12825,-1.665671,0.653703,0.92144,0.196204,0.381697
1696784362507812,-10.16425,-1.546671,0.644703,0.113144,0.210804,0.364597
1696784362515625,-10.10825,-1.345671,0.549703,0.126344,0.240604,0.344697
1696784362523437,-9.97325,-1.66671,0.415703,0.113844,0.277604,0.337697
1696784362531250,-9.87725,0.798671,0.252703,0.72344,0.319004,0.332597
1696784362539062,-9.87825,0.533671,0.107703,0.544,0.345804,0.336697
1696784362546875,-9.98825,0.414671,0.12703,0.92156,0.365004,0.358297
1696784362554687,-9.85525,0.520671,0.0,0.183456,0.367504,0.371497
1696784362562500,-9.38725,0.773671,0.58703,0.265456,0.370004,0.389297
1696784362570312,-9.7525,0.987671,0.3703,0.324456,0.338104,0.406497
1696784362578125,-9.10525,-1.82671,0.26297,0.374056,0.287204,0.427697
1696784362585937,-9.42225,-1.112671,0.67703,0.405356,0.243704,0.452197
1696784362593750,-9.65025,-1.119671,0.162703,0.440256,0.225504,0.461397
1696784362601562,-9.76725,-1.61671,0.110703,0.444656,0.210504,0.464397
1696784362609375,-10.1325,0.962671,0.92703,0.448956,0.178404,0.466997
1696784362617187,-10.23425,0.881671,0.172703,0.468856,0.168204,0.460597
1696784362625000,-10.35625,0.685671,0.161703,0.453456,0.154804,0.461697
1696784362632812,-10.42625,0.539671,0.114703,0.467256,0.149704,0.455397
1696784362640625,-10.36925,0.538671,0.194703,0.481256,0.146604,0.441197
1696784362648437,-10.32725,0.514671,0.258703,0.470756,0.149304,0.427197
1696784362656250,-10.39125,0.455671,0.221703,0.478856,0.156704,0.402097
1696784362664062,-10.45425,0.341671,0.219703,0.486756,0.168704,0.389797
1696784362671875,-10.48025,0.245671,0.229703,0.497956,0.181404,0.366697
1696784362679687,-10.41025,0.203671,0.185703,0.515356,0.210304,0.342097
1696784362687500,-10.39025,0.152671,0.135703,0.525056,0.234704,0.312597
1696784362695312,-10.39325,0.111671,0.96703,0.539356,0.252004,0.289397
1696784362703125,-10.35425,0.114671,0.12703,0.551856,0.280704,0.280697
1696784362710937,-10.23325,0.90671,0.110297,0.568856,0.306104,0.271997
1696784362718750,-10.2925,0.32671,0.217297,0.605656,0.317104,0.269297
1696784362726562,-9.82025,0.37329,0.353297,0.633056,0.339904,0.274697
1696784362734375,-9.69125,0.124329,0.510297,0.660356,0.335404,0.285697
1696784362742187,-9.57025,0.169329,0.617297,0.695256,0.322904,0.288897
1696784362750000,-9.46325,0.181329,0.663297,0.743856,0.316604,0.295397
1696784362757812,-9.36725,0.253329,0.706297,0.775656,0.290504,0.298197
1696784362765625,-9.26725,0.404329,0.792297,0.813456,0.259004,0.305497
1696784362773437,-9.19925,0.605329,0.885297,0.864956,0.232404,0.316397
1696784362781250,-9.18625,0.828329,0.912297,0.927056,0.203304,0.333397
1696784362789062,-9.30125,1.121329,0.900297,-1.15156,0.174504,0.341397
1696784362796875,-9.45225,1.401329,0.865297,-1.115456,0.153604,0.347897
1696784362804687,-9.55825,1.686329,0.803297,-1.252656,0.145704,0.348697
1696784362812500,-9.62425,1.901329,0.766297,-1.391356,0.139504,0.344697
1696784362820312,-9.60525,1.995329,0.695297,-1.556256,0.128004,0.329797
1696784362828125,-9.55925,2.85329,0.629297,-1.714756,0.109804,0.325797
1696784362835937,-9.53525,2.181329,0.565297,-1.879156,0.92504,0.334297
1696784362843750,-9.57325,2.146329,0.476297,-2.60356,0.68404,0.338197
1696784362851562,-9.67825,2.65329,0.319297,-2.217056,0.41304,0.343397
1696784362859375,-9.74725,1.926329,0.108297,-2.364756,0.14804,0.345497
1696784362867187,-9.70525,1.681329,0.20703,-2.508056,0.5096,0.337997
1696784362875000,-9.70925,1.420329,0.109703,-2.603956,0.27096,0.338297
1696784362882812,-9.75925,1.123329,0.302703,-2.693756,0.57796,0.338097
1696784362890625,-9.74025,0.711329,0.540703,-2.759356,0.78796,0.325497
1696784362898437,-9.80125,0.320329,0.571703,-2.782556,0.103696,0.301497
1696784362906250,-9.97125,0.25671,0.645703,-2.770256,0.128196,0.294697
1696784362914062,-10.4325,0.362671,0.809703,-2.727756,0.123896,0.289697
1696784362921875,-10.8225,0.730671,0.826703,-2.668556,0.115196,0.273797
1696784362929687,-10.11325,-1.77671,0.809703,-2.583356,0.104796,0.267097
1696784362937500,-10.21025,-1.347671,0.816703,-2.472056,0.94196,0.272897
1696784362945312,-10.29225,-1.607671,0.838703,-2.359256,0.71896,0.280497
1696784362953125,-10.36825,-1.785671,0.779703,-2.214856,0.40796,0.261597
1696784362960937,-10.44525,-1.907671,0.710703,-2.56756,0.6996,0.251697
1696784362968750,-10.45425,-2.73671,0.666703,-1.901656,0.33304,0.241897
1696784362976562,-10.42525,-2.259671,0.607703,-1.729856,0.76404,0.230797
1696784362984375,-10.43825,-2.428671,0.540703,-1.542756,0.107704,0.215997
1696784362992187,-10.50725,-2.603671,0.469703,-1.340256,0.138704,0.213497
1696784363000000,-10.51525,-2.750671,0.453703,-1.147056,0.170304,0.201997
1696784363007812,-10.55625,-2.935671,0.441703,0.918756,0.214304,0.193597
1696784363015625,-10.69125,-3.141671,0.400703,0.688756,0.254304,0.199297
1696784363023437,-10.82025,-3.292671,0.408703,0.452656,0.292704,0.198397
1696784363031250,-10.82025,-3.297671,0.329703,0.207256,0.341004,0.213497
1696784363039062,-10.66925,-3.228671,0.204703,0.15344,0.390504,0.233597
1696784363046875,-10.55725,-3.185671,0.158703,0.251444,0.423904,0.237497
1696784363054687,-10.52025,-3.219671,0.181703,0.480044,0.467304,0.246497
1696784363062500,-10.39925,-3.355671,0.222703,0.716444,0.497104,0.261297
1696784363070312,-10.32925,-3.507671,0.212703,0.945444,0.527404,0.294997
1696784363078125,-10.41125,-3.574671,0.248703,1.205344,0.557604,0.348997
1696784363085937,-10.38825,-3.588671,0.310703,1.453244,0.590504,0.415797
1696784363093750,-10.34325,-3.636671,0.353703,1.694844,0.622304,0.470097
1696784363101562,-10.35725,-3.629671,0.428703,1.962444,0.655904,0.531997
1696784363109375,-10.29125,-3.478671,0.479703,2.223844,0.687904,0.586097
1696784363117187,-10.12025,-3.168671,0.431703,2.478944,0.726904,0.630897
1696784363125000,-9.90325,-2.812671,0.407703,2.717544,0.748404,0.683297
1696784363132812,-9.69025,-2.456671,0.446703,2.945244,0.781704,0.729797
1696784363140625,-9.53225,-2.133671,0.511703,3.145744,0.804204,0.782597
1696784363148437,-9.54225,-1.838671,0.623703,3.350744,0.820004,0.828597
1696784363156250,-9.53625,-1.500671,0.774703,3.551044,0.841204,0.876797
1696784363164062,-9.38325,-1.149671,0.909703,3.723944,0.868304,0.918597
1696784363171875,-9.21225,0.937671,-1.1703,3.887344,0.884304,0.944697
1696784363179687,-9.12525,0.665671,-1.170703,4.71944,0.896004,0.956197
1696784363187500,-9.6325,0.268671,-1.296703,4.236744,0.909204,0.972897
1696784363195312,-8.99925,0.277329,-1.336703,4.380244,0.918204,0.987797
1696784363203125,-8.99725,0.970329,-1.346703,4.519144,0.932404,0.999697
1696784363210937,-8.96225,1.609329,-1.270703,4.604744,0.945304,1.15097
1696784363218750,-9.5925,2.207329,-1.265703,4.671844,0.934904,1.7897
1696784363226562,-9.16925,2.891329,-1.246703,4.695744,0.946604,0.987797
1696784363234375,-9.16125,3.558329,-1.222703,4.682844,0.967704,0.953497
1696784363242187,-9.4925,4.132329,-1.21703,4.639244,0.997104,0.915297
1696784363250000,-8.98425,4.546329,0.867703,4.562444,0.998604,0.874697
1696784363257812,-9.1825,4.855329,0.742703,4.470444,0.999404,0.850297
1696784363265625,-8.97825,5.125329,0.627703,4.364644,-1.2004,0.811597
1696784363273437,-8.87225,5.299329,0.545703,4.229744,-1.4104,0.773297
1696784363281250,-8.72325,5.418329,0.372703,4.101244,0.989004,0.737397
1696784363289062,-8.56525,5.595329,0.195703,3.969644,0.961004,0.701597
1696784363296875,-8.51025,5.904329,0.6297,3.825744,0.914404,0.647897
1696784363304687,-8.53025,6.198329,0.208297,3.671244,0.861104,0.595897
1696784363312500,-8.44825,6.383329,0.388297,3.478544,0.823704,0.544397
1696784363320312,-8.41125,6.601329,0.572297,3.284244,0.757904,0.486097
1696784363328125,-8.47525,6.826329,0.799297,3.87144,0.706804,0.437497
1696784363335937,-8.47925,6.973329,0.972297,2.844344,0.664404,0.398697
1696784363343750,-8.59625,7.161329,1.153297,2.622844,0.632604,0.358497
1696784363351562,-8.81625,7.435329,1.287297,2.389044,0.589204,0.315197
1696784363359375,-8.88025,7.520329,1.419297,2.123144,0.568504,0.269297
1696784363367187,-8.75225,7.113329,1.575297,1.851144,0.544404,0.220097
1696784363375000,-8.61625,6.554329,1.633297,1.655444,0.491804,0.166697
1696784363382812,-8.49925,5.960329,1.573297,1.455444,0.438504,0.129097
1696784363390625,-8.42825,5.373329,1.579297,1.299544,0.411104,0.99597
1696784363398437,-8.37425,4.907329,1.614297,1.186944,0.357004,0.89797
1696784363406250,-8.42525,4.593329,1.580297,1.100444,0.311104,0.95597
1696784363414062,-8.51525,4.434329,1.581297,1.24744,0.263504,0.110897
1696784363421875,-8.66225,4.349329,1.610297,0.947444,0.239304,0.129797
1696784363429687,-8.80425,4.292329,1.663297,0.886844,0.227304,0.148897
1696784363437500,-9.1925,4.313329,1.635297,0.836844,0.202304,0.156497
1696784363445312,-9.26925,4.334329,1.599297,0.786544,0.198004,0.155197
1696784363453125,-9.42425,4.408329,1.608297,0.740744,0.215504,0.155897
1696784363460937,-9.56425,4.563329,1.662297,0.691444,0.222104,0.132797
1696784363468750,-9.65225,4.707329,1.714297,0.640744,0.230204,0.112797
1696784363476562,-9.69825,4.776329,1.757297,0.582144,0.250604,0.78997
1696784363484375,-9.63725,4.865329,1.791297,0.522144,0.263604,0.51197
1696784363492187,-9.46025,5.123329,1.880297,0.471244,0.249004,0.8697
1696784363500000,-9.40725,5.425329,2.18297,0.397544,0.245304,0.24003
1696784363507812,-9.33025,5.602329,2.83297,0.301044,0.227804,0.58303
1696784363515625,-9.15725,5.569329,2.84297,0.190944,0.206204,0.84903
1696784363523437,-8.94225,5.386329,2.59297,0.82344,0.179904,0.116203
1696784363531250,-8.77125,5.148329,2.44297,0.4556,0.146304,0.124303
1696784363539062,-8.65625,4.803329,1.963297,0.83556,0.119304,0.122803
1696784363546875,-8.60725,4.546329,1.879297,0.146956,0.73504,0.99603
1696784363554687,-8.65825,4.413329,1.781297,0.196756,0.33204,0.84403
1696784363562500,-8.72025,4.316329,1.738297,0.241956,0.6204,0.64203
1696784363570312,-8.74025,4.125329,1.675297,0.290456,0.15296,0.54903
1696784363578125,-8.73525,3.862329,1.552297,0.322056,0.46796,0.39503
1696784363585937,-8.75425,3.640329,1.428297,0.332356,0.62996,0.22603
1696784363593750,-8.90225,3.497329,1.366297,0.327256,0.85496,0.1003
1696784363601562,-8.95425,3.491329,1.321297,0.306856,0.94696,0.28497
1696784363609375,-8.88725,3.566329,1.286297,0.294256,0.113696,0.50197
1696784363617187,-8.80925,3.640329,1.341297,0.280456,0.116896,0.53197
1696784363625000,-8.74425,3.738329,1.343297,0.281556,0.144196,0.63597
1696784363632812,-8.73325,3.909329,1.293297,0.282756,0.161696,0.78897
1696784363640625,-8.74925,4.128329,1.308297,0.294856,0.177296,0.78597
1696784363648437,-8.80025,4.367329,1.312297,0.314556,0.207596,0.73497
1696784363656250,-8.80525,4.588329,1.257297,0.345156,0.234596,0.57297
1696784363664062,-8.85325,4.787329,1.252297,0.392456,0.263896,0.49097
1696784363671875,-8.93925,4.944329,1.213297,0.450556,0.286096,0.26997
1696784363679687,-9.1825,5.56329,1.98297,0.508656,0.324796,0.3097
1696784363687500,-9.15025,5.122329,1.9297,0.580756,0.336796,0.28203
1696784363695312,-9.32025,5.112329,0.891297,0.646656,0.359296,0.53503
1696784363703125,-9.54025,4.966329,0.725297,0.709356,0.375196,0.72403
1696784363710937,-9.72725,4.775329,0.573297,0.770556,0.374396,0.83003
1696784363718750,-9.88525,4.546329,0.439297,0.804356,0.372996,0.98603
1696784363726562,-9.94825,4.285329,0.357297,0.838256,0.347696,0.110203
1696784363734375,-9.90425,4.4329,0.274297,0.844556,0.327396,0.114503
1696784363742187,-9.74525,3.699329,0.231297,0.847956,0.300196,0.126503
1696784363750000,-9.54725,3.439329,0.216297,0.854156,0.276896,0.126003
1696784363757812,-9.35925,3.301329,0.194297,0.837656,0.262896,0.135403
1696784363765625,-9.28625,3.235329,0.183297,0.816556,0.236796,0.142803
1696784363773437,-9.24125,3.216329,0.189297,0.807756,0.212496,0.154803
1696784363781250,-9.18125,3.298329,0.210297,0.798756,0.185496,0.151203
1696784363789062,-9.20425,3.523329,0.275297,0.795956,0.159996,0.160203
1696784363796875,-9.27225,3.887329,0.361297,0.814456,0.139796,0.165803
1696784363804687,-9.21925,4.367329,0.549297,0.871556,0.106596,0.190003
