time,Acceleration X (m/s^2),Acceleration Y (m/s^2),Acceleration Z (m/s^2),Angular Velocity X (rad/s),Angular Velocity Y (rad/s),Angular Velocity Z (rad/s)
1700498747000000,-9.658775,1.541465,-0.041051,,,
1700498747007812,-9.649775,0.615605,1.521465,0.2285,0.42651,0.19694
1700498747015625,-9.658775,0.620605,1.518465,0.215,0.43151,0.24794
1700498747023437,-9.663775,0.631605,1.523465,0.1085,0.40751,0.21194
1700498747031250,-9.658775,0.640605,1.521465,0.2185,0.44251,0.19694
1700498747039062,-9.661775,0.642605,1.509465,0.985,0.39251,0.16394
1700498747054687,-9.651775,0.598605,1.484465,0.385,0.46251,0.14994
1700498747062500,-9.647775,0.608605,1.512465,0.2885,0.48851,0.16294
1700498747070312,-9.642775,0.617605,1.599465,0.1085,0.47351,0.16394
1700498747078125,-9.635775,0.602605,1.563465,0.1415,0.39751,0.16694
1700498747101562,-9.587775,0.643605,1.462465,0.13315,0.35951,0.22994
1700498747109375,-9.611775,0.632605,1.473465,0.685,0.31151,0.21294
1700498747117187,-9.630775,0.589605,1.457465,0.1885,0.19951,0.26094
1700498747125000,-9.635775,0.553605,1.527465,0.1815,0.20951,0.24194
1700498747132812,-9.639775,0.557605,1.561465,0.1815,0.19451,0.14594
1700498747140625,-9.628775,0.591605,1.530465,0.5785,0.19651,0.16194
1700498747148437,-9.619775,0.602605,1.509465,0.14885,0.13351,0.12994
1700498747156250,-9.637775,0.588605,1.500465,0.24785,0.14551,0.17494
1700498747164062,-9.635775,0.588605,1.503465,0.7985,0.12651,0.17494
1700498747171875,-9.644775,0.613605,1.502465,0.685,0.16551,0.19594
1700498747179687,-9.667775,0.613605,1.518465,0.3485,0.15851,0.12694
1700498747187500,-9.685775,0.607605,1.503465,0.1685,0.16051,0.7994
1700498747195312,-9.678775,0.605605,1.469465,0.7485,0.14751,0.9694
1700498747203125,-9.680775,0.602605,1.480465,0.7485,0.21251,0.8094
1700498747210937,-9.669775,0.598605,1.478465,0.2185,0.26551,0.8394
1700498747218750,-9.669775,0.600605,1.489465,0.10785,0.27751,0.9694
1700498747226562,-9.665775,0.595605,1.496465,0.4685,0.32451,0.8094
1700498747234375,-9.657775,0.589605,1.478465,0.485,0.31451,0.11694
1700498747242187,-9.649775,0.599605,1.489465,0.1585,0.29051,0.16094
1700498747250000,-9.653775,0.595605,1.475465,0.2085,0.34551,0.21294
1700498747257812,-9.636775,0.606605,1.473465,0.4585,0.38851,0.19394
1700498747265625,-9.642775,0.604605,1.484465,0.3185,0.34851,0.24694
1700498747273437,-9.654775,0.602605,1.500465,0.6285,0.33951,0.14494
1700498747281250,-9.651775,0.606605,1.507465,0.5485,0.31051,0.29194
1700498747289062,-9.658775,0.604605,1.500465,0.15085,0.30951,0.28994
1700498747296875,-9.656775,0.602605,1.500465,0.9285,0.32251,0.24094
1700498747304687,-9.653775,0.604605,1.516465,0.13385,0.27951,0.16194
1700498747312500,-9.658775,0.609605,1.521465,0.21085,0.29551,0.20994
1700498747320312,-9.658775,0.606605,1.509465,0.26885,0.25651,0.17394
1700498747328125,-9.658775,0.606605,1.509465,0.27785,0.34051,0.25594
1700498747335937,-9.651775,0.604605,1.516465,0.12685,0.28851,0.22394
1700498747343750,-9.649775,0.602605,1.523465,0.18985,0.27251,0.17494
1700498747351562,-9.635775,0.611605,1.509465,0.14885,0.29551,0.19494
1700498747359375,-9.645775,0.603605,1.500465,0.23285,0.20051,0.13794
1700498747367187,-9.654775,0.613605,1.500465,0.20585,0.33851,0.17494
1700498747375000,-9.660775,0.615605,1.503465,0.21685,0.39151,0.9694
1700498747382812,-9.669775,0.609605,1.509465,0.22185,0.25651,0.15794
1700498747390625,-9.674775,0.595605,1.521465,0.10085,0.35251,0.10994
1700498747398437,-9.651775,0.606605,1.485465,0.3385,0.38751,0.11294
1700498747406250,-9.649775,0.606605,1.500465,0.15285,0.42451,0.11394
1700498747414062,-9.633775,0.597605,1.493465,0.20985,0.36251,0.14694
1700498747421875,-9.651775,0.611605,1.478465,0.17085,0.36851,0.13394
1700498747429687,-9.671775,0.605605,1.496465,0.27385,0.26451,0.12894
1700498747437500,-9.676775,0.605605,1.503465,0.19985,0.26251,0.7994
1700498747445312,-9.676775,0.611605,1.521465,0.20485,0.25751,0.14294
1700498747453125,-9.676775,0.631605,1.521465,0.20285,0.29051,0.20794
1700498747460937,-9.674775,0.624605,1.512465,0.12085,0.29451,0.12994
1700498747468750,-9.669775,0.620605,1.503465,0.12185,0.32751,0.8194
1700498747476562,-9.690775,0.618605,1.514465,0.20085,0.37551,0.12894
1700498747484375,-9.683775,0.616605,1.512465,0.14685,0.39551,0.14794
1700498747492187,-9.667775,0.615605,1.476465,0.16885,0.39151,0.11294
1700498747500000,-9.638775,0.599605,1.478465,0.26485,0.43951,0.11194
1700498747507812,-9.634775,0.606605,1.485465,0.25685,0.41751,0.10894
1700498747515625,-9.631775,0.601605,1.500465,0.26485,0.48851,0.7994
1700498747523437,-9.622775,0.608605,1.512465,0.28885,0.40151,0.10894
1700498747531250,-9.606775,0.612605,1.494465,0.26385,0.39151,0.9594
1700498747539062,-9.609775,0.619605,1.498465,0.28185,0.37251,0.14294
1700498747546875,-9.620775,0.619605,1.518465,0.28085,0.40551,0.19094
1700498747554687,-9.629775,0.610605,1.532465,0.26285,0.39151,0.12794
1700498747562500,-9.642775,0.597605,1.534465,0.28285,0.38951,0.12694
1700498747570312,-9.626775,0.599605,1.539465,0.26685,0.42151,0.11094
1700498747578125,-9.640775,0.597605,1.532465,0.28085,0.43851,0.19194
1700498747585937,-9.631775,0.602605,1.541465,0.34285,0.35951,0.7894
1700498747593750,-9.649775,0.610605,1.545465,0.38285,0.38551,0.12394
1700498747601562,-9.642775,0.601605,1.523465,0.33285,0.37051,0.17294
1700498747609375,-9.640775,0.603605,1.509465,0.32185,0.33451,0.10694
1700498747617187,-9.627775,0.601605,1.516465,0.26985,0.33851,0.9394
1700498747625000,-9.636775,0.612605,1.525465,0.28685,0.35351,0.12494
1700498747632812,-9.631775,0.610605,1.527465,0.28885,0.25451,0.15594
1700498747640625,-9.634775,0.621605,1.509465,0.25585,0.30451,0.12494
1700498747648437,-9.638775,0.632605,1.521465,0.27485,0.30151,0.12394
1700498747656250,-9.647775,0.637605,1.523465,0.25185,0.30551,0.23894
1700498747664062,-9.654775,0.639605,1.518465,0.18785,0.22451,0.20694
1700498747671875,-9.661775,0.655605,1.521465,0.18685,0.27551,0.15994
1700498747679687,-9.659775,0.671605,1.514465,0.19885,0.27651,0.25694
1700498747687500,-9.664775,0.668605,1.541465,0.9585,0.33651,0.23994
1700498747695312,-9.659775,0.675605,1.552465,0.3085,0.33951,0.20994
1700498747703125,-9.665775,0.664605,1.550465,0.8585,0.27951,0.22694
1700498747710937,-9.673775,0.657605,1.548465,0.6685,0.31851,0.22294
1700498747718750,-9.681775,0.671605,1.530465,0.1385,0.27551,0.19394
1700498747726562,-9.675775,0.657605,1.543465,0.3485,0.35351,0.17594
1700498747734375,-9.668775,0.660605,1.543465,0.415,0.25851,0.27494
1700498747742187,-9.664775,0.657605,1.554465,0.2085,0.26851,0.31994
1700498747750000,-9.663775,0.644605,1.557465,0.2885,0.32251,0.27394
1700498747757812,-9.656775,0.633605,1.554465,0.985,0.27651,0.27494
1700498747765625,-9.649775,0.619605,1.545465,0.2685,0.32451,0.27494
1700498747773437,-9.642775,0.613605,1.521465,0.785,0.32651,0.27594
1700498747781250,-9.635775,0.597605,1.516465,0.2115,0.30851,0.27594
1700498747789062,-9.617775,0.583605,1.480465,0.2015,0.30751,0.30794
1700498747796875,-9.610775,0.575605,1.480465,0.8415,0.27551,0.29294
1700498747804687,-9.619775,0.572605,1.498465,0.14215,0.22451,0.24294
1700498747812500,-9.626775,0.571605,1.516465,0.4415,0.24751,0.32594
1700498747820312,-9.651775,0.575605,1.536465,0.7315,0.19651,0.34094
1700498747828125,-9.660775,0.571605,1.539465,0.1015,0.26251,0.29294
1700498747835937,-9.664775,0.569605,1.545465,0.1115,0.26351,0.27694
1700498747843750,-9.673775,0.580605,1.548465,0.2885,0.32251,0.28994
1700498747851562,-9.675775,0.573605,1.543465,0.2215,0.34151,0.29194
1700498747859375,-9.682775,0.549605,1.541465,0.1685,0.31951,0.28894
1700498747867187,-9.689775,0.540605,1.532465,0.1485,0.33751,0.30594
1700498747875000,-9.668775,0.546605,1.507465,0.3085,0.38651,0.24194
1700498747882812,-9.646775,0.539605,1.514465,0.4685,0.37051,0.24094
1700498747890625,-9.646775,0.560605,1.568465,0.1285,0.35651,0.21094
1700498747898437,-9.637775,0.535605,1.548465,0.3385,0.27251,0.14394
1700498747906250,-9.630775,0.537605,1.509465,0.1415,0.22351,0.20894
1700498747914062,-9.619775,0.559605,1.541465,0.1085,0.32551,0.21094
1700498747921875,-9.615775,0.566605,1.514465,0.1285,0.19251,0.27394
1700498747929687,-9.626775,0.564605,1.487465,0.7585,0.27551,0.20894
1700498747937500,-9.637775,0.540605,1.503465,0.6985,0.29551,0.22794
1700498747945312,-9.627775,0.526605,1.525465,0.2685,0.27651,0.22694
1700498747953125,-9.623775,0.555605,1.595465,0.10485,0.37451,0.21094
1700498747960937,-9.621775,0.546605,1.579465,0.19985,0.26051,0.19294
1700498747968750,-9.614775,0.544605,1.516465,0.28085,0.16151,0.17394
1700498747976562,-9.621775,0.546605,1.527465,0.24985,0.12851,0.17394
1700498747984375,-9.657775,0.566605,1.568465,0.23485,0.11151,0.17394
1700498747992187,-9.682775,0.566605,1.554465,0.25685,0.10851,0.13994
1700498748000000,-9.691775,0.556605,1.559465,0.9285,0.6351,0.12794
1700498748007812,-9.709775,0.570605,1.566465,0.1815,0.11451,0.9794
1700498748015625,-9.700775,0.567605,1.536465,0.1485,0.16251,0.8094
1700498748023437,-9.687775,0.571605,1.516465,0.1985,0.20751,0.9594
1700498748031250,-9.666775,0.569605,1.516465,0.1585,0.27551,0.8094
1700498748039062,-9.655775,0.564605,1.512465,0.1785,0.20851,0.9594
1700498748046875,-9.646775,0.551605,1.514465,0.1585,0.29151,0.8094
1700498748054687,-9.653775,0.546605,1.527465,0.3015,0.30651,0.11394
1700498748062500,-9.662775,0.549605,1.525465,0.3415,0.34251,0.13094
1700498748070312,-9.657775,0.547605,1.500465,0.2115,0.23051,0.9894
1700498748078125,-9.666775,0.549605,1.507465,0.615,0.32851,0.8394
1700498748085937,-9.657775,0.547605,1.523465,0.5215,0.35951,0.14794
1700498748093750,-9.657775,0.544605,1.532465,0.1585,0.33951,0.12894
1700498748101562,-9.675775,0.542605,1.539465,0.2585,0.35951,0.13094
1700498748109375,-9.673775,0.546605,1.536465,0.1015,0.30451,0.9594
1700498748117187,-9.671775,0.544605,1.545465,0.1615,0.39051,0.8194
1700498748125000,-9.675775,0.540605,1.539465,0.2685,0.40951,0.9994
1700498748132812,-9.659775,0.553605,1.536465,0.1285,0.44051,0.8294
1700498748140625,-9.677775,0.549605,1.548465,0.3285,0.42151,0.8094
1700498748148437,-9.675775,0.549605,1.561465,0.1185,0.44251,0.1894
1700498748156250,-9.684775,0.547605,1.566465,0.2485,0.44351,0.5194
1700498748164062,-9.677775,0.553605,1.584465,0.4515,0.38851,0.6594
1700498748171875,-9.675775,0.560605,1.575465,0.2415,0.41151,0.10094
1700498748179687,-9.671775,0.560605,1.561465,0.3185,0.37451,0.4994
1700498748187500,-9.664775,0.554605,1.554465,0.485,0.39851,0.2194
1700498748195312,-9.639775,0.562605,1.548465,0.2685,0.37651,0.8294
1700498748203125,-9.637775,0.544605,1.572465,0.4085,0.42751,0.8394
1700498748210937,-9.648775,0.546605,1.595465,0.4685,0.42351,0.6594
1700498748218750,-9.641775,0.533605,1.608465,0.13985,0.48851,0.6494
1700498748226562,-9.614775,0.537605,1.552465,0.3485,0.42051,0.6494
1700498748234375,-9.585775,0.543605,1.545465,0.5685,0.42751,0.6794
1700498748242187,-9.552775,0.567605,1.568465,0.13185,0.42851,0.9994
1700498748250000,-9.556775,0.576605,1.575465,0.21885,0.42351,0.7994
1700498748257812,-9.570775,0.574605,1.568465,0.20085,0.39151,0.9694
1700498748265625,-9.584775,0.581605,1.563465,0.14485,0.32251,0.7894
1700498748273437,-9.593775,0.581605,1.572465,0.12785,0.32351,0.6394
1700498748281250,-9.606775,0.586605,1.561465,0.15185,0.24751,0.3294
1700498748289062,-9.622775,0.579605,1.566465,0.20885,0.19151,0.4494
1700498748296875,-9.640775,0.584605,1.586465,0.22685,0.23751,0.9194
1700498748304687,-9.656775,0.586605,1.608465,0.28585,0.28951,0.7694
1700498748312500,-9.662775,0.586605,1.597465,0.26885,0.25851,0.9394
1700498748320312,-9.658775,0.580605,1.570465,0.28285,0.19451,0.9394
1700498748328125,-9.644775,0.582605,1.570465,0.21785,0.22851,0.7894
1700498748335937,-9.642775,0.579605,1.572465,0.26685,0.27651,0.6194
1700498748343750,-9.624775,0.586605,1.550465,0.23885,0.28951,0.9394
1700498748351562,-9.631775,0.595605,1.521465,0.21785,0.24451,0.9594
1700498748359375,-9.617775,0.599605,1.509465,0.24585,0.23051,0.7994
1700498748367187,-9.615775,0.599605,1.500465,0.28085,0.25951,0.14294
1700498748375000,-9.615775,0.595605,1.498465,0.26285,0.18051,0.11094
1700498748382812,-9.617775,0.601605,1.498465,0.28385,0.12851,0.7694
1700498748390625,-9.631775,0.593605,1.505465,0.29685,0.16251,0.7794
1700498748398437,-9.640775,0.600605,1.505465,0.26285,0.21351,0.11194
1700498748406250,-9.629775,0.604605,1.527465,0.27785,0.24551,0.12794
1700498748414062,-9.633775,0.604605,1.521465,0.24385,0.21451,0.17694
1700498748421875,-9.635775,0.611605,1.530465,0.24685,0.24551,0.9594
1700498748429687,-9.638775,0.609605,1.536465,0.18085,0.21551,0.8194
1700498748437500,-9.649775,0.604605,1.516465,0.24885,0.16251,0.11094
1700498748445312,-9.658775,0.598605,1.512465,0.26285,0.11451,0.12694
1700498748453125,-9.640775,0.606605,1.503465,0.28085,0.16051,0.20594
1700498748460937,-9.640775,0.599605,1.507465,0.24985,0.16051,0.19094
1700498748468750,-9.638775,0.617605,1.516465,0.25885,0.9951,0.23994
1700498748476562,-9.635775,0.615605,1.512465,0.20985,0.16651,0.22594
1700498748484375,-9.626775,0.613605,1.512465,0.16585,0.13251,0.19294
1700498748492187,-9.633775,0.617605,1.518465,0.13785,0.21151,0.19294
1700498748500000,-9.651775,0.615605,1.514465,0.16985,0.19551,0.14394
1700498748507812,-9.649775,0.618605,1.512465,0.14785,0.26451,0.13094
1700498748515625,-9.656775,0.613605,1.507465,0.11485,0.20151,0.8394
1700498748523437,-9.660775,0.618605,1.534465,0.11885,0.19751,0.14594
1700498748531250,-9.663775,0.615605,1.545465,0.4485,0.21151,0.14594
1700498748539062,-9.658775,0.604605,1.539465,0.6185,0.29051,0.24094
1700498748546875,-9.658775,0.604605,1.536465,0.1185,0.26051,0.21094
1700498748554687,-9.658775,0.602605,1.523465,0.3085,0.25751,0.22494
1700498748562500,-9.658775,0.604605,1.541465,0.1685,0.23951,0.24094
1700498748570312,-9.660775,0.602605,1.543465,0.2985,0.27351,0.27394
1700498748578125,-9.665775,0.604605,1.575465,0.1385,0.28951,0.25794
1700498748585937,-9.672775,0.602605,1.570465,0.3285,0.30351,0.27294
1700498748593750,-9.669775,0.607605,1.545465,0.285,0.24851,0.27794
1700498748601562,-9.667775,0.607605,1.536465,0.2485,0.26151,0.21094
1700498748609375,-9.649775,0.586605,1.514465,0.885,0.19751,0.17894
1700498748617187,-9.633775,0.584605,1.503465,0.2485,0.24451,0.24294
1700498748625000,-9.628775,0.586605,1.505465,0.3985,0.32651,0.24394
1700498748632812,-9.626775,0.582605,1.498465,0.3485,0.23251,0.24494
1700498748640625,-9.628775,0.582605,1.507465,0.2685,0.19451,0.25794
1700498748648437,-9.635775,0.579605,1.530465,0.3185,0.30551,0.25694
1700498748656250,-9.640775,0.582605,1.534465,0.1085,0.27451,0.30694
1700498748664062,-9.651775,0.580605,1.545465,0.13885,0.24251,0.22494
1700498748671875,-9.662775,0.593605,1.557465,0.18085,0.24651,0.17794
1700498748679687,-9.649775,0.599605,1.541465,0.11185,0.23951,0.20794
1700498748687500,-9.658775,0.591605,1.536465,0.9485,0.25751,0.15994
1700498748695312,-9.649775,0.582605,1.534465,0.4485,0.30851,0.16194
1700498748703125,-9.653775,0.564605,1.532465,0.16985,0.29151,0.19194
1700498748710937,-9.662775,0.564605,1.521465,0.18485,0.39051,0.20894
1700498748718750,-9.662775,0.558605,1.557465,0.19785,0.42451,0.22594
1700498748726562,-9.673775,0.564605,1.590465,0.26385,0.42351,0.17594
1700498748734375,-9.648775,0.542605,1.545465,0.10785,0.30851,0.17694
1700498748742187,-9.637775,0.535605,1.507465,0.5785,0.22751,0.24194
1700498748750000,-9.644775,0.569605,1.543465,0.18185,0.19651,0.25694
1700498748757812,-9.639775,0.566605,1.534465,0.13985,0.27351,0.25594
1700498748765625,-9.637775,0.577605,1.498465,0.17085,0.20851,0.28794
1700498748773437,-9.630775,0.575605,1.527465,0.13485,0.19551,0.24194
1700498748781250,-9.633775,0.570605,1.541465,0.11185,0.23851,0.27094
1700498748789062,-9.619775,0.579605,1.606465,0.26285,0.24451,0.15894
1700498748796875,-9.601775,0.575605,1.592465,0.25385,0.15251,0.16194
1700498748804687,-9.588775,0.545605,1.521465,0.31785,0.9351,0.12394
1700498748812500,-9.612775,0.543605,1.527465,0.31485,0.6351,0.9194
1700498748820312,-9.650775,0.553605,1.570465,0.25685,0.13451,0.16094
1700498748828125,-9.673775,0.573605,1.554465,0.24785,0.4751,0.18994
1700498748835937,-9.671775,0.582605,1.548465,0.7485,0.12951,0.19294
1700498748843750,-9.683775,0.580605,1.545465,0.1985,0.10751,0.23894
1700498748851562,-9.667775,0.578605,1.514465,0.3285,0.12651,0.15994
1700498748859375,-9.658775,0.575605,1.518465,0.1685,0.12651,0.15994
1700498748867187,-9.659775,0.560605,1.516465,0.1385,0.24451,0.11394
1700498748875000,-9.664775,0.555605,1.505465,0.3585,0.19151,0.7894
1700498748882812,-9.659775,0.551605,1.503465,0.4385,0.24551,0.8194
1700498748890625,-9.655775,0.546605,1.527465,0.1785,0.22351,0.20794
1700498748898437,-9.641775,0.544605,1.521465,0.2885,0.25851,0.22594
1700498748906250,-9.642775,0.546605,1.518465,0.2085,0.26951,0.22394
1700498748914062,-9.628775,0.555605,1.507465,0.2985,0.25851,0.17794
1700498748921875,-9.621775,0.541605,1.505465,0.1485,0.30651,0.22594
1700498748929687,-9.623775,0.544605,1.500465,0.2985,0.30651,0.24194
1700498748937500,-9.639775,0.531605,1.505465,0.1385,0.27351,0.27394
1700498748945312,-9.643775,0.526605,1.505465,0.2985,0.27351,0.25794
1700498748953125,-9.655775,0.533605,1.523465,0.5985,0.29151,0.22594
1700498748960937,-9.657775,0.524605,1.534465,0.3185,0.24151,0.16094
1700498748968750,-9.663775,0.527605,1.518465,0.5485,0.23051,0.21094
1700498748976562,-9.668775,0.511605,1.507465,0.12285,0.24251,0.22494
1700498748984375,-9.668775,0.513605,1.509465,0.13785,0.27651,0.17694
1700498748992187,-9.672775,0.518605,1.500465,0.13885,0.29351,0.11294
1700498749000000,-9.668775,0.509605,1.498465,0.20585,0.29051,0.7894
1700498749007812,-9.663775,0.511605,1.494465,0.21685,0.27751,0.11194
1700498749015625,-9.657775,0.529605,1.498465,0.10885,0.29051,0.22494
1700498749023437,-9.657775,0.542605,1.500465,0.22185,0.27251,0.15794
1700498749031250,-9.659775,0.544605,1.518465,0.28485,0.32251,0.14194
1700498749039062,-9.666775,0.553605,1.541465,0.27285,0.38551,0.9294
1700498749046875,-9.691775,0.549605,1.568465,0.28985,0.36951,0.7594
1700498749054687,-9.684775,0.527605,1.570465,0.19485,0.40151,0.9394
1700498749062500,-9.655775,0.544605,1.523465,0.26385,0.44151,0.7994
1700498749070312,-9.639775,0.550605,1.539465,0.27085,0.40351,0.9294
1700498749078125,-9.623775,0.550605,1.536465,0.29485,0.39251,0.7994
1700498749085937,-9.637775,0.546605,1.552465,0.28285,0.22651,0.9394
1700498749093750,-9.637775,0.555605,1.572465,0.32585,0.26451,0.1706
1700498749101562,-9.659775,0.555605,1.595465,0.28285,0.21251,0.1806
1700498749109375,-9.671775,0.564605,1.622465,0.28585,0.27551,0.306
1700498749117187,-9.689775,0.565605,1.590465,0.26685,0.21251,0.1394
1700498749125000,-9.696775,0.563605,1.584465,0.28385,0.27651,0.1806
1700498749132812,-9.693775,0.571605,1.593465,0.29985,0.27651,0.1394
1700498749140625,-9.696775,0.575605,1.575465,0.27585,0.30351,0.2106
1700498749148437,-9.680775,0.567605,1.563465,0.26885,0.27651,0.5106
1700498749156250,-9.664775,0.569605,1.550465,0.28585,0.30751,0.306
1700498749164062,-9.639775,0.546605,1.541465,0.30785,0.28551,0.4294
1700498749171875,-9.621775,0.561605,1.541465,0.26985,0.27351,0.9294
1700498749179687,-9.619775,0.555605,1.559465,0.28185,0.32551,0.7894
1700498749187500,-9.612775,0.559605,1.557465,0.26285,0.23151,0.1594
1700498749195312,-9.615775,0.566605,1.534465,0.26685,0.32551,0.2994
1700498749203125,-9.606775,0.552605,1.543465,0.28585,0.24051,0.9294
1700498749210937,-9.619775,0.563605,1.579465,0.30485,0.19151,0.2106
1700498749218750,-9.637775,0.569605,1.583465,0.25685,0.13651,0.6494
1700498749226562,-9.644775,0.569605,1.572465,0.28285,0.11351,0.1294
1700498749234375,-9.635775,0.564605,1.536465,0.27185,0.14451,0.2006
1700498749242187,-9.642775,0.570605,1.521465,0.29285,0.18951,0.5406
1700498749250000,-9.626775,0.561605,1.536465,0.26885,0.21051,0.1906
1700498749257812,-9.631775,0.566605,1.541465,0.29185,0.23851,0.2106
1700498749265625,-9.628775,0.568605,1.532465,0.27385,0.15951,0.6906
1700498749273437,-9.658775,0.575605,1.554465,0.28885,0.14251,0.1094
1700498749281250,-9.669775,0.582605,1.557465,0.27885,0.17151,0.2206
1700498749289062,-9.673775,0.580605,1.563465,0.28285,0.13051,0.2894
1700498749296875,-9.687775,0.580605,1.584465,0.25685,0.10951,0.2794
1700498749304687,-9.687775,0.578605,1.557465,0.27085,0.11151,0.2794
1700498749312500,-9.669775,0.582605,1.523465,0.29085,0.12451,0.606
1700498749320312,-9.658775,0.584605,1.518465,0.29385,0.10751,0.7106
1700498749328125,-9.658775,0.591605,1.523465,0.27185,0.12951,0.13206
1700498749335937,-9.642775,0.595605,1.514465,0.25185,0.14851,0.11406
1700498749343750,-9.638775,0.599605,1.509465,0.20985,0.12751,0.5206
1700498749351562,-9.626775,0.597605,1.480465,0.23285,0.8351,0.106
1700498749359375,-9.617775,0.602605,1.500465,0.21785,0.8351,0.3306
1700498749367187,-9.617775,0.599605,1.505465,0.26785,0.6451,0.1906
1700498749375000,-9.624775,0.588605,1.503465,0.27685,0.10851,0.7006
1700498749382812,-9.622775,0.590605,1.489465,0.29085,0.2851,0.5406
1700498749390625,-9.622775,0.590605,1.485465,0.27185,0.4551,0.506
1700498749398437,-9.622775,0.593605,1.503465,0.26785,0.4851,0.1906
1700498749406250,-9.624775,0.604605,1.505465,0.26685,0.1751,0.1906
1700498749414062,-9.640775,0.611605,1.550465,0.26785,0.3251,0.306
1700498749421875,-9.658775,0.622605,1.552465,0.26985,0.1451,0.406
1700498749429687,-9.661775,0.628605,1.541465,0.27385,0.2951,0.11806
1700498749437500,-9.658775,0.637605,1.530465,0.27185,0.1849,0.8506
1700498749445312,-9.663775,0.637605,1.523465,0.27085,0.3051,0.5206
1700498749453125,-9.654775,0.635605,1.494465,0.27185,0.11151,0.3606
1700498749460937,-9.649775,0.619605,1.462465,0.27385,0.7851,0.11706
1700498749468750,-9.640775,0.628605,1.453465,0.27385,0.6251,0.8506
1700498749476562,-9.625775,0.632605,1.469465,0.27285,0.8549,0.1094
1700498749484375,-9.641775,0.632605,1.482465,0.27785,0.2551,0.894
1700498749492187,-9.647775,0.644605,1.503465,0.26585,0.1549,0.2894
1700498749500000,-9.661775,0.660605,1.503465,0.26685,0.4851,0.6094
1700498749507812,-9.659775,0.680605,1.489465,0.28285,0.6451,0.4494
1700498749515625,-9.654775,0.682605,1.469465,0.26085,0.8451,0.6394
1700498749523437,-9.648775,0.693605,1.462465,0.27785,0.6851,0.1706
1700498749531250,-9.646775,0.691605,1.460465,0.26485,0.8251,0.6194
1700498749539062,-9.637775,0.688605,1.453465,0.28885,0.12651,0.2106
1700498749546875,-9.639775,0.679605,1.440465,0.26485,0.10651,0.5506
1700498749554687,-9.635775,0.679605,1.433465,0.24285,0.15751,0.2694
1700498749562500,-9.630775,0.683605,1.455465,0.27585,0.14151,0.2106
1700498749570312,-9.634775,0.672605,1.489465,0.29085,0.12451,0.606
1700498749578125,-9.616775,0.641605,1.404465,0.19385,0.7651,0.5994
1700498749585937,-9.603775,0.659605,1.419465,0.12485,0.4751,0.7894
1700498749593750,-9.601775,0.690605,1.451465,0.4785,0.12851,0.11194
1700498749601562,-9.619775,0.710605,1.390465,0.10685,0.11451,0.9594
1700498749609375,-9.635775,0.699605,1.413465,0.28885,0.4251,0.10694
1700498749617187,-9.637775,0.672605,1.401465,0.27385,0.9051,0.17094
1700498749625000,-9.655775,0.668605,1.473465,0.23285,0.15151,0.12194
1700498749632812,-9.648775,0.693605,1.489465,0.20485,0.14351,0.15794
1700498749640625,-9.632775,0.692605,1.444465,0.28685,0.14251,0.7594
1700498749648437,-9.633775,0.690605,1.471465,0.27185,0.2349,0.20294
1700498749656250,-9.664775,0.686605,1.482465,0.28185,0.1351,0.18894
1700498749664062,-9.695775,0.689605,1.431465,0.19085,0.3649,0.17294
1700498749671875,-9.713775,0.687605,1.435465,0.3785,0.2551,0.15794
1700498749679687,-9.706775,0.687605,1.437465,0.2985,0.12751,0.22494
1700498749687500,-9.707775,0.687605,1.428465,0.3585,0.10951,0.11094
1700498749695312,-9.704775,0.678605,1.401465,0.3185,0.12651,0.19194
1700498749703125,-9.693775,0.673605,1.388465,0.14085,0.11151,0.14294
1700498749710937,-9.686775,0.664605,1.388465,0.6285,0.12651,0.20794
1700498749718750,-9.668775,0.662605,1.374465,0.9385,0.12651,0.22394
1700498749726562,-9.654775,0.664605,1.383465,0.9285,0.17551,0.28894
1700498749734375,-9.637775,0.679605,1.395465,0.415,0.12751,0.35394
1700498749742187,-9.650775,0.670605,1.392465,0.3185,0.10851,0.30394
1700498749750000,-9.639775,0.675605,1.399465,0.1385,0.14251,0.30494
1700498749757812,-9.641775,0.662605,1.392465,0.2485,0.17951,0.27494
1700498749765625,-9.643775,0.648605,1.404465,0.1685,0.15751,0.25594
1700498749773437,-9.659775,0.637605,1.406465,0.1385,0.19151,0.30594
1700498749781250,-9.661775,0.635605,1.408465,0.1685,0.17251,0.35294
1700498749789062,-9.663775,0.626605,1.406465,0.1185,0.15951,0.33794
1700498749796875,-9.665775,0.615605,1.413465,0.1685,0.10651,0.35194
1700498749804687,-9.676775,0.615605,1.419465,0.1585,0.19051,0.30494
1700498749812500,-9.680775,0.604605,1.428465,0.1085,0.17751,0.27494
1700498749820312,-9.690775,0.611605,1.424465,0.1285,0.20751,0.33794
1700498749828125,-9.692775,0.605605,1.417465,0.1085,0.17651,0.33794
1700498749835937,-9.687775,0.600605,1.431465,0.1685,0.17251,0.35294
1700498749843750,-9.683775,0.602605,1.408465,0.1885,0.23651,0.33594
1700498749851562,-9.670775,0.615605,1.383465,0.2985,0.20651,0.35294
1700498749859375,-9.649775,0.606605,1.383465,0.1585,0.28651,0.35294
1700498749867187,-9.638775,0.610605,1.388465,0.2585,0.27451,0.33894
1700498749875000,-9.651775,0.600605,1.383465,0.685,0.29351,0.34094
1700498749882812,-9.664775,0.587605,1.383465,0.2285,0.26051,0.33994
1700498749890625,-9.664775,0.573605,1.372465,0.3415,0.20751,0.35494
1700498749898437,-9.633775,0.575605,1.356465,0.115,0.27151,0.33794
1700498749906250,-9.638775,0.595605,1.388465,0.2585,0.32351,0.35494
1700498749914062,-9.633775,0.601605,1.394465,0.2585,0.27451,0.33894
1700498749921875,-9.651775,0.604605,1.392465,0.13785,0.19351,0.27294
1700498749929687,-9.660775,0.600605,1.401465,0.9185,0.12651,0.31994
1700498749937500,-9.682775,0.596605,1.424465,0.6985,0.16451,0.25894
1700498749945312,-9.692775,0.600605,1.431465,0.17785,0.10651,0.23694
1700498749953125,-9.698775,0.600605,1.417465,0.7785,0.14251,0.25594
1700498749960937,-9.694775,0.602605,1.415465,0.11185,0.17451,0.20694
1700498749968750,-9.702775,0.587605,1.437465,0.5185,0.23151,0.27694
1700498749976562,-9.711775,0.576605,1.437465,0.4385,0.29151,0.25794
1700498749984375,-9.693775,0.567605,1.428465,0.785,0.34351,0.25994
1700498749992187,-9.679775,0.556605,1.426465,0.1885,0.34751,0.21394
1700498750000000,-9.671775,0.546605,1.415465,0.9085,0.42151,0.27394
1700498750007812,-9.655775,0.549605,1.403465,0.16385,0.40751,0.37094
1700498750015625,-9.648775,0.551605,1.394465,0.10585,0.45551,0.24294
1700498750023437,-9.639775,0.560605,1.385465,0.10085,0.42651,0.19594
1700498750031250,-9.639775,0.566605,1.385465,0.16385,0.44151,0.24294
1700498750039062,-9.631775,0.588605,1.381465,0.12985,0.37851,0.22794
1700498750046875,-9.626775,0.590605,1.372465,0.21585,0.34051,0.24094
1700498750054687,-9.622775,0.597605,1.394465,0.25885,0.34551,0.17794
1700498750062500,-9.635775,0.586605,1.392465,0.20285,0.29251,0.14394
1700498750070312,-9.642775,0.591605,1.403465,0.19985,0.27851,0.11294
1700498750078125,-9.646775,0.575605,1.419465,0.17185,0.29251,0.11194
1700498750085937,-9.639775,0.566605,1.426465,0.5785,0.34351,0.9894
1700498750093750,-9.635775,0.573605,1.437465,0.18985,0.34051,0.7894
1700498750101562,-9.637775,0.562605,1.428465,0.15485,0.24451,0.7994
1700498750109375,-9.643775,0.560605,1.408465,0.11285,0.28351,0.11594
1700498750117187,-9.639775,0.547605,1.401465,0.22385,0.31551,0.17894
1700498750125000,-9.652775,0.562605,1.390465,0.11285,0.31651,0.11694
1700498750132812,-9.651775,0.557605,1.410465,0.17185,0.25951,0.14394
1700498750140625,-9.650775,0.553605,1.415465,0.12385,0.16251,0.11194
1700498750148437,-9.632775,0.557605,1.426465,0.13385,0.18151,0.17794
1700498750156250,-9.643775,0.546605,1.435465,0.13485,0.18151,0.14594
1700498750164062,-9.646775,0.557605,1.437465,0.9085,0.21151,0.19294
1700498750171875,-9.646775,0.546605,1.435465,0.12385,0.14551,0.12794
1700498750179687,-9.664775,0.542605,1.451465,0.20885,0.15851,0.7694
1700498750187500,-9.672775,0.534605,1.444465,0.21385,0.14851,0.11194
1700498750195312,-9.675775,0.533605,1.430465,0.17085,0.16251,0.12794
1700498750203125,-9.684775,0.547605,1.444465,0.26685,0.19451,0.7794
1700498750210937,-9.675775,0.544605,1.419465,0.26785,0.22551,0.12594
1700498750218750,-9.680775,0.547605,1.417465,0.27885,0.24451,0.14294
1700498750226562,-9.670775,0.549605,1.419465,0.24185,0.24851,0.14594
1700498750234375,-9.670775,0.551605,1.397465,0.26085,0.18151,0.11194
1700498750242187,-9.668775,0.553605,1.394465,0.28485,0.20951,0.7694
1700498750250000,-9.653775,0.555605,1.403465,0.27085,0.22451,0.9294
1700498750257812,-9.659775,0.569605,1.392465,0.27285,0.28251,0.8194
1700498750265625,-9.655775,0.569605,1.392465,0.25685,0.29951,0.8194
1700498750273437,-9.639775,0.562605,1.394465,0.27785,0.27851,0.9594
1700498750281250,-9.621775,0.570605,1.390465,0.26085,0.32951,0.8094
1700498750289062,-9.619775,0.557605,1.367465,0.27985,0.32651,0.11194
1700498750296875,-9.597775,0.559605,1.347465,0.26785,0.27451,0.12594
1700498750304687,-9.590775,0.558605,1.352465,0.32185,0.22151,0.9094
1700498750312500,-9.599775,0.554605,1.390465,0.36285,0.19251,0.7594
1700498750320312,-9.617775,0.570605,1.403465,0.32185,0.22151,0.9094
1700498750328125,-9.631775,0.590605,1.397465,0.27485,0.20551,0.7494
1700498750335937,-9.640775,0.604605,1.390465,0.28285,0.22651,0.7794
1700498750343750,-9.658775,0.608605,1.367465,0.26685,0.22551,0.17394
1700498750351562,-9.660775,0.608605,1.370465,0.28785,0.25551,0.10794
1700498750359375,-9.663775,0.615605,1.372465,0.27385,0.30351,0.9194
1700498750367187,-9.672775,0.617605,1.381465,0.27085,0.28951,0.7694
1700498750375000,-9.678775,0.616605,1.374465,0.27885,0.27851,0.6294
1700498750382812,-9.676775,0.611605,1.356465,0.25885,0.33051,0.6494
1700498750390625,-9.674775,0.624605,1.388465,0.27985,0.32651,0.7894
1700498750398437,-9.672775,0.629605,1.428465,0.25785,0.36351,0.9794
1700498750406250,-9.678775,0.598605,1.399465,0.26685,0.37451,0.1494
1700498750414062,-9.657775,0.578605,1.374465,0.10485,0.29651,0.4994
1700498750421875,-9.631775,0.622605,1.334465,0.4285,0.17951,0.11394
1700498750429687,-9.621775,0.679605,1.325465,0.9385,0.14451,0.12794
1700498750437500,-9.657775,0.675605,1.331465,0.21285,0.12351,0.9094
1700498750445312,-9.683775,0.651605,1.354465,0.29485,0.16451,0.9494
1700498750453125,-9.692775,0.609605,1.394465,0.15385,0.21151,0.14394
1700498750460937,-9.696775,0.611605,1.422465,0.8985,0.16351,0.16094
1700498750468750,-9.670775,0.640605,1.408465,0.18685,0.27551,0.14394
1700498750476562,-9.661775,0.639605,1.397465,0.17185,0.15951,0.23894
1700498750484375,-9.658775,0.631605,1.365465,0.27385,0.11751,0.15994
1700498750492187,-9.660775,0.613605,1.358465,0.20485,0.19251,0.15794
1700498750500000,-9.676775,0.626605,1.381465,0.17085,0.14451,0.20694
1700498750507812,-9.687775,0.627605,1.392465,0.615,0.13151,0.14694
1700498750515625,-9.694775,0.629605,1.390465,0.2685,0.14651,0.17794
1700498750523437,-9.708775,0.627605,1.390465,0.4885,0.22551,0.12794
1700498750531250,-9.701775,0.629605,1.365465,0.2485,0.23651,0.10994
1700498750539062,-9.688775,0.638605,1.361465,0.12885,0.27351,0.11094
1700498750546875,-9.676775,0.622605,1.381465,0.9385,0.29151,0.11294
1700498750554687,-9.667775,0.629605,1.388465,0.1485,0.35751,0.11394
1700498750562500,-9.656775,0.622605,1.392465,0.6085,0.34251,0.8194
1700498750570312,-9.642775,0.624605,1.374465,0.1085,0.35851,0.21094
1700498750578125,-9.649775,0.615605,1.370465,0.1085,0.44051,0.19594
1700498750585937,-9.640775,0.623605,1.361465,0.4985,0.41851,0.20894
1700498750593750,-9.631775,0.621605,1.370465,0.9585,0.41851,0.22394
1700498750601562,-9.640775,0.615605,1.365465,0.2685,0.38951,0.25894
1700498750609375,-9.640775,0.613605,1.381465,0.985,0.35851,0.25994
1700498750617187,-9.656775,0.615605,1.388465,0.6685,0.36851,0.23994
1700498750625000,-9.660775,0.602605,1.394465,0.8985,0.38951,0.27494
1700498750632812,-9.667775,0.605605,1.406465,0.9785,0.37851,0.26094
1700498750640625,-9.678775,0.602605,1.428465,0.10285,0.29451,0.24294
1700498750648437,-9.680775,0.604605,1.415465,0.1185,0.37351,0.25894
1700498750656250,-9.692775,0.602605,1.419465,0.4185,0.34151,0.24294
1700498750664062,-9.696775,0.602605,1.404465,0.7185,0.39051,0.29194
1700498750671875,-9.689775,0.605605,1.388465,0.1185,0.37351,0.25894
1700498750679687,-9.671775,0.602605,1.392465,0.2985,0.38851,0.20994
1700498750687500,-9.673775,0.602605,1.394465,0.2185,0.37751,0.26094
1700498750695312,-9.676775,0.596605,1.399465,0.985,0.40751,0.24394
1700498750703125,-9.671775,0.594605,1.385465,0.5085,0.39451,0.26194
1700498750710937,-9.674775,0.584605,1.392465,0.8185,0.44951,0.25594
1700498750718750,-9.680775,0.573605,1.419465,0.4085,0.45651,0.24394
1700498750726562,-9.653775,0.571605,1.394465,0.2085,0.49151,0.26194
1700498750734375,-9.635775,0.582605,1.410465,0.15285,0.45551,0.24194
1700498750742187,-9.615775,0.579605,1.417465,0.18285,0.43851,0.28994
1700498750750000,-9.624775,0.573605,1.385465,0.26085,0.42451,0.22494
1700498750757812,-9.642775,0.566605,1.412465,0.26185,0.39151,0.20894
1700498750765625,-9.653775,0.564605,1.426465,0.27785,0.32651,0.20794
1700498750773437,-9.646775,0.570605,1.437465,0.15885,0.35351,0.22294
1700498750781250,-9.655775,0.580605,1.444465,0.20285,0.29051,0.22394
1700498750789062,-9.653775,0.584605,1.410465,0.21885,0.29051,0.19094
1700498750796875,-9.664775,0.582605,1.422465,0.21985,0.27551,0.7894
1700498750804687,-9.673775,0.576605,1.428465,0.13385,0.29551,0.17894
1700498750812500,-9.671775,0.584605,1.435465,0.19785,0.36051,0.16194
1700498750820312,-9.671775,0.569605,1.424465,0.16685,0.39251,0.14594
1700498750828125,-9.671775,0.566605,1.415465,0.21785,0.35551,0.22394
1700498750835937,-9.673775,0.547605,1.428465,0.18085,0.37651,0.20994
1700498750843750,-9.675775,0.545605,1.415465,0.25785,0.39251,0.27394
1700498750851562,-9.662775,0.546605,1.408465,0.26185,0.37351,0.27294
1700498750859375,-9.657775,0.544605,1.392465,0.22685,0.39251,0.25794
1700498750867187,-9.646775,0.560605,1.392465,0.24685,0.37551,0.17694
1700498750875000,-9.651775,0.564605,1.397465,0.27785,0.39151,0.19294
1700498750882812,-9.646775,0.568605,1.408465,0.24785,0.37351,0.19194
1700498750890625,-9.655775,0.569605,1.433465,0.26085,0.39151,0.22494
1700498750898437,-9.655775,0.577605,1.431465,0.27885,0.35751,0.20794
1700498750906250,-9.660775,0.582605,1.435465,0.22985,0.37551,0.20894
1700498750914062,-9.657775,0.575605,1.424465,0.26085,0.37651,0.16094
1700498750921875,-9.666775,0.576605,1.437465,0.24285,0.39451,0.14594
1700498750929687,-9.675775,0.576605,1.444465,0.24585,0.36051,0.9694
1700498750937500,-9.673775,0.569605,1.444465,0.24785,0.39151,0.7994
1700498750945312,-9.673775,0.571605,1.446465,0.21785,0.43951,0.11194
1700498750953125,-9.657775,0.564605,1.442465,0.23585,0.42151,0.11094
1700498750960937,-9.651775,0.564605,1.435465,0.20085,0.43951,0.16094
1700498750968750,-9.657775,0.558605,1.428465,0.21085,0.44451,0.9894
1700498750976562,-9.642775,0.568605,1.431465,0.18385,0.39351,0.8194
1700498750984375,-9.637775,0.566605,1.419465,0.23285,0.35951,0.7994
1700498750992187,-9.641775,0.566605,1.408465,0.17785,0.37951,0.17894
1700498751000000,-9.662775,0.555605,1.433465,0.13985,0.35551,0.24094
1700498751007812,-9.673775,0.571605,1.444465,0.14485,0.35351,0.15894
1700498751015625,-9.667775,0.566605,1.433465,0.20485,0.33851,0.20694
1700498751023437,-9.662775,0.564605,1.424465,0.20885,0.33551,0.20594
1700498751031250,-9.658775,0.571605,1.415465,0.13985,0.33951,0.20894
1700498751039062,-9.660775,0.589605,1.439465,0.14585,0.34651,0.22794
1700498751046875,-9.655775,0.589605,1.433465,0.19885,0.35851,0.19294
1700498751054687,-9.655775,0.593605,1.440465,0.19885,0.45651,0.19394
1700498751062500,-9.660775,0.611605,1.453465,0.21985,0.35451,0.22294
1700498751070312,-9.663775,0.613605,1.444465,0.19985,0.37351,0.27294
1700498751078125,-9.667775,0.617605,1.449465,0.17085,0.38851,0.24094
1700498751085937,-9.653775,0.606605,1.449465,0.13485,0.34151,0.25794
1700498751093750,-9.662775,0.602605,1.455465,0.11985,0.40751,0.24294
1700498751101562,-9.669775,0.591605,1.455465,0.8985,0.38951,0.25894
1700498751109375,-9.648775,0.580605,1.403465,0.7085,0.37651,0.24394
1700498751117187,-9.649775,0.570605,1.399465,0.12585,0.35451,0.22394
1700498751125000,-9.660775,0.557605,1.415465,0.5985,0.32451,0.22594
1700498751132812,-9.655775,0.557605,1.421465,0.10785,0.30851,0.17694
1700498751140625,-9.662775,0.551605,1.424465,0.15585,0.29051,0.20794
1700498751148437,-9.675775,0.547605,1.444465,0.10085,0.27951,0.22694
1700498751156250,-9.688775,0.545605,1.464465,0.22585,0.26451,0.19394
1700498751164062,-9.673775,0.542605,1.467465,0.10285,0.29451,0.22694
1700498751171875,-9.675775,0.544605,1.458465,0.15385,0.30851,0.22494
1700498751179687,-9.666775,0.551605,1.442465,0.15685,0.27451,0.15994
1700498751187500,-9.669775,0.562605,1.437465,0.20485,0.30551,0.19094
1700498751195312,-9.677775,0.556605,1.437465,0.19585,0.34351,0.25794
1700498751203125,-9.671775,0.547605,1.435465,0.26485,0.35751,0.12694
1700498751210937,-9.666775,0.542605,1.430465,0.26285,0.34251,0.15994
1700498751218750,-9.657775,0.542605,1.428465,0.28185,0.35751,0.9494
1700498751226562,-9.648775,0.535605,1.471465,0.24485,0.34551,0.8094
1700498751234375,-9.637775,0.526605,1.453465,0.25285,0.24151,0.7794
1700498751242187,-9.632775,0.535605,1.428465,0.19585,0.20451,0.12394
1700498751250000,-9.637775,0.559605,1.458465,0.15585,0.29051,0.23994
1700498751257812,-9.646775,0.563605,1.435465,0.19685,0.25051,0.21994
1700498751265625,-9.662775,0.564605,1.419465,0.28385,0.12551,0.25294
1700498751273437,-9.662775,0.546605,1.410465,0.25185,0.20751,0.23794
1700498751281250,-9.657775,0.548605,1.440465,0.17285,0.27251,0.23894
1700498751289062,-9.651775,0.559605,1.478465,0.23785,0.28751,0.25394
1700498751296875,-9.628775,0.575605,1.442465,0.34285,0.24351,0.17394
1700498751304687,-9.606775,0.568605,1.379465,0.29885,0.16151,0.9294
1700498751312500,-9.626775,0.573605,1.392465,0.27485,0.23051,0.17694
1700498751320312,-9.664775,0.586605,1.422465,0.24885,0.11351,0.15894
1700498751328125,-9.678775,0.587605,1.415465,0.19085,0.15951,0.10994
1700498751335937,-9.682775,0.594605,1.440465,0.10485,0.14651,0.19294
1700498751343750,-9.716775,0.598605,1.449465,0.5985,0.21151,0.14494
1700498751351562,-9.710775,0.591605,1.419465,0.6485,0.22551,0.11194
1700498751359375,-9.711775,0.570605,1.399465,0.1085,0.29451,0.13094
1700498751367187,-9.698775,0.551605,1.406465,0.4585,0.27551,0.12894
1700498751375000,-9.684775,0.547605,1.403465,0.9485,0.33951,0.11194
1700498751382812,-9.677775,0.547605,1.408465,0.2985,0.33951,0.22594
1700498751390625,-9.662775,0.548605,1.428465,0.3585,0.35151,0.23994
1700498751398437,-9.639775,0.548605,1.424465,0.3315,0.38851,0.25894
1700498751406250,-9.646775,0.569605,1.412465,0.1315,0.29651,0.37394
1700498751414062,-9.649775,0.570605,1.417465,0.4815,0.28851,0.33894
1700498751421875,-9.664775,0.575605,1.424465,0.10115,0.35751,0.29294
1700498751429687,-9.673775,0.576605,1.428465,0.8615,0.39251,0.24594
1700498751437500,-9.673775,0.554605,1.430465,0.2815,0.39451,0.27894
1700498751445312,-9.675775,0.545605,1.412465,0.1815,0.30051,0.31194
1700498751453125,-9.675775,0.547605,1.421465,0.315,0.37351,0.21094
1700498751460937,-9.673775,0.545605,1.449465,0.2385,0.39251,0.24394
1700498751468750,-9.662775,0.546605,1.460465,0.1715,0.33951,0.24294
1700498751476562,-9.655775,0.544605,1.437465,0.3915,0.37551,0.26094
1700498751484375,-9.655775,0.553605,1.431465,0.985,0.32551,0.24294
1700498751492187,-9.651775,0.546605,1.444465,0.185,0.40151,0.24194
1700498751500000,-9.650775,0.553605,1.444465,0.1885,0.44551,0.18194
1700498751507812,-9.643775,0.560605,1.446465,0.115,0.39951,0.21594
1700498751515625,-9.637775,0.562605,1.455465,0.2115,0.35851,0.22794
1700498751523437,-9.648775,0.564605,1.464465,0.4015,0.42651,0.21394
1700498751531250,-9.650775,0.560605,1.446465,0.5515,0.39251,0.26094
1700498751539062,-9.650775,0.544605,1.437465,0.2285,0.37551,0.29294
1700498751546875,-9.657775,0.549605,1.444465,0.2185,0.26251,0.29294
1700498751554687,-9.666775,0.526605,1.464465,0.1815,0.32251,0.27494
1700498751562500,-9.639775,0.531605,1.433465,0.5615,0.39151,0.29394
1700498751570312,-9.630775,0.548605,1.408465,0.1985,0.34451,0.32494
1700498751578125,-9.621775,0.544605,1.412465,0.785,0.31051,0.25994
1700498751585937,-9.624775,0.554605,1.428465,0.3285,0.28751,0.27294
1700498751593750,-9.635775,0.555605,1.435465,0.1485,0.25551,0.32194
1700498751601562,-9.664775,0.562605,1.455465,0.2385,0.24451,0.27594
1700498751609375,-9.691775,0.558605,1.460465,0.1385,0.24051,0.28994
1700498751617187,-9.699775,0.550605,1.462465,0.1585,0.33251,0.26294
1700498751625000,-9.705775,0.565605,1.442465,0.4485,0.28951,0.27394
1700498751632812,-9.700775,0.554605,1.455465,0.885,0.21251,0.24294
1700498751640625,-9.688775,0.545605,1.446465,0.2185,0.31151,0.26094
1700498751648437,-9.673775,0.547605,1.437465,0.4485,0.37351,0.17794
1700498751656250,-9.663775,0.540605,1.435465,0.485,0.34551,0.21294
1700498751664062,-9.647775,0.515605,1.426465,0.685,0.36051,0.22894
1700498751671875,-9.636775,0.504605,1.430465,0.2585,0.37451,0.24394
1700498751679687,-9.638775,0.497605,1.451465,0.10385,0.42451,0.21094
1700498751687500,-9.652775,0.491605,1.437465,0.16685,0.42451,0.22594
1700498751695312,-9.641775,0.500605,1.433465,0.10185,0.39251,0.22694
1700498751703125,-9.638775,0.499605,1.428465,0.17185,0.29051,0.19194
1700498751710937,-9.643775,0.513605,1.430465,0.23185,0.37551,0.11194
1700498751718750,-9.636775,0.515605,1.433465,0.23185,0.35851,0.14494
1700498751726562,-9.648775,0.528605,1.428465,0.26385,0.42351,0.19194
1700498751734375,-9.648775,0.529605,1.430465,0.21185,0.37751,0.16194
1700498751742187,-9.659775,0.536605,1.439465,0.22685,0.37751,0.17794
1700498751750000,-9.661775,0.533605,1.453465,0.24785,0.32651,0.12794
1700498751757812,-9.661775,0.538605,1.451465,0.21685,0.34051,0.20794
1700498751765625,-9.673775,0.535605,1.440465,0.28285,0.33851,0.20594
1700498751773437,-9.671775,0.544605,1.449465,0.21685,0.39051,0.15994
1700498751781250,-9.668775,0.536605,1.442465,0.21385,0.34351,0.14494
1700498751789062,-9.661775,0.540605,1.435465,0.17185,0.34151,0.11194
1700498751796875,-9.655775,0.533605,1.437465,0.15085,0.29251,0.27394
1700498751804687,-9.645775,0.531605,1.448465,0.16485,0.32851,0.16194
1700498751812500,-9.657775,0.533605,1.473465,0.5985,0.38951,0.19394
1700498751820312,-9.657775,0.533605,1.471465,0.985,0.30951,0.25894
1700498751828125,-9.655775,0.540605,1.471465,0.2785,0.29251,0.17894
1700498751835937,-9.650775,0.531605,1.467465,0.885,0.24451,0.25994
1700498751843750,-9.641775,0.544605,1.471465,0.1285,0.24251,0.24194
1700498751851562,-9.641775,0.529605,1.478465,0.2085,0.28051,0.24494
1700498751859375,-9.636775,0.522605,1.471465,0.685,0.24651,0.25994
1700498751867187,-9.639775,0.524605,1.462465,0.2485,0.22851,0.24294
1700498751875000,-9.643775,0.526605,1.451465,0.4085,0.27751,0.22694
1700498751882812,-9.648775,0.511605,1.471465,0.1185,0.29151,0.27494
1700498751890625,-9.656775,0.505605,1.484465,0.2285,0.32851,0.21194
1700498751898437,-9.652775,0.506605,1.478465,0.1485,0.25751,0.22594
1700498751906250,-9.668775,0.518605,1.480465,0.2685,0.22751,0.22594
1700498751914062,-9.666775,0.533605,1.471465,0.1785,0.12451,0.23994
1700498751921875,-9.666775,0.531605,1.460465,0.185,0.24851,0.29394
1700498751929687,-9.672775,0.534605,1.466465,0.1785,0.11751,0.35694
1700498751937500,-9.668775,0.540605,1.455465,0.1085,0.20951,0.35494
1700498751945312,-9.666775,0.526605,1.417465,0.385,0.25351,0.30394
1700498751953125,-9.652775,0.522605,1.408465,0.2885,0.22551,0.24194
1700498751960937,-9.652775,0.506605,1.426465,0.1485,0.17551,0.25694
1700498751968750,-9.656775,0.498605,1.430465,0.415,0.19251,0.33894
1700498751976562,-9.656775,0.500605,1.446465,0.7715,0.19051,0.24194
1700498751984375,-9.659775,0.493605,1.462465,0.1715,0.20751,0.27394
1700498751992187,-9.661775,0.502605,1.451465,0.3185,0.22351,0.25694
1700498752000000,-9.656775,0.509605,1.442465,0.885,0.22851,0.24294
1700498752007812,-9.656775,0.518605,1.442465,0.1985,0.24951,0.21294
1700498752015625,-9.661775,0.533605,1.444465,0.885,0.24451,0.22694
1700498752023437,-9.659775,0.516605,1.435465,0.885,0.27751,0.22794
1700498752031250,-9.661775,0.511605,1.433465,0.2585,0.29451,0.16294
1700498752039062,-9.670775,0.506605,1.430465,0.1585,0.35451,0.22594
1700498752046875,-9.670775,0.511605,1.430465,0.5585,0.35951,0.21194
1700498752054687,-9.675775,0.506605,1.482465,0.19485,0.36851,0.12594
1700498752062500,-9.667775,0.473605,1.464465,0.4585,0.32451,0.14594
1700498752070312,-9.644775,0.478605,1.417465,0.385,0.18351,0.22894
1700498752078125,-9.652775,0.508605,1.430465,0.1885,0.23951,0.12794
1700498752085937,-9.657775,0.520605,1.446465,0.2485,0.29451,0.21194
1700498752093750,-9.670775,0.515605,1.403465,0.10785,0.17751,0.19194
1700498752101562,-9.679775,0.513605,1.410465,0.6285,0.14251,0.23994
1700498752109375,-9.657775,0.504605,1.417465,0.4785,0.23951,0.25694
1700498752117187,-9.654775,0.509605,1.455465,0.4285,0.29251,0.21094
1700498752125000,-9.634775,0.519605,1.460465,0.23885,0.25651,0.10994
1700498752132812,-9.618775,0.499605,1.392465,0.28385,0.17651,0.10894
1700498752140625,-9.634775,0.502605,1.392465,0.19085,0.15951,0.10994
1700498752148437,-9.668775,0.516605,1.433465,0.20185,0.12951,0.12694
1700498752156250,-9.684775,0.522605,1.449465,0.12285,0.14551,0.14394
1700498752164062,-9.699775,0.516605,1.451465,0.1785,0.19051,0.17594
1700498752171875,-9.708775,0.507605,1.444465,0.3385,0.12651,0.9494
1700498752179687,-9.703775,0.498605,1.430465,0.2685,0.26151,0.13094
1700498752187500,-9.692775,0.489605,1.410465,0.1785,0.25751,0.7994
1700498752195312,-9.681775,0.487605,1.399465,0.5985,0.29351,0.12994
1700498752203125,-9.678775,0.485605,1.403465,0.8885,0.27851,0.17794
1700498752210937,-9.669775,0.485605,1.401465,0.2385,0.32651,0.22794
1700498752218750,-9.670775,0.486605,1.415465,0.3185,0.35451,0.24194
1700498752226562,-9.672775,0.496605,1.408465,0.985,0.31051,0.19594
1700498752234375,-9.656775,0.491605,1.428465,0.3585,0.27151,0.17594
1700498752242187,-9.659775,0.493605,1.433465,0.3385,0.32151,0.16094
1700498752250000,-9.670775,0.489605,1.444465,0.1285,0.38951,0.21094
1700498752257812,-9.674775,0.476605,1.439465,0.2285,0.36151,0.19694
1700498752265625,-9.663775,0.473605,1.437465,0.785,0.42551,0.21294
1700498752273437,-9.658775,0.475605,1.446465,0.3185,0.40351,0.22594
1700498752281250,-9.665775,0.460605,1.453465,0.9385,0.37251,0.16094
1700498752289062,-9.669775,0.464605,1.435465,0.3185,0.35451,0.20894
1700498752296875,-9.669775,0.473605,1.442465,0.7385,0.30951,0.20994
1700498752304687,-9.672775,0.467605,1.446465,0.14285,0.32151,0.15894
1700498752312500,-9.656775,0.471605,1.466465,0.2985,0.27551,0.16194
1700498752320312,-9.658775,0.476605,1.473465,0.21485,0.27851,0.14494
1700498752328125,-9.656775,0.475605,1.473465,0.9585,0.25751,0.11194
1700498752335937,-9.656775,0.473605,1.446465,0.7885,0.35651,0.12894
1700498752343750,-9.658775,0.480605,1.464465,0.4985,0.35451,0.11194
1700498752351562,-9.670775,0.491605,1.457465,0.10685,0.37351,0.19394
1700498752359375,-9.656775,0.496605,1.457465,0.8685,0.42551,0.19594
1700498752367187,-9.661775,0.493605,1.451465,0.19485,0.35251,0.12594
1700498752375000,-9.685775,0.480605,1.464465,0.26585,0.37451,0.7894
1700498752382812,-9.699775,0.467605,1.476465,0.20085,0.39151,0.9694
1700498752390625,-9.667775,0.466605,1.455465,0.21085,0.38551,0.6094
1700498752398437,-9.647775,0.475605,1.442465,0.28085,0.35951,0.3094
1700498752406250,-9.620775,0.479605,1.453465,0.26785,0.37251,0.9494
1700498752414062,-9.616775,0.503605,1.469465,0.28785,0.35351,0.7694
1700498752421875,-9.628775,0.519605,1.471465,0.27685,0.22051,0.9094
1700498752429687,-9.650775,0.529605,1.485465,0.28085,0.26151,0.4694
1700498752437500,-9.657775,0.535605,1.480465,0.26885,0.17851,0.1294
1700498752445312,-9.668775,0.513605,1.505465,0.28085,0.14851,0.206
1700498752453125,-9.675775,0.525605,1.500465,0.26785,0.16351,0.5106
1700498752460937,-9.686775,0.525605,1.487465,0.28685,0.17651,0.3606
1700498752468750,-9.695775,0.525605,1.489465,0.21785,0.24651,0.1706
1700498752476562,-9.692775,0.505605,1.491465,0.26885,0.12851,0.1294
1700498752484375,-9.701775,0.489605,1.505465,0.28685,0.17651,0.406
1700498752492187,-9.724775,0.494605,1.514465,0.27985,0.14951,0.1706
1700498752500000,-9.719775,0.485605,1.494465,0.25385,0.14551,0.1906
1700498752507812,-9.710775,0.489605,1.480465,0.27285,0.15951,0.406
1700498752515625,-9.695775,0.485605,1.469465,0.28985,0.15751,0.1094
1700498752523437,-9.667775,0.478605,1.464465,0.26785,0.22751,0.1394
1700498752531250,-9.663775,0.487605,1.462465,0.26485,0.27951,0.0
1700498752539062,-9.668775,0.495605,1.494465,0.28685,0.16051,0.1194
1700498752546875,-9.654775,0.500605,1.460465,0.26485,0.21351,0.106
1700498752554687,-9.636775,0.502605,1.437465,0.31985,0.19151,0.2106
1700498752562500,-9.632775,0.517605,1.448465,0.43985,0.11451,0.506
1700498752570312,-9.623775,0.522605,1.464465,0.43985,0.21251,0.3606
1700498752578125,-9.639775,0.537605,1.458465,0.33285,0.16251,0.6806
1700498752585937,-9.644775,0.546605,1.458465,0.27485,0.20651,0.3706
1700498752593750,-9.655775,0.544605,1.467465,0.28885,0.14251,0.2106
1700498752601562,-9.664775,0.549605,1.469465,0.25785,0.12651,0.3706
1700498752609375,-9.675775,0.549605,1.464465,0.25185,0.19451,0.7794
1700498752617187,-9.686775,0.540605,1.453465,0.23885,0.14351,0.4494
1700498752625000,-9.695775,0.523605,1.458465,0.23285,0.16451,0.3094
1700498752632812,-9.681775,0.516605,1.442465,0.28385,0.14551,0.4494
1700498752640625,-9.675775,0.511605,1.426465,0.28685,0.15851,0.9194
1700498752648437,-9.656775,0.509605,1.397465,0.24985,0.14851,0.1806
1700498752656250,-9.648775,0.526605,1.392465,0.20285,0.17951,0.6294
1700498752664062,-9.630775,0.541605,1.381465,0.27285,0.12651,0.2794
1700498752671875,-9.639775,0.544605,1.399465,0.27385,0.13551,0.4794
1700498752679687,-9.655775,0.538605,1.408465,0.24985,0.16251,0.6194
1700498752687500,-9.655775,0.537605,1.406465,0.26685,0.17751,0.9394
1700498752695312,-9.664775,0.535605,1.428465,0.19385,0.9351,0.7694
1700498752703125,-9.673775,0.531605,1.412465,0.11185,0.24151,0.7894
1700498752710937,-9.661775,0.529605,1.406465,0.26485,0.22851,0.9494
1700498752718750,-9.670775,0.533605,1.433465,0.17285,0.19351,0.7894
1700498752726562,-9.670775,0.531605,1.442465,0.14185,0.22651,0.6294
1700498752734375,-9.668775,0.542605,1.415465,0.21985,0.12851,0.9394
1700498752742187,-9.675775,0.547605,1.410465,0.18585,0.11451,0.7894
1700498752750000,-9.666775,0.547605,1.397465,0.2985,0.19551,0.9694
1700498752757812,-9.662775,0.553605,1.392465,0.21885,0.17951,0.7894
1700498752765625,-9.657775,0.550605,1.390465,0.24385,0.22151,0.7594
1700498752773437,-9.659775,0.553605,1.397465,0.26885,0.19251,0.7694
1700498752781250,-9.639775,0.546605,1.390465,0.22185,0.24151,0.7794
1700498752789062,-9.639775,0.546605,1.367465,0.19085,0.20951,0.9394
1700498752796875,-9.641775,0.540605,1.352465,0.19885,0.16551,0.7994
1700498752804687,-9.625775,0.526605,1.352465,0.12185,0.16351,0.9694
1700498752812500,-9.637775,0.528605,1.363465,0.18085,0.22151,0.7594
1700498752820312,-9.655775,0.535605,1.406465,0.20785,0.20751,0.10994
1700498752828125,-9.655775,0.540605,1.412465,0.20285,0.17851,0.9494
1700498752835937,-9.657775,0.549605,1.408465,0.23385,0.19551,0.7894
1700498752843750,-9.653775,0.564605,1.419465,0.27685,0.14851,0.9494
1700498752851562,-9.662775,0.575605,1.406465,0.21585,0.19651,0.7994
1700498752859375,-9.671775,0.571605,1.408465,0.17085,0.21151,0.9594
1700498752867187,-9.666775,0.573605,1.401465,0.26285,0.27851,0.9594
1700498752875000,-9.668775,0.546605,1.365465,0.19185,0.27351,0.7794
1700498752882812,-9.653775,0.555605,1.356465,0.20485,0.32351,0.9494
1700498752890625,-9.657775,0.560605,1.406465,0.26785,0.38951,0.7894
1700498752898437,-9.650775,0.558605,1.442465,0.24385,0.37851,0.9794
1700498752906250,-9.643775,0.529605,1.397465,0.18485,0.22951,0.7994
1700498752914062,-9.637775,0.535605,1.399465,0.7685,0.16251,0.11294
1700498752921875,-9.635775,0.575605,1.424465,0.4385,0.17851,0.17794
1700498752929687,-9.635775,0.599605,1.363465,0.4285,0.16151,0.22594
1700498752937500,-9.651775,0.604605,1.372465,0.24285,0.13251,0.24094
1700498752945312,-9.662775,0.578605,1.376465,0.24185,0.13351,0.20894
1700498752953125,-9.659775,0.549605,1.408465,0.18185,0.16351,0.25694
1700498752960937,-9.662775,0.571605,1.473465,0.19085,0.15251,0.17894
1700498752968750,-9.633775,0.577605,1.437465,0.26185,0.11451,0.15894
1700498752976562,-9.619775,0.577605,1.419465,0.27985,0.12951,0.14194
1700498752984375,-9.660775,0.561605,1.460465,0.29485,0.10451,0.8894
1700498752992187,-9.675775,0.567605,1.440465,0.21985,0.9551,0.10994
1700498753000000,-9.694775,0.573605,1.422465,0.8285,0.19151,0.9494
1700498753007812,-9.705775,0.582605,1.419465,0.1885,0.15751,0.17594
1700498753015625,-9.700775,0.581605,1.417465,0.2285,0.14951,0.16294
1700498753023437,-9.696775,0.578605,1.412465,0.1085,0.16451,0.9894
1700498753031250,-9.676775,0.582605,1.417465,0.12985,0.20751,0.7794
1700498753039062,-9.676775,0.580605,1.412465,0.9185,0.11351,0.14394
1700498753046875,-9.669775,0.580605,1.399465,0.5785,0.13051,0.17794
1700498753054687,-9.689775,0.575605,1.392465,0.14485,0.14151,0.15794
1700498753062500,-9.678775,0.583605,1.374465,0.8185,0.21651,0.24394
1700498753070312,-9.671775,0.579605,1.381465,0.2185,0.22051,0.19094
1700498753078125,-9.673775,0.573605,1.370465,0.2585,0.21251,0.21094
1700498753085937,-9.684775,0.540605,1.374465,0.3085,0.24151,0.20894
1700498753093750,-9.695775,0.530605,1.399465,0.5085,0.24951,0.21294
1700498753101562,-9.690775,0.505605,1.403465,0.715,0.29551,0.16394
1700498753109375,-9.699775,0.492605,1.392465,0.7585,0.27651,0.12994
1700498753117187,-9.708775,0.490605,1.399465,0.9185,0.32651,0.8094
1700498753125000,-9.703775,0.480605,1.385465,0.8385,0.36951,0.9494
1700498753132812,-9.712775,0.481605,1.383465,0.25385,0.25151,0.13094
1700498753140625,-9.703775,0.476605,1.385465,0.27985,0.27751,0.11094
1700498753148437,-9.685775,0.492605,1.388465,0.24185,0.31351,0.14594
1700498753156250,-9.674775,0.487605,1.399465,0.18685,0.34151,0.12794
1700498753164062,-9.659775,0.491605,1.383465,0.19085,0.30551,0.14294
1700498753171875,-9.638775,0.497605,1.381465,0.20385,0.22651,0.9494
1700498753179687,-9.616775,0.499605,1.376465,0.24485,0.36051,0.14494
1700498753187500,-9.616775,0.517605,1.388465,0.20485,0.29051,0.11094
1700498753195312,-9.621775,0.533605,1.394465,0.21185,0.37851,0.12994
1700498753203125,-9.621775,0.546605,1.388465,0.25885,0.36151,0.14594
1700498753210937,-9.625775,0.531605,1.372465,0.24485,0.34351,0.16094
1700498753218750,-9.645775,0.524605,1.392465,0.28085,0.29251,0.12694
1700498753226562,-9.627775,0.510605,1.383465,0.17285,0.29051,0.17594
1700498753234375,-9.610775,0.530605,1.349465,0.20085,0.35951,0.11294
1700498753242187,-9.596775,0.545605,1.354465,0.28485,0.30551,0.12494
1700498753250000,-9.585775,0.554605,1.381465,0.26985,0.19151,0.12494
1700498753257812,-9.624775,0.573605,1.365465,0.26385,0.13151,0.7894
1700498753265625,-9.658775,0.573605,1.394465,0.28485,0.11051,0.9194
1700498753273437,-9.689775,0.576605,1.410465,0.26785,0.12851,0.7694
1700498753281250,-9.696775,0.593605,1.388465,0.30685,0.10651,0.8994
1700498753289062,-9.689775,0.587605,1.370465,0.14185,0.16151,0.7894
1700498753296875,-9.693775,0.578605,1.374465,0.15585,0.16251,0.9594
1700498753304687,-9.698775,0.558605,1.392465,0.15785,0.17751,0.7894
1700498753312500,-9.688775,0.541605,1.381465,0.8685,0.24851,0.9894
1700498753320312,-9.677775,0.529605,1.372465,0.14285,0.27451,0.7894
1700498753328125,-9.666775,0.528605,1.361465,0.23985,0.28851,0.12494
1700498753335937,-9.637775,0.528605,1.358465,0.9185,0.32451,0.16094
1700498753343750,-9.632775,0.537605,1.343465,0.5885,0.32551,0.16194
1700498753351562,-9.628775,0.541605,1.347465,0.17885,0.38551,0.10994
1700498753359375,-9.605775,0.543605,1.347465,0.26385,0.37551,0.11194
1700498753367187,-9.612775,0.541605,1.356465,0.24985,0.34151,0.12694
1700498753375000,-9.617775,0.548605,1.363465,0.26885,0.29151,0.7794
1700498753382812,-9.614775,0.539605,1.374465,0.28385,0.29151,0.9394
1700498753390625,-9.621775,0.554605,1.381465,0.27085,0.32251,0.4494
1700498753398437,-9.630775,0.548605,1.383465,0.28785,0.25751,0.1194
1700498753406250,-9.642775,0.559605,1.394465,0.23585,0.25951,0.7894
1700498753414062,-9.657775,0.564605,1.392465,0.17185,0.32551,0.7994
1700498753421875,-9.669775,0.571605,1.408465,0.29585,0.29351,0.6294
1700498753429687,-9.678775,0.576605,1.401465,0.17385,0.30851,0.3094
1700498753437500,-9.684775,0.560605,1.397465,0.19385,0.32251,0.1806
1700498753445312,-9.691775,0.560605,1.419465,0.20685,0.34051,0.3094
1700498753453125,-9.691775,0.556605,1.401465,0.23085,0.40951,0.6494
1700498753460937,-9.695775,0.549605,1.392465,0.28285,0.34151,0.4594
1700498753468750,-9.691775,0.555605,1.394465,0.25685,0.35351,0.6094
1700498753476562,-9.675775,0.547605,1.388465,0.26185,0.40951,0.6494
1700498753484375,-9.670775,0.549605,1.383465,0.26285,0.31151,0.6394
1700498753492187,-9.657775,0.560605,1.394465,0.23785,0.40551,0.3094
1700498753500000,-9.637775,0.557605,1.392465,0.28285,0.37251,0.9394
1700498753507812,-9.646775,0.568605,1.403465,0.23885,0.37151,0.7794
1700498753515625,-9.633775,0.555605,1.397465,0.26985,0.38751,0.9394
1700498753523437,-9.619775,0.548605,1.394465,0.28185,0.34151,0.9494
1700498753531250,-9.624775,0.555605,1.406465,0.27085,0.28951,0.7694
1700498753539062,-9.617775,0.568605,1.431465,0.21985,0.34151,0.4694
1700498753546875,-9.624775,0.561605,1.435465,0.26485,0.24451,0.6294
1700498753554687,-9.646775,0.562605,1.428465,0.26485,0.31051,0.6294
1700498753562500,-9.650775,0.555605,1.421465,0.27985,0.31051,0.9494
1700498753570312,-9.651775,0.564605,1.426465,0.27085,0.27351,0.7694
1700498753578125,-9.655775,0.558605,1.430465,0.27785,0.39351,0.9694
1700498753585937,-9.673775,0.558605,1.453465,0.21985,0.42151,0.9494
1700498753593750,-9.675775,0.563605,1.437465,0.19385,0.37951,0.14694
1700498753601562,-9.659775,0.564605,1.406465,0.12085,0.39351,0.8194
1700498753609375,-9.662775,0.553605,1.399465,0.21285,0.37851,0.9794
1700498753617187,-9.664775,0.553605,1.401465,0.18485,0.35951,0.11294
1700498753625000,-9.657775,0.557605,1.394465,0.26485,0.38851,0.22394
1700498753632812,-9.659775,0.551605,1.374465,0.23085,0.32751,0.9694
1700498753640625,-9.655775,0.562605,1.370465,0.21485,0.37551,0.17694
1700498753648437,-9.655775,0.564605,1.401465,0.22585,0.29551,0.25794
1700498753656250,-9.664775,0.580605,1.426465,0.25085,0.37151,0.23894
1700498753664062,-9.669775,0.584605,1.413465,0.22185,0.35351,0.22294
1700498753671875,-9.669775,0.602605,1.399465,0.13985,0.35551,0.24094
1700498753679687,-9.674775,0.602605,1.388465,0.21785,0.37251,0.20794
1700498753687500,-9.670775,0.608605,1.388465,0.25485,0.38451,0.25394
1700498753695312,-9.667775,0.606605,1.401465,0.15585,0.37451,0.9694
1700498753703125,-9.665775,0.597605,1.401465,0.20485,0.38951,0.7894
1700498753710937,-9.667775,0.593605,1.392465,0.12585,0.42151,0.9694
1700498753718750,-9.660775,0.589605,1.392465,0.15185,0.39351,0.8194
1700498753726562,-9.658775,0.604605,1.446465,0.21885,0.55451,0.4894
1700498753734375,-9.658775,0.595605,1.478465,0.12885,0.46951,0.6394
1700498753742187,-9.635775,0.561605,1.415465,0.1885,0.40351,0.9694
1700498753750000,-9.622775,0.579605,1.390465,0.3485,0.40351,0.8094
1700498753757812,-9.622775,0.599605,1.338465,0.1485,0.38851,0.20994
1700498753765625,-9.625775,0.621605,1.361465,0.11285,0.40251,0.19194
1700498753773437,-9.658775,0.604605,1.347465,0.19085,0.27351,0.14194
1700498753781250,-9.667775,0.580605,1.381465,0.10885,0.27351,0.22494
1700498753789062,-9.673775,0.578605,1.449465,0.6085,0.32251,0.24194
1700498753796875,-9.665775,0.602605,1.446465,0.9185,0.35751,0.19394
1700498753804687,-9.658775,0.600605,1.408465,0.20285,0.25751,0.23994
1700498753812500,-9.653775,0.590605,1.390465,0.26685,0.28951,0.25394
1700498753820312,-9.669775,0.582605,1.394465,0.22285,0.18951,0.23694
1700498753828125,-9.687775,0.598605,1.392465,0.20385,0.15951,0.22294
1700498753835937,-9.694775,0.605605,1.403465,0.9885,0.18351,0.16294
1700498753843750,-9.705775,0.596605,1.403465,0.1185,0.27651,0.16294
1700498753851562,-9.703775,0.583605,1.397465,0.2985,0.29151,0.14594
1700498753859375,-9.707775,0.589605,1.392465,0.2885,0.34051,0.17794
1700498753867187,-9.712775,0.585605,1.397465,0.1185,0.35851,0.17894
1700498753875000,-9.698775,0.570605,1.403465,0.11685,0.37951,0.11594
1700498753882812,-9.686775,0.562605,1.408465,0.8985,0.37451,0.17794
1700498753890625,-9.664775,0.569605,1.397465,0.985,0.37451,0.22794
1700498753898437,-9.664775,0.555605,1.392465,0.2585,0.39051,0.24394
1700498753906250,-9.644775,0.555605,1.392465,0.1285,0.37351,0.21094
1700498753914062,-9.646775,0.546605,1.394465,0.2585,0.37451,0.24394
1700498753921875,-9.639775,0.566605,1.392465,0.1185,0.38751,0.35494
1700498753929687,-9.650775,0.555605,1.412465,0.2585,0.42251,0.29194
1700498753937500,-9.668775,0.549605,1.428465,0.1185,0.42251,0.21094
1700498753945312,-9.675775,0.558605,1.424465,0.4485,0.40451,0.22594
1700498753953125,-9.682775,0.553605,1.440465,0.2685,0.47151,0.22794
1700498753960937,-9.693775,0.556605,1.453465,0.785,0.42551,0.24494
1700498753968750,-9.689775,0.558605,1.453465,0.2785,0.43751,0.29094
1700498753976562,-9.698775,0.564605,1.453465,0.1885,0.38451,0.28894
1700498753984375,-9.693775,0.565605,1.462465,0.2885,0.37151,0.27494
1700498753992187,-9.680775,0.549605,1.444465,0.985,0.39151,0.22794
1700498754000000,-9.668775,0.544605,1.444465,0.6285,0.37051,0.24094
1700498754007812,-9.659775,0.547605,1.453465,0.3585,0.32951,0.26094
1700498754015625,-9.657775,0.548605,1.437465,0.12685,0.33651,0.27194
1700498754023437,-9.646775,0.544605,1.428465,0.7485,0.34051,0.25794
1700498754031250,-9.637775,0.541605,1.428465,0.10785,0.35451,0.33694
1700498754039062,-9.653775,0.546605,1.428465,0.8985,0.38951,0.24194
1700498754046875,-9.648775,0.542605,1.440465,0.8885,0.34251,0.20994
1700498754054687,-9.661775,0.522605,1.467465,0.12285,0.37251,0.25694
1700498754062500,-9.639775,0.526605,1.442465,0.515,0.42251,0.29194
1700498754070312,-9.630775,0.546605,1.415465,0.2485,0.39051,0.27594
1700498754078125,-9.619775,0.544605,1.440465,0.4085,0.39151,0.24394
1700498754085937,-9.625775,0.544605,1.437465,0.7085,0.37551,0.25994
1700498754093750,-9.632775,0.539605,1.421465,0.23185,0.37351,0.24094
1700498754101562,-9.657775,0.551605,1.464465,0.12385,0.30651,0.25694
1700498754109375,-9.659775,0.545605,1.464465,0.8185,0.21651,0.24394
1700498754117187,-9.671775,0.560605,1.487465,0.12485,0.22451,0.20794
1700498754125000,-9.682775,0.556605,1.503465,0.10685,0.30751,0.22594
1700498754132812,-9.684775,0.556605,1.498465,0.5685,0.34351,0.16294
1700498754140625,-9.688775,0.549605,1.485465,0.2485,0.34351,0.19594
1700498754148437,-9.677775,0.540605,1.478465,0.585,0.39351,0.22894
1700498754156250,-9.657775,0.519605,1.458465,0.3485,0.36951,0.19294
1700498754164062,-9.652775,0.531605,1.460465,0.785,0.39251,0.24494
1700498754171875,-9.646775,0.528605,1.467465,0.2985,0.32251,0.25794
1700498754179687,-9.648775,0.533605,1.458465,0.6285,0.35451,0.24094
1700498754187500,-9.636775,0.511605,1.433465,0.915,0.29551,0.26094
1700498754195312,-9.639775,0.506605,1.430465,0.6085,0.32251,0.24194
1700498754203125,-9.647775,0.506605,1.442465,0.3885,0.35951,0.25994
1700498754210937,-9.661775,0.507605,1.455465,0.3785,0.29551,0.24394
1700498754218750,-9.668775,0.518605,1.471465,0.14685,0.36051,0.27594
1700498754226562,-9.670775,0.513605,1.460465,0.22885,0.35851,0.25694
1700498754234375,-9.676775,0.512605,1.466465,0.11285,0.31451,0.24494
1700498754242187,-9.665775,0.509605,1.478465,0.12085,0.34351,0.11394
1700498754250000,-9.656775,0.518605,1.480465,0.13385,0.29551,0.14594
1700498754257812,-9.666775,0.533605,1.476465,0.8985,0.26151,0.12994
1700498754265625,-9.670775,0.531605,1.476465,0.8985,0.27651,0.17794
1700498754273437,-9.663775,0.527605,1.464465,0.10185,0.27951,0.21094
1700498754281250,-9.650775,0.524605,1.451465,0.12485,0.25751,0.23994
1700498754289062,-9.639775,0.519605,1.446465,0.14085,0.29051,0.17594
1700498754296875,-9.639775,0.524605,1.444465,0.4685,0.19151,0.20894
1700498754304687,-9.650775,0.518605,1.455465,0.11985,0.21251,0.17794
1700498754312500,-9.639775,0.506605,1.446465,0.14385,0.25651,0.14294
1700498754320312,-9.652775,0.502605,1.428465,0.615,0.31051,0.17994
1700498754328125,-9.647775,0.491605,1.439465,0.6285,0.29051,0.16094
1700498754335937,-9.659775,0.504605,1.444465,0.9385,0.24151,0.20794
1700498754343750,-9.650775,0.498605,1.446465,0.8985,0.27651,0.19394
1700498754351562,-9.650775,0.504605,1.433465,0.3485,0.17251,0.23894
1700498754359375,-9.659775,0.507605,1.433465,0.1085,0.21051,0.25894
1700498754367187,-9.670775,0.515605,1.430465,0.3285,0.20651,0.23994
1700498754375000,-9.677775,0.511605,1.435465,0.1885,0.23851,0.22394
1700498754382812,-9.683775,0.500605,1.446465,0.2585,0.29251,0.25894
1700498754390625,-9.688775,0.505605,1.462465,0.1285,0.27451,0.24194
1700498754398437,-9.690775,0.511605,1.437465,0.9385,0.19251,0.20794
1700498754406250,-9.683775,0.495605,1.435465,0.8185,0.25451,0.20694
1700498754414062,-9.672775,0.502605,1.442465,0.1085,0.30951,0.21094
1700498754421875,-9.674775,0.509605,1.421465,0.2685,0.30951,0.19494
1700498754429687,-9.670775,0.518605,1.435465,0.1485,0.20851,0.24094
1700498754437500,-9.666775,0.511605,1.439465,0.3385,0.25451,0.23994
1700498754445312,-9.661775,0.509605,1.412465,0.1285,0.22551,0.22594
1700498754453125,-9.652775,0.495605,1.390465,0.2785,0.25851,0.24194
1700498754460937,-9.645775,0.477605,1.372465,0.1085,0.27651,0.22694
1700498754468750,-9.654775,0.491605,1.372465,0.3485,0.14051,0.23894
1700498754476562,-9.658775,0.486605,1.374465,0.1185,0.17651,0.28994
1700498754484375,-9.674775,0.491605,1.392465,0.2485,0.27651,0.29094
1700498754492187,-9.677775,0.491605,1.397465,0.3085,0.25751,0.20894
1700498754500000,-9.688775,0.491605,1.390465,0.7785,0.20851,0.22394
1700498754507812,-9.690775,0.494605,1.417465,0.1385,0.19351,0.20994
1700498754515625,-9.688775,0.498605,1.412465,0.5985,0.30751,0.22594
1700498754523437,-9.695775,0.516605,1.437465,0.11485,0.32951,0.19594
1700498754531250,-9.710775,0.494605,1.417465,0.16785,0.24551,0.14494
1700498754539062,-9.701775,0.496605,1.394465,0.10385,0.32751,0.16294
1700498754546875,-9.701775,0.483605,1.397465,0.5285,0.36251,0.16494
1700498754554687,-9.683775,0.496605,1.406465,0.4385,0.34251,0.12994
1700498754562500,-9.665775,0.500605,1.460465,0.16785,0.40951,0.8194
1700498754570312,-9.656775,0.478605,1.428465,0.1785,0.34851,0.14994
1700498754578125,-9.636775,0.482605,1.401465,0.2385,0.27951,0.17994
1700498754585937,-9.650775,0.509605,1.435465,0.985,0.35851,0.27594
1700498754593750,-9.654775,0.509605,1.403465,0.2585,0.30951,0.24294
1700498754601562,-9.654775,0.511605,1.397465,0.1485,0.27351,0.24194
1700498754609375,-9.647775,0.506605,1.406465,0.8985,0.29351,0.19394
1700498754617187,-9.640775,0.466605,1.433465,0.5085,0.27151,0.20794
1700498754625000,-9.629775,0.473605,1.489465,0.4685,0.29151,0.9694
1700498754632812,-9.616775,0.499605,1.476465,0.19085,0.24051,0.14194
1700498754640625,-9.595775,0.468605,1.399465,0.27985,0.16251,0.14294
1700498754648437,-9.611775,0.470605,1.403465,0.20185,0.12951,0.15894
1700498754656250,-9.652775,0.493605,1.446465,0.26085,0.11551,0.15994
1700498754664062,-9.670775,0.491605,1.448465,0.10785,0.12951,0.12794
1700498754671875,-9.688775,0.491605,1.446465,0.5085,0.7651,0.14294
1700498754679687,-9.712775,0.499605,1.462465,0.1485,0.11351,0.11294
1700498754687500,-9.717775,0.488605,1.448465,0.12285,0.17851,0.12794
1700498754695312,-9.710775,0.494605,1.419465,0.14085,0.24251,0.11194
1700498754703125,-9.701775,0.480605,1.424465,0.9385,0.30651,0.19294
1700498754710937,-9.683775,0.492605,1.433465,0.12985,0.33151,0.14794
1700498754718750,-9.663775,0.489605,1.439465,0.18485,0.37351,0.20894
1700498754726562,-9.654775,0.491605,1.417465,0.12285,0.19451,0.16094
1700498754734375,-9.638775,0.497605,1.415465,0.4385,0.29151,0.22594
1700498754742187,-9.632775,0.495605,1.412465,0.1385,0.35551,0.22594
1700498754750000,-9.618775,0.497605,1.433465,0.3385,0.28751,0.22394
1700498754757812,-9.636775,0.495605,1.444465,0.3685,0.28651,0.20694
1700498754765625,-9.656775,0.489605,1.442465,0.6885,0.32951,0.17994
1700498754773437,-9.665775,0.476605,1.437465,0.15085,0.26351,0.11394
1700498754781250,-9.656775,0.464605,1.430465,0.7585,0.34051,0.19394
1700498754789062,-9.663775,0.464605,1.473465,0.7785,0.34151,0.9694
1700498754796875,-9.667775,0.467605,1.460465,0.8985,0.24551,0.11394
1700498754804687,-9.669775,0.462605,1.457465,0.7285,0.26151,0.19494
1700498754812500,-9.665775,0.471605,1.464465,0.18285,0.22951,0.19294
1700498754820312,-9.672775,0.476605,1.462465,0.14085,0.30851,0.7994
1700498754828125,-9.685775,0.478605,1.478465,0.24385,0.11751,0.12794
1700498754835937,-9.692775,0.483605,1.464465,0.20085,0.26051,0.15994
1700498754843750,-9.681775,0.473605,1.460465,0.24085,0.23951,0.10894
1700498754851562,-9.667775,0.473605,1.444465,0.14485,0.30551,0.7894
1700498754859375,-9.665775,0.489605,1.446465,0.23085,0.24551,0.9594
1700498754867187,-9.663775,0.493605,1.439465,0.28185,0.37451,0.7894
1700498754875000,-9.665775,0.487605,1.415465,0.26185,0.37651,0.9694
1700498754882812,-9.662775,0.478605,1.433465,0.27185,0.38051,0.8194
1700498754890625,-9.676775,0.467605,1.462465,0.18885,0.35651,0.12794
1700498754898437,-9.647775,0.471605,1.435465,0.22785,0.36151,0.12994
1700498754906250,-9.649775,0.496605,1.428465,0.25685,0.33151,0.8194
1700498754914062,-9.629775,0.491605,1.433465,0.27585,0.31251,0.8094
1700498754921875,-9.620775,0.495605,1.435465,0.26185,0.28051,0.4794
1700498754929687,-9.656775,0.498605,1.430465,0.27185,0.28251,0.9794
1700498754937500,-9.661775,0.504605,1.448465,0.26785,0.29251,0.1394
1700498754945312,-9.659775,0.509605,1.458465,0.26685,0.22851,0.1394
1700498754953125,-9.670775,0.505605,1.439465,0.27685,0.24751,0.6394
1700498754960937,-9.679775,0.509605,1.444465,0.27685,0.24751,0.7994
1700498754968750,-9.693775,0.529605,1.464465,0.24885,0.22851,0.9494
1700498754976562,-9.695775,0.523605,1.462465,0.18085,0.28151,0.6594
1700498754984375,-9.697775,0.520605,1.444465,0.19585,0.22351,0.1194
1700498754992187,-9.688775,0.505605,1.439465,0.24385,0.26651,0.1506
1700498755000000,-9.672775,0.500605,1.442465,0.20085,0.34451,0.3294
1700498755007812,-9.670775,0.496605,1.430465,0.26285,0.34251,0.12794
1700498755015625,-9.661775,0.498605,1.401465,0.24485,0.31251,0.9694
1700498755023437,-9.654775,0.484605,1.403465,0.21485,0.40951,0.8094
1700498755031250,-9.638775,0.495605,1.403465,0.25185,0.37251,0.9494
1700498755039062,-9.631775,0.495605,1.403465,0.27785,0.39351,0.7994
1700498755046875,-9.632775,0.500605,1.412465,0.26185,0.32751,0.9594
1700498755054687,-9.647775,0.498605,1.417465,0.27485,0.31451,0.8094
1700498755062500,-9.654775,0.507605,1.426465,0.25885,0.33051,0.6494
1700498755070312,-9.652775,0.524605,1.446465,0.27585,0.34551,0.8094
1700498755078125,-9.655775,0.533605,1.449465,0.26485,0.39251,0.4794
1700498755085937,-9.663775,0.536605,1.453465,0.27285,0.41351,0.3394
1700498755093750,-9.665775,0.523605,1.442465,0.22685,0.28251,0.3394
1700498755101562,-9.677775,0.520605,1.433465,0.26185,0.28051,0.3194
1700498755109375,-9.681775,0.509605,1.442465,0.24785,0.24551,0.6394
1700498755117187,-9.661775,0.516605,1.430465,0.19585,0.31551,0.1794
1700498755125000,-9.660775,0.503605,1.430465,0.14485,0.31851,0.1206
1700498755132812,-9.661775,0.496605,1.426465,0.18585,0.27851,0.0
1700498755140625,-9.672775,0.505605,1.421465,0.20385,0.29451,0.1706
1700498755148437,-9.650775,0.524605,1.430465,0.21685,0.27851,0.3194
1700498755156250,-9.668775,0.527605,1.451465,0.16985,0.29351,0.11294
1700498755164062,-9.677775,0.525605,1.458465,0.20085,0.31151,0.4894
1700498755171875,-9.668775,0.518605,1.437465,0.15485,0.27851,0.1606
1700498755179687,-9.659775,0.516605,1.439465,0.14785,0.34651,0.11494
1700498755187500,-9.652775,0.529605,1.430465,0.14985,0.32851,0.12994
1700498755195312,-9.656775,0.513605,1.419465,0.8885,0.32751,0.12994
1700498755203125,-9.654775,0.502605,1.415465,0.4585,0.32451,0.11294
1700498755210937,-9.647775,0.502605,1.426465,0.4885,0.27451,0.7994
1700498755218750,-9.652775,0.511605,1.410465,0.2885,0.32551,0.11394
1700498755226562,-9.656775,0.504605,1.410465,0.6185,0.27551,0.11294
1700498755234375,-9.656775,0.511605,1.426465,0.5585,0.26351,0.14694
1700498755242187,-9.656775,0.504605,1.435465,0.11085,0.25751,0.12794
1700498755250000,-9.652775,0.507605,1.446465,0.11885,0.26351,0.11394
1700498755257812,-9.659775,0.515605,1.460465,0.8085,0.28951,0.15994
1700498755265625,-9.657775,0.524605,1.467465,0.18585,0.30951,0.11194
1700498755273437,-9.657775,0.524605,1.464465,0.14385,0.28951,0.15894
1700498755281250,-9.657775,0.524605,1.451465,0.12385,0.25951,0.17694
1700498755289062,-9.652775,0.524605,1.437465,0.13785,0.27551,0.22494
1700498755296875,-9.634775,0.526605,1.428465,0.7585,0.32451,0.17794
1700498755304687,-9.638775,0.513605,1.421465,0.13585,0.21251,0.17694
1700498755312500,-9.636775,0.494605,1.401465,0.13585,0.28451,0.12394
1700498755320312,-9.629775,0.499605,1.385465,0.1585,0.19351,0.9694
1700498755328125,-9.641775,0.497605,1.410465,0.6685,0.23851,0.15894
1700498755335937,-9.654775,0.502605,1.428465,0.11585,0.23751,0.15794
1700498755343750,-9.668775,0.522605,1.462465,0.20485,0.15951,0.18994
1700498755351562,-9.686775,0.525605,1.460465,0.7185,0.23051,0.13094
1700498755359375,-9.693775,0.531605,1.462465,0.14685,0.22251,0.9394
1700498755367187,-9.706775,0.534605,1.460465,0.12585,0.27551,0.7994
1700498755375000,-9.698775,0.540605,1.458465,0.14785,0.28851,0.4594
1700498755382812,-9.698775,0.549605,1.433465,0.12585,0.30851,0.6394
1700498755390625,-9.700775,0.536605,1.410465,0.17385,0.35651,0.7894
1700498755398437,-9.688775,0.520605,1.430465,0.7685,0.35751,0.12994
1700498755406250,-9.674775,0.514605,1.424465,0.16685,0.31151,0.14594
1700498755414062,-9.684775,0.527605,1.460465,0.26685,0.40551,0.12694
1700498755421875,-9.668775,0.516605,1.462465,0.21585,0.29351,0.14394
1700498755429687,-9.647775,0.484605,1.419465,0.11085,0.24151,0.14394
1700498755437500,-9.641775,0.522605,1.455465,0.7685,0.29151,0.16094
1700498755445312,-9.650775,0.524605,1.458465,0.13885,0.30851,0.20894
1700498755453125,-9.653775,0.533605,1.410465,0.19085,0.28751,0.22194
1700498755460937,-9.659775,0.538605,1.419465,0.27385,0.29651,0.19294
1700498755468750,-9.641775,0.526605,1.430465,0.21585,0.24451,0.19194
1700498755476562,-9.625775,0.526605,1.455465,0.17185,0.25751,0.20794
1700498755484375,-9.630775,0.535605,1.469465,0.26185,0.26251,0.14394
1700498755492187,-9.619775,0.526605,1.408465,0.26885,0.15951,0.12494
1700498755500000,-9.620775,0.501605,1.376465,0.28185,0.11151,0.15794
1700498755507812,-9.670775,0.514605,1.428465,0.21485,0.8351,0.11194
1700498755515625,-9.695775,0.532605,1.444465,0.13785,0.4951,0.11194
1700498755523437,-9.711775,0.525605,1.439465,0.15385,0.13151,0.9594
1700498755531250,-9.715775,0.532605,1.442465,0.6985,0.16751,0.8294
1700498755539062,-9.729775,0.534605,1.426465,0.9485,0.17751,0.9594
1700498755546875,-9.706775,0.532605,1.388465,0.615,0.27951,0.9994
1700498755554687,-9.688775,0.529605,1.390465,0.7285,0.29651,0.8294
1700498755562500,-9.670775,0.534605,1.397465,0.14485,0.25051,0.11594
1700498755570312,-9.654775,0.524605,1.401465,0.10485,0.29451,0.11394
1700498755578125,-9.663775,0.511605,1.392465,0.11885,0.29451,0.20994
1700498755585937,-9.647775,0.520605,1.390465,0.6385,0.25051,0.26194
1700498755593750,-9.654775,0.513605,1.381465,0.785,0.27951,0.17994
1700498755601562,-9.659775,0.507605,1.376465,0.5785,0.32551,0.21094
1700498755609375,-9.657775,0.506605,1.394465,0.0,0.35451,0.27394
1700498755617187,-9.660775,0.494605,1.399465,0.3485,0.26551,0.19694
1700498755625000,-9.667775,0.494605,1.417465,0.4685,0.35051,0.18294
1700498755632812,-9.676775,0.489605,1.397465,0.4985,0.41251,0.18194
1700498755640625,-9.672775,0.491605,1.401465,0.14785,0.34651,0.14694
1700498755648437,-9.674775,0.496605,1.399465,0.685,0.36251,0.13294
1700498755656250,-9.678775,0.494605,1.410465,0.11385,0.34751,0.18094
1700498755664062,-9.679775,0.496605,1.426465,0.5785,0.39251,0.11494
1700498755671875,-9.694775,0.497605,1.435465,0.4585,0.35151,0.11894
1700498755679687,-9.683775,0.503605,1.428465,0.2485,0.34551,0.11594
1700498755687500,-9.670775,0.511605,1.435465,0.15185,0.40751,0.20994
1700498755695312,-9.674775,0.514605,1.446465,0.9785,0.34751,0.19694
1700498755703125,-9.670775,0.525605,1.444465,0.6885,0.34651,0.16394
1700498755710937,-9.672775,0.531605,1.448465,0.20985,0.39551,0.16294
1700498755718750,-9.666775,0.531605,1.437465,0.11385,0.38051,0.16494
1700498755726562,-9.672775,0.529605,1.433465,0.13685,0.44051,0.14594
1700498755734375,-9.686775,0.523605,1.446465,0.20785,0.39751,0.14794
1700498755742187,-9.681775,0.498605,1.471465,0.13185,0.37951,0.11594
1700498755750000,-9.665775,0.485605,1.464465,0.10485,0.42551,0.11494
1700498755757812,-9.645775,0.500605,1.433465,0.14985,0.39451,0.13094
1700498755765625,-9.614775,0.513605,1.435465,0.25585,0.39551,0.17894
1700498755773437,-9.607775,0.519605,1.433465,0.27785,0.32751,0.7994
1700498755781250,-9.623775,0.510605,1.464465,0.26785,0.32351,0.10994
1700498755789062,-9.629775,0.513605,1.469465,0.27785,0.36051,0.9594
1700498755796875,-9.659775,0.513605,1.494465,0.17285,0.25951,0.7894
1700498755804687,-9.686775,0.527605,1.503465,0.16785,0.29451,0.9694
1700498755812500,-9.697775,0.527605,1.494465,0.22185,0.27451,0.6194
1700498755820312,-9.715775,0.528605,1.496465,0.23085,0.37651,0.8094
1700498755828125,-9.720775,0.523605,1.505465,0.27885,0.39351,0.3194
1700498755835937,-9.697775,0.523605,1.516465,0.23185,0.32751,0.3194
1700498755843750,-9.681775,0.521605,1.489465,0.19385,0.44651,0.3494
1700498755851562,-9.666775,0.531605,1.476465,0.21685,0.32651,0.12794
1700498755859375,-9.659775,0.534605,1.466465,0.11285,0.28351,0.13194
1700498755867187,-9.637775,0.533605,1.453465,0.23085,0.32751,0.9694
1700498755875000,-9.632775,0.530605,1.446465,0.26785,0.32351,0.7794
1700498755882812,-9.632775,0.533605,1.433465,0.25285,0.27451,0.9394
1700498755890625,-9.632775,0.519605,1.428465,0.22185,0.29151,0.7794
1700498755898437,-9.625775,0.521605,1.433465,0.27185,0.27151,0.9194
1700498755906250,-9.625775,0.528605,1.430465,0.26685,0.29451,0.5006
1700498755914062,-9.630775,0.526605,1.430465,0.32485,0.20451,0.894
1700498755921875,-9.641775,0.528605,1.437465,0.35185,0.24151,0.3706
1700498755929687,-9.636775,0.520605,1.453465,0.26485,0.22951,0.1706
1700498755937500,-9.655775,0.529605,1.467465,0.28585,0.27551,0.306
1700498755945312,-9.659775,0.531605,1.467465,0.28385,0.29251,0.1394
1700498755953125,-9.670775,0.533605,1.460465,0.25185,0.29251,0.2994
1700498755960937,-9.670775,0.531605,1.449465,0.26585,0.27751,0.1494
1700498755968750,-9.673775,0.535605,1.464465,0.25385,0.25851,0.2894
1700498755976562,-9.671775,0.547605,1.471465,0.26585,0.29451,0.106
1700498755984375,-9.673775,0.546605,1.485465,0.24185,0.20851,0.2006
1700498755992187,-9.675775,0.538605,1.480465,0.19985,0.31351,0.3106
1700498756000000,-9.690775,0.525605,1.469465,0.20685,0.29251,0.8206
1700498756007812,-9.679775,0.520605,1.464465,0.18685,0.27851,0.1606
1700498756015625,-9.675775,0.518605,1.451465,0.22085,0.29251,0.3094
1700498756023437,-9.677775,0.516605,1.455465,0.20485,0.27651,0.3094
1700498756031250,-9.670775,0.513605,1.451465,0.27785,0.29551,0.9594
1700498756039062,-9.652775,0.524605,1.442465,0.21185,0.24851,0.8094
1700498756046875,-9.650775,0.533605,1.430465,0.24785,0.24551,0.6394
1700498756054687,-9.659775,0.535605,1.453465,0.24785,0.30951,0.11194
1700498756062500,-9.652775,0.540605,1.446465,0.27685,0.21451,0.7994
1700498756070312,-9.652775,0.533605,1.433465,0.26885,0.16051,0.9294
1700498756078125,-9.655775,0.539605,1.433465,0.28685,0.15851,0.9194
1700498756085937,-9.652775,0.542605,1.417465,0.26585,0.11351,0.7794
1700498756093750,-9.659775,0.544605,1.428465,0.28385,0.12851,0.4494
1700498756101562,-9.650775,0.535605,1.426465,0.25085,0.11351,0.6194
1700498756109375,-9.655775,0.542605,1.410465,0.22985,0.13251,0.9594
1700498756117187,-9.657775,0.544605,1.430465,0.21385,0.18151,0.9594
1700498756125000,-9.661775,0.535605,1.421465,0.21785,0.22851,0.7894
1700498756132812,-9.677775,0.535605,1.426465,0.20885,0.20751,0.6094
1700498756140625,-9.682775,0.545605,1.430465,0.25085,0.24351,0.7794
1700498756148437,-9.666775,0.542605,1.428465,0.12785,0.29051,0.6294
1700498756156250,-9.659775,0.544605,1.412465,0.20185,0.27751,0.9594
1700498756164062,-9.662775,0.549605,1.417465,0.23685,0.29051,0.9394
1700498756171875,-9.662775,0.558605,1.424465,0.15485,0.24451,0.11194
1700498756179687,-9.657775,0.558605,1.421465,0.20085,0.19651,0.7994
1700498756187500,-9.657775,0.555605,1.424465,0.22185,0.22551,0.9394
1700498756195312,-9.648775,0.555605,1.408465,0.20785,0.25651,0.7794
1700498756203125,-9.657775,0.558605,1.431465,0.18585,0.24451,0.9594
1700498756210937,-9.646775,0.555605,1.462465,0.15785,0.21051,0.7894
1700498756218750,-9.657775,0.557605,1.473465,0.18785,0.24251,0.12694
1700498756226562,-9.675775,0.574605,1.487465,0.21385,0.21451,0.9694
1700498756234375,-9.691775,0.578605,1.462465,0.16885,0.22751,0.17694
1700498756242187,-9.678775,0.573605,1.444465,0.1985,0.27251,0.9594
1700498756250000,-9.682775,0.566605,1.437465,0.13285,0.28651,0.7694
1700498756257812,-9.682775,0.574605,1.455465,0.8885,0.27951,0.4994
1700498756265625,-9.684775,0.560605,1.446465,0.2885,0.29351,0.11394
1700498756273437,-9.677775,0.545605,1.424465,0.12485,0.27751,0.3194
1700498756281250,-9.675775,0.551605,1.435465,0.22085,0.35851,0.1494
1700498756289062,-9.664775,0.553605,1.473465,0.28585,0.33851,0.9294
1700498756296875,-9.657775,0.538605,1.440465,0.21785,0.22851,0.7894
1700498756304687,-9.632775,0.530605,1.388465,0.8485,0.20651,0.9394
1700498756312500,-9.624775,0.561605,1.451465,0.1285,0.17851,0.17794
1700498756320312,-9.630775,0.571605,1.417465,0.5285,0.24751,0.19594
1700498756328125,-9.635775,0.579605,1.397465,0.17385,0.27451,0.9494
1700498756335937,-9.635775,0.553605,1.372465,0.22185,0.24151,0.7794
1700498756343750,-9.628775,0.539605,1.394465,0.20385,0.24351,0.7894
1700498756351562,-9.626775,0.557605,1.505465,0.9185,0.30951,0.9694
1700498756359375,-9.617775,0.581605,1.473465,0.19985,0.26251,0.7994
1700498756367187,-9.610775,0.570605,1.417465,0.27985,0.16451,0.6294
1700498756375000,-9.621775,0.557605,1.426465,0.29685,0.14651,0.7794
1700498756382812,-9.653775,0.551605,1.417465,0.31685,0.14551,0.2006
1700498756390625,-9.671775,0.562605,1.419465,0.15485,0.16451,0.3194
1700498756398437,-9.691775,0.565605,1.437465,0.8685,0.14951,0.9794
1700498756406250,-9.693775,0.560605,1.437465,0.10685,0.16351,0.8094
1700498756414062,-9.700775,0.571605,1.417465,0.6185,0.24251,0.12894
1700498756421875,-9.685775,0.573605,1.412465,0.4985,0.19251,0.9594
1700498756429687,-9.680775,0.573605,1.406465,0.9985,0.27151,0.11094
1700498756437500,-9.675775,0.573605,1.403465,0.10585,0.24551,0.11394
1700498756445312,-9.671775,0.578605,1.385465,0.6085,0.24451,0.11294
1700498756453125,-9.653775,0.564605,1.383465,0.7685,0.30951,0.6494
1700498756460937,-9.646775,0.580605,1.379465,0.1385,0.30951,0.8194
1700498756468750,-9.639775,0.575605,1.397465,0.2885,0.27651,0.9794
1700498756476562,-9.635775,0.557605,1.392465,0.3585,0.28751,0.15994
1700498756484375,-9.639775,0.568605,1.388465,0.985,0.27751,0.16294
1700498756492187,-9.641775,0.551605,1.399465,0.5985,0.29351,0.11394
1700498756500000,-9.644775,0.544605,1.410465,0.9685,0.27251,0.12694
1700498756507812,-9.655775,0.546605,1.401465,0.1185,0.29451,0.9894
1700498756515625,-9.659775,0.547605,1.401465,0.885,0.27951,0.14794
1700498756523437,-9.657775,0.544605,1.410465,0.10485,0.29451,0.12994
1700498756531250,-9.659775,0.549605,1.421465,0.13885,0.32651,0.8094
1700498756539062,-9.655775,0.550605,1.421465,0.1985,0.32051,0.14394
1700498756546875,-9.655775,0.560605,1.431465,0.12185,0.30951,0.16194
1700498756554687,-9.673775,0.556605,1.464465,0.785,0.29751,0.8394
1700498756562500,-9.682775,0.561605,1.448465,0.2085,0.33151,0.10094
1700498756570312,-9.677775,0.551605,1.426465,0.3985,0.32851,0.16394
1700498756578125,-9.666775,0.558605,1.435465,0.1885,0.34851,0.13394
1700498756585937,-9.666775,0.564605,1.451465,0.5885,0.29451,0.8194
1700498756593750,-9.671775,0.560605,1.453465,0.6085,0.40651,0.11394
1700498756601562,-9.675775,0.571605,1.442465,0.21285,0.34551,0.9794
1700498756609375,-9.682775,0.549605,1.433465,0.18385,0.37651,0.8094
1700498756617187,-9.670775,0.540605,1.426465,0.8785,0.32851,0.9894
1700498756625000,-9.632775,0.535605,1.397465,0.13685,0.36051,0.8194
1700498756632812,-9.610775,0.553605,1.392465,0.24385,0.37851,0.11394
1700498756640625,-9.597775,0.572605,1.426465,0.19985,0.32751,0.9694
1700498756648437,-9.608775,0.575605,1.403465,0.18085,0.29751,0.8194
1700498756656250,-9.624775,0.586605,1.415465,0.29185,0.23051,0.9594
1700498756664062,-9.655775,0.578605,1.451465,0.16485,0.29751,0.9794
1700498756671875,-9.662775,0.598605,1.444465,0.25485,0.30051,0.8294
1700498756679687,-9.669775,0.586605,1.446465,0.20785,0.24051,0.7794
1700498756687500,-9.671775,0.582605,1.453465,0.21285,0.29751,0.1694
1700498756695312,-9.680775,0.583605,1.469465,0.19685,0.29751,0.4994
1700498756703125,-9.678775,0.578605,1.466465,0.10185,0.33051,0.9894
1700498756710937,-9.675775,0.558605,1.442465,0.26385,0.29551,0.1494
1700498756718750,-9.661775,0.547605,1.440465,0.23185,0.32751,0.6394
1700498756726562,-9.653775,0.544605,1.419465,0.22185,0.45351,0.7894
1700498756734375,-9.634775,0.542605,1.421465,0.8885,0.39251,0.11494
1700498756742187,-9.625775,0.544605,1.421465,0.24585,0.40951,0.9694
1700498756750000,-9.621775,0.555605,1.406465,0.27585,0.41151,0.8094
1700498756757812,-9.635775,0.575605,1.430465,0.25885,0.46151,0.4994
1700498756765625,-9.631775,0.581605,1.424465,0.26585,0.40751,0.6294
1700498756773437,-9.635775,0.568605,1.435465,0.28085,0.44151,0.0
1700498756781250,-9.646775,0.573605,1.444465,0.25185,0.45651,0.0
1700498756789062,-9.632775,0.578605,1.426465,0.25185,0.36751,0.9994
1700498756796875,-9.632775,0.564605,1.437465,0.27285,0.34851,0.4994
1700498756804687,-9.630775,0.566605,1.444465,0.26185,0.31351,0.1594
1700498756812500,-9.626775,0.566605,1.442465,0.27885,0.31151,0.3094
1700498756820312,-9.635775,0.564605,1.446465,0.26285,0.27851,0.7994
1700498756828125,-9.644775,0.577605,1.453465,0.26385,0.29551,0.1494
1700498756835937,-9.648775,0.582605,1.455465,0.27585,0.28051,0.9594
1700498756843750,-9.651775,0.586605,1.446465,0.26085,0.29651,0.8094
1700498756851562,-9.646775,0.579605,1.433465,0.26785,0.27451,0.9394
1700498756859375,-9.642775,0.595605,1.439465,0.21385,0.29651,0.9694
1700498756867187,-9.639775,0.586605,1.430465,0.25885,0.31451,0.8094
1700498756875000,-9.626775,0.577605,1.406465,0.27785,0.36051,0.6394
1700498756882812,-9.626775,0.573605,1.430465,0.22885,0.34551,0.9694
1700498756890625,-9.621775,0.579605,1.433465,0.16585,0.36151,0.8194
1700498756898437,-9.630775,0.573605,1.428465,0.25985,0.34551,0.9694
1700498756906250,-9.637775,0.567605,1.428465,0.9785,0.30051,0.10094
1700498756914062,-9.630775,0.575605,1.431465,0.12185,0.32751,0.8194
1700498756921875,-9.635775,0.575605,1.419465,0.22685,0.26451,0.11394
1700498756929687,-9.642775,0.566605,1.410465,0.17285,0.30851,0.6394
1700498756937500,-9.639775,0.562605,1.424465,0.21485,0.29451,0.9694
1700498756945312,-9.642775,0.566605,1.417465,0.23885,0.24051,0.10894
1700498756953125,-9.637775,0.564605,1.410465,0.19785,0.29651,0.8094
1700498756960937,-9.637775,0.566605,1.406465,0.25485,0.25651,0.9294
1700498756968750,-9.637775,0.564605,1.431465,0.21685,0.27751,0.11194
1700498756976562,-9.644775,0.577605,1.426465,0.11985,0.29451,0.16194
1700498756984375,-9.657775,0.575605,1.417465,0.22785,0.27951,0.17794
1700498756992187,-9.653775,0.591605,1.403465,0.6585,0.29951,0.11694
1700498757000000,-9.662775,0.593605,1.440465,0.3485,0.30451,0.17594
1700498757007812,-9.678775,0.595605,1.462465,0.9785,0.27351,0.9494
1700498757015625,-9.692775,0.584605,1.453465,0.385,0.35451,0.8094
1700498757023437,-9.682775,0.584605,1.444465,0.6385,0.30751,0.9594
1700498757031250,-9.678775,0.582605,1.442465,0.985,0.32851,0.8394
1700498757039062,-9.655775,0.575605,1.440465,0.6785,0.38651,0.7994
1700498757046875,-9.637775,0.566605,1.406465,0.15585,0.34151,0.11194
1700498757054687,-9.648775,0.562605,1.406465,0.16985,0.32651,0.12894
1700498757062500,-9.640775,0.561605,1.408465,0.19585,0.36851,0.7694
1700498757070312,-9.635775,0.584605,1.410465,0.15685,0.29051,0.19194
1700498757078125,-9.655775,0.577605,1.431465,0.11485,0.25551,0.14194
1700498757085937,-9.660775,0.588605,1.435465,0.22285,0.38651,0.15794
1700498757093750,-9.658775,0.584605,1.428465,0.21885,0.32351,0.20794
1700498757101562,-9.669775,0.575605,1.428465,0.23085,0.29351,0.17594
1700498757109375,-9.660775,0.584605,1.431465,0.12285,0.37351,0.16094
1700498757117187,-9.673775,0.591605,1.435465,0.20085,0.35951,0.11294
1700498757125000,-9.676775,0.580605,1.435465,0.26985,0.43751,0.7794
1700498757132812,-9.687775,0.582605,1.451465,0.28085,0.45651,0.9594
1700498757140625,-9.680775,0.569605,1.453465,0.18685,0.42351,0.7994
1700498757148437,-9.664775,0.569605,1.462465,0.26285,0.45751,0.9694
1700498757156250,-9.658775,0.589605,1.518465,0.26185,0.47551,0.8094
1700498757164062,-9.655775,0.562605,1.498465,0.20885,0.39551,0.19494
1700498757171875,-9.635775,0.561605,1.435465,0.9485,0.29051,0.15994
1700498757179687,-9.622775,0.592605,1.424465,0.1585,0.33951,0.12894
1700498757187500,-9.622775,0.601605,1.419465,0.15185,0.35851,0.20994
1700498757195312,-9.636775,0.605605,1.417465,0.24285,0.33251,0.25194
1700498757203125,-9.653775,0.588605,1.413465,0.26585,0.27551,0.12694
1700498757210937,-9.659775,0.553605,1.473465,0.27885,0.27751,0.14294
1700498757218750,-9.655775,0.571605,1.487465,0.18485,0.29351,0.12794
1700498757226562,-9.631775,0.586605,1.485465,0.16885,0.29351,0.17694
1700498757234375,-9.620775,0.603605,1.446465,0.32785,0.17751,0.17394
1700498757242187,-9.633775,0.590605,1.428465,0.34285,0.22651,0.18994
1700498757250000,-9.658775,0.591605,1.428465,0.23585,0.15951,0.17394
1700498757257812,-9.667775,0.600605,1.430465,0.10285,0.13151,0.20994
1700498757265625,-9.671775,0.593605,1.428465,0.9985,0.14051,0.10994
1700498757273437,-9.687775,0.587605,1.433465,0.1385,0.26051,0.8194
1700498757281250,-9.696775,0.580605,1.415465,0.3485,0.28951,0.9594
1700498757289062,-9.682775,0.582605,1.403465,0.985,0.32751,0.14694
1700498757296875,-9.678775,0.575605,1.412465,0.6385,0.29051,0.11194
1700498757304687,-9.675775,0.567605,1.431465,0.12185,0.26051,0.16094
1700498757312500,-9.675775,0.551605,1.426465,0.1085,0.32751,0.13094
1700498757320312,-9.668775,0.553605,1.428465,0.3885,0.39351,0.18094
1700498757328125,-9.657775,0.562605,1.431465,0.7385,0.37451,0.17894
1700498757335937,-9.657775,0.558605,1.430465,0.13385,0.37651,0.21094
1700498757343750,-9.657775,0.569605,1.442465,0.1985,0.44451,0.19794
1700498757351562,-9.658775,0.575605,1.442465,0.10785,0.37251,0.24094
1700498757359375,-9.660775,0.562605,1.455465,0.985,0.39051,0.25994
1700498757367187,-9.657775,0.558605,1.460465,0.885,0.37651,0.17994
1700498757375000,-9.655775,0.553605,1.444465,0.5785,0.38951,0.27494
1700498757382812,-9.646775,0.555605,1.446465,0.13685,0.35751,0.25794
1700498757390625,-9.648775,0.553605,1.453465,0.13685,0.37351,0.24194
1700498757398437,-9.655775,0.558605,1.464465,0.8585,0.39251,0.24394
1700498757406250,-9.653775,0.566605,1.453465,0.10985,0.37051,0.25694
1700498757414062,-9.657775,0.560605,1.462465,0.12185,0.38951,0.24194
1700498757421875,-9.660775,0.560605,1.467465,0.7385,0.37351,0.25894
1700498757429687,-9.662775,0.566605,1.469465,0.1185,0.38951,0.22694
1700498757437500,-9.657775,0.560605,1.464465,0.15285,0.35751,0.24094
1700498757445312,-9.660775,0.562605,1.469465,0.21385,0.37451,0.24194
1700498757453125,-9.671775,0.558605,1.464465,0.16185,0.39551,0.19594
1700498757460937,-9.673775,0.560605,1.462465,0.26185,0.37551,0.17694
1700498757468750,-9.678775,0.567605,1.467465,0.24485,0.39251,0.17794
1700498757476562,-9.689775,0.549605,1.478465,0.15185,0.44051,0.19394
1700498757484375,-9.686775,0.534605,1.491465,0.3485,0.39651,0.19794
1700498757492187,-9.650775,0.537605,1.455465,0.8985,0.48851,0.22694
1700498757500000,-9.634775,0.544605,1.475465,0.20985,0.44351,0.21094
1700498757507812,-9.619775,0.553605,1.471465,0.22185,0.41351,0.21194
1700498757515625,-9.634775,0.551605,1.455465,0.25785,0.49251,0.16294
1700498757523437,-9.639775,0.564605,1.478465,0.27485,0.44251,0.19394
1700498757531250,-9.635775,0.564605,1.516465,0.26585,0.40551,0.15894
1700498757539062,-9.637775,0.571605,1.516465,0.21385,0.37651,0.14594
1700498757546875,-9.640775,0.582605,1.505465,0.15385,0.35951,0.9694
1700498757554687,-9.642775,0.582605,1.503465,0.13385,0.36151,0.14694
1700498757562500,-9.650775,0.576605,1.507465,0.15685,0.35051,0.18094
1700498757570312,-9.664775,0.567605,1.507465,0.10285,0.34551,0.13094
1700498757578125,-9.664775,0.569605,1.512465,0.14985,0.34551,0.11394
1700498757585937,-9.657775,0.571605,1.494465,0.415,0.37451,0.16294
1700498757593750,-9.659775,0.567605,1.482465,0.6685,0.34751,0.16494
1700498757601562,-9.641775,0.558605,1.489465,0.14785,0.33051,0.14694
1700498757609375,-9.639775,0.565605,1.487465,0.6085,0.38451,0.15094
1700498757617187,-9.632775,0.553605,1.480465,0.9285,0.37351,0.11294
1700498757625000,-9.621775,0.561605,1.485465,0.12285,0.39151,0.9794
1700498757632812,-9.621775,0.551605,1.498465,0.16085,0.34751,0.14794
1700498757640625,-9.632775,0.546605,1.496465,0.11385,0.38051,0.16494
1700498757648437,-9.626775,0.544605,1.494465,0.19885,0.35851,0.20894
1700498757656250,-9.621775,0.548605,1.498465,0.28885,0.32851,0.24194
1700498757664062,-9.625775,0.553605,1.507465,0.16185,0.36251,0.21194
1700498757671875,-9.628775,0.546605,1.505465,0.23285,0.35751,0.17594
1700498757679687,-9.630775,0.549605,1.507465,0.25585,0.34651,0.21094
1700498757687500,-9.639775,0.553605,1.491465,0.23785,0.30051,0.14694
1700498757695312,-9.657775,0.556605,1.491465,0.26585,0.30251,0.11594
1700498757703125,-9.659775,0.547605,1.502465,0.26785,0.35051,0.11594
1700498757710937,-9.675775,0.554605,1.500465,0.17985,0.28151,0.9794
1700498757718750,-9.690775,0.550605,1.502465,0.15885,0.33251,0.19694
1700498757726562,-9.688775,0.545605,1.494465,0.27485,0.32751,0.24094
1700498757734375,-9.675775,0.547605,1.500465,0.14185,0.28451,0.14894
1700498757742187,-9.672775,0.538605,1.498465,0.10985,0.39951,0.14994
1700498757750000,-9.661775,0.538605,1.482465,0.19385,0.34651,0.16294
1700498757757812,-9.657775,0.538605,1.487465,0.11385,0.28251,0.17994
1700498757765625,-9.645775,0.531605,1.498465,0.15585,0.30151,0.22894
1700498757773437,-9.630775,0.524605,1.509465,0.11385,0.26451,0.25994
1700498757781250,-9.634775,0.535605,1.527465,0.11985,0.31051,0.16194
1700498757789062,-9.634775,0.533605,1.505465,0.3685,0.28251,0.11694
1700498757796875,-9.625775,0.531605,1.484465,0.14585,0.28251,0.16394
1700498757804687,-9.621775,0.537605,1.478465,0.14685,0.29751,0.19494
1700498757812500,-9.621775,0.542605,1.480465,0.6585,0.31451,0.21294
1700498757820312,-9.625775,0.533605,1.500465,0.8285,0.29651,0.24394
1700498757828125,-9.641775,0.540605,1.478465,0.9685,0.24851,0.26094
1700498757835937,-9.655775,0.542605,1.475465,0.3585,0.26351,0.24494
1700498757843750,-9.664775,0.547605,1.491465,0.285,0.29751,0.26194
1700498757851562,-9.672775,0.547605,1.509465,0.1085,0.31951,0.21594
1700498757859375,-9.668775,0.550605,1.536465,0.215,0.30251,0.21594
1700498757867187,-9.691775,0.545605,1.527465,0.13485,0.21251,0.22594
1700498757875000,-9.695775,0.545605,1.518465,0.13685,0.26051,0.22494
1700498757882812,-9.675775,0.545605,1.523465,0.11385,0.26551,0.19594
1700498757890625,-9.675775,0.545605,1.512465,0.11885,0.29651,0.11394
1700498757898437,-9.682775,0.547605,1.509465,0.21085,0.34651,0.13094
1700498757906250,-9.670775,0.545605,1.494465,0.16585,0.29451,0.19394
1700498757914062,-9.654775,0.540605,1.473465,0.4985,0.28151,0.22894
1700498757921875,-9.648775,0.538605,1.444465,0.11985,0.29451,0.14594
1700498757929687,-9.643775,0.522605,1.446465,0.19685,0.27951,0.14594
1700498757937500,-9.634775,0.517605,1.451465,0.10585,0.29351,0.17794
1700498757945312,-9.634775,0.537605,1.475465,0.17885,0.29551,0.25894
1700498757953125,-9.634775,0.546605,1.478465,0.20985,0.21551,0.20994
1700498757960937,-9.635775,0.548605,1.473465,0.14085,0.24151,0.19194
1700498757968750,-9.657775,0.553605,1.485465,0.16585,0.29451,0.22594
1700498757976562,-9.666775,0.549605,1.485465,0.15285,0.30951,0.17694
1700498757984375,-9.675775,0.549605,1.487465,0.7685,0.29151,0.14494
1700498757992187,-9.673775,0.546605,1.473465,0.14485,0.35351,0.15894
1700498758000000,-9.670775,0.536605,1.464465,0.12085,0.37551,0.17794
1700498758007812,-9.679775,0.534605,1.467465,0.16585,0.39251,0.16194
1700498758015625,-9.677775,0.536605,1.480465,0.18585,0.37351,0.17694
1700498758023437,-9.666775,0.542605,1.516465,0.18985,0.38751,0.15894
1700498758031250,-9.655775,0.529605,1.491465,0.13785,0.34251,0.14494
1700498758039062,-9.639775,0.533605,1.464465,0.115,0.27551,0.14594
1700498758046875,-9.628775,0.568605,1.487465,0.2685,0.35851,0.17894
1700498758054687,-9.644775,0.566605,1.457465,0.3685,0.34551,0.21294
1700498758062500,-9.653775,0.568605,1.449465,0.10685,0.43951,0.19394
1700498758070312,-9.646775,0.544605,1.464465,0.18285,0.29451,0.16094
1700498758078125,-9.632775,0.522605,1.455465,0.8985,0.32551,0.19394
1700498758085937,-9.623775,0.528605,1.521465,0.5885,0.42451,0.14694
1700498758093750,-9.623775,0.557605,1.525465,0.22485,0.37951,0.17894
1700498758101562,-9.619775,0.542605,1.464465,0.26085,0.21451,0.9594
1700498758109375,-9.637775,0.544605,1.462465,0.30585,0.21551,0.12894
1700498758117187,-9.684775,0.554605,1.516465,0.25885,0.13351,0.14494
1700498758125000,-9.695775,0.565605,1.498465,0.27385,0.11851,0.7994
1700498758132812,-9.702775,0.554605,1.498465,0.22185,0.19251,0.10994
1700498758140625,-9.706775,0.545605,1.505465,0.6985,0.16751,0.8294
1700498758148437,-9.688775,0.548605,1.475465,0.12585,0.27051,0.10094
1700498758156250,-9.672775,0.527605,1.464465,0.11985,0.26351,0.8194
1700498758164062,-9.663775,0.524605,1.464465,0.26485,0.27751,0.9494
1700498758171875,-9.646775,0.531605,1.464465,0.15685,0.32451,0.7994
1700498758179687,-9.634775,0.520605,1.455465,0.9885,0.38051,0.9994
1700498758187500,-9.620775,0.520605,1.451465,0.8485,0.28251,0.8394
1700498758195312,-9.621775,0.519605,1.462465,0.5685,0.34351,0.17894
1700498758203125,-9.614775,0.524605,1.458465,0.11885,0.34351,0.17894
1700498758210937,-9.621775,0.535605,1.460465,0.13385,0.31251,0.16294
1700498758218750,-9.634775,0.526605,1.467465,0.8785,0.34351,0.16294
1700498758226562,-9.650775,0.526605,1.473465,0.4785,0.33951,0.12894
1700498758234375,-9.657775,0.531605,1.489465,0.20185,0.32451,0.14394
1700498758242187,-9.688775,0.529605,1.514465,0.16885,0.39151,0.12894
1700498758250000,-9.690775,0.518605,1.518465,0.27685,0.42651,0.9694
1700498758257812,-9.697775,0.512605,1.536465,0.21385,0.40951,0.11394
1700498758265625,-9.697775,0.512605,1.545465,0.24385,0.44351,0.11394
1700498758273437,-9.697775,0.516605,1.568465,0.27785,0.45751,0.12894
1700498758281250,-9.681775,0.496605,1.563465,0.20185,0.45551,0.12894
1700498758289062,-9.665775,0.494605,1.543465,0.24085,0.36451,0.9894
1700498758296875,-9.643775,0.502605,1.552465,0.27385,0.42551,0.24194
1700498758304687,-9.632775,0.511605,1.550465,0.25785,0.42751,0.17794
1700498758312500,-9.600775,0.521605,1.543465,0.27485,0.37651,0.22494
1700498758320312,-9.589775,0.539605,1.545465,0.27285,0.39451,0.24194
1700498758328125,-9.597775,0.552605,1.539465,0.26585,0.33951,0.20694
1700498758335937,-9.599775,0.564605,1.527465,0.27285,0.27951,0.25794
1700498758343750,-9.612775,0.575605,1.520465,0.25585,0.29751,0.24194
1700498758351562,-9.637775,0.564605,1.534465,0.27385,0.31051,0.28894
1700498758359375,-9.630775,0.546605,1.550465,0.21285,0.29251,0.32194
1700498758367187,-9.624775,0.566605,1.527465,0.24185,0.31051,0.32194
1700498758375000,-9.626775,0.573605,1.523465,0.26385,0.20251,0.33994
1700498758382812,-9.608775,0.574605,1.516465,0.26585,0.15951,0.25394
1700498758390625,-9.624775,0.575605,1.527465,0.27285,0.18151,0.28894
1700498758398437,-9.635775,0.588605,1.514465,0.24985,0.17551,0.23794
1700498758406250,-9.666775,0.587605,1.539465,0.19285,0.19851,0.25894
1700498758414062,-9.676775,0.596605,1.552465,0.16785,0.12951,0.25594
1700498758421875,-9.685775,0.587605,1.550465,0.10385,0.16351,0.24194
1700498758429687,-9.696775,0.581605,1.545465,0.11585,0.18251,0.21094
1700498758437500,-9.693775,0.583605,1.568465,0.6785,0.26551,0.11594
1700498758445312,-9.682775,0.567605,1.572465,0.6785,0.23251,0.16394
1700498758453125,-9.680775,0.556605,1.561465,0.5785,0.26151,0.16294
1700498758460937,-9.668775,0.540605,1.530465,0.1385,0.19451,0.11394
1700498758468750,-9.638775,0.522605,1.475465,0.585,0.24951,0.11694
1700498758476562,-9.621775,0.513605,1.469465,0.5985,0.17851,0.17694
1700498758484375,-9.620775,0.504605,1.482465,0.9985,0.16751,0.11494
1700498758492187,-9.620775,0.498605,1.478465,0.4685,0.26851,0.19794
1700498758500000,-9.620775,0.504605,1.480465,0.485,0.24751,0.27694
1700498758507812,-9.621775,0.510605,1.455465,0.12185,0.16151,0.20894
1700498758515625,-9.625775,0.513605,1.469465,0.16585,0.22851,0.22594
1700498758523437,-9.641775,0.533605,1.480465,0.14885,0.13151,0.22594
1700498758531250,-9.636775,0.518605,1.482465,0.15985,0.16851,0.17894
1700498758539062,-9.652775,0.527605,1.487465,0.14585,0.11951,0.13094
1700498758546875,-9.652775,0.533605,1.485465,0.13785,0.16351,0.11294
1700498758554687,-9.657775,0.531605,1.498465,0.13185,0.13451,0.13094
1700498758562500,-9.663775,0.534605,1.500465,0.14985,0.13351,0.9694
1700498758570312,-9.666775,0.534605,1.500465,0.6685,0.21851,0.11594
1700498758578125,-9.661775,0.524605,1.478465,0.2985,0.21151,0.11394
1700498758585937,-9.670775,0.529605,1.464465,0.5885,0.18051,0.9694
1700498758593750,-9.665775,0.525605,1.460465,0.8585,0.16651,0.14694
1700498758601562,-9.663775,0.520605,1.451465,0.215,0.20951,0.22594
1700498758609375,-9.670775,0.520605,1.466465,0.2485,0.26351,0.11494
1700498758617187,-9.674775,0.514605,1.464465,0.685,0.28051,0.13194
1700498758625000,-9.658775,0.505605,1.460465,0.2285,0.29751,0.11594
1700498758632812,-9.659775,0.504605,1.478465,0.2685,0.27851,0.13094
1700498758640625,-9.647775,0.511605,1.478465,0.10785,0.24451,0.11294
1700498758648437,-9.643775,0.491605,1.473465,0.5785,0.26151,0.12994
1700498758656250,-9.638775,0.498605,1.475465,0.10985,0.20451,0.11694
1700498758664062,-9.629775,0.511605,1.457465,0.5485,0.19751,0.21094
1700498758671875,-9.641775,0.506605,1.453465,0.5785,0.21051,0.25794
1700498758679687,-9.647775,0.520605,1.457465,0.2085,0.23151,0.24494
1700498758687500,-9.652775,0.515605,1.469465,0.10385,0.11451,0.24194
1700498758695312,-9.663775,0.515605,1.482465,0.12285,0.22651,0.20894
1700498758703125,-9.677775,0.529605,1.473465,0.4085,0.16351,0.24294
1700498758710937,-9.670775,0.535605,1.487465,0.1585,0.14251,0.22494
1700498758718750,-9.673775,0.538605,1.496465,0.2685,0.22751,0.24294
1700498758726562,-9.675775,0.529605,1.493465,0.685,0.29551,0.22794
1700498758734375,-9.666775,0.535605,1.491465,0.1185,0.32451,0.24294
1700498758742187,-9.673775,0.536605,1.500465,0.1085,0.19451,0.24294
1700498758750000,-9.670775,0.531605,1.494465,0.785,0.26151,0.27594
1700498758757812,-9.666775,0.538605,1.480465,0.1285,0.22551,0.25794
1700498758765625,-9.657775,0.531605,1.503465,0.2285,0.26251,0.24394
1700498758773437,-9.659775,0.529605,1.503465,0.885,0.21251,0.24294
1700498758781250,-9.652775,0.518605,1.471465,0.285,0.21651,0.26094
1700498758789062,-9.636775,0.515605,1.466465,0.2085,0.24751,0.22894
1700498758796875,-9.629775,0.511605,1.460465,0.785,0.27951,0.19594
1700498758804687,-9.629775,0.502605,1.448465,0.2385,0.18051,0.22694
1700498758812500,-9.641775,0.500605,1.464465,0.10385,0.14651,0.22594
1700498758820312,-9.638775,0.502605,1.462465,0.1185,0.17851,0.19394
1700498758828125,-9.647775,0.496605,1.473465,0.8485,0.18251,0.21094
1700498758835937,-9.654775,0.509605,1.487465,0.5485,0.21351,0.22694
1700498758843750,-9.663775,0.516605,1.478465,0.7185,0.23051,0.16294
1700498758851562,-9.663775,0.527605,1.496465,0.685,0.29551,0.22794
1700498758859375,-9.670775,0.525605,1.482465,0.1985,0.36251,0.26194
1700498758867187,-9.684775,0.529605,1.489465,0.4685,0.24251,0.9694
1700498758875000,-9.692775,0.516605,1.491465,0.11985,0.31051,0.16194
1700498758882812,-9.674775,0.512605,1.480465,0.8085,0.38151,0.14994
1700498758890625,-9.674775,0.502605,1.473465,0.22985,0.34351,0.12894
1700498758898437,-9.670775,0.512605,1.507465,0.15885,0.35051,0.8494
1700498758906250,-9.665775,0.505605,1.541465,0.8885,0.36051,0.14694
1700498758914062,-9.638775,0.469605,1.482465,0.7385,0.26151,0.11394
1700498758921875,-9.620775,0.488605,1.466465,0.985,0.27951,0.11594
1700498758929687,-9.627775,0.531605,1.489465,0.885,0.24651,0.13094
1700498758937500,-9.637775,0.533605,1.446465,0.5785,0.22851,0.14594
1700498758945312,-9.634775,0.531605,1.424465,0.8985,0.17951,0.14494
1700498758953125,-9.634775,0.529605,1.448465,0.2185,0.16551,0.19594
1700498758960937,-9.636775,0.509605,1.457465,0.11885,0.23051,0.14594
1700498758968750,-9.638775,0.504605,1.514465,0.13985,0.16251,0.9594
1700498758976562,-9.634775,0.520605,1.516465,0.23385,0.11351,0.9394
1700498758984375,-9.634775,0.497605,1.471465,0.27785,0.13151,0.14294
1700498758992187,-9.656775,0.486605,1.471465,0.26785,0.16151,0.7794
1700498759000000,-9.692775,0.488605,1.489465,0.25085,0.15551,0.13094
1700498759007812,-9.708775,0.494605,1.482465,0.16385,0.18451,0.8194
1700498759015625,-9.712775,0.503605,1.487465,0.8585,0.16751,0.6694
1700498759023437,-9.708775,0.501605,1.491465,0.3685,0.15251,0.8394
1700498759031250,-9.696775,0.492605,1.455465,0.785,0.28051,0.11594
1700498759039062,-9.676775,0.496605,1.441465,0.12585,0.27051,0.10094
1700498759046875,-9.663775,0.498605,1.444465,0.12885,0.28351,0.9994
1700498759054687,-9.656775,0.487605,1.448465,0.15985,0.30051,0.11594
1700498759062500,-9.654775,0.502605,1.435465,0.11385,0.28251,0.17994
1700498759070312,-9.634775,0.502605,1.430465,0.2915,0.29951,0.19894
1700498759078125,-9.629775,0.496605,1.439465,0.515,0.28651,0.24894
1700498759085937,-9.622775,0.491605,1.439465,0.1185,0.30351,0.16794
1700498759093750,-9.618775,0.500605,1.455465,0.2085,0.18351,0.16394
1700498759101562,-9.627775,0.495605,1.466465,0.1085,0.29451,0.14694
1700498759109375,-9.634775,0.495605,1.473465,0.2385,0.31251,0.17994
1700498759117187,-9.647775,0.491605,1.480465,0.5685,0.26151,0.17894
1700498759125000,-9.667775,0.485605,1.478465,0.21485,0.17951,0.17594
1700498759132812,-9.667775,0.474605,1.496465,0.18485,0.27851,0.8094
1700498759140625,-9.687775,0.476605,1.475465,0.18285,0.24751,0.9694
1700498759148437,-9.688775,0.487605,1.489465,0.17185,0.32551,0.7994
1700498759156250,-9.679775,0.487605,1.487465,0.15585,0.35751,0.11294
1700498759164062,-9.676775,0.489605,1.484465,0.19685,0.37851,0.9794
1700498759171875,-9.667775,0.487605,1.480465,0.17185,0.32551,0.7994
1700498759179687,-9.672775,0.493605,1.494465,0.20685,0.32251,0.9394
1700498759187500,-9.674775,0.494605,1.487465,0.24885,0.31051,0.7994
1700498759195312,-9.670775,0.503605,1.498465,0.24185,0.31551,0.6594
1700498759203125,-9.663775,0.509605,1.482465,0.22985,0.32951,0.6494
1700498759210937,-9.638775,0.505605,1.471465,0.23885,0.39851,0.8394
1700498759218750,-9.650775,0.527605,1.516465,0.26285,0.34451,0.7994
1700498759226562,-9.663775,0.522605,1.525465,0.27685,0.39451,0.1694
1700498759234375,-9.672775,0.512605,1.538465,0.22585,0.33151,0.4994
1700498759242187,-9.649775,0.487605,1.516465,0.22885,0.31451,0.94
1700498759250000,-9.638775,0.506605,1.505465,0.24685,0.29651,0.1594
1700498759257812,-9.632775,0.527605,1.516465,0.27285,0.36451,0.4994
1700498759265625,-9.618775,0.526605,1.514465,0.26085,0.31251,0.6494
1700498759273437,-9.625775,0.517605,1.516465,0.27685,0.32951,0.3194
1700498759281250,-9.647775,0.527605,1.534465,0.25885,0.23351,0.0
1700498759289062,-9.661775,0.522605,1.520465,0.27585,0.24851,0.1594
1700498759296875,-9.684775,0.534605,1.520465,0.26085,0.26551,0.0
1700498759304687,-9.672775,0.531605,1.516465,0.28085,0.11551,0.1394
1700498759312500,-9.679775,0.527605,1.507465,0.27085,0.20951,0.306
1700498759320312,-9.686775,0.525605,1.514465,0.27585,0.31451,0.1506
1700498759328125,-9.679775,0.529605,1.514465,0.26885,0.25951,0.206
1700498759335937,-9.673775,0.527605,1.503465,0.28585,0.27451,0.1294
1700498759343750,-9.668775,0.527605,1.500465,0.25485,0.32451,0.1806
1700498759351562,-9.654775,0.529605,1.502465,0.25685,0.30051,0.194
1700498759359375,-9.645775,0.527605,1.493465,0.27285,0.26851,0.1406
1700498759367187,-9.641775,0.531605,1.473465,0.26185,0.28151,0.6406
1700498759375000,-9.641775,0.522605,1.455465,0.27885,0.23151,0.1706
1700498759382812,-9.634775,0.531605,1.476465,0.26585,0.31251,0.8106
1700498759390625,-9.641775,0.531605,1.512465,0.26285,0.31351,0.4806
1700498759398437,-9.652775,0.529605,1.532465,0.28085,0.23051,0.3406
1700498759406250,-9.666775,0.524605,1.523465,0.26985,0.24351,0.6706
1700498759414062,-9.675775,0.529605,1.516465,0.28885,0.15951,0.3706
1700498759421875,-9.657775,0.540605,1.509465,0.31085,0.19851,0.3306
1700498759429687,-9.650775,0.533605,1.496465,0.29185,0.13551,0.3206
1700498759437500,-9.634775,0.535605,1.500465,0.26085,0.18351,0.0
1700498759445312,-9.636775,0.533605,1.482465,0.26385,0.13351,0.1706
1700498759453125,-9.643775,0.531605,1.462465,0.28685,0.19351,0.406
1700498759460937,-9.648775,0.529605,1.446465,0.24685,0.26351,0.1606
1700498759468750,-9.659775,0.542605,1.455465,0.25985,0.16851,0.3206
1700498759476562,-9.661775,0.536605,1.453465,0.27985,0.11651,0.3406
1700498759484375,-9.670775,0.542605,1.467465,0.26585,0.19751,0.5006
1700498759492187,-9.664775,0.549605,1.440465,0.25185,0.13051,0.1394
1700498759500000,-9.655775,0.549605,1.449465,0.28285,0.17951,0.1394
1700498759507812,-9.659775,0.555605,1.444465,0.12485,0.11351,0.6294
1700498759515625,-9.662775,0.562605,1.469465,0.17285,0.14651,0.3094
1700498759523437,-9.657775,0.562605,1.462465,0.15785,0.13051,0.106
1700498759531250,-9.664775,0.564605,1.449465,0.18785,0.16251,0.4694
1700498759539062,-9.671775,0.565605,1.457465,0.15185,0.15051,0.1694
1700498759546875,-9.671775,0.553605,1.462465,0.12585,0.24351,0.6394
1700498759554687,-9.675775,0.547605,1.451465,0.17185,0.19551,0.6294
1700498759562500,-9.671775,0.556605,1.448465,0.19885,0.21451,0.4794
1700498759570312,-9.657775,0.555605,1.460465,0.21685,0.27851,0.4794
1700498759578125,-9.651775,0.566605,1.449465,0.22585,0.22451,0.2006
1700498759585937,-9.639775,0.564605,1.440465,0.20285,0.24451,0.3094
1700498759593750,-9.644775,0.582605,1.446465,0.18385,0.19651,0.11194
1700498759601562,-9.640775,0.582605,1.462465,0.14085,0.14651,0.3094
1700498759609375,-9.642775,0.586605,1.476465,0.1385,0.19651,0.1794
1700498759617187,-9.646775,0.579605,1.460465,0.8085,0.14351,0.9494
1700498759625000,-9.648775,0.582605,1.451465,0.15185,0.14851,0.8094
1700498759632812,-9.635775,0.579605,1.462465,0.9485,0.22651,0.6394
1700498759640625,-9.626775,0.579605,1.462465,0.1485,0.22751,0.4894
1700498759648437,-9.622775,0.574605,1.444465,0.2285,0.20651,0.6294
1700498759656250,-9.626775,0.577605,1.442465,0.9385,0.22651,0.9594
1700498759664062,-9.637775,0.571605,1.444465,0.15585,0.16251,0.7894
1700498759671875,-9.628775,0.570605,1.424465,0.21785,0.14651,0.9494
1700498759679687,-9.626775,0.568605,1.403465,0.22485,0.14251,0.7694
1700498759687500,-9.637775,0.564605,1.428465,0.12985,0.10951,0.9394
1700498759695312,-9.639775,0.566605,1.442465,0.17185,0.14651,0.7894
1700498759703125,-9.662775,0.558605,1.460465,0.20485,0.12851,0.9394
1700498759710937,-9.662775,0.577605,1.473465,0.14585,0.19151,0.7794
1700498759718750,-9.678775,0.591605,1.489465,0.26985,0.28951,0.9294
1700498759726562,-9.685775,0.602605,1.485465,0.27885,0.26251,0.7894
1700498759734375,-9.674775,0.609605,1.460465,0.26885,0.22551,0.6094
1700498759742187,-9.676775,0.609605,1.444465,0.28285,0.27651,0.6194
1700498759750000,-9.669775,0.596605,1.446465,0.27485,0.29951,0.1506
1700498759757812,-9.674775,0.602605,1.451465,0.24785,0.39351,0.1594
1700498759765625,-9.669775,0.591605,1.446465,0.19885,0.42551,0.8194
1700498759773437,-9.640775,0.597605,1.469465,0.23485,0.40751,0.4794
1700498759781250,-9.640775,0.624605,1.498465,0.23485,0.43951,0.3194
1700498759789062,-9.618775,0.619605,1.491465,0.24885,0.35951,0.6394
1700498759796875,-9.610775,0.584605,1.424465,0.8685,0.28151,0.8294
1700498759804687,-9.591775,0.603605,1.440465,0.1685,0.29051,0.9694
1700498759812500,-9.587775,0.641605,1.440465,0.3085,0.22651,0.11294
1700498759820312,-9.587775,0.647605,1.419465,0.1185,0.19451,0.19394
1700498759828125,-9.621775,0.643605,1.410465,0.8485,0.20451,0.18994
1700498759835937,-9.626775,0.592605,1.406465,0.8085,0.11051,0.11094
1700498759843750,-9.626775,0.566605,1.489465,0.1885,0.14151,0.15994
1700498759851562,-9.628775,0.577605,1.491465,0.1785,0.12651,0.11194
1700498759859375,-9.608775,0.590605,1.476465,0.11285,0.11051,0.9394
1700498759867187,-9.608775,0.583605,1.453465,0.28185,0.11251,0.14194
1700498759875000,-9.635775,0.568605,1.473465,0.19785,0.12151,0.10694
1700498759882812,-9.693775,0.574605,1.478465,0.7285,0.4851,0.22494
1700498759890625,-9.716775,0.568605,1.500465,0.785,0.5151,0.16294
1700498759898437,-9.734775,0.570605,1.500465,0.2785,0.14551,0.22594
1700498759906250,-9.741775,0.576605,1.509465,0.1885,0.10851,0.17494
1700498759914062,-9.712775,0.574605,1.458465,0.3285,0.23951,0.22494
1700498759921875,-9.691775,0.562605,1.417465,0.1285,0.29151,0.24294
1700498759929687,-9.664775,0.569605,1.424465,0.1085,0.30951,0.22694
1700498759937500,-9.657775,0.580605,1.385465,0.1085,0.21251,0.17894
1700498759945312,-9.640775,0.577605,1.388465,0.1585,0.22451,0.17694
1700498759953125,-9.631775,0.582605,1.390465,0.985,0.22851,0.19494
1700498759960937,-9.626775,0.583605,1.394465,0.1785,0.17451,0.20794
1700498759968750,-9.635775,0.582605,1.415465,0.1185,0.17851,0.19394
1700498759976562,-9.653775,0.571605,1.406465,0.1285,0.19351,0.24194
1700498759984375,-9.660775,0.566605,1.408465,0.1485,0.17551,0.25694
1700498759992187,-9.660775,0.555605,1.424465,0.2085,0.20451,0.23894
1700498760000000,-9.671775,0.560605,1.467465,0.1185,0.26051,0.21094
1700498760007812,-9.673775,0.565605,1.444465,0.2485,0.16351,0.24294
1700498760015625,-9.666775,0.564605,1.415465,0.985,0.25951,0.27494
1700498760023437,-9.671775,0.546605,1.390465,0.2985,0.17551,0.27294
1700498760031250,-9.666775,0.558605,1.374465,0.785,0.19551,0.29194
1700498760039062,-9.657775,0.558605,1.363465,0.7385,0.17851,0.24194
1700498760046875,-9.655775,0.549605,1.372465,0.6685,0.28051,0.29294
1700498760054687,-9.655775,0.544605,1.379465,0.2885,0.16051,0.25794
1700498760062500,-9.659775,0.549605,1.388465,0.2385,0.18051,0.22694
1700498760070312,-9.651775,0.571605,1.383465,0.2285,0.27951,0.24394
1700498760078125,-9.639775,0.575605,1.376465,0.3985,0.22851,0.25894
1700498760085937,-9.655775,0.575605,1.401465,0.1085,0.32551,0.22694
1700498760093750,-9.664775,0.584605,1.424465,0.1185,0.37351,0.24294
1700498760101562,-9.694775,0.589605,1.435465,0.415,0.32551,0.19494
1700498760109375,-9.696775,0.569605,1.440465,0.3085,0.27351,0.20894
1700498760117187,-9.680775,0.535605,1.430465,0.1985,0.32051,0.17594
1700498760125000,-9.661775,0.540605,1.430465,0.1185,0.44051,0.13194
1700498760132812,-9.655775,0.542605,1.433465,0.2585,0.35951,0.16394
1700498760140625,-9.632775,0.544605,1.428465,0.10985,0.27551,0.7994
1700498760148437,-9.657775,0.539605,1.430465,0.14685,0.28651,0.15794
1700498760156250,-9.657775,0.546605,1.460465,0.15485,0.17851,0.12794
1700498760164062,-9.673775,0.545605,1.471465,0.11985,0.16551,0.11294
1700498760171875,-9.673775,0.567605,1.464465,0.13185,0.21551,0.19494
1700498760179687,-9.675775,0.546605,1.460465,0.12785,0.28951,0.17494
1700498760187500,-9.673775,0.545605,1.473465,0.15185,0.26151,0.12894
1700498760195312,-9.670775,0.536605,1.476465,0.15585,0.29251,0.11194
1700498760203125,-9.664775,0.529605,1.478465,0.17085,0.38851,0.20894
1700498760210937,-9.661775,0.529605,1.473465,0.24985,0.37251,0.19094
1700498760218750,-9.657775,0.529605,1.469465,0.24985,0.27451,0.23894
1700498760226562,-9.657775,0.524605,1.469465,0.20185,0.32351,0.25594
1700498760234375,-9.648775,0.535605,1.437465,0.13985,0.29051,0.25694
1700498760242187,-9.641775,0.539605,1.433465,0.7485,0.38951,0.24294
1700498760250000,-9.626775,0.548605,1.428465,0.17185,0.38851,0.19194
1700498760257812,-9.621775,0.544605,1.419465,0.15485,0.35751,0.16094
1700498760265625,-9.621775,0.543605,1.426465,0.18885,0.37251,0.11194
1700498760273437,-9.628775,0.550605,1.446465,0.25385,0.37151,0.7794
1700498760281250,-9.641775,0.553605,1.444465,0.27785,0.39351,0.9694
1700498760289062,-9.634775,0.539605,1.424465,0.23485,0.34151,0.7894
1700498760296875,-9.637775,0.546605,1.424465,0.26485,0.31051,0.6294
1700498760304687,-9.634775,0.539605,1.426465,0.26585,0.32551,0.9494
1700498760312500,-9.643775,0.539605,1.412465,0.24985,0.40751,0.7994
1700498760320312,-9.634775,0.542605,1.424465,0.26885,0.46451,0.9994
1700498760328125,-9.644775,0.548605,1.419465,0.26585,0.39051,0.7894
1700498760335937,-9.639775,0.551605,1.399465,0.26385,0.42451,0.7994
1700498760343750,-9.639775,0.560605,1.394465,0.21385,0.42551,0.12994
1700498760351562,-9.633775,0.577605,1.399465,0.19485,0.37951,0.11494
1700498760359375,-9.630775,0.589605,1.415465,0.16085,0.36451,0.17994
1700498760367187,-9.635775,0.584605,1.430465,0.13185,0.37951,0.11594
1700498760375000,-9.637775,0.575605,1.435465,0.15385,0.35851,0.11294
1700498760382812,-9.642775,0.566605,1.421465,0.10685,0.37551,0.8194
1700498760390625,-9.632775,0.548605,1.453465,0.5985,0.34251,0.9794
1700498760398437,-9.639775,0.540605,1.448465,0.16285,0.28251,0.9894
1700498760406250,-9.634775,0.540605,1.455465,0.10285,0.36151,0.13094
1700498760414062,-9.632775,0.546605,1.442465,0.15185,0.39351,0.9794
1700498760421875,-9.641775,0.546605,1.455465,0.15285,0.31151,0.8094
1700498760429687,-9.639775,0.548605,1.446465,0.7785,0.27551,0.9694
1700498760437500,-9.655775,0.544605,1.439465,0.10385,0.29651,0.9794
1700498760445312,-9.653775,0.546605,1.455465,0.18685,0.27751,0.7994
1700498760453125,-9.655775,0.544605,1.451465,0.15085,0.29451,0.16194
1700498760460937,-9.657775,0.537605,1.458465,0.9785,0.23851,0.17494
1700498760468750,-9.659775,0.531605,1.460465,0.7285,0.29451,0.14694
1700498760476562,-9.670775,0.538605,1.460465,0.15385,0.34051,0.20894
1700498760484375,-9.666775,0.547605,1.462465,0.16985,0.27651,0.14494
1700498760492187,-9.670775,0.551605,1.442465,0.16585,0.36151,0.9794
1700498760500000,-9.664775,0.553605,1.453465,0.25385,0.33851,0.10994
1700498760507812,-9.657775,0.558605,1.446465,0.13685,0.37551,0.16194
1700498760515625,-9.646775,0.562605,1.417465,0.14885,0.36151,0.17894
1700498760523437,-9.659775,0.549605,1.408465,0.15585,0.37451,0.9694
1700498760531250,-9.644775,0.548605,1.390465,0.17185,0.24351,0.11094
1700498760539062,-9.641775,0.553605,1.388465,0.16585,0.24551,0.24194
1700498760546875,-9.655775,0.555605,1.419465,0.14885,0.27951,0.21094
1700498760554687,-9.657775,0.549605,1.435465,0.12285,0.27551,0.19294
1700498760562500,-9.664775,0.564605,1.444465,0.23785,0.32251,0.14194
1700498760570312,-9.666775,0.560605,1.437465,0.20485,0.35451,0.17494
1700498760578125,-9.658775,0.575605,1.419465,0.18885,0.33851,0.23994
1700498760585937,-9.662775,0.577605,1.415465,0.4385,0.38951,0.21094
1700498760593750,-9.658775,0.580605,1.424465,0.13785,0.37351,0.20994
1700498760601562,-9.655775,0.577605,1.428465,0.15485,0.37351,0.14494
1700498760609375,-9.655775,0.578605,1.431465,0.11885,0.40951,0.17894
1700498760617187,-9.659775,0.565605,1.426465,0.19085,0.39651,0.21194
1700498760625000,-9.655775,0.573605,1.435465,0.19885,0.42451,0.17794
1700498760632812,-9.655775,0.584605,1.478465,0.21585,0.48851,0.17694
1700498760640625,-9.660775,0.566605,1.489465,0.15285,0.40851,0.12994
1700498760648437,-9.637775,0.537605,1.424465,0.4385,0.34251,0.14694
1700498760656250,-9.626775,0.566605,1.406465,0.685,0.31151,0.21294
1700498760664062,-9.626775,0.590605,1.383465,0.5585,0.31051,0.22694
1700498760671875,-9.631775,0.597605,1.422465,0.12085,0.27651,0.22594
1700498760679687,-9.673775,0.580605,1.424465,0.26585,0.29051,0.20694
1700498760687500,-9.691775,0.545605,1.469465,0.24885,0.27551,0.20794
1700498760695312,-9.684775,0.529605,1.478465,0.18685,0.29251,0.12794
1700498760703125,-9.650775,0.547605,1.462465,0.8685,0.34551,0.13094
1700498760710937,-9.637775,0.562605,1.475465,0.21085,0.36151,0.21094
1700498760718750,-9.634775,0.549605,1.446465,0.25885,0.26351,0.20894
1700498760726562,-9.657775,0.544605,1.433465,0.27985,0.22651,0.20694
1700498760734375,-9.680775,0.551605,1.446465,0.18385,0.24351,0.20894
1700498760742187,-9.691775,0.547605,1.458465,0.5585,0.22851,0.25894
1700498760750000,-9.706775,0.545605,1.462465,0.1085,0.27851,0.14694
