time,Acceleration X (m/s^2),Acceleration Y (m/s^2),Acceleration Z (m/s^2),Angular Velocity X (rad/s),Angular Velocity Y (rad/s),Angular Velocity Z (rad/s)
1702327234929687,-7.878247,1.025987,2.241202,-0.483038,,
1702327234937500,-7.963247,1.173987,2.70202,0.467238,0.618256,0.293926
1702327234945312,-8.104247,1.255987,1.985202,0.473538,0.605356,0.287326
1702327234953125,-8.180247,1.344987,1.814202,0.509238,0.610556,0.280726
1702327234960937,-8.238247,1.518987,1.647202,0.554738,0.586056,0.289726
1702327234968750,-8.295247,1.574987,1.492202,0.610038,0.551656,0.287126
1702327234984375,-8.601247,1.708987,1.418202,0.731638,0.454956,0.296126
1702327234992187,-8.812247,1.707987,1.312202,0.792938,0.399456,0.295126
1702327235000000,-8.959247,1.749987,1.283202,0.852638,0.348956,0.295826
1702327235007812,-9.118247,1.853987,1.319202,0.914138,0.298256,0.296326
1702327235031250,-9.399247,1.886987,1.483202,-1.20538,0.223056,0.330026
1702327235039062,-9.492247,1.924987,1.467202,-1.55838,0.205956,0.340426
1702327235046875,-9.474247,1.943987,1.395202,-1.89838,0.191656,0.341726
1702327235054687,-9.497247,1.975987,1.282202,-1.131038,0.189756,0.347526
1702327235062500,-9.534247,2.4987,1.143202,-1.177938,0.179956,0.358226
1702327235070312,-9.550247,2.24987,1.66202,-1.224538,0.155956,0.351326
1702327235078125,-9.613247,2.47987,0.994202,-1.290738,0.162556,0.340926
1702327235085937,-9.570247,2.180987,0.859202,-1.370738,0.172556,0.333626
1702327235093750,-9.612247,2.275987,0.772202,-1.422238,0.169456,0.337926
1702327235101562,-9.617247,2.302987,0.690202,-1.500838,0.154756,0.338426
1702327235109375,-9.522247,2.297987,0.634202,-1.582138,0.129656,0.330526
1702327235117187,-9.494247,2.302987,0.589202,-1.667938,0.113156,0.335026
1702327235125000,-9.453247,2.333987,0.555202,-1.767838,0.119256,0.327126
1702327235132812,-9.438247,2.346987,0.535202,-1.844538,0.103256,0.315026
1702327235140625,-9.380247,2.502987,0.614202,-1.913638,0.79156,0.301326
1702327235148437,-9.438247,2.657987,0.688202,-1.976738,0.42056,0.302926
1702327235156250,-9.499247,2.678987,0.745202,-2.25538,0.13044,0.281226
1702327235164062,-9.580247,2.659987,0.774202,-2.72038,0.5844,0.264926
1702327235171875,-9.633247,2.471987,0.675202,-2.127338,0.46456,0.246826
1702327235179687,-9.693247,2.288987,0.546202,-2.180738,0.87556,0.228826
1702327235187500,-9.731247,2.104987,0.434202,-2.233338,0.111156,0.217326
1702327235195312,-9.809247,2.52987,0.330202,-2.266938,0.75156,0.205426
1702327235203125,-9.625247,1.921987,0.258202,-2.259338,0.4456,0.164426
1702327235210937,-9.183247,1.878987,0.571202,-2.252438,0.98444,0.136526
1702327235218750,-9.9247,1.823987,0.728202,-2.253238,0.92044,0.113826
1702327235226562,-8.714247,1.751987,0.688202,-2.248438,0.47244,0.74126
1702327235234375,-8.529247,1.720987,0.641202,-2.252338,0.3356,0.38926
1702327235242187,-8.590247,1.570987,0.418202,-2.262138,0.36256,0.10026
1702327235250000,-8.869247,1.607987,0.325202,-2.271338,0.38056,0.8326
1702327235257812,-9.269247,1.434987,0.339202,-2.253138,0.14856,0.5026
1702327235265625,-9.605247,1.275987,0.586202,-2.233438,0.64144,0.19026
1702327235273437,-9.863247,1.89987,0.750202,-2.190538,0.156544,0.37926
1702327235281250,-10.280247,0.833987,1.37202,-2.107738,0.277244,0.80326
1702327235289062,-10.763247,0.395987,1.964202,-1.980538,0.418544,0.140326
1702327235296875,-11.513247,0.394013,3.414202,-1.887838,0.627144,0.228326
1702327235304687,-12.676247,-1.800013,4.450202,-1.877238,0.824044,0.339926
1702327235312500,-13.954247,-3.767013,4.818202,-1.837138,0.887844,0.444926
1702327235320312,-14.886247,-5.532013,4.349202,-1.732638,0.831344,0.509126
1702327235328125,-14.663247,-6.6013,3.511202,-1.530338,0.705144,0.517426
1702327235335937,-12.967247,-5.25013,2.978202,-1.291238,0.633644,0.480226
1702327235343750,-10.600247,-3.314013,2.953202,-1.86338,0.435944,0.354726
1702327235351562,-9.37247,-1.662013,2.808202,0.927538,0.56844,0.216226
1702327235359375,-8.579247,0.411013,2.739202,0.877938,0.233356,0.99626
1702327235367187,-9.71247,0.292987,2.527202,0.963238,0.344756,0.52526
1702327235375000,-9.910247,0.473987,2.293202,-1.115038,0.224256,0.5026
1702327235382812,-10.473247,0.398987,2.39202,-1.338438,0.16356,0.13774
1702327235390625,-10.877247,0.233987,1.372202,-1.519038,0.328844,0.2174
1702327235398437,-11.98247,0.47013,1.525202,-1.651138,0.706544,0.6274
1702327235406250,-11.269247,0.479013,1.678202,-1.787438,0.850844,0.4174
1702327235414062,-11.137247,0.999013,2.67202,-1.885838,0.973644,0.11074
1702327235421875,-10.706247,-1.669013,2.567202,-1.940138,-1.25744,0.12226
1702327235429687,-9.918247,-2.360013,2.823202,-2.3438,-1.54944,0.50126
1702327235437500,-9.100247,-2.945013,2.965202,-2.16838,-1.74944,0.99726
1702327235445312,-8.428247,-3.346013,3.91202,-2.7638,-1.50444,0.150026
1702327235453125,-8.48247,-3.511013,3.131202,-1.949938,0.968944,0.197926
1702327235460937,-7.772247,-3.464013,3.181202,-1.845738,0.840244,0.220726
1702327235468750,-7.654247,-3.266013,3.223202,-1.737638,0.653644,0.225026
1702327235476562,-7.753247,-2.936013,3.75202,-1.635138,0.444544,0.211426
1702327235484375,-8.19247,-2.605013,2.742202,-1.551038,0.280144,0.170326
1702327235492187,-8.405247,-2.512013,2.123202,-1.491738,0.234144,0.135926
1702327235500000,-8.763247,-2.615013,1.528202,-1.459238,0.264344,0.101826
1702327235507812,-8.943247,-2.753013,1.147202,-1.456838,0.327744,0.61326
1702327235515625,-8.984247,-2.861013,1.48202,-1.472038,0.420944,0.36326
1702327235523437,-8.927247,-2.890013,1.372202,-1.484038,0.548844,0.35126
1702327235531250,-8.845247,-2.890013,1.884202,-1.497938,0.657844,0.32926
1702327235539062,-8.718247,-2.913013,2.334202,-1.522238,0.713944,0.41726
1702327235546875,-8.485247,-2.881013,2.659202,-1.542238,0.742944,0.44726
1702327235554687,-8.185247,-2.784013,2.875202,-1.554838,0.729944,0.46226
1702327235562500,-7.901247,-2.711013,2.897202,-1.527838,0.703844,0.56326
1702327235570312,-7.637247,-2.655013,2.845202,-1.494738,0.676344,0.71326
1702327235578125,-7.464247,-2.626013,2.812202,-1.447238,0.658744,0.99326
1702327235585937,-7.371247,-2.526013,2.827202,-1.396638,0.642444,0.117726
1702327235593750,-7.364247,-2.408013,2.843202,-1.339538,0.598444,0.136426
1702327235601562,-7.404247,-2.263013,2.848202,-1.277538,0.552644,0.153626
1702327235609375,-7.445247,-2.132013,2.837202,-1.215438,0.508444,0.175626
1702327235617187,-7.498247,-2.16013,2.794202,-1.163438,0.489244,0.202026
1702327235625000,-7.475247,-1.899013,2.675202,-1.114338,0.481244,0.225226
1702327235632812,-7.343247,-1.890013,2.542202,-1.55638,0.463044,0.235826
1702327235640625,-7.259247,-1.935013,2.575202,-1.4238,0.449244,0.258726
1702327235648437,-7.366247,-2.111013,2.641202,0.959438,0.432344,0.262826
1702327235656250,-7.600247,-2.400013,2.663202,0.946438,0.436844,0.258326
1702327235664062,-7.944247,-2.724013,2.539202,0.967138,0.467744,0.243426
1702327235671875,-8.270247,-2.958013,2.598202,0.972938,0.541644,0.229826
1702327235679687,-8.603247,-3.83013,2.816202,0.956538,0.636644,0.222826
1702327235687500,-8.858247,-3.50013,3.89202,0.938438,0.710544,0.219226
1702327235695312,-9.29247,-2.879013,3.352202,0.892438,0.763444,0.215926
1702327235703125,-9.61247,-2.681013,3.510202,0.835238,0.777744,0.218326
1702327235710937,-8.877247,-2.500013,3.634202,0.763238,0.771644,0.230326
1702327235718750,-8.733247,-2.367013,3.807202,0.676538,0.753844,0.249126
1702327235726562,-8.646247,-2.317013,3.899202,0.618338,0.744644,0.286726
1702327235734375,-8.598247,-2.278013,3.836202,0.564338,0.761044,0.314726
1702327235742187,-8.589247,-2.231013,3.859202,0.523238,0.784244,0.342326
1702327235750000,-8.434247,-2.276013,3.720202,0.495838,0.785544,0.350926
1702327235757812,-8.220247,-2.297013,3.641202,0.455538,0.828644,0.370226
1702327235765625,-8.125247,-2.287013,3.604202,0.403938,0.872944,0.376926
1702327235773437,-7.945247,-2.297013,3.294202,0.374838,0.913944,0.359226
1702327235781250,-7.688247,-2.277013,3.15202,0.340038,0.937744,0.332426
1702327235789062,-7.365247,-2.315013,2.909202,0.282838,0.942844,0.305526
1702327235796875,-7.145247,-2.338013,3.82202,0.244138,0.965944,0.297626
1702327235804687,-6.831247,-2.410013,3.170202,0.231038,0.958044,0.275126
1702327235812500,-6.602247,-2.267013,3.224202,0.219338,0.974544,0.247626
1702327235820312,-6.535247,-1.933013,3.348202,0.180838,0.994244,0.228526
1702327235828125,-6.564247,-1.657013,3.641202,0.144438,-1.5344,0.224226
1702327235835937,-6.773247,-1.394013,3.832202,0.119238,0.990644,0.221426
1702327235843750,-7.40247,-1.133013,3.812202,0.115738,-1.6644,0.219926
1702327235851562,-7.226247,0.833013,3.711202,0.124438,-1.20244,0.216226
1702327235859375,-7.238247,0.536013,3.547202,0.126038,-1.33244,0.211326
1702327235867187,-7.185247,0.341013,3.475202,0.133638,-1.70644,0.217526
1702327235875000,-7.12247,0.291013,3.594202,0.125438,-1.85444,0.238526
1702327235882812,-6.722247,0.297013,3.871202,0.145638,-1.110044,0.257426
1702327235890625,-6.557247,0.229013,3.968202,0.200238,-1.108744,0.288926
1702327235898437,-6.398247,0.207013,3.612202,0.266338,-1.101444,0.301526
1702327235906250,-6.61247,0.53013,3.117202,0.289438,-1.113644,0.305526
1702327235914062,-5.863247,0.78987,2.919202,0.274738,-1.121444,0.307426
1702327235921875,-5.791247,0.48987,3.7202,0.250638,-1.111444,0.314426
1702327235929687,-5.820247,0.81013,3.218202,0.247738,-1.87144,0.314426
1702327235937500,-5.843247,0.338013,3.425202,0.252738,-1.61244,0.312826
1702327235945312,-5.857247,0.710013,3.562202,0.283938,-1.38044,0.301426
1702327235953125,-5.962247,-1.90013,3.715202,0.298438,0.988944,0.275826
1702327235960937,-6.82247,-1.476013,3.792202,0.315238,0.929644,0.256826
1702327235968750,-6.388247,-1.727013,3.825202,0.338838,0.908244,0.245426
1702327235976562,-6.510247,-1.813013,3.830202,0.300438,0.880744,0.228126
1702327235984375,-6.577247,-1.859013,4.80202,0.237538,0.855844,0.201826
1702327235992187,-6.647247,-1.711013,4.247202,0.203238,0.798644,0.183226
1702327236000000,-6.677247,-1.486013,4.526202,0.167538,0.780744,0.170826
1702327236007812,-6.868247,-1.180013,4.749202,0.127338,0.720044,0.181526
1702327236015625,-7.84247,0.924013,4.923202,0.72938,0.667444,0.198826
1702327236023437,-7.223247,0.655013,5.29202,0.60438,0.645044,0.216626
1702327236031250,-7.329247,0.443013,4.988202,0.65738,0.631744,0.240926
1702327236039062,-7.361247,0.274013,4.975202,0.87338,0.620444,0.266526
1702327236046875,-7.280247,0.292013,4.966202,0.142538,0.576544,0.262826
1702327236054687,-7.163247,0.445013,4.896202,0.181038,0.504144,0.251726
1702327236062500,-6.975247,0.663013,5.29202,0.215438,0.479344,0.238726
1702327236070312,-6.948247,0.701013,5.321202,0.262438,0.443144,0.230426
1702327236078125,-6.873247,0.740013,5.578202,0.320638,0.428144,0.205726
1702327236085937,-7.52247,0.644013,5.783202,0.363738,0.428044,0.174626
1702327236093750,-6.930247,0.539013,5.941202,0.383438,0.423244,0.148426
1702327236101562,-7.330247,0.435013,6.67202,0.362738,0.390244,0.134626
1702327236109375,-7.276247,0.682013,6.53202,0.319538,0.333144,0.99926
1702327236117187,-7.242247,0.698013,6.161202,0.271538,0.328244,0.139226
1702327236125000,-7.543247,0.885013,6.92202,0.214038,0.287444,0.169226
1702327236132812,-7.612247,-1.185013,6.94202,0.158138,0.256244,0.191226
1702327236140625,-7.647247,-1.537013,6.75202,0.132938,0.220844,0.223726
1702327236148437,-7.664247,-1.761013,6.24202,0.131038,0.200744,0.259626
1702327236156250,-7.486247,-1.946013,6.147202,0.103138,0.165144,0.263226
1702327236164062,-7.369247,-1.987013,6.472202,0.63338,0.81544,0.254726
1702327236171875,-7.485247,-1.701013,6.575202,0.46138,0.24756,0.237826
1702327236179687,-7.428247,-1.461013,6.546202,0.6538,0.105456,0.205226
1702327236187500,-7.455247,-1.54013,6.772202,0.35162,0.165956,0.164226
1702327236195312,-7.542247,0.649013,6.882202,0.59562,0.255956,0.116626
1702327236203125,-7.817247,0.569013,6.869202,0.62362,0.337756,0.83326
1702327236210937,-8.72247,0.539013,6.709202,0.62162,0.391756,0.65926
1702327236218750,-8.162247,0.653013,6.657202,0.41862,0.372656,0.46426
1702327236226562,-8.381247,0.780013,6.531202,0.24462,0.380756,0.44626
1702327236234375,-8.446247,0.755013,6.434202,0.638,0.377456,0.49126
1702327236242187,-8.360247,-1.47013,6.461202,0.23438,0.363856,0.46926
1702327236250000,-8.610247,-1.201013,6.364202,0.42538,0.397356,0.50526
1702327236257812,-8.664247,-1.191013,6.375202,0.24438,0.428756,0.57626
1702327236265625,-8.643247,-1.78013,6.612202,0.17138,0.444756,0.52726
1702327236273437,-8.618247,-1.132013,6.601202,0.4238,0.513856,0.29426
1702327236281250,-8.541247,0.975013,6.765202,0.25762,0.573956,0.8874
1702327236289062,-8.624247,-1.13,6.740202,0.38462,0.656056,0.37074
1702327236296875,-8.819247,-1.89013,6.695202,0.56262,0.698856,0.44474
1702327236304687,-9.92247,-1.144013,6.677202,0.54462,0.733056,0.50774
1702327236312500,-9.414247,-1.139013,6.628202,0.59762,0.764556,0.56774
1702327236320312,-9.520247,-1.188013,6.713202,0.71062,0.732956,0.68374
1702327236328125,-9.644247,-1.207013,6.893202,0.66462,0.721756,0.81274
1702327236335937,-9.844247,-1.174013,6.945202,0.78862,0.719856,0.69974
1702327236343750,-10.19247,-1.85013,6.923202,0.80862,0.718256,0.53874
1702327236351562,-10.36247,-1.10013,6.835202,0.87162,0.718356,0.63374
1702327236359375,-10.84247,-1.102013,6.763202,0.83962,0.729956,0.71374
1702327236367187,-10.27247,-1.179013,6.596202,0.77862,0.754856,0.90474
1702327236375000,-9.998247,-1.237013,6.600202,0.61162,0.756156,0.113374
1702327236382812,-10.141247,-1.303013,6.605202,0.56762,0.802356,0.132274
1702327236390625,-10.139247,-1.323013,6.670202,0.60562,0.806956,0.148574
1702327236398437,-10.416247,-1.532013,6.537202,0.50662,0.805056,0.153674
1702327236406250,-10.584247,-1.465013,6.549202,0.63862,0.797556,0.164474
1702327236414062,-11.27247,-1.472013,6.508202,0.87962,0.813856,0.144774
1702327236421875,-11.543247,-1.373013,6.400202,0.127462,0.821856,0.129774
1702327236429687,-10.902247,0.979013,6.533202,0.157062,0.790856,0.136074
1702327236437500,-9.998247,0.720013,6.536202,0.137562,0.771356,0.163774
1702327236445312,-9.673247,0.767013,6.114202,0.144862,0.877356,0.187374
1702327236453125,-9.840247,0.725013,5.804202,0.179062,0.973056,0.203674
1702327236460937,-10.154247,0.791013,5.436202,0.171162,1.59656,0.217774
1702327236468750,-10.965247,0.653013,5.187202,0.146162,1.87856,0.243474
1702327236476562,-10.108247,0.819013,4.756202,0.104062,1.95856,0.279574
1702327236484375,-9.754247,0.610013,4.477202,0.60462,0.986556,0.201574
1702327236492187,-9.678247,0.609013,4.261202,0.55362,1.10956,0.208074
1702327236500000,-9.413247,0.609013,3.919202,0.48462,1.32656,0.201274
1702327236507812,-9.311247,0.533013,3.739202,0.54962,1.30756,0.180374
1702327236515625,-9.68247,0.385013,3.619202,0.46762,1.31956,0.167774
1702327236523437,-8.878247,0.342013,3.538202,0.30962,1.62056,0.152874
1702327236531250,-8.803247,0.319013,3.392202,0.15462,1.122056,0.127074
1702327236539062,-8.756247,0.326013,3.248202,0.12238,1.149856,0.109474
1702327236546875,-8.684247,0.354013,3.158202,0.37138,1.161356,0.106474
1702327236554687,-8.643247,0.357013,3.47202,0.67638,1.155956,0.103874
1702327236562500,-8.556247,0.351013,3.13202,0.92538,1.126656,0.94574
1702327236570312,-8.658247,0.410013,3.45202,0.112238,1.127056,0.88174
1702327236578125,-8.830247,0.469013,3.49202,0.123638,1.123356,0.77274
1702327236585937,-8.823247,0.536013,3.106202,0.138738,1.89156,0.59874
1702327236593750,-8.806247,0.592013,3.178202,0.148338,1.66156,0.53774
1702327236601562,-8.814247,0.670013,3.203202,0.156538,1.40656,0.39074
1702327236609375,-8.920247,0.785013,3.135202,0.170038,1.38256,0.29974
1702327236617187,-9.53247,0.892013,2.993202,0.166838,1.41456,0.28374
1702327236625000,-9.121247,0.995013,2.968202,0.147638,1.49956,0.29574
1702327236632812,-9.192247,-1.45013,3.44202,0.138738,1.54456,0.27974
1702327236640625,-9.304247,-1.112013,3.63202,0.147438,1.43456,0.29474
1702327236648437,-9.348247,-1.171013,2.993202,0.148138,1.33456,0.37774
1702327236656250,-9.316247,-1.207013,2.952202,0.144938,1.36856,0.48974
1702327236664062,-9.389247,-1.266013,2.790202,0.148038,1.56756,0.60074
1702327236671875,-9.527247,-1.341013,2.468202,0.145938,1.57856,0.73174
1702327236679687,-9.589247,-1.358013,2.229202,0.111938,1.59356,0.90574
1702327236687500,-9.577247,-1.319013,2.216202,0.72338,1.54856,0.96374
1702327236695312,-9.503247,-1.271013,2.358202,0.56538,1.58256,0.102574
1702327236703125,-9.511247,-1.238013,2.434202,0.50338,1.66456,0.107274
1702327236710937,-9.536247,-1.213013,2.295202,0.63038,1.77756,0.108974
1702327236718750,-9.637247,-1.236013,2.92202,0.69438,1.59756,0.109274
1702327236726562,-9.717247,-1.239013,1.954202,0.70038,1.56256,0.117474
1702327236734375,-9.656247,-1.266013,1.878202,0.66938,1.56256,0.120674
1702327236742187,-9.683247,-1.295013,1.806202,0.80838,1.53156,0.117474
1702327236750000,-9.627247,-1.420013,1.722202,0.96938,1.46356,0.117874
1702327236757812,-9.716247,-1.488013,1.574202,0.82738,1.53056,0.124074
1702327236765625,-9.722247,-1.501013,1.452202,0.80038,1.59156,0.122574
1702327236773437,-9.739247,-1.592013,1.227202,0.69638,1.71156,0.115674
1702327236781250,-9.739247,-1.594013,0.963202,0.68438,1.66056,0.118974
1702327236789062,-9.825247,-1.555013,0.833202,0.46338,1.48056,0.109174
1702327236796875,-9.832247,-1.479013,0.815202,0.51338,1.51056,0.104474
1702327236804687,-9.875247,-1.519013,0.707202,0.44638,1.74056,0.100974
1702327236812500,-9.952247,-1.431013,0.619202,0.65038,1.85356,0.93174
1702327236820312,-9.959247,-1.298013,0.491202,0.68438,1.72856,0.75174
1702327236828125,-9.931247,-1.192013,0.337202,0.78738,1.26456,0.66274
1702327236835937,-10.81247,-1.150013,0.194202,0.83638,1.23956,0.56274
1702327236843750,-9.985247,-1.63013,0.40798,0.96738,1.26856,0.56574
1702327236851562,-9.934247,0.999013,0.105798,0.92538,1.18256,0.47174
1702327236859375,-9.903247,0.860013,0.407798,0.111238,0.988956,0.41074
1702327236867187,-9.998247,0.938013,0.144798,0.116438,0.965756,0.39774
1702327236875000,-10.240247,0.966013,0.454798,0.153138,1.42856,0.31474
1702327236882812,-10.208247,-1.51013,0.594798,0.167838,0.951156,0.30774
1702327236890625,-10.120247,-1.83013,0.529798,0.164138,0.913556,0.274
1702327236898437,-10.143247,-1.134013,0.603798,0.176938,0.905056,0.12226
1702327236906250,-10.210247,-1.210013,0.749798,0.192338,0.890256,0.31326
1702327236914062,-10.214247,-1.224013,0.869798,0.190738,0.852556,0.43926
1702327236921875,-10.97247,-1.208013,0.966798,0.185538,0.813456,0.59926
1702327236929687,-10.52247,-1.249013,-1.47798,0.175838,0.785756,0.68026
1702327236937500,-9.995247,-1.298013,-1.117798,0.164338,0.770356,0.66126
1702327236945312,-9.872247,-1.285013,-1.182798,0.146238,0.748056,0.71326
1702327236953125,-9.876247,-1.302013,-1.216798,0.135438,0.744656,0.72926
1702327236960937,-9.813247,-1.272013,-1.294798,0.138938,0.728156,0.67926
1702327236968750,-9.833247,-1.277013,-1.423798,0.137238,0.703856,0.66226
1702327236976562,-9.796247,-1.228013,-1.513798,0.119038,0.675756,0.62926
1702327236984375,-9.826247,-1.195013,-1.553798,0.117338,0.657956,0.58126
1702327236992187,-9.885247,-1.138013,-1.619798,0.103338,0.630156,0.58026
1702327237000000,-9.953247,-1.91013,-1.634798,0.102038,0.603756,0.64226
1702327237007812,-10.31247,-1.116013,-1.779798,0.113638,0.582056,0.67026
1702327237015625,-10.117247,-1.133013,-1.821798,0.108538,0.549656,0.71826
1702327237023437,-10.167247,-1.83013,-1.866798,0.122038,0.519656,0.71226
1702327237031250,-10.141247,0.995013,-1.916798,0.116638,0.502156,0.76226
1702327237039062,-10.175247,-1.10013,-2.1798,0.127638,0.495656,0.74426
1702327237046875,-10.146247,0.959013,-2.58798,0.136038,0.482356,0.72526
1702327237054687,-10.112247,0.856013,-2.76798,0.137038,0.484056,0.90326
1702327237062500,-10.60247,-1.43013,-2.69798,0.146238,0.469556,0.83826
1702327237070312,-9.987247,0.902013,-2.96798,0.142038,0.446156,0.96326
1702327237078125,-10.14247,0.762013,-2.103798,0.152938,0.388956,0.107126
1702327237085937,-9.736247,-1.28013,-1.871798,0.144938,0.317156,0.122926
1702327237093750,-9.811247,0.951013,-2.202798,0.106838,0.387356,0.128726
1702327237101562,-9.854247,0.948013,-2.193798,0.56938,0.380756,0.119526
1702327237109375,-9.867247,0.963013,-1.965798,0.22738,0.354256,0.122826
1702327237117187,-9.778247,-1.60013,-1.781798,0.7638,0.352256,0.122826
1702327237125000,-9.784247,-1.111013,-1.767798,0.17938,0.344756,0.111726
1702327237132812,-9.786247,0.973013,-1.736798,0.26538,0.331156,0.116126
1702327237140625,-9.734247,0.960013,-1.804798,0.44938,0.323956,0.112226
1702327237148437,-9.707247,0.995013,-1.751798,0.13738,0.311756,0.116226
1702327237156250,-10.58247,-1.96013,-2.211798,0.95638,0.173856,0.164126
1702327237164062,-10.102247,0.922013,-2.655798,0.378238,0.277544,0.193226
1702327237171875,-9.578247,0.635013,-1.837798,0.220538,0.229044,0.175726
1702327237179687,-9.772247,0.623013,-1.612798,0.148838,0.47956,0.190126
1702327237187500,-9.621247,0.738013,-1.247798,0.155238,0.73956,0.193326
1702327237195312,-9.744247,0.925013,-1.256798,0.206838,0.18556,0.202126
1702327237203125,-9.940247,0.756013,-1.386798,0.190938,0.50044,0.213226
1702327237210937,-9.260247,0.715013,-1.337798,0.199038,0.86244,0.164326
1702327237218750,-8.869247,0.550013,-1.51798,0.134638,0.70856,0.129026
1702327237226562,-9.828247,0.724013,-1.306798,0.91838,0.208156,0.183726
1702327237234375,-9.953247,0.840013,-1.724798,0.98338,0.109056,0.160726
1702327237242187,-10.521247,0.700013,-1.544798,0.138938,0.10644,0.146326
1702327237250000,-8.758247,-1.320013,-1.101798,0.139838,0.101844,0.45826
1702327237257812,-9.316247,0.690013,-1.137798,0.42762,0.460756,0.16326
1702327237265625,-11.95247,0.785013,-1.819798,0.69862,0.403856,0.38474
1702327237273437,-10.562247,0.675013,-1.236798,0.73538,0.38144,0.11074
1702327237281250,-10.460247,0.595013,-1.767798,0.239138,0.287444,0.52626
1702327237289062,-9.323247,0.429013,-1.891798,0.216238,0.353744,0.52926
1702327237296875,-9.969247,0.528013,-1.988798,0.133338,0.252444,0.88426
1702327237304687,-10.834247,0.507013,-1.783798,0.70638,0.253244,0.125926
1702327237312500,-9.389247,0.651013,-1.263798,0.73438,0.313344,0.64326
1702327237320312,-8.309247,0.741013,0.823798,0.72338,0.103344,0.30626
1702327237328125,-8.489247,0.703013,-1.351798,0.110338,0.122256,0.13674
1702327237335937,-8.704247,0.896013,0.565798,0.166462,0.493156,0.49974
1702327237343750,-12.508247,0.226013,-1.850798,0.94638,0.565756,0.73626
1702327237351562,-10.464247,0.921013,-1.961798,0.248438,0.462144,0.51774
1702327237359375,-11.540247,0.339013,-2.677798,0.200038,0.388844,0.118726
1702327237367187,-9.336247,0.734013,-1.956798,0.124438,0.558944,0.37726
1702327237375000,-9.364247,0.501013,-1.184798,0.77538,0.328244,0.99626
1702327237382812,-9.922247,0.639013,-1.436798,0.80238,0.220244,0.95526
1702327237390625,-9.851247,0.555013,-1.274798,0.101638,0.248244,0.72326
1702327237398437,-9.659247,0.625013,-1.677798,0.113138,0.247944,0.36826
1702327237406250,-9.715247,0.606013,-2.35798,0.19638,0.269544,0.29626
1702327237414062,-9.483247,0.645013,-1.468798,0.30062,0.209644,0.33526
1702327237421875,-9.601247,0.621013,-1.364798,0.17962,0.133344,0.39226
1702327237429687,-9.705247,0.584013,-1.283798,0.17938,0.141444,0.43726
1702327237437500,-9.541247,0.603013,-1.452798,0.34538,0.121144,0.27826
1702327237445312,-9.448247,0.595013,-1.495798,0.24638,0.95544,0.16526
1702327237453125,-9.528247,0.693013,-1.533798,0.12962,0.756,0.1326
1702327237460937,-9.430247,0.637013,-1.497798,0.28862,0.43856,0.30174
1702327237468750,-9.359247,0.710013,-1.289798,0.49762,0.152456,0.67674
1702327237476562,-10.552247,0.570013,-2.30798,0.20462,0.145656,0.30974
1702327237484375,-9.245247,0.654013,-1.386798,0.23562,0.54044,0.48574
1702327237492187,-9.172247,0.568013,-1.420798,0.31562,0.127456,0.71474
1702327237500000,-8.592247,0.919013,-1.249798,0.99362,0.243956,0.166574
1702327237507812,-9.755247,0.641013,-1.713798,0.146862,0.421856,0.161774
1702327237515625,-8.292247,0.783013,0.716798,0.298162,0.394156,0.268174
1702327237523437,-12.153247,0.524013,-2.211798,0.308062,0.703256,0.122374
1702327237531250,-11.70247,0.509013,-3.46798,0.23738,0.213344,0.12426
1702327237539062,-9.33247,0.705013,-1.420798,0.30738,0.352744,0.27474
1702327237546875,-9.763247,0.606013,-1.994798,0.51662,0.50356,0.2426
1702327237554687,-9.627247,0.663013,-1.154798,0.27862,0.4944,0.14274
1702327237562500,-9.609247,0.659013,-1.630798,0.19638,0.20044,0.6974
1702327237570312,-9.607247,0.670013,-1.733798,0.11238,0.23844,0.13674
1702327237578125,-9.618247,0.652013,-1.668798,0.39162,0.10844,0.8174
1702327237585937,-9.618247,0.648013,-1.488798,0.37862,0.38244,0.14674
1702327237593750,-9.668247,0.638013,-1.555798,0.28562,0.39844,0.9874
1702327237601562,-9.607247,0.624013,-1.558798,0.31362,0.53144,0.10074
1702327237609375,-9.650247,0.612013,-1.562798,0.28262,0.38344,0.16374
1702327237617187,-9.637247,0.605013,-1.537798,0.36162,0.30044,0.21074
1702327237625000,-9.603247,0.628013,-1.535798,0.27962,0.40144,0.16474
1702327237632812,-9.630247,0.645013,-1.576798,0.25062,0.31744,0.21274
1702327237640625,-9.612247,0.643013,-1.582798,0.24962,0.36644,0.21274
1702327237648437,-9.632247,0.646013,-1.587798,0.29162,0.16344,0.22374
1702327237656250,-9.625247,0.643013,-1.587798,0.39062,0.17244,0.17774
1702327237664062,-9.654247,0.647013,-1.551798,0.33262,0.23344,0.22574
1702327237671875,-9.733247,0.648013,-1.582798,0.34362,0.33244,0.35574
1702327237679687,-9.571247,0.657013,-1.522798,0.43762,0.59344,0.33974
1702327237687500,-9.647247,0.650013,-1.562798,0.38762,0.43244,0.34074
1702327237695312,-9.652247,0.667013,-1.614798,0.35562,0.44844,0.37374
1702327237703125,-9.602247,0.677013,-1.582798,0.32562,0.44644,0.43774
1702327237710937,-9.663247,0.692013,-1.632798,0.46662,0.36544,0.43474
1702327237718750,-9.606247,0.699013,-1.591798,0.46262,0.28544,0.48474
1702327237726562,-9.654247,0.694013,-1.598798,0.44962,0.20044,0.54674
1702327237734375,-9.624247,0.707013,-1.582798,0.41362,0.28544,0.58174
1702327237742187,-9.662247,0.711013,-1.589798,0.33362,0.30144,0.64674
1702327237750000,-9.611247,0.721013,-1.603798,0.29462,0.29544,0.64474
1702327237757812,-9.629247,0.712013,-1.652798,0.32062,0.33144,0.67874
1702327237765625,-9.628247,0.734013,-1.641798,0.32562,0.21344,0.67574
1702327237773437,-9.654247,0.696013,-1.690798,0.39362,0.6344,0.65674
1702327237781250,-9.669247,0.705013,-1.771798,0.51962,0.13456,0.76574
1702327237789062,-9.696247,0.700013,-1.657798,0.78362,0.29656,0.84274
1702327237796875,-9.738247,0.739013,-1.549798,0.75462,0.58456,0.105474
1702327237804687,-9.644247,0.756013,-1.639798,0.77562,0.75256,0.113174
1702327237812500,-9.872247,0.693013,-1.688798,0.58562,0.31056,0.108874
1702327237820312,-9.554247,0.787013,-1.677798,0.55362,0.11856,0.133074
1702327237828125,-9.639247,0.745013,-1.576798,0.60862,0.60356,0.139374
1702327237835937,-10.6247,0.740013,-1.771798,0.33962,0.105056,0.126274
1702327237843750,-9.977247,0.722013,-1.999798,0.12062,0.60456,0.149574
1702327237851562,-9.749247,0.899013,-1.999798,0.138,0.39556,0.152974
1702327237859375,-10.81247,0.679013,-2.121798,0.7738,0.42356,0.112874
1702327237867187,-10.474247,0.866013,-2.125798,0.22638,0.6856,0.103374
1702327237875000,-10.969247,0.925013,-2.199798,0.58338,0.44344,0.49574
1702327237882812,-12.270247,0.811013,-2.366798,0.52438,0.124944,0.33726
1702327237890625,-12.89247,0.499013,-2.145798,0.137662,0.281144,0.108826
1702327237898437,-6.358247,0.476013,-1.130798,0.148162,0.434044,0.174174
1702327237906250,-7.126247,-1.370013,-1.310798,0.101538,0.120844,0.87474
1702327237914062,-14.85247,0.606013,-2.316798,0.12238,0.291256,0.286826
1702327237921875,-9.925247,0.457013,-2.359798,0.208162,0.61456,0.63574
1702327237929687,-8.591247,-1.387013,-1.833798,0.103462,0.214944,0.55374
1702327237937500,-10.234247,0.394013,-1.508798,0.148062,0.4156,0.51526
1702327237945312,-8.641247,-1.43013,-1.920798,0.148762,0.13144,0.138774
1702327237953125,-11.539247,-1.42013,-1.609798,0.146862,0.117144,0.44126
1702327237960937,-11.356247,0.359013,-1.902798,0.243462,0.153244,0.28826
1702327237968750,-9.201247,0.748013,-1.859798,0.206662,0.400244,0.73374
1702327237976562,-8.661247,0.951013,-2.105798,0.81662,0.406844,0.41074
1702327237984375,-9.1247,-1.53013,-2.553798,0.23138,0.385044,0.56474
1702327237992187,-9.544247,0.960013,-2.533798,0.26138,0.389944,0.46874
1702327238000000,-9.896247,0.864013,-2.476798,0.48438,0.435644,0.58674
1702327238007812,-10.34247,0.766013,-2.154798,0.54438,0.483444,0.78674
1702327238015625,-10.26247,0.768013,-1.855798,0.47338,0.505744,0.79974
1702327238023437,-9.952247,0.741013,-1.643798,0.30338,0.527044,0.86374
1702327238031250,-9.988247,0.746013,-1.531798,0.18738,0.558544,0.91574
1702327238039062,-10.54247,0.663013,-1.454798,0.10062,0.593544,0.90074
1702327238046875,-10.177247,0.688013,-1.445798,0.22462,0.635944,0.91874
1702327238054687,-10.424247,0.751013,-1.605798,0.59962,0.665144,0.110874
1702327238062500,-10.470247,0.943013,-1.641798,0.85762,0.720644,0.139874
1702327238070312,-10.417247,-1.6013,-1.524798,0.94862,0.770244,0.180674
1702327238078125,-9.927247,-1.16013,-1.179798,0.57862,0.787644,0.184174
1702327238085937,-9.878247,0.872013,-1.132798,0.20162,0.752844,0.150374
1702327238093750,-10.73247,0.913013,-1.245798,0.44362,0.720844,0.156574
1702327238101562,-10.130247,0.824013,-1.301798,0.42762,0.748544,0.156774
1702327238109375,-10.208247,0.763013,-1.233798,0.56262,0.797644,0.169874
1702327238117187,-10.340247,0.785013,-1.242798,0.67362,0.812244,0.168174
1702327238125000,-10.229247,0.842013,-1.301798,0.59862,0.853544,0.188074
1702327238132812,-10.165247,0.903013,-1.276798,0.46762,0.913944,0.203074
1702327238140625,-10.117247,0.964013,-1.285798,0.58062,0.943144,0.196674
1702327238148437,-9.951247,0.933013,-1.206798,0.43162,0.976344,0.195674
1702327238156250,-10.31247,-1.13,-1.159798,0.39562,0.984744,0.197474
1702327238164062,-10.176247,0.921013,-1.98798,0.68262,-1.5644,0.195474
1702327238171875,-10.153247,0.961013,0.862798,0.92062,-1.60844,0.203474
1702327238179687,-10.63247,-1.91013,0.794798,0.89862,-1.98744,0.202274
1702327238187500,-10.263247,-1.116013,0.830798,0.97162,-1.138344,0.197774
1702327238195312,-10.180247,-1.109013,0.880798,0.117262,-1.154644,0.213674
1702327238203125,-10.265247,-1.90013,-1.101798,0.138862,-1.164744,0.208874
1702327238210937,-10.224247,-1.142013,-1.60798,0.176262,-1.205644,0.215074
1702327238218750,-10.248247,-1.183013,0.727798,0.191062,-1.263244,0.223574
1702327238226562,-10.37247,-1.31013,0.698798,0.211462,-1.263044,0.228074
1702327238234375,-9.668247,-1.86013,0.767798,0.251962,-1.333444,0.229674
1702327238242187,-10.563247,-1.163013,0.986798,0.318662,-1.341744,0.191874
1702327238250000,-11.82247,-1.64013,-1.4798,0.356762,-1.342344,0.207774
1702327238257812,-10.409247,0.948013,0.605798,0.367762,-1.452944,0.217874
1702327238265625,-9.958247,0.910013,0.251798,0.370462,-1.518644,0.207074
1702327238273437,-9.702247,0.910013,0.94798,0.332462,-1.562944,0.201474
1702327238281250,-9.646247,-1.35013,0.0,0.302762,-1.605444,0.192374
1702327238289062,-10.48247,-1.64013,0.250202,0.290262,-1.574544,0.184374
1702327238296875,-10.445247,-1.86013,0.317202,0.282662,-1.543444,0.184174
1702327238304687,-10.470247,-1.137013,0.182202,0.284562,-1.583944,0.182674
1702327238312500,-10.580247,-1.231013,0.4202,0.288662,-1.661344,0.165574
1702327238320312,-10.709247,-1.340013,0.51798,0.307262,-1.722144,0.146574
1702327238328125,-10.844247,-1.282013,0.6202,0.311462,-1.760444,0.122874
1702327238335937,-10.918247,-1.361013,0.412202,0.343362,-1.783044,0.114474
1702327238343750,-11.67247,-1.438013,0.885202,0.364562,-1.769944,0.88274
1702327238351562,-11.78247,-1.451013,1.331202,0.377462,-1.797544,0.83374
1702327238359375,-11.65247,-1.415013,1.700202,0.345562,-1.822544,0.71174
1702327238367187,-11.113247,-1.506013,1.695202,0.286562,-1.802544,0.68374
1702327238375000,-11.131247,-1.514013,1.752202,0.247262,-1.782944,0.71974
1702327238382812,-11.293247,-1.536013,1.968202,0.232062,-1.705944,0.74774
1702327238390625,-11.353247,-1.287013,2.168202,0.211862,-1.645244,0.84274
1702327238398437,-11.324247,-1.114013,2.731202,0.182062,-1.625644,0.81274
1702327238406250,-11.598247,-1.138013,3.92202,0.63362,-1.597444,0.82374
1702327238414062,-11.722247,-1.83013,3.376202,0.4338,-1.649844,0.75474
1702327238421875,-11.683247,-1.172013,3.889202,0.16238,-1.705444,0.38874
1702327238429687,-11.513247,-1.225013,4.191202,0.12938,-1.714044,0.8374
1702327238437500,-11.327247,-1.384013,4.515202,0.10162,-1.756644,0.46526
1702327238445312,-11.5247,-1.537013,4.997202,0.41162,-1.806444,0.80026
1702327238453125,-10.526247,-1.719013,5.235202,0.65862,-1.798044,0.108026
1702327238460937,-9.932247,-2.1013,5.296202,0.97262,-1.757444,0.114926
1702327238468750,-9.456247,-2.179013,5.343202,0.155862,-1.647644,0.101926
1702327238476562,-9.207247,-2.288013,5.303202,0.232062,-1.495044,0.76726
1702327238484375,-9.19247,-2.219013,5.237202,0.292262,-1.356444,0.34526
1702327238492187,-8.710247,-2.13,5.316202,0.323362,-1.285644,0.19274
1702327238500000,-8.618247,-1.676013,5.244202,0.326862,-1.218144,0.41074
1702327238507812,-8.482247,-1.203013,5.78202,0.322562,-1.165544,0.50374
1702327238515625,-8.483247,-1.97013,4.986202,0.309462,-1.136444,0.58574
1702327238523437,-8.493247,0.915013,4.889202,0.286362,-1.87044,0.63274
1702327238531250,-8.478247,0.877013,4.896202,0.249262,-1.73844,0.50574
1702327238539062,-8.342247,0.943013,5.195202,0.201962,-1.74244,0.38474
1702327238546875,-8.269247,-1.9013,5.565202,0.160962,-1.27944,0.15774
1702327238554687,-8.316247,-1.150013,5.695202,0.115462,0.972644,0.6474
1702327238562500,-8.376247,-1.180013,5.625202,0.98762,0.953044,0.12826
1702327238570312,-8.367247,-1.198013,5.621202,0.120162,0.939644,0.32726
1702327238578125,-8.241247,-1.118013,5.855202,0.144762,0.927744,0.44626
1702327238585937,-8.172247,-1.59013,6.78202,0.167762,0.866044,0.35426
1702327238593750,-8.125247,-1.22013,5.959202,0.178662,0.790944,0.24626
1702327238601562,-8.80247,0.868013,5.905202,0.201762,0.732644,0.1574
1702327238609375,-7.787247,0.792013,5.988202,0.211562,0.651244,0.39874
1702327238617187,-7.711247,0.726013,5.999202,0.200462,0.512544,0.52074
1702327238625000,-7.633247,0.688013,5.963202,0.188662,0.412444,0.61074
1702327238632812,-7.506247,0.665013,6.35202,0.150162,0.338544,0.57674
1702327238640625,-7.506247,0.659013,6.76202,0.105962,0.277344,0.57474
1702327238648437,-7.760247,0.659013,6.53202,0.75162,0.229944,0.36674
1702327238656250,-7.911247,0.635013,6.53202,0.58262,0.198644,0.39774
1702327238664062,-8.21247,0.735013,6.103202,0.34062,0.174444,0.52974
1702327238671875,-8.175247,0.853013,6.74202,0.36162,0.149444,0.62174
1702327238679687,-8.317247,0.936013,6.130202,0.45862,0.145444,0.60874
1702327238687500,-8.277247,-1.39013,6.190202,0.58762,0.135244,0.73374
1702327238695312,-8.146247,-1.72013,6.202202,0.72462,0.140444,0.74974
1702327238703125,-8.64247,-1.9013,6.109202,0.92162,0.123744,0.64774
1702327238710937,-7.937247,0.938013,6.49202,0.125162,0.97344,0.75474
1702327238718750,-7.956247,0.885013,6.28202,0.150662,0.55044,0.61974
1702327238726562,-7.904247,0.761013,5.889202,0.152562,0.30544,0.53774
1702327238734375,-7.704247,0.644013,5.893202,0.150762,0.22644,0.45774
1702327238742187,-7.701247,0.558013,5.948202,0.135762,0.23556,0.47074
1702327238750000,-7.838247,0.518013,5.891202,0.109462,0.66156,0.47074
1702327238757812,-7.820247,0.570013,5.828202,0.70662,0.79756,0.56874
1702327238765625,-7.811247,0.575013,5.725202,0.33262,0.86356,0.49174
1702327238773437,-7.904247,0.604013,5.680202,0.25262,0.108856,0.36474
1702327238781250,-7.782247,0.684013,5.502202,0.9862,0.105756,0.30174
1702327238789062,-7.624247,0.686013,5.486202,0.16262,0.77856,0.17374
1702327238796875,-7.449247,0.713013,5.547202,0.9762,0.89156,0.20674
1702327238804687,-7.450247,0.780013,5.556202,0.10162,0.131956,0.23474
1702327238812500,-7.302247,0.891013,5.569202,0.17462,0.179756,0.19674
1702327238820312,-7.245247,0.947013,5.522202,0.438,0.213656,0.23074
1702327238828125,-7.157247,-1.2013,5.465202,0.6538,0.246656,0.35674
1702327238835937,-7.221247,-1.65013,5.357202,0.7238,0.292756,0.28774
1702327238843750,-7.397247,-1.118013,5.240202,0.10962,0.331356,0.22174
1702327238851562,-7.486247,-1.169013,5.157202,0.26562,0.329656,0.26874
1702327238859375,-7.439247,-1.166013,5.152202,0.34962,0.323656,0.32974
1702327238867187,-7.532247,-1.264013,5.49202,0.47562,0.356256,0.31074
1702327238875000,-7.539247,-1.282013,5.49202,0.58262,0.379056,0.43774
1702327238882812,-7.655247,-1.349013,4.956202,0.71662,0.408956,0.39974
1702327238890625,-7.628247,-1.336013,4.909202,0.77562,0.431656,0.47874
1702327238898437,-7.563247,-1.430013,4.848202,0.92562,0.460756,0.60574
1702327238906250,-7.477247,-1.463013,4.758202,0.97562,0.467556,0.68474
1702327238914062,-7.468247,-1.496013,4.726202,0.101662,0.481956,0.74974
1702327238921875,-7.485247,-1.558013,4.506202,0.108762,0.505256,0.69674
1702327238929687,-7.438247,-1.535013,4.461202,0.130962,0.521656,0.72474
1702327238937500,-7.397247,-1.564013,4.391202,0.144062,0.560956,0.55874
1702327238945312,-7.259247,-1.509013,4.515202,0.139762,0.583956,0.54074
1702327238953125,-7.189247,-1.519013,4.440202,0.127962,0.616656,0.29774
1702327238960937,-7.5247,-1.473013,4.402202,0.131262,0.634656,0.24774
1702327238968750,-6.994247,-1.459013,4.366202,0.130562,0.659056,0.9226
1702327238976562,-7.20247,-1.399013,4.283202,0.129162,0.670356,0.20526
1702327238984375,-7.53247,-1.323013,4.274202,0.117162,0.687056,0.23826
1702327238992187,-6.985247,-1.227013,4.306202,0.107962,0.695356,0.23826
1702327239000000,-7.119247,-1.256013,4.166202,0.89262,0.721156,0.47826
1702327239007812,-7.228247,-1.179013,4.15202,0.75562,0.727856,0.54226
1702327239015625,-7.250247,-1.34013,4.58202,0.86562,0.740756,0.60826
1702327239023437,-7.226247,0.897013,4.49202,0.66462,0.747456,0.67126
1702327239031250,-7.105247,0.713013,4.112202,0.35162,0.740956,0.69926
1702327239039062,-7.41247,0.501013,4.144202,0.12762,0.739256,0.58326
1702327239046875,-7.122247,0.331013,4.56202,0.7338,0.768756,0.59926
1702327239054687,-7.207247,0.235013,3.977202,0.23638,0.800556,0.50626
1702327239062500,-7.253247,0.129013,3.941202,0.43138,0.811756,0.42326
1702327239070312,-7.328247,0.224013,3.869202,0.69838,0.807056,0.32326
1702327239078125,-7.451247,0.419013,3.837202,0.95238,0.796956,0.38326
1702327239085937,-7.595247,0.678013,3.781202,0.134838,0.790056,0.45626
1702327239093750,-7.694247,0.992013,3.758202,0.171838,0.749656,0.51626
1702327239101562,-7.782247,-1.277013,3.700202,0.192038,0.731456,0.75426
1702327239109375,-7.787247,-1.532013,3.567202,0.201438,0.716756,0.84826
1702327239117187,-7.745247,-1.741013,3.517202,0.196338,0.681056,0.83226
1702327239125000,-7.844247,-1.872013,3.451202,0.188238,0.667156,0.81226
1702327239132812,-8.28247,-2.39013,3.409202,0.170138,0.646656,0.75226
1702327239140625,-8.125247,-2.177013,3.388202,0.138038,0.626756,0.60826
1702327239148437,-8.335247,-2.247013,3.515202,0.86738,0.597056,0.59526
1702327239156250,-8.586247,-2.336013,3.539202,0.49338,0.598656,0.47026
1702327239164062,-8.779247,-2.337013,3.587202,0.762,0.570556,0.60226
1702327239171875,-8.844247,-2.330013,3.575202,0.51362,0.559256,0.67226
1702327239179687,-8.799247,-2.313013,3.564202,0.101462,0.537856,0.74126
1702327239187500,-8.826247,-2.319013,3.580202,0.145162,0.518156,0.71226
1702327239195312,-8.818247,-2.276013,3.609202,0.184762,0.510856,0.61626
1702327239203125,-8.853247,-2.189013,3.650202,0.209762,0.483156,0.56926
1702327239210937,-8.807247,-2.128013,3.636202,0.229462,0.453656,0.34426
1702327239218750,-8.708247,-2.90013,3.469202,0.246462,0.450556,0.15326
1702327239226562,-8.655247,-2.37013,3.305202,0.267562,0.434156,0.13674
1702327239234375,-8.551247,-2.57013,3.215202,0.293262,0.416056,0.45774
1702327239242187,-8.468247,-2.71013,3.199202,0.317962,0.385256,0.69774
1702327239250000,-8.483247,-2.102013,3.285202,0.353262,0.355856,0.96974
1702327239257812,-8.361247,-2.166013,3.294202,0.355662,0.347656,0.121274
1702327239265625,-8.259247,-2.254013,3.291202,0.386662,0.337956,0.146674
1702327239273437,-8.38247,-2.396013,3.197202,0.416262,0.310556,0.173774
1702327239281250,-7.965247,-2.483013,3.91202,0.457262,0.300056,0.189774
1702327239289062,-7.899247,-2.535013,3.28202,0.531362,0.288856,0.193674
1702327239296875,-7.874247,-2.591013,3.26202,0.586462,0.284156,0.197874
1702327239304687,-7.791247,-2.688013,2.992202,0.641262,0.268056,0.216574
1702327239312500,-7.871247,-2.755013,2.978202,0.707062,0.271056,0.207774
1702327239320312,-7.951247,-2.816013,2.879202,0.764662,0.303456,0.219874
1702327239328125,-7.960247,-2.814013,2.798202,0.817662,0.303456,0.237074
1702327239335937,-7.992247,-2.811013,2.701202,0.869762,0.297156,0.241174
1702327239343750,-8.123247,-2.760013,2.613202,0.936762,0.298456,0.243774
1702327239351562,-8.186247,-2.717013,2.582202,0.991062,0.295056,0.260974
1702327239359375,-8.393247,-2.681013,2.573202,1.40762,0.288156,0.262174
1702327239367187,-8.520247,-2.652013,2.591202,1.85062,0.280456,0.279174
1702327239375000,-8.584247,-2.616013,2.618202,1.101762,0.255956,0.296874
1702327239382812,-8.631247,-2.584013,2.582202,1.123662,0.234956,0.312874
1702327239390625,-8.680247,-2.625013,2.532202,1.150562,0.221156,0.324174
1702327239398437,-8.650247,-2.690013,2.510202,1.176262,0.216856,0.339774
1702327239406250,-8.566247,-2.705013,2.503202,1.200062,0.190056,0.346474
1702327239414062,-8.534247,-2.763013,2.524202,1.222762,0.176056,0.358774
1702327239421875,-8.622247,-2.853013,2.478202,1.254862,0.165656,0.358774
1702327239429687,-8.663247,-2.949013,2.496202,1.297762,0.166756,0.371374
1702327239437500,-8.632247,-2.961013,2.467202,1.319962,0.152256,0.375974
1702327239445312,-8.571247,-2.980013,2.449202,1.349662,0.157256,0.388474
1702327239453125,-8.544247,-2.993013,2.417202,1.391462,0.170056,0.402474
1702327239460937,-8.553247,-2.967013,2.388202,1.427962,0.175356,0.406674
1702327239468750,-8.635247,-2.930013,2.341202,1.449662,0.167156,0.416174
1702327239476562,-8.660247,-2.901013,2.242202,1.474062,0.153656,0.419374
1702327239484375,-8.649247,-2.875013,2.269202,1.516862,0.113156,0.420574
1702327239492187,-8.584247,-2.844013,2.415202,1.546162,0.83356,0.414174
1702327239500000,-8.673247,-2.921013,2.350202,1.556462,0.85356,0.400974
1702327239507812,-8.864247,-2.927013,2.271202,1.596962,0.73256,0.378174
1702327239515625,-9.6247,-2.936013,2.235202,1.628262,0.75656,0.361374
1702327239523437,-9.8247,-2.900013,2.206202,1.647862,0.61756,0.350274
1702327239531250,-9.11247,-2.876013,2.201202,1.649862,0.63456,0.338874
1702327239539062,-9.18247,-2.887013,2.233202,1.660062,0.78456,0.324074
1702327239546875,-8.977247,-2.869013,2.307202,1.666962,0.77556,0.311474
1702327239554687,-8.839247,-2.796013,2.269202,1.653562,0.85956,0.298474
1702327239562500,-8.792247,-2.783013,2.264202,1.670862,0.74356,0.283974
1702327239570312,-8.657247,-2.786013,2.363202,1.664862,0.67856,0.274374
1702327239578125,-8.551247,-2.838013,2.368202,1.660462,0.66156,0.263174
1702327239585937,-8.429247,-2.885013,2.413202,1.678262,0.63156,0.253174
1702327239593750,-8.323247,-2.875013,2.573202,1.718662,0.75756,0.243074
1702327239601562,-8.194247,-2.824013,2.652202,1.750962,0.71256,0.236074
1702327239609375,-8.97247,-2.796013,2.584202,1.776562,0.70556,0.240974
1702327239617187,-8.125247,-2.763013,2.496202,1.833162,0.77456,0.259474
1702327239625000,-8.211247,-2.683013,2.451202,1.869062,0.70356,0.294774
1702327239632812,-8.374247,-2.628013,2.654202,1.905462,0.72856,0.335974
1702327239640625,-8.616247,-2.364013,3.141202,1.929862,0.46356,0.398974
1702327239648437,-8.805247,-1.958013,3.796202,1.910262,0.5144,0.470174
1702327239656250,-9.8247,-1.590013,4.283202,1.890862,0.22356,0.538174
1702327239664062,-9.335247,-1.281013,4.553202,1.877762,0.104756,0.613274
1702327239671875,-9.716247,-1.11013,4.729202,1.859662,0.226356,0.694774
1702327239679687,-10.23247,0.789013,4.707202,1.833562,0.315156,0.771774
1702327239687500,-10.357247,0.582013,4.817202,1.800962,0.361356,0.850774
1702327239695312,-10.714247,0.603013,4.943202,1.751562,0.427356,0.918474
1702327239703125,-11.78247,0.740013,4.601202,1.641262,0.471556,0.945274
1702327239710937,-11.88247,0.846013,4.8202,1.571462,0.418856,0.940174
1702327239718750,-11.93247,0.957013,3.671202,1.576562,0.282956,0.895874
1702327239726562,-10.980247,-1.99013,3.781202,1.617762,0.160156,0.847874
1702327239734375,-10.689247,-1.52013,3.957202,1.686162,0.112656,0.805474
1702327239742187,-10.169247,0.974013,3.759202,1.757462,0.159756,0.773774
1702327239750000,-9.636247,0.965013,2.991202,1.837262,0.252856,0.735074
1702327239757812,-9.601247,0.762013,2.90202,1.948662,0.321556,0.692974
1702327239765625,-10.77247,0.504013,1.486202,2.25662,0.340356,0.651874
1702327239773437,-10.483247,0.161013,1.108202,2.34262,0.281856,0.631074
1702327239781250,-10.672247,0.354987,1.36202,1.961962,0.160156,0.631374
1702327239789062,-10.485247,0.912987,1.113202,1.863962,0.60556,0.649274
1702327239796875,-10.240247,1.489987,1.296202,1.744662,0.18556,0.663774
1702327239804687,-10.102247,1.997987,1.512202,1.655662,0.36856,0.659674
1702327239812500,-10.103247,2.352987,1.745202,1.588962,0.66356,0.636074
1702327239820312,-10.216247,2.503987,1.898202,1.533662,0.90956,0.599374
1702327239828125,-10.298247,2.453987,1.972202,1.487162,0.78856,0.529274
1702327239835937,-10.271247,2.155987,2.6202,1.431062,0.5456,0.449674
1702327239843750,-10.23247,1.795987,2.66202,1.365062,0.134244,0.383974
1702327239851562,-9.669247,1.330987,2.212202,1.303662,0.247644,0.340474
1702327239859375,-9.286247,0.792987,2.318202,1.242362,0.311444,0.330374
1702327239867187,-8.902247,0.367987,2.462202,1.191562,0.305744,0.332174
1702327239875000,-8.581247,0.91987,2.552202,1.193662,0.226944,0.339574
1702327239882812,-8.386247,0.4013,2.538202,1.222362,0.127044,0.349874
1702327239890625,-8.352247,0.17987,2.534202,1.296062,0.22644,0.364474
1702327239898437,-8.451247,0.180987,2.570202,1.388262,0.67156,0.387074
1702327239906250,-8.624247,0.449987,2.561202,1.475862,0.145756,0.420974
1702327239914062,-8.845247,0.745987,2.453202,1.549362,0.196656,0.455174
1702327239921875,-9.42247,1.17987,2.359202,1.610162,0.206456,0.476974
1702327239929687,-9.291247,1.165987,2.235202,1.631262,0.167056,0.494774
1702327239937500,-9.525247,1.182987,2.68202,1.617662,0.79956,0.503674
1702327239945312,-9.832247,1.102987,2.160202,1.581262,0.31044,0.499974
1702327239953125,-10.66247,0.957987,2.224202,1.521262,0.142244,0.494974
1702327239960937,-10.107247,0.743987,2.334202,1.456962,0.260744,0.485574
1702327239968750,-10.52247,0.502987,2.485202,1.377362,0.340344,0.481974
1702327239976562,-9.786247,0.305987,2.583202,1.288962,0.400844,0.485174
1702327239984375,-9.483247,0.172987,2.626202,1.219862,0.425144,0.489274
1702327239992187,-9.242247,0.24987,2.682202,1.172762,0.420144,0.496174
1702327240000000,-9.25247,0.116013,2.640202,1.126862,0.376744,0.502574
1702327240007812,-8.808247,0.146013,2.673202,1.120062,0.323444,0.500874
1702327240015625,-8.710247,0.125013,2.914202,1.168662,0.261544,0.501674
1702327240023437,-8.777247,0.164013,3.169202,1.182462,0.236344,0.491374
1702327240031250,-9.11247,0.98013,3.268202,1.170962,0.241844,0.478874
1702327240039062,-9.186247,0.5013,3.194202,1.169162,0.262344,0.464174
1702327240046875,-9.489247,0.121987,3.106202,1.172562,0.304144,0.456674
1702327240054687,-9.578247,0.240987,3.59202,1.192762,0.361544,0.448874
1702327240062500,-9.694247,0.309987,3.36202,1.196862,0.412644,0.441274
1702327240070312,-9.697247,0.382987,2.975202,1.206062,0.441944,0.449374
1702327240078125,-9.547247,0.393987,3.160202,1.171662,0.520244,0.438974
1702327240085937,-9.468247,0.383987,3.239202,1.116062,0.582544,0.444874
1702327240093750,-9.277247,0.364987,3.279202,1.69462,0.654744,0.458974
1702327240101562,-9.101247,0.321987,3.219202,1.14762,0.737644,0.464774
1702327240109375,-8.912247,0.336987,3.90202,0.976362,0.804644,0.478574
1702327240117187,-8.572247,0.375987,3.79202,0.947862,0.856444,0.504974
1702327240125000,-8.386247,0.288987,3.149202,0.935462,0.880144,0.512074
1702327240132812,-8.295247,0.241987,3.259202,0.911562,0.881844,0.520374
1702327240140625,-8.59247,0.221987,3.85202,0.873862,0.879944,0.533674
1702327240148437,-7.805247,0.119987,2.937202,0.842762,0.918844,0.538974
1702327240156250,-7.626247,0.128987,2.948202,0.828062,0.955144,0.534674
1702327240164062,-7.348247,0.174987,2.996202,0.790962,0.988844,0.536774
1702327240171875,-7.124247,0.127987,3.43202,0.735262,-1.25344,0.529774
1702327240179687,-7.81247,0.46013,2.975202,0.685462,-1.35244,0.507874
1702327240187500,-7.260247,0.139013,2.903202,0.654562,-1.31744,0.495274
1702327240195312,-7.407247,0.216013,2.912202,0.620062,-1.51544,0.478074
1702327240203125,-7.429247,0.382013,2.939202,0.584162,-1.100544,0.464374
1702327240210937,-7.425247,0.610013,2.997202,0.563362,-1.192644,0.436374
1702327240218750,-7.195247,0.716013,3.236202,0.587362,-1.321244,0.425374
1702327240226562,-6.817247,0.733013,3.718202,0.610062,-1.431544,0.401974
1702327240234375,-6.318247,0.741013,4.81202,0.606862,-1.470544,0.411874
1702327240242187,-5.961247,0.724013,4.153202,0.556362,-1.460844,0.415674
1702327240250000,-5.554247,0.690013,3.914202,0.518962,-1.430144,0.449874
1702327240257812,-5.182247,0.787013,3.706202,0.490662,-1.431144,0.483974
1702327240265625,-5.99247,0.893013,3.429202,0.494862,-1.409744,0.514374
1702327240273437,-5.164247,0.916013,3.533202,0.540162,-1.404344,0.555574
1702327240281250,-5.93247,0.882013,3.734202,0.554662,-1.381544,0.600474
1702327240289062,-5.237247,0.866013,3.839202,0.596762,-1.319244,0.633374
1702327240296875,-4.949247,0.753013,3.765202,0.638062,-1.244244,0.621074
1702327240304687,-5.203247,0.437013,3.801202,0.692462,-1.178344,0.558474
1702327240312500,-5.424247,0.226013,3.788202,0.727362,-1.69644,0.515674
1702327240320312,-5.614247,0.168013,3.799202,0.734062,0.966544,0.461674
1702327240328125,-5.810247,0.32013,3.871202,0.695562,0.859944,0.403174
1702327240335937,-5.981247,0.154987,3.797202,0.618962,0.765044,0.348574
1702327240343750,-5.988247,0.178987,3.610202,0.510462,0.704444,0.305774
1702327240351562,-5.903247,0.37987,3.651202,0.418862,0.661944,0.269574
1702327240359375,-5.849247,0.34987,3.919202,0.352662,0.632244,0.239274
1702327240367187,-5.815247,0.118013,4.337202,0.323962,0.647844,0.198274
1702327240375000,-6.50247,0.496013,4.813202,0.322362,0.650744,0.160974
1702327240382812,-6.511247,-1.34013,5.58202,0.348362,0.639344,0.126674
1702327240390625,-6.877247,-1.652013,5.123202,0.351962,0.645944,0.105774
1702327240398437,-6.894247,-2.151013,5.150202,0.370362,0.640444,0.97074
1702327240406250,-6.738247,-2.474013,5.269202,0.421062,0.601944,0.99874
1702327240414062,-6.434247,-2.801013,5.487202,0.497662,0.516844,0.140274
1702327240421875,-6.52247,-2.820013,5.791202,0.564062,0.433044,0.161374
1702327240429687,-6.164247,-2.698013,5.793202,0.635962,0.346444,0.187374
1702327240437500,-6.246247,-2.455013,5.755202,0.718862,0.290744,0.214974
1702327240445312,-6.502247,-2.67013,5.839202,0.778162,0.264944,0.219074
1702327240453125,-6.929247,-1.649013,5.918202,0.799662,0.226644,0.221474
1702327240460937,-7.124247,-1.368013,6.19202,0.808862,0.200844,0.213374
1702327240468750,-7.142247,-1.206013,6.247202,0.779462,0.171044,0.221374
1702327240476562,-7.168247,-1.30013,6.238202,0.710662,0.108944,0.215374
1702327240484375,-7.204247,-1.8013,5.972202,0.618762,0.51344,0.214274
1702327240492187,-7.21247,0.951013,5.880202,0.537262,0.45944,0.232774
1702327240500000,-6.781247,0.748013,6.22202,0.465162,0.19744,0.235074
1702327240507812,-6.863247,0.547013,6.209202,0.422962,0.14456,0.222574
1702327240515625,-6.816247,0.332013,6.454202,0.402462,0.38856,0.222674
1702327240523437,-6.977247,0.155013,6.714202,0.393562,0.74856,0.212874
1702327240531250,-7.221247,0.179013,6.954202,0.392062,0.143456,0.214074
1702327240539062,-7.562247,0.343013,7.35202,0.349462,0.213956,0.183374
1702327240546875,-7.988247,0.589013,6.961202,0.310962,0.247956,0.138574
1702327240554687,-8.188247,-1.36013,6.914202,0.285462,0.248156,0.103274
1702327240562500,-8.256247,-1.446013,6.911202,0.275562,0.245156,0.79074
1702327240570312,-8.203247,-1.526013,6.958202,0.289762,0.256456,0.64374
1702327240578125,-7.934247,-1.499013,7.136202,0.332562,0.295656,0.53874
1702327240585937,-7.892247,-1.418013,7.265202,0.361862,0.361456,0.51274
1702327240593750,-8.38247,-1.154013,7.184202,0.410162,0.441156,0.55274
1702327240601562,-8.68247,0.940013,7.191202,0.439662,0.519356,0.69074
1702327240609375,-8.222247,0.594013,7.213202,0.453462,0.609956,0.72774
1702327240617187,-8.262247,0.316013,7.288202,0.434362,0.663456,0.64774
1702327240625000,-8.421247,0.92013,7.387202,0.377662,0.703556,0.64874
1702327240632812,-8.776247,0.58013,7.189202,0.300262,0.771056,0.57074
1702327240640625,-8.771247,0.117013,7.132202,0.231662,0.747456,0.48674
1702327240648437,-8.785247,0.69013,7.281202,0.181162,0.715656,0.42574
1702327240656250,-8.648247,0.179013,7.252202,0.127362,0.727956,0.17674
1702327240664062,-8.754247,0.209013,7.313202,0.97162,0.731256,0.28726
1702327240671875,-8.735247,0.127013,7.288202,0.79062,0.751156,0.38526
1702327240679687,-8.578247,0.238013,7.124202,0.77762,0.783756,0.51526
1702327240687500,-8.392247,0.183013,6.946202,0.82662,0.834256,0.63126
1702327240695312,-8.193247,0.131013,6.867202,0.85162,0.914856,0.55926
1702327240703125,-8.153247,0.94013,6.673202,0.71462,1.19656,0.46726
1702327240710937,-8.110247,0.142013,6.419202,0.37462,1.106656,0.35826
1702327240718750,-8.50247,0.85013,6.74202,0.10438,1.173356,0.14526
1702327240726562,-7.936247,0.25013,5.833202,0.55238,1.227856,0.1726
1702327240734375,-7.869247,0.22987,5.658202,0.111138,1.271056,0.11274
1702327240742187,-7.809247,0.18987,5.464202,0.147038,1.313556,0.11474
1702327240750000,-7.785247,0.45013,5.263202,0.196038,1.349256,0.15174
1702327240757812,-7.734247,0.159013,5.110202,0.233538,1.386856,0.12174
1702327240765625,-7.765247,0.312013,5.49202,0.254538,1.410156,0.774
1702327240773437,-7.793247,0.391013,5.33202,0.281138,1.416656,0.11826
1702327240781250,-7.723247,0.446013,4.970202,0.316638,1.430056,0.11626
1702327240789062,-7.713247,0.490013,4.808202,0.332138,1.459356,0.21326
1702327240796875,-7.745247,0.601013,4.736202,0.355138,1.507056,0.23026
1702327240804687,-8.379247,0.729013,4.678202,0.363438,1.590856,0.28526
1702327240812500,-8.793247,0.704013,4.671202,0.337438,1.640756,0.38426
1702327240820312,-8.926247,0.678013,4.995202,0.317838,1.662556,0.31026
1702327240828125,-9.245247,0.710013,5.445202,0.311938,1.701256,0.39226
1702327240835937,-9.548247,0.743013,5.993202,0.320938,1.742356,0.37826
1702327240843750,-9.823247,0.843013,6.680202,0.347338,1.760756,0.23326
1702327240851562,-10.813247,-1.26013,7.37202,0.387638,1.837256,0.10774
1702327240859375,-11.952247,-1.218013,6.889202,0.427538,1.919956,0.39274
1702327240867187,-13.131247,-1.454013,6.589202,0.438038,1.931356,0.81274
1702327240875000,-14.593247,-1.534013,5.824202,0.440238,1.910356,0.112074
1702327240882812,-15.560247,-1.462013,5.189202,0.410838,1.826656,0.160774
1702327240890625,-15.690247,-1.338013,5.29202,0.359138,1.703756,0.193374
1702327240898437,-14.582247,-1.196013,4.804202,0.343538,1.542056,0.178074
1702327240906250,-12.473247,-1.366013,4.364202,0.317638,1.418656,0.148274
1702327240914062,-10.683247,-1.459013,3.459202,0.332338,1.422656,0.91574
1702327240921875,-9.582247,-1.436013,2.637202,0.313038,1.562356,0.43974
1702327240929687,-8.460247,-1.445013,2.17202,0.263938,1.749156,0.24274
1702327240937500,-7.642247,-1.154013,1.470202,0.235138,1.865156,0.41426
1702327240945312,-7.481247,0.804013,1.146202,0.210138,1.973256,0.73126
1702327240953125,-7.543247,0.550013,0.560202,0.179238,2.52756,0.70526
1702327240960937,-7.539247,0.247013,0.212202,0.158638,2.25856,0.35526
1702327240968750,-7.523247,0.112013,0.77202,0.180438,1.948856,0.826
1702327240976562,-7.812247,0.165013,0.116798,0.207438,1.875256,0.6426
1702327240984375,-8.397247,0.271013,0.303798,0.212438,1.809556,0.23526
1702327240992187,-9.507247,0.296013,0.452798,0.188638,1.781256,0.65326
1702327241000000,-9.992247,0.351013,0.339798,0.143138,1.707556,0.79926
1702327241007812,-9.399247,0.455013,0.117202,0.148038,1.573756,0.79126
1702327241015625,-8.846247,0.614013,0.468202,0.180238,1.504556,0.86126
1702327241023437,-8.780247,0.795013,0.396202,0.226138,1.533056,0.95726
1702327241031250,-9.103247,0.968013,0.81202,0.246338,1.614656,0.97626
1702327241039062,-9.623247,-1.195013,0.403798,0.264938,1.709456,0.91526
1702327241046875,-10.99247,-1.226013,0.920798,0.261038,1.745556,0.108026
1702327241054687,-10.435247,-1.168013,-1.296798,0.259138,1.727656,0.120826
1702327241062500,-10.644247,-1.47013,-1.436798,0.240738,1.696356,0.122326
1702327241070312,-10.626247,-1.16013,-1.477798,0.206538,1.673356,0.117726
1702327241078125,-10.569247,0.948013,-1.481798,0.185238,1.633756,0.117526
1702327241085937,-10.791247,-1.18013,-1.546798,0.186338,1.588256,0.127126
1702327241093750,-11.137247,0.979013,-1.785798,0.192338,1.561456,0.120026
1702327241101562,-11.382247,0.975013,-2.103798,0.184738,1.500756,0.127726
1702327241109375,-11.496247,0.994013,-2.339798,0.147538,1.443556,0.114926
1702327241117187,-11.327247,0.919013,-2.450798,0.101438,1.402456,0.90926
1702327241125000,-11.83247,0.985013,-2.391798,0.64538,1.384356,0.71726
1702327241132812,-10.932247,-1.140013,-2.335798,0.70838,1.389456,0.58926
1702327241140625,-10.803247,-1.164013,-2.481798,0.89438,1.377556,0.35826
1702327241148437,-10.791247,-1.136013,-2.639798,0.98138,1.305956,0.53126
1702327241156250,-10.802247,-1.111013,-2.815798,0.117038,1.206156,0.71626
1702327241164062,-10.728247,-1.99013,-2.900798,0.109638,1.80356,0.75726
1702327241171875,-10.464247,-1.52013,-2.936798,0.113238,1.16456,0.73626
1702327241179687,-10.179247,-1.10013,-3.105798,0.104138,1.7856,0.86326
1702327241187500,-10.56247,0.943013,-3.245798,0.70938,0.986656,0.91526
1702327241195312,-9.909247,0.881013,-3.400798,0.35538,0.979656,0.88426
1702327241203125,-9.773247,0.664013,-3.539798,0.5862,0.968556,0.97126
1702327241210937,-9.678247,0.570013,-3.431798,0.45862,0.950056,0.92326
1702327241218750,-9.542247,0.483013,-3.303798,0.63862,0.976456,0.100926
1702327241226562,-9.530247,0.386013,-3.134798,0.47662,0.979556,0.92626
1702327241234375,-9.548247,0.388013,-3.107798,0.23962,0.979456,0.97126
1702327241242187,-9.626247,0.413013,-3.179798,0.362,0.948356,0.101426
1702327241250000,-9.711247,0.432013,-3.265798,0.15338,0.881456,0.104126
1702327241257812,-9.751247,0.437013,-3.326798,0.32538,0.797356,0.104626
1702327241265625,-9.729247,0.474013,-3.303798,0.44438,0.729356,0.101126
1702327241273437,-9.736247,0.560013,-3.283798,0.38838,0.694556,0.105626
1702327241281250,-9.805247,0.592013,-3.217798,0.52838,0.648956,0.108426
1702327241289062,-9.951247,0.639013,-3.321798,0.61238,0.638756,0.109726
1702327241296875,-9.948247,0.679013,-3.443798,0.61438,0.607656,0.111026
1702327241304687,-9.924247,0.763013,-3.492798,0.56938,0.574856,0.112526
1702327241312500,-9.733247,0.793013,-3.596798,0.63138,0.571756,0.106026
1702327241320312,-9.680247,0.839013,-3.596798,0.56038,0.544556,0.111026
1702327241328125,-9.654247,0.790013,-3.517798,0.43238,0.530656,0.105826
1702327241335937,-9.663247,0.805013,-3.535798,0.44638,0.529456,0.89926
1702327241343750,-9.709247,0.856013,-3.637798,0.43238,0.501656,0.88126
1702327241351562,-9.752247,0.837013,-3.652798,0.23838,0.470056,0.81526
1702327241359375,-9.779247,0.854013,-3.652798,0.19538,0.445756,0.55626
1702327241367187,-9.741247,0.833013,-3.628798,0.838,0.418156,0.41226
1702327241375000,-9.656247,0.819013,-3.553798,0.2062,0.400356,0.28326
1702327241382812,-9.705247,0.869013,-3.645798,0.5762,0.405656,0.27026
1702327241390625,-9.658247,0.812013,-3.682798,0.24362,0.377056,0.5626
1702327241398437,-9.598247,0.778013,-3.632798,0.30062,0.331956,0.9026
1702327241406250,-9.570247,0.709013,-3.650798,0.40062,0.321756,0.4074
1702327241414062,-9.574247,0.607013,-3.650798,0.50362,0.308256,0.5774
1702327241421875,-9.539247,0.525013,-3.704798,0.54862,0.290256,0.9074
1702327241429687,-9.567247,0.572013,-3.738798,0.64262,0.275456,0.4274
1702327241437500,-9.647247,0.491013,-3.853798,0.51662,0.242856,0.7874
1702327241445312,-9.674247,0.506013,-3.864798,0.66662,0.203156,0.3126
1702327241453125,-9.688247,0.463013,-3.857798,0.74762,0.181956,0.9526
1702327241460937,-9.684247,0.468013,-3.799798,0.75262,0.175556,0.17726
1702327241468750,-9.666247,0.455013,-3.740798,0.64162,0.164156,0.19126
1702327241476562,-9.652247,0.451013,-3.702798,0.51362,0.137856,0.21926
1702327241484375,-9.592247,0.443013,-3.738798,0.55162,0.125256,0.20526
1702327241492187,-9.527247,0.437013,-3.756798,0.37962,0.104256,0.13926
1702327241500000,-9.466247,0.429013,-3.783798,0.24562,0.79356,0.6926
1702327241507812,-9.371247,0.355013,-3.708798,0.27662,0.61556,0.1174
1702327241515625,-9.354247,0.433013,-3.647798,0.25962,0.46956,0.12474
1702327241523437,-9.356247,0.431013,-3.774798,0.25162,0.25256,0.16074
1702327241531250,-9.336247,0.414013,-3.713798,0.26562,0.36644,0.22874
1702327241539062,-9.349247,0.480013,-3.591798,0.33162,0.20144,0.19374
1702327241546875,-9.353247,0.473013,-3.724798,0.27962,0.32044,0.10074
1702327241554687,-9.315247,0.476013,-3.699798,0.36862,0.60744,0.6574
1702327241562500,-9.299247,0.505013,-3.747798,0.47262,0.46644,0.174
1702327241570312,-9.279247,0.472013,-3.769798,0.45762,0.36744,0.1674
1702327241578125,-9.286247,0.512013,-3.828798,0.44962,0.31344,0.6274
1702327241585937,-9.290247,0.392013,-3.828798,0.49262,0.49444,0.7974
1702327241593750,-9.320247,0.319013,-3.823798,0.53462,0.54644,0.11374
1702327241601562,-9.399247,0.287013,-3.740798,0.44162,0.67444,0.19474
1702327241609375,-9.404247,0.242013,-3.580798,0.25662,0.85144,0.21274
1702327241617187,-9.384247,0.273013,-3.551798,0.24662,0.116844,0.21774
1702327241625000,-9.364247,0.265013,-3.591798,0.20762,0.143944,0.21674
1702327241632812,-9.339247,0.276013,-3.555798,0.9162,0.195044,0.15874
1702327241640625,-9.352247,0.316013,-3.550798,0.2138,0.219744,0.13074
1702327241648437,-9.357247,0.373013,-3.564798,0.10938,0.252844,0.20074
1702327241656250,-9.357247,0.422013,-3.537798,0.17238,0.277244,0.23474
1702327241664062,-9.356247,0.451013,-3.496798,0.12238,0.283544,0.24874
1702327241671875,-9.317247,0.492013,-3.436798,0.9038,0.296644,0.20174
1702327241679687,-9.317247,0.525013,-3.366798,0.11038,0.288744,0.23474
1702327241687500,-9.321247,0.531013,-3.332798,0.2038,0.275844,0.28274
1702327241695312,-9.292247,0.550013,-3.283798,0.0,0.273844,0.32874
1702327241703125,-9.262247,0.543013,-3.247798,0.3238,0.269044,0.34474
1702327241710937,-9.281247,0.541013,-3.181798,0.4338,0.250744,0.32674
