time,Acceleration X (m/s^2),Acceleration Y (m/s^2),Acceleration Z (m/s^2),Angular Velocity X (rad/s),Angular Velocity Y (rad/s),Angular Velocity Z (rad/s)
1702327422929687,-9.813994,-0.220245,1.013738,,,
1702327422937500,-9.790994,0.238245,0.977738,0.6704,0.146683,0.15987
1702327422945312,-9.826994,0.248245,0.990738,0.4904,0.163183,0.16187
1702327422953125,-9.840994,0.206245,1.49738,0.15204,0.175683,0.10987
1702327422960937,-9.861994,0.194245,1.53738,0.14604,0.167883,0.15987
1702327422968750,-9.847994,0.196245,1.1738,0.15504,0.163483,0.11387
1702327422984375,-9.847994,0.214245,1.2738,0.22404,0.174583,0.7987
1702327422992187,-9.840994,0.205245,1.38738,0.25104,0.176483,0.11287
1702327423000000,-9.854994,0.214245,1.63738,0.27404,0.175883,0.12587
1702327423007812,-9.755994,0.207245,1.51738,0.29404,0.174083,0.10787
1702327423031250,-9.732994,0.225245,0.950738,0.38504,0.178883,0.20387
1702327423039062,-9.739994,0.234245,0.999738,0.34604,0.192683,0.11187
1702327423046875,-9.759994,0.227245,1.62738,0.31704,0.200783,0.6387
1702327423054687,-9.826994,0.230245,1.65738,0.25704,0.198883,0.11187
1702327423062500,-9.725994,0.252245,1.40738,0.28704,0.200683,0.7987
1702327423070312,-9.732994,0.225245,1.78738,0.37804,0.217183,0.4887
1702327423078125,-9.762994,0.205245,1.121738,0.27404,0.223183,0.14387
1702327423085937,-9.777994,0.213245,1.148738,0.31504,0.208983,0.11287
1702327423093750,-9.739994,0.203245,1.144738,0.39804,0.200483,0.10987
1702327423101562,-9.775994,0.180245,1.125738,0.43504,0.202883,0.9687
1702327423109375,-9.728994,0.183245,1.103738,0.36304,0.200783,0.11187
1702327423117187,-9.753994,0.154245,1.87738,0.40604,0.210783,0.14487
1702327423125000,-9.769994,0.178245,1.117738,0.38204,0.218383,0.17587
1702327423132812,-9.697994,0.188245,1.148738,0.33304,0.233083,0.17687
1702327423140625,-9.728994,0.199245,1.171738,0.29504,0.229283,0.14287
1702327423148437,-9.737994,0.232245,1.184738,0.38204,0.236283,0.17587
1702327423156250,-9.707994,0.230245,1.267738,0.43204,0.240283,0.22787
1702327423164062,-9.716994,0.245245,1.306738,0.28704,0.228183,0.16087
1702327423171875,-9.698994,0.245245,1.231738,0.24904,0.218883,0.13187
1702327423179687,-9.743994,0.256245,1.200738,0.28904,0.213483,0.11187
1702327423187500,-9.735994,0.221245,1.238738,0.24304,0.228083,0.12887
1702327423195312,-9.812994,0.175245,1.331738,0.25404,0.233283,0.14687
1702327423203125,-9.794994,0.171245,1.360738,0.15804,0.236483,0.24487
1702327423210937,-9.737994,0.167245,1.362738,0.23004,0.238483,0.22987
1702327423218750,-9.721994,0.178245,1.429738,0.24804,0.228683,0.14787
1702327423226562,-9.717994,0.168245,1.459738,0.23904,0.225083,0.14587
1702327423234375,-9.694994,0.197245,1.470738,0.25404,0.234883,0.14687
1702327423242187,-9.757994,0.231245,1.463738,0.23904,0.239783,0.9887
1702327423250000,-9.732994,0.236245,1.425738,0.24904,0.257883,0.21387
1702327423257812,-9.752994,0.283245,1.421738,0.31704,0.278883,0.14787
1702327423265625,-9.740994,0.298245,1.520738,0.40804,0.298783,0.5287
1702327423273437,-9.823994,0.328245,1.592738,0.40104,0.307383,0.8787
1702327423281250,-9.814994,0.315245,1.607738,0.35904,0.303683,0.13487
1702327423289062,-9.690994,0.303245,1.610738,0.31004,0.306883,0.23187
1702327423296875,-9.729994,0.280245,1.646738,0.46704,0.302183,0.14987
1702327423304687,-9.740994,0.262245,1.700738,0.43304,0.305583,0.18387
1702327423312500,-9.748994,0.238245,1.700738,0.43304,0.303983,0.16687
1702327423320312,-9.734994,0.234245,1.664738,0.27704,0.318683,0.8987
1702327423328125,-9.807994,0.195245,1.677738,0.32104,0.333383,0.18687
1702327423335937,-9.689994,0.216245,1.693738,0.33104,0.330383,0.30087
1702327423343750,-9.676994,0.192245,1.727738,0.22804,0.346583,0.7587
1702327423351562,-9.737994,0.178245,1.794738,0.24404,0.361283,0.1187
1702327423359375,-9.697994,0.185245,1.797738,0.22404,0.372683,0.17487
1702327423367187,-9.602994,0.196245,1.808738,0.22904,0.378683,0.28487
1702327423375000,-9.609994,0.180245,1.882738,0.23704,0.377583,0.30387
1702327423382812,-9.661994,0.157245,1.898738,0.29904,0.367883,0.27087
1702327423390625,-9.546994,0.186245,1.957738,0.46004,0.380483,0.41187
1702327423398437,-9.634994,0.197245,1.939738,0.32004,0.357683,0.31587
1702327423406250,-9.649994,0.204245,1.914738,0.23004,0.358983,0.29987
1702327423414062,-9.521994,0.222245,1.840738,0.24604,0.360483,0.37987
1702327423421875,-9.703994,0.207245,1.943738,0.25504,0.382583,0.15887
1702327423429687,-9.703994,0.192245,2.2738,0.40104,0.382283,0.10787
1702327423437500,-9.584994,0.232245,2.87738,0.29404,0.395083,0.12487
1702327423445312,-9.554994,0.243245,2.78738,0.27604,0.387083,0.20487
1702327423453125,-9.465994,0.233245,2.103738,0.31804,0.385683,0.23787
1702327423460937,-9.459994,0.257245,2.168738,0.29804,0.384483,0.17587
1702327423468750,-9.473994,0.271245,2.134738,0.36804,0.367483,0.26787
1702327423476562,-9.577994,0.229245,2.116738,0.41304,0.362683,0.29987
1702327423484375,-9.635994,0.235245,2.139738,0.42804,0.372683,0.20487
1702327423492187,-9.489994,0.244245,2.179738,0.48704,0.390883,0.18987
1702327423500000,-9.458994,0.220245,2.134738,0.29704,0.387683,0.22487
1702327423507812,-9.492994,0.192245,2.136738,0.24504,0.389583,0.25887
1702327423515625,-9.668994,0.177245,2.182738,0.39604,0.379283,0.20487
1702327423523437,-9.546994,0.181245,2.267738,0.42204,0.386083,0.23887
1702327423531250,-9.415994,0.214245,2.310738,0.26804,0.377683,0.25587
1702327423539062,-9.445994,0.198245,2.238738,0.21904,0.372983,0.24087
1702327423546875,-9.504994,0.134245,2.290738,0.22704,0.376783,0.25887
1702327423554687,-9.454994,0.175245,2.303738,0.21904,0.371483,0.17687
1702327423562500,-9.225994,0.170245,2.375738,0.21304,0.394483,0.30787
1702327423570312,-9.275994,0.167245,2.407738,0.23704,0.392183,0.35287
1702327423578125,-9.495994,0.123245,2.414738,0.23104,0.384683,0.22587
1702327423585937,-9.482994,0.133245,2.423738,0.22504,0.382183,0.30287
1702327423593750,-9.486994,0.121245,2.414738,0.23104,0.379583,0.32187
1702327423601562,-9.506994,0.146245,2.443738,0.21704,0.384383,0.32187
1702327423609375,-9.574994,0.151245,2.558738,0.20904,0.379083,0.25487
1702327423617187,-9.603994,0.110245,2.578738,0.8604,0.373583,0.16487
1702327423625000,-9.293994,0.136245,2.634738,0.14004,0.385883,0.32187
1702327423632812,-9.343994,0.110245,2.700738,0.6004,0.364683,0.38687
1702327423640625,-9.500994,0.128245,2.621738,0.704,0.344683,0.27087
1702327423648437,-9.462994,0.102245,2.623738,0.2104,0.334983,0.28687
1702327423656250,-9.368994,0.102245,2.596738,0.1996,0.355883,0.20587
1702327423664062,-9.277994,0.145245,2.659738,0.12896,0.381183,0.27787
1702327423671875,-9.317994,0.146245,2.673738,0.10896,0.358183,0.25887
1702327423679687,-9.237994,0.134245,2.754738,0.21796,0.372883,0.16487
1702327423687500,-9.266994,0.136245,2.850738,0.26996,0.397583,0.23187
1702327423695312,-9.355994,0.66245,2.783738,0.26496,0.381083,0.14987
1702327423703125,-9.217994,0.99245,2.787738,0.14196,0.372883,0.27687
1702327423710937,-9.426994,0.80245,2.803738,0.13696,0.338483,0.14487
1702327423718750,-9.303994,0.84245,2.790738,0.18096,0.338283,0.16087
1702327423726562,-9.223994,0.128245,2.884738,0.27696,0.370983,0.16387
1702327423734375,-9.309994,0.115245,2.905738,0.27696,0.358083,0.11487
1702327423742187,-9.306994,0.133245,2.972738,0.31096,0.358183,0.13287
1702327423750000,-9.259994,0.129245,3.13738,0.46996,0.364783,0.15187
1702327423757812,-9.248994,0.160245,3.4738,0.53096,0.374483,0.15187
1702327423765625,-9.275994,0.131245,3.40738,0.51496,0.384183,0.15187
1702327423773437,-9.261994,0.143245,3.78738,0.52796,0.392283,0.11987
1702327423781250,-9.267994,0.167245,2.985738,0.53796,0.389683,0.13887
1702327423789062,-9.275994,0.147245,2.990738,0.51696,0.399083,0.13787
1702327423796875,-9.81994,0.154245,3.130738,0.31996,0.412283,0.31487
1702327423804687,-9.185994,0.133245,3.231738,0.37296,0.396983,0.26287
1702327423812500,-9.299994,0.160245,3.218738,0.33896,0.378983,0.21287
1702327423820312,-9.283994,0.193245,3.227738,0.38896,0.380783,0.26287
1702327423828125,-9.329994,0.175245,3.254738,0.27396,0.386983,0.24387
1702327423835937,-9.274994,0.225245,3.251738,0.26096,0.372483,0.25987
1702327423843750,-9.262994,0.249245,3.323738,0.25196,0.389283,0.21487
1702327423851562,-9.242994,0.231245,3.287738,0.26596,0.379483,0.18187
1702327423859375,-9.106994,0.278245,3.335738,0.21996,0.385983,0.19787
1702327423867187,-9.150994,0.226245,3.350738,0.28296,0.384283,0.24687
1702327423875000,-9.172994,0.239245,3.396738,0.17196,0.385883,0.26087
1702327423882812,-9.223994,0.274245,3.427738,0.25196,0.384383,0.23087
1702327423890625,-9.149994,0.261245,3.463738,0.10096,0.387883,0.31087
1702327423898437,-9.203994,0.296245,3.515738,0.3396,0.399283,0.16487
1702327423906250,-9.210994,0.287245,3.546738,0.0,0.387483,0.24287
1702327423914062,-9.43994,0.298245,3.612738,0.5704,0.396083,0.24487
1702327423921875,-9.79994,0.300245,3.706738,0.15604,0.402283,0.25887
1702327423929687,-9.257994,0.284245,3.693738,0.27004,0.384283,0.12687
1702327423937500,-9.151994,0.288245,3.682738,0.27004,0.397283,0.15987
1702327423945312,-8.985994,0.304245,3.702738,0.26504,0.420283,0.22687
1702327423953125,-9.156994,0.297245,3.706738,0.39604,0.423383,0.14387
1702327423960937,-9.78994,0.267245,3.709738,0.47304,0.426683,0.22387
1702327423968750,-8.917994,0.294245,3.805738,0.44404,0.455083,0.29387
1702327423976562,-9.71994,0.260245,3.790738,0.46604,0.457983,0.25887
1702327423984375,-8.988994,0.249245,3.790738,0.48504,0.448083,0.22587
1702327423992187,-8.875994,0.286245,3.889738,0.71504,0.467883,0.30587
1702327424000000,-9.67994,0.212245,3.923738,0.71804,0.458083,0.17587
1702327424007812,-8.819994,0.242245,3.967738,0.74604,0.454883,0.27287
1702327424015625,-8.867994,0.232245,4.71738,0.77804,0.464783,0.20887
1702327424023437,-8.981994,0.255245,3.965738,0.70404,0.459583,0.19187
1702327424031250,-8.790994,0.249245,3.938738,0.73904,0.471683,0.29187
1702327424039062,-8.779994,0.198245,4.96738,0.64904,0.487683,0.29187
1702327424046875,-8.858994,0.235245,4.125738,0.46104,0.481183,0.22987
1702327424054687,-8.813994,0.209245,4.145738,0.46404,0.487483,0.26187
1702327424062500,-8.771994,0.196245,4.191738,0.51204,0.498683,0.35687
1702327424070312,-8.933994,0.192245,4.198738,0.67804,0.486883,0.23987
1702327424078125,-8.946994,0.196245,4.159738,0.72104,0.477283,0.25587
1702327424085937,-8.698994,0.248245,4.166738,0.71204,0.492583,0.27587
1702327424093750,-8.795994,0.187245,4.166738,0.73504,0.484383,0.4887
1702327424101562,-8.564994,0.164245,4.220738,0.68704,0.497083,0.24187
1702327424109375,-8.528994,0.236245,4.348738,0.62804,0.521283,0.25887
1702327424117187,-8.719994,0.210245,4.360738,0.50204,0.524883,0.10087
1702327424125000,-8.638994,0.196245,4.420738,0.45504,0.538683,0.23487
1702327424132812,-8.597994,0.234245,4.391738,0.50904,0.536683,0.21587
1702327424140625,-8.631994,0.185245,4.382738,0.58604,0.518983,0.11887
1702327424148437,-8.461994,0.158245,4.456738,0.58504,0.515683,0.18287
1702327424156250,-8.459994,0.152245,4.495738,0.60304,0.517183,0.18187
1702327424164062,-8.637994,0.145245,4.434738,0.60304,0.493283,0.11187
1702327424171875,-8.606994,0.61245,4.479738,0.68604,0.489083,0.24187
1702327424179687,-8.476994,0.90245,4.549738,0.56504,0.486983,0.28987
1702327424187500,-8.732994,0.77245,4.533738,0.38004,0.486983,0.14687
1702327424195312,-8.691994,0.113245,4.562738,0.29604,0.493783,0.21387
1702327424203125,-8.657994,0.102245,4.724738,0.11104,0.530283,0.33487
1702327424210937,-8.620994,0.172245,4.792738,0.5304,0.534883,0.25387
1702327424218750,-8.598994,0.177245,4.842738,0.1204,0.531283,0.25187
1702327424226562,-8.534994,0.248245,4.799738,0.2496,0.511783,0.39687
1702327424234375,-8.582994,0.219245,4.832738,0.5604,0.492183,0.37887
1702327424242187,-8.625994,0.291245,4.871738,0.4196,0.472583,0.50787
1702327424250000,-8.385994,0.304245,4.693738,0.11096,0.467183,0.44087
1702327424257812,-8.338994,0.256245,4.729738,0.4296,0.507183,0.38187
1702327424265625,-8.280994,0.239245,4.902738,0.3296,0.509783,0.33087
1702327424273437,-8.327994,0.256245,4.943738,0.31196,0.531683,0.40287
1702327424281250,-8.406994,0.222245,4.934738,0.16496,0.511583,0.47887
1702327424289062,-8.425994,0.150245,4.986738,0.4296,0.498783,0.47787
1702327424296875,-8.544994,0.166245,5.76738,0.2996,0.489083,0.54187
1702327424304687,-8.409994,0.231245,5.125738,0.1896,0.476583,0.69787
1702327424312500,-8.367994,0.291245,5.150738,0.4596,0.498783,0.62287
1702327424320312,-8.184994,0.358245,5.148738,0.3096,0.490683,0.58987
1702327424328125,-8.128994,0.361245,5.206738,0.5996,0.495283,0.63787
1702327424335937,-8.67994,0.389245,5.166738,0.4196,0.485383,0.66887
1702327424343750,-8.12994,0.430245,5.204738,0.2496,0.498183,0.73287
1702327424351562,-8.139994,0.368245,5.222738,0.3896,0.483583,0.63587
1702327424359375,-8.139994,0.336245,5.206738,0.804,0.464083,0.60187
1702327424367187,-8.281994,0.356245,5.231738,0.5604,0.475583,0.50587
1702327424375000,-8.232994,0.317245,5.326738,0.13304,0.465783,0.58487
1702327424382812,-8.297994,0.296245,5.400738,0.604,0.477383,0.55487
1702327424390625,-8.302994,0.290245,5.364738,0.1004,0.465583,0.56887
1702327424398437,-8.179994,0.254245,5.445738,0.2504,0.463983,0.60087
1702327424406250,-8.194994,0.298245,5.481738,0.2796,0.462683,0.65187
1702327424414062,-8.213994,0.373245,5.533738,0.17704,0.434883,0.64787
1702327424421875,-8.43994,0.428245,5.519738,0.14304,0.425383,0.61587
1702327424429687,-8.36994,0.333245,5.584738,0.1704,0.441483,0.71487
1702327424437500,-7.745994,0.380245,5.528738,0.7804,0.420183,0.87387
1702327424445312,-7.776994,0.400245,5.452738,0.8604,0.416583,0.75887
1702327424453125,-7.747994,0.420245,5.416738,0.19204,0.420083,0.74287
1702327424460937,-7.817994,0.394245,5.593738,0.12704,0.449783,0.64987
1702327424468750,-7.949994,0.414245,5.596738,0.8204,0.436683,0.60087
1702327424476562,-8.2994,0.340245,5.611738,0.19304,0.446583,0.51987
1702327424484375,-8.33994,0.338245,5.659738,0.19504,0.435083,0.47087
1702327424492187,-7.912994,0.339245,5.787738,0.11504,0.446483,0.52087
1702327424500000,-7.916994,0.355245,5.893738,0.10504,0.433183,0.45387
1702327424507812,-7.779994,0.359245,5.958738,0.1004,0.431683,0.42387
1702327424515625,-7.799994,0.412245,5.884738,0.3296,0.434483,0.48687
1702327424523437,-7.848994,0.418245,5.828738,0.15304,0.421583,0.51687
1702327424531250,-7.857994,0.436245,5.882738,0.4504,0.408483,0.50087
1702327424539062,-7.869994,0.385245,5.900738,0.1204,0.421583,0.53487
1702327424546875,-7.867994,0.333245,5.882738,0.4196,0.410583,0.55287
1702327424554687,-7.889994,0.407245,5.853738,0.1896,0.429683,0.50287
1702327424562500,-8.28994,0.398245,5.857738,0.18504,0.403683,0.45087
1702327424570312,-7.803994,0.417245,5.985738,0.23904,0.367383,0.44687
1702327424578125,-7.837994,0.423245,6.4738,0.21404,0.355683,0.36387
1702327424585937,-7.872994,0.440245,5.990738,0.25604,0.333183,0.37987
1702327424593750,-7.869994,0.396245,6.33738,0.41804,0.285583,0.37387
1702327424601562,-7.613994,0.373245,6.80738,0.27004,0.284483,0.36187
1702327424609375,-7.656994,0.359245,6.71738,0.23704,0.278083,0.36287
1702327424617187,-7.597994,0.395245,6.170738,0.35204,0.261483,0.32687
1702327424625000,-7.770994,0.366245,6.186738,0.22504,0.238383,0.50387
1702327424632812,-7.610994,0.404245,6.105738,0.24604,0.231783,0.34087
1702327424640625,-7.660994,0.401245,6.195738,0.9404,0.277283,0.23187
1702327424648437,-7.792994,0.412245,6.163738,0.22804,0.251483,0.37487
1702327424656250,-7.657994,0.434245,6.186738,0.23104,0.238383,0.29387
1702327424664062,-7.697994,0.449245,6.242738,0.27104,0.229083,0.29487
1702327424671875,-7.708994,0.438245,6.267738,0.33504,0.206183,0.30887
1702327424679687,-7.738994,0.435245,6.199738,0.34404,0.202383,0.25787
1702327424687500,-7.835994,0.398245,6.168738,0.53404,0.213783,0.19087
1702327424695312,-7.653994,0.377245,6.229738,0.56604,0.215583,0.7887
1702327424703125,-7.561994,0.234245,6.312738,0.44004,0.220583,0.0
1702327424710937,-7.420994,0.218245,6.251738,0.37504,0.209083,0.16187
1702327424718750,-7.557994,0.232245,6.213738,0.44104,0.212283,0.9587
1702327424726562,-7.549994,0.238245,6.78738,0.32104,0.217483,0.26087
1702327424734375,-7.380994,0.303245,6.51738,0.27904,0.233283,0.37287
1702327424742187,-7.340994,0.297245,6.134738,0.30604,0.222383,0.24487
1702327424750000,-7.446994,0.312245,6.137738,0.3596,0.229183,0.24287
1702327424757812,-7.512994,0.363245,6.229738,0.15704,0.221883,0.24387
1702327424765625,-7.510994,0.353245,6.292738,0.10204,0.227883,0.21087
1702327424773437,-7.529994,0.390245,6.271738,0.10804,0.231783,0.18187
1702327424781250,-7.428994,0.371245,6.242738,0.17204,0.233683,0.2087
1702327424789062,-7.368994,0.334245,6.240738,0.2196,0.263183,0.12187
1702327424796875,-7.142994,0.416245,6.147738,0.396,0.289183,0.10687
1702327424804687,-7.292994,0.365245,6.170738,0.1804,0.316483,0.7387
1702327424812500,-7.591994,0.322245,6.154738,0.9104,0.307183,0.2587
1702327424820312,-7.542994,0.301245,6.251738,0.596,0.302283,0.15587
1702327424828125,-7.474994,0.322245,6.314738,0.8696,0.322183,0.6287
1702327424835937,-7.436994,0.298245,6.294738,0.3004,0.283983,0.20087
1702327424843750,-7.274994,0.336245,6.400738,0.8604,0.295983,0.12387
1702327424851562,-7.249994,0.374245,6.357738,0.704,0.299083,0.23687
1702327424859375,-7.188994,0.375245,6.310738,0.5604,0.289083,0.23487
1702327424867187,-7.405994,0.436245,6.323738,0.2296,0.303883,0.25287
1702327424875000,-7.400994,0.451245,6.382738,0.896,0.294183,0.23687
1702327424882812,-7.353994,0.434245,6.391738,0.5396,0.320283,0.17387
1702327424890625,-7.425994,0.451245,6.413738,0.3904,0.321883,0.20487
1702327424898437,-7.398994,0.462245,6.456738,0.6504,0.318983,0.22287
1702327424906250,-7.492994,0.464245,6.467738,0.26404,0.318283,0.24887
1702327424914062,-7.364994,0.472245,6.449738,0.30204,0.305783,0.23487
1702327424921875,-7.147994,0.415245,6.487738,0.20804,0.304183,0.25187
1702327424929687,-7.69994,0.372245,6.526738,0.24104,0.320583,0.12387
1702327424937500,-7.99994,0.431245,6.543738,0.21704,0.332783,0.3087
1702327424945312,-7.29994,0.448245,6.523738,0.22704,0.343383,0.4387
1702327424953125,-7.115994,0.433245,6.519738,0.23704,0.369883,0.4687
1702327424960937,-7.160994,0.424245,6.580738,0.20104,0.370083,0.11387
1702327424968750,-7.115994,0.418245,6.600738,0.21704,0.366683,0.17687
1702327424976562,-7.15994,0.353245,6.706738,0.23704,0.379383,0.20787
1702327424984375,-7.209994,0.303245,6.634738,0.49004,0.340083,0.25087
1702327424992187,-7.112994,0.378245,6.672738,0.41504,0.346383,0.23387
1702327425000000,-7.243994,0.327245,6.729738,0.29004,0.351083,0.28387
1702327425007812,-7.26994,0.401245,6.749738,0.34504,0.323783,0.38087
1702327425015625,-7.60994,0.365245,6.832738,0.13904,0.328783,0.36787
1702327425023437,-7.136994,0.360245,6.699738,0.23704,0.307383,0.36387
1702327425031250,-7.71994,0.345245,6.715738,0.20504,0.331783,0.39787
1702327425039062,-7.101994,0.307245,6.726738,0.28204,0.333583,0.38187
1702327425046875,-7.73994,0.223245,6.737738,0.35504,0.332383,0.36687
1702327425054687,-7.44994,0.239245,6.778738,0.27604,0.348783,0.35287
1702327425062500,-6.993994,0.344245,6.823738,0.21604,0.359983,0.33687
1702327425070312,-6.987994,0.304245,6.897738,0.26504,0.351583,0.36687
1702327425078125,-6.867994,0.348245,6.999738,0.29604,0.336983,0.33387
1702327425085937,-6.783994,0.387245,7.17738,0.20004,0.343683,0.30387
1702327425093750,-6.849994,0.360245,6.897738,0.40704,0.331983,0.41287
1702327425101562,-6.996994,0.282245,6.945738,0.48504,0.340183,0.37987
1702327425109375,-7.157994,0.324245,7.75738,0.47004,0.343483,0.33187
1702327425117187,-6.938994,0.272245,7.57738,0.49204,0.330083,0.28087
1702327425125000,-6.853994,0.244245,7.46738,0.42004,0.328983,0.33287
1702327425132812,-6.802994,0.336245,6.944738,0.44904,0.322583,0.36487
1702327425140625,-6.879994,0.403245,6.888738,0.51404,0.317483,0.39587
1702327425148437,-6.697994,0.404245,6.981738,0.52904,0.324083,0.37987
1702327425156250,-6.590994,0.397245,7.102738,0.36904,0.347083,0.36787
1702327425164062,-6.591994,0.468245,7.127738,0.42404,0.341483,0.45987
1702327425171875,-6.727994,0.364245,7.210738,0.51504,0.337083,0.37987
1702327425179687,-6.739994,0.323245,7.179738,0.33804,0.342183,0.36787
1702327425187500,-6.756994,0.254245,7.228738,0.23104,0.363183,0.35287
1702327425195312,-6.988994,0.342245,7.262738,0.49804,0.322483,0.37987
1702327425203125,-6.826994,0.251245,7.267738,0.36204,0.315583,0.36387
1702327425210937,-6.656994,0.296245,7.249738,0.12904,0.335083,0.28587
1702327425218750,-6.643994,0.442245,7.174738,0.21704,0.327383,0.30287
1702327425226562,-6.585994,0.441245,7.341738,0.27204,0.310383,0.36287
1702327425234375,-6.821994,0.281245,7.253738,0.29504,0.298683,0.23187
1702327425242187,-6.823994,0.260245,7.285738,0.26604,0.317583,0.25287
1702327425250000,-6.695994,0.305245,7.325738,0.22904,0.308683,0.23387
1702327425257812,-6.476994,0.341245,7.287738,0.24004,0.318783,0.28387
1702327425265625,-6.688994,0.325245,7.292738,0.48604,0.301983,0.14787
1702327425273437,-6.677994,0.411245,7.276738,0.48004,0.279383,0.22887
1702327425281250,-6.311994,0.517245,7.379738,0.44804,0.282683,0.24587
1702327425289062,-6.268994,0.446245,7.258738,0.33404,0.287783,0.24887
1702327425296875,-6.311994,0.382245,7.208738,0.34404,0.300283,0.23087
1702327425304687,-6.326994,0.286245,7.307738,0.31804,0.297583,0.24987
1702327425312500,-6.365994,0.383245,7.418738,0.28904,0.307483,0.12187
1702327425320312,-6.381994,0.267245,7.398738,0.29904,0.300083,0.19787
1702327425328125,-6.344994,0.272245,7.424738,0.24704,0.299083,0.8787
1702327425335937,-6.382994,0.207245,7.492738,0.22104,0.287283,0.5387
1702327425343750,-6.324994,0.330245,7.382738,0.19604,0.291983,0.7513
1702327425351562,-6.387994,0.309245,7.379738,0.21504,0.286083,0.5587
1702327425359375,-6.393994,0.342245,7.483738,0.24704,0.279583,0.3887
1702327425367187,-6.237994,0.418245,7.560738,0.15704,0.279283,0.3887
1702327425375000,-6.226994,0.407245,7.411738,0.9504,0.269383,0.5487
1702327425382812,-6.235994,0.349245,7.366738,0.20104,0.277883,0.913
1702327425390625,-6.89994,0.378245,7.506738,0.11504,0.285583,0.2613
1702327425398437,-6.118994,0.364245,7.487738,0.8504,0.278483,0.6913
1702327425406250,-6.125994,0.386245,7.512738,0.23004,0.292983,0.10313
1702327425414062,-6.130994,0.353245,7.562738,0.22104,0.290983,0.13713
1702327425421875,-6.219994,0.387245,7.555738,0.15104,0.276683,0.13513
1702327425429687,-6.89994,0.403245,7.510738,0.19404,0.295583,0.21913
1702327425437500,-5.995994,0.479245,7.487738,0.18904,0.300783,0.16913
1702327425445312,-6.146994,0.216245,7.481738,0.9304,0.294883,0.17313
1702327425453125,-6.148994,0.319245,7.580738,0.1596,0.320583,0.24513
1702327425460937,-6.204994,0.321245,7.589738,0.0,0.287783,0.16713
1702327425468750,-6.34994,0.456245,7.609738,0.1696,0.295983,0.15013
1702327425476562,-6.57994,0.374245,7.544738,0.396,0.300983,0.13313
1702327425484375,-5.990994,0.366245,7.560738,0.1096,0.302083,0.15113
1702327425492187,-6.67994,0.343245,7.719738,0.1296,0.294083,0.13513
1702327425500000,-6.82994,0.223245,7.715738,0.15396,0.275983,0.7113
1702327425507812,-6.122994,0.388245,7.778738,0.17696,0.278183,0.8413
1702327425515625,-6.18994,0.492245,7.879738,0.21796,0.277583,0.513
1702327425523437,-5.971994,0.461245,7.920738,0.27096,0.271583,0.8313
1702327425531250,-6.32994,0.277245,7.742738,0.25396,0.274683,0.8413
1702327425539062,-6.72994,0.313245,7.805738,0.24396,0.302783,0.8013
1702327425546875,-6.133994,0.402245,7.945738,0.9296,0.274483,0.8713
1702327425554687,-5.928994,0.427245,7.881738,0.4796,0.248583,0.7213
1702327425562500,-5.708994,0.597245,7.771738,0.996,0.265883,0.2187
1702327425570312,-5.771994,0.436245,7.782738,0.2804,0.277683,0.12187
1702327425578125,-5.826994,0.400245,7.830738,0.1596,0.290483,0.12187
1702327425585937,-5.914994,0.494245,7.886738,0.104,0.279083,0.7187
1702327425593750,-5.805994,0.564245,7.859738,0.2496,0.292883,0.10887
1702327425601562,-5.800994,0.455245,7.841738,0.1196,0.302483,0.26987
1702327425609375,-5.956994,0.407245,7.836738,0.2196,0.300583,0.18787
1702327425617187,-5.780994,0.445245,7.929738,0.7804,0.277383,0.18387
1702327425625000,-5.729994,0.423245,8.35738,0.16904,0.256383,0.21487
1702327425632812,-5.830994,0.404245,7.931738,0.23204,0.238383,0.26087
1702327425640625,-5.617994,0.347245,7.974738,0.21304,0.246683,0.27887
1702327425648437,-5.742994,0.410245,7.906738,0.23304,0.236583,0.29287
1702327425656250,-5.705994,0.510245,7.884738,0.25104,0.239583,0.33987
1702327425664062,-5.693994,0.559245,7.872738,0.21704,0.239883,0.27687
1702327425671875,-5.875994,0.532245,7.891738,0.20604,0.242883,0.24387
1702327425679687,-5.833994,0.497245,7.990738,0.23504,0.215283,0.24287
1702327425687500,-5.738994,0.532245,8.23738,0.24404,0.197783,0.29187
1702327425695312,-5.742994,0.592245,7.940738,0.26204,0.189883,0.36587
1702327425703125,-5.601994,0.540245,8.48738,0.40204,0.186183,0.35387
1702327425710937,-5.584994,0.328245,8.172738,0.35904,0.181083,0.33587
1702327425718750,-5.644994,0.367245,8.114738,0.36204,0.166183,0.35087
1702327425726562,-5.510994,0.322245,8.186738,0.40804,0.161383,0.31787
1702327425734375,-5.441994,0.255245,8.181738,0.34704,0.184183,0.25487
1702327425742187,-5.604994,0.319245,8.73738,0.30904,0.186183,0.30587
1702327425750000,-5.573994,0.446245,7.958738,0.28404,0.183983,0.38387
1702327425757812,-5.535994,0.450245,7.953738,0.22704,0.202683,0.32487
1702327425765625,-5.723994,0.472245,7.931738,0.25704,0.175883,0.19087
1702327425773437,-5.810994,0.509245,7.879738,0.48704,0.146883,0.25187
1702327425781250,-5.617994,0.529245,8.77738,0.54004,0.151383,0.21787
1702327425789062,-5.503994,0.494245,8.159738,0.40004,0.156083,0.23487
1702327425796875,-5.564994,0.455245,8.107738,0.35104,0.162783,0.22087
1702327425804687,-5.571994,0.419245,8.217738,0.32904,0.163183,0.23887
1702327425812500,-5.527994,0.415245,8.255738,0.36504,0.166083,0.28587
1702327425820312,-5.551994,0.444245,8.41738,0.34404,0.179383,0.30387
1702327425828125,-5.647994,0.467245,7.929738,0.45204,0.202483,0.25687
1702327425835937,-5.674994,0.473245,8.10738,0.42204,0.205683,0.25687
1702327425843750,-5.712994,0.506245,8.44738,0.45404,0.199083,0.25587
1702327425851562,-5.772994,0.525245,8.59738,0.45804,0.184283,0.18987
1702327425859375,-5.648994,0.522245,8.95738,0.33404,0.175883,0.22187
1702327425867187,-5.426994,0.481245,8.57738,0.21304,0.194683,0.17987
1702327425875000,-5.551994,0.393245,7.976738,0.24904,0.187783,0.22587
1702327425882812,-5.624994,0.385245,8.19738,0.23704,0.179483,0.20887
1702327425890625,-5.570994,0.370245,8.210738,0.24704,0.173283,0.20987
1702327425898437,-5.645994,0.331245,8.222738,0.20504,0.140283,0.23887
1702327425906250,-5.412994,0.384245,8.114738,0.17804,0.152883,0.30287
1702327425914062,-5.454994,0.414245,8.77738,0.26404,0.174983,0.11287
1702327425921875,-5.570994,0.476245,8.133738,0.30804,0.171983,0.11387
1702327425929687,-5.517994,0.431245,8.219738,0.22104,0.161683,0.9587
1702327425937500,-5.459994,0.443245,8.264738,0.38104,0.154883,0.12487
1702327425945312,-5.470994,0.540245,8.125738,0.48804,0.140483,0.13987
1702327425953125,-5.509994,0.511245,8.149738,0.25604,0.148383,0.10887
1702327425960937,-5.422994,0.515245,8.287738,0.35304,0.143283,0.9087
1702327425968750,-5.481994,0.469245,8.303738,0.47704,0.122183,0.12087
1702327425976562,-5.490994,0.442245,8.350738,0.47804,0.120383,0.16887
1702327425984375,-5.428994,0.392245,8.336738,0.36204,0.122383,0.20387
1702327425992187,-5.435994,0.343245,8.445738,0.28704,0.123783,0.20387
1702327426000000,-5.341994,0.360245,8.433738,0.25604,0.107383,0.25187
1702327426007812,-5.379994,0.355245,8.352738,0.22804,0.107383,0.9087
1702327426015625,-5.359994,0.347245,8.373738,0.24504,0.100683,0.15387
1702327426023437,-5.345994,0.389245,8.449738,0.25904,0.84583,0.10487
1702327426031250,-5.382994,0.449245,8.409738,0.23204,0.59783,0.15087
1702327426039062,-5.344994,0.422245,8.343738,0.14704,0.48783,0.12087
1702327426046875,-5.368994,0.385245,8.274738,0.8404,0.47883,0.5287
1702327426054687,-5.343994,0.358245,8.336738,0.104,0.40083,0.687
1702327426062500,-5.326994,0.310245,8.420738,0.4904,0.21983,0.11687
1702327426070312,-5.346994,0.307245,8.363738,0.0,0.10783,0.6987
1702327426078125,-5.357994,0.338245,8.388738,0.14604,0.483,0.11387
1702327426085937,-5.372994,0.356245,8.406738,0.8604,0.14217,0.3287
1702327426093750,-5.444994,0.356245,8.300738,0.11104,0.16917,0.287
1702327426101562,-5.433994,0.357245,8.352738,0.20504,0.15317,0.1787
1702327426109375,-5.386994,0.348245,8.415738,0.23804,0.38217,0.3213
1702327426117187,-5.395994,0.355245,8.359738,0.25404,0.47817,0.6513
1702327426125000,-5.401994,0.357245,8.300738,0.36404,0.41417,0.5013
1702327426132812,-5.411994,0.350245,8.278738,0.35004,0.41517,0.3413
1702327426140625,-5.423994,0.322245,8.172738,0.31304,0.34017,0.5313
1702327426148437,-5.413994,0.333245,8.156738,0.31704,0.23517,0.0
1702327426156250,-5.406994,0.368245,8.93738,0.22404,0.25217,0.3213
1702327426164062,-5.399994,0.397245,8.23738,0.25504,0.20317,0.1613
1702327426171875,-5.340994,0.380245,8.62738,0.27004,0.17017,0.3213
1702327426179687,-5.336994,0.363245,8.100738,0.23404,0.23317,0.6587
1702327426187500,-5.332994,0.350245,8.127738,0.25304,0.22017,0.8087
1702327426195312,-5.362994,0.316245,8.123738,0.27104,0.15517,0.1587
1702327426203125,-5.356994,0.285245,8.102738,0.28904,0.12517,0.6287
1702327426210937,-5.369994,0.296245,8.122738,0.26504,0.10417,0.9787
1702327426218750,-5.393994,0.324245,8.151738,0.30204,0.11317,0.13287
1702327426226562,-5.413994,0.339245,8.46738,0.25004,0.8717,0.6587
1702327426234375,-5.417994,0.364245,8.32738,0.26204,0.11183,0.2087
1702327426242187,-5.374994,0.398245,8.82738,0.24904,0.5983,0.5087
1702327426250000,-5.400994,0.435245,8.10738,0.26704,0.4283,0.8287
1702327426257812,-5.394994,0.415245,8.37738,0.22104,0.12283,0.6687
1702327426265625,-5.379994,0.356245,8.107738,0.9604,0.13883,0.6887
1702327426273437,-5.382994,0.331245,8.125738,0.3304,0.15683,0.2713
1702327426281250,-5.404994,0.337245,8.113738,0.18904,0.22283,0.387
1702327426289062,-5.420994,0.321245,8.127738,0.12104,0.34183,0.5713
1702327426296875,-5.425994,0.302245,8.168738,0.11304,0.33583,0.5913
1702327426304687,-5.445994,0.290245,8.147738,0.12004,0.34183,0.4013
1702327426312500,-5.468994,0.301245,8.163738,0.17204,0.41983,0.2613
1702327426320312,-5.481994,0.316245,8.183738,0.13904,0.42083,0.4113
1702327426328125,-5.478994,0.327245,8.190738,0.1596,0.38583,0.2413
1702327426335937,-5.475994,0.365245,8.149738,0.2504,0.29383,0.3913
1702327426343750,-5.473994,0.385245,8.161738,0.3004,0.33883,0.2513
1702327426351562,-5.459994,0.394245,8.183738,0.1004,0.43983,0.3813
1702327426359375,-5.437994,0.401245,8.140738,0.1596,0.41883,0.2413
1702327426367187,-5.437994,0.388245,8.131738,0.396,0.43783,0.3913
1702327426375000,-5.435994,0.341245,8.165738,0.1204,0.41983,0.4087
1702327426382812,-5.438994,0.348245,8.213738,0.1704,0.43383,0.913
1702327426390625,-5.455994,0.365245,8.181738,0.2996,0.41783,0.2513
1702327426398437,-5.450994,0.390245,8.219738,0.11096,0.43483,0.887
1702327426406250,-5.435994,0.383245,8.231738,0.1596,0.38583,0.813
1702327426414062,-5.439994,0.403245,8.185738,0.3696,0.32283,0.7287
1702327426421875,-5.452994,0.432245,8.203738,0.496,0.27183,0.16887
1702327426429687,-5.450994,0.436245,8.240738,0.1604,0.18783,0.10187
1702327426437500,-5.459994,0.436245,8.242738,0.7004,0.12783,0.16787
1702327426445312,-5.479994,0.438245,8.203738,0.10804,0.7583,0.8487
1702327426453125,-5.513994,0.426245,8.143738,0.22904,0.14283,0.14987
1702327426460937,-5.517994,0.431245,8.161738,0.23804,0.13783,0.9787
1702327426468750,-5.497994,0.418245,8.174738,0.15004,0.9483,0.10187
1702327426476562,-5.509994,0.393245,8.120738,0.23804,0.4083,0.4987
1702327426484375,-5.500994,0.383245,8.87738,0.23704,0.18683,0.13087
1702327426492187,-5.504994,0.405245,8.98738,0.25404,0.13683,0.16187
1702327426500000,-5.508994,0.429245,8.129738,0.19504,0.20983,0.18287
1702327426507812,-5.497994,0.422245,8.127738,0.24604,0.17383,0.19687
1702327426515625,-5.470994,0.427245,8.77738,0.25804,0.16083,0.18187
1702327426523437,-5.477994,0.425245,8.57738,0.24004,0.14683,0.13487
1702327426531250,-5.457994,0.374245,8.84738,0.23204,0.17483,0.10087
1702327426539062,-5.440994,0.321245,8.132738,0.26604,0.15583,0.17987
1702327426546875,-5.458994,0.325245,8.122738,0.34104,0.19083,0.13187
1702327426554687,-5.479994,0.319245,8.143738,0.26704,0.16983,0.21087
1702327426562500,-5.510994,0.333245,8.113738,0.24704,0.15683,0.21287
1702327426570312,-5.541994,0.351245,8.116738,0.24604,0.28883,0.16587
1702327426578125,-5.539994,0.344245,8.120738,0.25904,0.19183,0.21387
1702327426585937,-5.543994,0.368245,8.77738,0.33104,0.19583,0.23087
1702327426593750,-5.518994,0.365245,8.127738,0.25404,0.19983,0.24287
1702327426601562,-5.505994,0.320245,8.107738,0.31204,0.17183,0.21087
1702327426609375,-5.519994,0.309245,8.93738,0.43304,0.17583,0.16387
1702327426617187,-5.515994,0.307245,8.123738,0.39004,0.15683,0.14687
1702327426625000,-5.546994,0.320245,8.107738,0.31504,0.20383,0.14587
1702327426632812,-5.526994,0.325245,8.147738,0.26804,0.20383,0.13087
1702327426640625,-5.503994,0.300245,8.161738,0.25004,0.15683,0.8387
1702327426648437,-5.515994,0.264245,8.154738,0.26104,0.22483,0.10087
1702327426656250,-5.490994,0.269245,8.163738,0.25004,0.18983,0.9987
1702327426664062,-5.507994,0.245245,8.132738,0.26804,0.17183,0.8287
1702327426671875,-5.515994,0.269245,8.111738,0.25204,0.15583,0.8287
1702327426679687,-5.535994,0.273245,8.111738,0.22404,0.17983,0.13587
1702327426687500,-5.540994,0.268245,8.129738,0.25704,0.17883,0.11887
1702327426695312,-5.537994,0.300245,8.104738,0.22804,0.22483,0.19887
1702327426703125,-5.546994,0.331245,8.93738,0.15704,0.17183,0.13287
1702327426710937,-5.543994,0.348245,8.116738,0.15404,0.17483,0.8587
1702327426718750,-5.550994,0.362245,8.98738,0.15404,0.15783,0.8487
1702327426726562,-5.550994,0.346245,8.107738,0.11204,0.17183,0.3587
1702327426734375,-5.539994,0.304245,8.154738,0.23404,0.12383,0.9987
1702327426742187,-5.553994,0.284245,8.154738,0.22804,0.2817,0.4787
1702327426750000,-5.580994,0.295245,8.132738,0.24004,0.4217,0.6487
1702327426757812,-5.587994,0.286245,8.131738,0.18604,0.3817,0.9987
1702327426765625,-5.574994,0.275245,8.141738,0.11304,0.817,0.5087
1702327426773437,-5.562994,0.277245,8.118738,0.14404,0.817,0.5087
1702327426781250,-5.564994,0.275245,8.111738,0.6804,0.6483,0.10387
1702327426789062,-5.548994,0.288245,8.134738,0.7304,0.2983,0.5387
1702327426796875,-5.535994,0.280245,8.111738,0.4704,0.2683,0.2087
1702327426804687,-5.524994,0.284245,8.102738,0.7704,0.4383,0.3687
1702327426812500,-5.510994,0.296245,8.123738,0.14204,0.4283,0.1987
1702327426820312,-5.517994,0.329245,8.107738,0.11304,0.783,0.5087
1702327426828125,-5.508994,0.331245,8.78738,0.9904,0.10483,0.1313
1702327426835937,-5.543994,0.355245,8.80738,0.9804,0.8983,0.1213
1702327426843750,-5.556994,0.384245,8.78738,0.14904,0.2383,0.9513
1702327426851562,-5.594994,0.390245,8.41738,0.18904,0.4383,0.4513
1702327426859375,-5.614994,0.399245,8.57738,0.11804,0.5483,0.3013
1702327426867187,-5.608994,0.396245,8.80738,0.15604,0.2017,0.6013
1702327426875000,-5.603994,0.387245,8.77738,0.18304,0.3417,0.1113
1702327426882812,-5.601994,0.370245,8.62738,0.23704,0.4283,0.1413
1702327426890625,-5.608994,0.341245,8.59738,0.21904,0.6917,0.4513
1702327426898437,-5.593994,0.332245,8.66738,0.25204,0.5417,0.1413
1702327426906250,-5.581994,0.325245,8.50738,0.22804,0.4983,0.2613
1702327426914062,-5.577994,0.339245,8.64738,0.25804,0.6583,0.587
1702327426921875,-5.556994,0.343245,8.73738,0.22404,0.5183,0.913
1702327426929687,-5.541994,0.328245,8.89738,0.23504,0.9283,0.1313
1702327426937500,-5.555994,0.308245,8.62738,0.22304,0.5783,0.187
1702327426945312,-5.555994,0.308245,8.53738,0.21904,0.15883,0.2813
1702327426953125,-5.551994,0.311245,8.37738,0.27104,0.12183,0.3387
1702327426960937,-5.544994,0.322245,8.23738,0.25004,0.12583,0.387
1702327426968750,-5.559994,0.331245,8.71738,0.27104,0.13783,0.1787
1702327426976562,-5.564994,0.324245,8.55738,0.25504,0.17083,0.4987
1702327426984375,-5.573994,0.321245,8.75738,0.26804,0.17383,0.1313
1702327426992187,-5.579994,0.359245,8.68738,0.20304,0.15683,0.6787
1702327427000000,-5.617994,0.372245,8.50738,0.23404,0.19183,0.1213
1702327427007812,-5.624994,0.358245,8.39738,0.26404,0.19083,0.8387
1702327427015625,-5.593994,0.348245,8.57738,0.18504,0.19083,0.8487
1702327427023437,-5.600994,0.350245,8.89738,0.27104,0.16983,0.8187
1702327427031250,-5.588994,0.337245,8.75738,0.22004,0.15583,0.9887
1702327427039062,-5.599994,0.346245,8.41738,0.26704,0.22083,0.11587
1702327427046875,-5.604994,0.345245,8.59738,0.19604,0.20983,0.11887
1702327427054687,-5.622994,0.347245,8.98738,0.24904,0.17283,0.13187
1702327427062500,-5.606994,0.361245,8.55738,0.13404,0.19383,0.11887
1702327427070312,-5.595994,0.370245,8.26738,0.22204,0.17083,0.11487
1702327427078125,-5.601994,0.379245,8.66738,0.17304,0.15583,0.11587
1702327427085937,-5.592994,0.388245,8.87738,0.20604,0.13783,0.14687
1702327427093750,-5.590994,0.377245,8.84738,0.27904,0.12583,0.13187
1702327427101562,-5.624994,0.363245,8.80738,0.21704,0.2683,0.11587
1702327427109375,-5.617994,0.358245,8.95738,0.24804,0.4383,0.11587
1702327427117187,-5.622994,0.341245,8.104738,0.26604,0.983,0.13087
1702327427125000,-5.606994,0.338245,8.100738,0.24304,0.317,0.21287
1702327427132812,-5.615994,0.345245,8.102738,0.19904,0.7583,0.19687
1702327427140625,-5.602994,0.348245,8.84738,0.26204,0.9283,0.21287
1702327427148437,-5.595994,0.359245,8.77738,0.24704,0.2683,0.19587
1702327427156250,-5.615994,0.381245,8.44738,0.23304,0.7483,0.16387
1702327427164062,-5.612994,0.381245,8.21738,0.23604,0.5683,0.11487
1702327427171875,-5.637994,0.363245,8.30738,0.24804,0.1083,0.11587
1702327427179687,-5.635994,0.365245,8.32738,0.20304,0.2583,0.14787
1702327427187500,-5.642994,0.367245,8.19738,0.22004,0.783,0.16287
1702327427195312,-5.649994,0.367245,8.32738,0.26604,0.4183,0.13087
1702327427203125,-5.655994,0.365245,8.37738,0.23404,0.717,0.17887
1702327427210937,-5.662994,0.358245,8.1738,0.15304,0.617,0.19687
1702327427218750,-5.685994,0.353245,7.992738,0.12304,0.5983,0.10087
1702327427226562,-5.660994,0.362245,8.10738,0.20004,0.417,0.11687
1702327427234375,-5.615994,0.363245,7.994738,0.25504,0.4217,0.9687
1702327427242187,-5.631994,0.363245,7.987738,0.25404,0.5717,0.6487
1702327427250000,-5.642994,0.351245,7.967738,0.26104,0.2983,0.10087
1702327427257812,-5.649994,0.342245,7.981738,0.23504,0.4183,0.9887
1702327427265625,-5.640994,0.313245,8.23738,0.22404,0.4983,0.8687
1702327427273437,-5.643994,0.314245,8.3738,0.20004,0.7783,0.8487
1702327427281250,-5.651994,0.311245,7.998738,0.20704,0.13183,0.10387
1702327427289062,-5.643994,0.314245,8.28738,0.25604,0.8883,0.87
1702327427296875,-5.642994,0.329245,7.999738,0.20104,0.12683,0.1113
1702327427304687,-5.642994,0.331245,8.21738,0.21904,0.12383,0.6787
1702327427312500,-5.640994,0.329245,8.17738,0.19804,0.11183,0.5387
1702327427320312,-5.633994,0.340245,8.30738,0.21804,0.1083,0.6787
1702327427328125,-5.635994,0.358245,8.44738,0.25104,0.2583,0.6687
1702327427335937,-5.631994,0.354245,8.5738,0.21504,0.6083,0.10087
1702327427343750,-5.647994,0.313245,7.985738,0.21304,0.7883,0.8587
1702327427351562,-5.658994,0.309245,7.996738,0.26504,0.12383,0.13187
1702327427359375,-5.654994,0.316245,8.21738,0.25204,0.12283,0.9887
1702327427367187,-5.685994,0.333245,8.32738,0.26704,0.20483,0.11487
1702327427375000,-5.685994,0.346245,7.990738,0.24504,0.17583,0.11687
1702327427382812,-5.687994,0.342245,8.3738,0.26804,0.17183,0.5087
1702327427390625,-5.699994,0.326245,8.50738,0.25104,0.14083,0.6687
1702327427398437,-5.710994,0.332245,8.41738,0.26004,0.19383,0.8587
1702327427406250,-5.719994,0.324245,8.17738,0.24704,0.14183,0.14887
1702327427414062,-5.730994,0.326245,8.35738,0.26304,0.7583,0.14787
1702327427421875,-5.712994,0.313245,8.46738,0.25404,0.10483,0.9787
1702327427429687,-5.703994,0.306245,8.17738,0.27604,0.4683,0.10087
1702327427437500,-5.688994,0.311245,7.985738,0.31704,0.15483,0.8187
1702327427445312,-5.663994,0.311245,7.976738,0.27904,0.19083,0.9987
1702327427453125,-5.656994,0.309245,7.985738,0.28804,0.17983,0.7087
1702327427460937,-5.658994,0.309245,8.3738,0.24804,0.22383,0.8487
1702327427468750,-5.674994,0.313245,8.10738,0.26204,0.17583,0.8487
1702327427476562,-5.687994,0.320245,7.967738,0.24604,0.11083,0.13287
1702327427484375,-5.712994,0.306245,7.947738,0.26004,0.15983,0.18187
1702327427492187,-5.715994,0.308245,7.974738,0.20104,0.20583,0.14887
1702327427500000,-5.723994,0.321245,7.987738,0.19904,0.20883,0.6987
1702327427507812,-5.721994,0.323245,7.990738,0.26104,0.15983,0.11687
1702327427515625,-5.717994,0.310245,7.985738,0.21004,0.12983,0.13487
1702327427523437,-5.714994,0.308245,7.994738,0.24104,0.1717,0.13387
1702327427531250,-5.717994,0.299245,7.987738,0.22804,0.4583,0.16587
1702327427539062,-5.715994,0.297245,7.958738,0.24504,0.7783,0.18087
1702327427546875,-5.717994,0.284245,7.976738,0.26904,0.7183,0.16187
1702327427554687,-5.688994,0.289245,8.26738,0.24804,0.5783,0.21187
1702327427562500,-5.669994,0.311245,8.30738,0.22704,0.11183,0.16587
1702327427570312,-5.681994,0.308245,8.3738,0.18904,0.14783,0.21687
1702327427578125,-5.694994,0.308245,7.990738,0.22604,0.16083,0.23087
1702327427585937,-5.714994,0.312245,7.983738,0.18304,0.15983,0.11787
1702327427593750,-5.744994,0.303245,7.967738,0.7904,0.18783,0.11687
1702327427601562,-5.762994,0.307245,7.985738,0.18404,0.17283,0.22987
1702327427609375,-5.750994,0.314245,7.983738,0.6604,0.16283,0.20187
1702327427617187,-5.717994,0.321245,7.987738,0.7404,0.17383,0.18287
1702327427625000,-5.712994,0.319245,8.5738,0.13604,0.17383,0.18187
1702327427632812,-5.706994,0.308245,7.992738,0.20204,0.15483,0.22887
1702327427640625,-5.710994,0.306245,8.1738,0.21704,0.12383,0.16387
1702327427648437,-5.703994,0.311245,7.985738,0.23204,0.7483,0.22787
1702327427656250,-5.724994,0.308245,7.997738,0.23704,0.16883,0.21087
1702327427664062,-5.717994,0.306245,7.967738,0.15104,0.15783,0.22987
1702327427671875,-5.715994,0.302245,7.942738,0.15604,0.17183,0.19687
1702327427679687,-5.722994,0.290245,7.947738,0.12404,0.15483,0.21287
1702327427687500,-5.726994,0.292245,7.953738,0.3804,0.22583,0.18487
1702327427695312,-5.708994,0.273245,7.936738,0.196,0.20383,0.24687
1702327427703125,-5.724994,0.282245,7.913738,0.1804,0.20083,0.21387
1702327427710937,-5.742994,0.301245,7.951738,0.1504,0.31683,0.19887
1702327427718750,-5.735994,0.330245,7.965738,0.196,0.20383,0.23087
1702327427726562,-5.736994,0.361245,7.936738,0.4504,0.20383,0.24687
1702327427734375,-5.720994,0.381245,7.936738,0.7504,0.26983,0.24687
1702327427742187,-5.705994,0.391245,7.933738,0.4904,0.16883,0.24487
1702327427750000,-5.704994,0.397245,7.927738,0.14204,0.16983,0.17987
1702327427757812,-5.707994,0.395245,7.891738,0.10604,0.22183,0.21487
1702327427765625,-5.698994,0.377245,7.911738,0.17204,0.28483,0.22887
1702327427773437,-5.692994,0.351245,7.960738,0.20104,0.28583,0.21287
1702327427781250,-5.714994,0.350245,7.967738,0.9004,0.22183,0.23087
1702327427789062,-5.730994,0.366245,7.963738,0.21904,0.28483,0.19587
1702327427796875,-5.751994,0.385245,7.989738,0.22604,0.17683,0.21487
1702327427804687,-5.756994,0.380245,8.3738,0.24004,0.21083,0.16687
1702327427812500,-5.772994,0.358245,7.987738,0.26304,0.30383,0.16487
1702327427820312,-5.777994,0.343245,7.956738,0.24504,0.23983,0.19787
1702327427828125,-5.795994,0.345245,7.958738,0.23104,0.33683,0.19787
1702327427835937,-5.788994,0.343245,7.963738,0.26304,0.22183,0.18087
1702327427843750,-5.782994,0.338245,7.969738,0.23204,0.28783,0.18187
1702327427851562,-5.781994,0.338245,7.967738,0.19704,0.30683,0.16687
1702327427859375,-5.770994,0.340245,7.944738,0.13304,0.40683,0.10487
1702327427867187,-5.759994,0.336245,7.985738,0.22604,0.29183,0.16687
1702327427875000,-5.746994,0.339245,7.999738,0.18904,0.26883,0.18087
1702327427882812,-5.741994,0.344245,7.970738,0.14404,0.31683,0.13187
1702327427890625,-5.744994,0.323245,7.972738,0.26604,0.31883,0.13187
1702327427898437,-5.735994,0.330245,7.963738,0.25104,0.33583,0.6787
1702327427906250,-5.778994,0.319245,7.933738,0.23604,0.33383,0.13187
1702327427914062,-5.782994,0.312245,7.913738,0.20104,0.33683,0.13387
1702327427921875,-5.773994,0.307245,7.902738,0.24204,0.35583,0.21487
1702327427929687,-5.775994,0.327245,7.866738,0.15304,0.30383,0.19887
1702327427937500,-5.761994,0.354245,7.866738,0.12304,0.36783,0.21487
1702327427945312,-5.737994,0.343245,7.927738,0.23004,0.35283,0.22987
1702327427953125,-5.728994,0.346245,7.922738,0.18704,0.34983,0.22987
1702327427960937,-5.741994,0.343245,7.915738,0.24904,0.28583,0.21287
1702327427968750,-5.755994,0.339245,7.951738,0.24404,0.35383,0.23087
1702327427976562,-5.743994,0.330245,7.992738,0.21304,0.32283,0.13487
1702327427984375,-5.741994,0.328245,8.15738,0.26904,0.26683,0.17887
1702327427992187,-5.741994,0.334245,7.974738,0.20204,0.25483,0.11687
1702327428000000,-5.750994,0.359245,7.990738,0.24004,0.28283,0.14687
1702327428007812,-5.759994,0.367245,8.19738,0.23104,0.27283,0.11787
1702327428015625,-5.772994,0.381245,8.12738,0.26804,0.20383,0.13087
1702327428023437,-5.797994,0.364245,7.990738,0.24604,0.23983,0.16587
1702327428031250,-5.788994,0.349245,7.990738,0.25904,0.22483,0.21387
1702327428039062,-5.790994,0.351245,7.967738,0.24304,0.20783,0.21387
1702327428046875,-5.790994,0.362245,7.947738,0.24404,0.19183,0.16587
1702327428054687,-5.773994,0.345245,7.936738,0.19204,0.28383,0.9887
1702327428062500,-5.759994,0.336245,7.913738,0.20204,0.27183,0.8487
1702327428070312,-5.741994,0.334245,7.936738,0.20304,0.15683,0.8387
1702327428078125,-5.748994,0.314245,7.936738,0.20304,0.14083,0.11587
1702327428085937,-5.782994,0.314245,7.893738,0.11004,0.17183,0.10087
1702327428093750,-5.798994,0.309245,7.920738,0.7704,0.15683,0.11787
1702327428101562,-5.769994,0.310245,7.924738,0.12204,0.13983,0.21387
1702327428109375,-5.764994,0.306245,7.895738,0.14504,0.16883,0.11487
1702327428117187,-5.769994,0.303245,7.909738,0.12704,0.15583,0.8387
1702327428125000,-5.757994,0.299245,7.920738,0.12404,0.25483,0.10187
1702327428132812,-5.759994,0.312245,7.931738,0.1104,0.24083,0.7187
1702327428140625,-5.744994,0.312245,7.931738,0.4904,0.25383,0.3787
1702327428148437,-5.746994,0.314245,7.931738,0.8704,0.29183,0.5587
1702327428156250,-5.753994,0.330245,7.947738,0.9404,0.30283,0.8587
1702327428164062,-5.748994,0.339245,7.945738,0.9404,0.26983,0.10187
1702327428171875,-5.763994,0.347245,7.897738,0.6204,0.17283,0.8587
1702327428179687,-5.797994,0.369245,7.900738,0.3004,0.25483,0.10287
1702327428187500,-5.803994,0.391245,7.947738,0.14004,0.17283,0.8487
1702327428195312,-5.805994,0.395245,7.951738,0.13204,0.16183,0.10387
1702327428203125,-5.821994,0.373245,7.949738,0.18504,0.17483,0.8487
1702327428210937,-5.831994,0.364245,7.951738,0.26204,0.17483,0.14887
1702327428218750,-5.815994,0.345245,7.967738,0.25304,0.15383,0.11487
1702327428226562,-5.795994,0.347245,7.985738,0.25404,0.17083,0.8187
1702327428234375,-5.775994,0.340245,8.21738,0.18504,0.15783,0.10087
1702327428242187,-5.762994,0.317245,8.19738,0.13004,0.16883,0.8287
1702327428250000,-5.760994,0.310245,7.996738,0.21904,0.12383,0.9987
1702327428257812,-5.755994,0.310245,7.954738,0.26504,0.12583,0.5187
1702327428265625,-5.762994,0.314245,7.933738,0.24904,0.17483,0.3587
1702327428273437,-5.771994,0.303245,7.949738,0.27004,0.15583,0.3013
1702327428281250,-5.750994,0.307245,7.942738,0.24804,0.7783,0.3587
1702327428289062,-5.762994,0.323245,7.936738,0.27504,0.11783,0.9587
1702327428296875,-5.777994,0.330245,7.929738,0.20504,0.13883,0.8287
1702327428304687,-5.782994,0.325245,7.895738,0.15704,0.17183,0.11587
1702327428312500,-5.777994,0.312245,7.911738,0.15104,0.17383,0.23087
1702327428320312,-5.760994,0.312245,7.933738,0.9404,0.13883,0.16487
1702327428328125,-5.755994,0.306245,7.931738,0.8404,0.8683,0.9887
1702327428335937,-5.735994,0.310245,7.940738,0.15504,0.17283,0.13287
1702327428343750,-5.719994,0.308245,7.987738,0.1504,0.15683,0.8587
1702327428351562,-5.717994,0.295245,7.985738,0.9304,0.17283,0.11787
1702327428359375,-5.706994,0.291245,7.976738,0.13204,0.8583,0.12987
1702327428367187,-5.715994,0.301245,7.974738,0.7304,0.19183,0.10287
1702327428375000,-5.715994,0.313245,7.965738,0.7804,0.17283,0.8587
1702327428382812,-5.696994,0.335245,7.965738,0.596,0.19383,0.3987
1702327428390625,-5.672994,0.340245,7.988738,0.11704,0.16783,0.4987
1702327428398437,-5.678994,0.333245,7.990738,0.5104,0.13783,0.5187
1702327428406250,-5.649994,0.329245,7.987738,0.9404,0.14083,0.5287
1702327428414062,-5.669994,0.333245,7.967738,0.4504,0.22383,0.2287
1702327428421875,-5.718994,0.359245,7.958738,0.10704,0.17583,0.1013
1702327428429687,-5.743994,0.374245,7.996738,0.6804,0.18683,0.2813
1702327428437500,-5.747994,0.399245,8.15738,0.11804,0.13583,0.187
1702327428445312,-5.776994,0.418245,8.19738,0.9604,0.2117,0.7613
1702327428453125,-5.774994,0.416245,8.73738,0.404,0.8717,0.14013
1702327428460937,-5.787994,0.389245,8.136738,0.6504,0.10217,0.15713
1702327428468750,-5.770994,0.396245,8.84738,0.14004,0.35417,0.24313
1702327428476562,-5.770994,0.378245,8.66738,0.24904,0.38517,0.27613
1702327428484375,-5.745994,0.381245,8.35738,0.33504,0.60117,0.29713
1702327428492187,-5.725994,0.377245,8.1738,0.41204,0.61417,0.42513
1702327428500000,-5.711994,0.375245,7.949738,0.46904,0.69117,0.47213
1702327428507812,-5.716994,0.348245,7.981738,0.52004,0.72617,0.47413
1702327428515625,-5.724994,0.308245,8.14738,0.51704,0.69017,0.53713
1702327428523437,-5.742994,0.297245,8.17738,0.54004,0.82517,0.57313
1702327428531250,-5.772994,0.261245,7.985738,0.51104,0.75917,0.68513
1702327428539062,-5.738994,0.277245,8.6738,0.52804,0.62817,0.78113
1702327428546875,-5.781994,0.272245,7.983738,0.55204,0.64817,0.94413
1702327428554687,-5.796994,0.267245,7.918738,0.53604,0.44917,0.105513
1702327428562500,-5.793994,0.352245,7.841738,0.59804,0.34617,0.132713
1702327428570312,-6.124994,0.291245,7.938738,0.87604,0.23017,0.186113
1702327428578125,-6.17994,0.259245,7.884738,0.88504,0.39417,0.158813
1702327428585937,-5.860994,0.204245,7.738738,0.87604,0.37917,0.171813
1702327428593750,-5.940994,0.148245,7.785738,0.92104,0.34517,0.173413
1702327428601562,-6.51994,0.93245,7.747738,0.107004,0.72617,0.170813
1702327428609375,-6.241994,0.107245,7.828738,0.104504,0.83517,0.160913
1702327428617187,-6.273994,0.91245,7.843738,0.106104,0.88517,0.157713
1702327428625000,-6.127994,0.78245,7.780738,0.87304,0.86917,0.159113
1702327428632812,-6.342994,0.132245,7.697738,0.79704,0.91917,0.162413
1702327428640625,-6.507994,0.79245,7.616738,0.81704,0.118417,0.154713
1702327428648437,-6.587994,0.15245,7.578738,0.82504,0.140817,0.146513
1702327428656250,-6.497994,0.4755,7.587738,0.95604,0.146317,0.134113
1702327428664062,-6.481994,0.11245,7.589738,0.102004,0.171017,0.123113
1702327428671875,-6.465994,0.26245,7.591738,0.105704,0.182017,0.110113
1702327428679687,-6.368994,0.61245,7.539738,0.94704,0.177117,0.108313
1702327428687500,-6.347994,0.95245,7.526738,0.82104,0.173917,0.108113
1702327428695312,-6.287994,0.67245,7.562738,0.82504,0.192217,0.102013
1702327428703125,-6.301994,0.58245,7.603738,0.66704,0.210317,0.90613
1702327428710937,-6.349994,0.108245,7.521738,0.56704,0.234517,0.82513
1702327428718750,-6.347994,0.86245,7.499738,0.61904,0.234717,0.87513
1702327428726562,-6.303994,0.51245,7.494738,0.55304,0.239517,0.76113
1702327428734375,-6.397994,0.43245,7.479738,0.76804,0.249117,0.73113
1702327428742187,-6.430994,0.84245,7.442738,0.78104,0.242417,0.71313
1702327428750000,-6.402994,0.167245,7.452738,0.80104,0.244317,0.71513
1702327428757812,-6.379994,0.201245,7.429738,0.85304,0.246217,0.74913
1702327428765625,-6.314994,0.195245,7.451738,0.83104,0.244117,0.74713
1702327428773437,-6.293994,0.126245,7.496738,0.76404,0.242317,0.72913
1702327428781250,-6.276994,0.76245,7.526738,0.84704,0.250917,0.65213
1702327428789062,-6.248994,0.23755,7.528738,0.86004,0.258917,0.58713
1702327428796875,-6.245994,0.93755,7.490738,0.76904,0.257617,0.57113
1702327428804687,-6.311994,0.148755,7.422738,0.75204,0.255817,0.58613
1702327428812500,-6.395994,0.215755,7.425738,0.77704,0.254717,0.65413
1702327428820312,-6.395994,0.225755,7.445738,0.72104,0.242717,0.65013
1702327428828125,-6.410994,0.183755,7.454738,0.59604,0.246017,0.66513
1702327428835937,-6.461994,0.154755,7.483738,0.56804,0.247717,0.71313
1702327428843750,-6.480994,0.55755,7.558738,0.55504,0.275617,0.78013
1702327428851562,-6.491994,0.63245,7.578738,0.45304,0.299717,0.68113
1702327428859375,-6.457994,0.144245,7.591738,0.36804,0.327917,0.71613
1702327428867187,-6.416994,0.158245,7.553738,0.49204,0.355617,0.68713
1702327428875000,-6.389994,0.52245,7.524738,0.53304,0.372517,0.70713
1702327428882812,-6.376994,0.36755,7.485738,0.46504,0.378717,0.73713
1702327428890625,-6.413994,0.116755,7.461738,0.54204,0.378317,0.85013
1702327428898437,-6.458994,0.203755,7.434738,0.61104,0.382017,0.85313
1702327428906250,-6.476994,0.226755,7.377738,0.72104,0.386717,0.91813
1702327428914062,-6.503994,0.237755,7.317738,0.59904,0.400017,0.98313
1702327428921875,-6.559994,0.198755,7.263738,0.60104,0.419417,0.111213
1702327428929687,-6.589994,0.130755,7.231738,0.60804,0.431317,0.113213
1702327428937500,-6.630994,0.46755,7.211738,0.65004,0.450617,0.108313
1702327428945312,-6.670994,0.34245,7.168738,0.74804,0.475217,0.113513
1702327428953125,-6.755994,0.42245,7.159738,0.68004,0.484717,0.111713
1702327428960937,-6.804994,0.34245,7.157738,0.65004,0.486517,0.108513
1702327428968750,-6.868994,0.10755,7.188738,0.57404,0.506317,0.105413
1702327428976562,-6.910994,0.88755,7.263738,0.59304,0.509817,0.100813
1702327428984375,-6.900994,0.188755,7.285738,0.58204,0.528117,0.97813
1702327428992187,-6.908994,0.268755,7.186738,0.69104,0.555817,0.96413
1702327429000000,-6.926994,0.263755,7.44738,0.81904,0.583617,0.98413
1702327429007812,-6.932994,0.244755,6.954738,0.89504,0.597917,0.109713
1702327429015625,-6.897994,0.261755,6.925738,0.83904,0.599817,0.122613
1702327429023437,-6.869994,0.249755,6.866738,0.83504,0.614117,0.127413
1702327429031250,-6.906994,0.290755,6.790738,0.77504,0.640517,0.122713
1702327429039062,-6.983994,0.300755,6.684738,0.81304,0.650717,0.123113
1702327429046875,-7.24994,0.331755,6.648738,0.81004,0.650217,0.135713
1702327429054687,-7.65994,0.352755,6.641738,0.85004,0.658917,0.137713
1702327429062500,-7.164994,0.385755,6.574738,0.82604,0.665017,0.135913
1702327429070312,-7.234994,0.396755,6.468738,0.89704,0.675217,0.141113
1702327429078125,-7.278994,0.382755,6.420738,0.82304,0.689117,0.139113
1702327429085937,-7.332994,0.371755,6.342738,0.85304,0.706417,0.138113
1702327429093750,-7.352994,0.361755,6.245738,0.78204,0.720517,0.137813
1702327429101562,-7.395994,0.361755,6.261738,0.62004,0.726117,0.141213
1702327429109375,-7.377994,0.383755,6.189738,0.50804,0.735917,0.136213
1702327429117187,-7.437994,0.437755,6.78738,0.42804,0.748717,0.142513
1702327429125000,-7.451994,0.486755,6.17738,0.47604,0.752117,0.137913
1702327429132812,-7.474994,0.520755,5.965738,0.49804,0.739917,0.145513
1702327429140625,-7.535994,0.554755,5.961738,0.55504,0.750117,0.160413
1702327429148437,-7.611994,0.540755,5.893738,0.46004,0.741817,0.169813
1702327429156250,-7.597994,0.508755,5.842738,0.53004,0.740517,0.176513
1702327429164062,-7.609994,0.524755,5.745738,0.43704,0.761617,0.184513
1702327429171875,-7.669994,0.616755,5.607738,0.34204,0.759917,0.189213
1702327429179687,-7.698994,0.607755,5.482738,0.36404,0.766817,0.191113
1702327429187500,-7.793994,0.649755,5.423738,0.32704,0.769517,0.198813
1702327429195312,-7.804994,0.694755,5.477738,0.19504,0.754617,0.192013
1702327429203125,-7.770994,0.606755,5.513738,0.14104,0.765117,0.184313
1702327429210937,-7.802994,0.649755,5.439738,0.14004,0.770017,0.176313
1702327429218750,-7.891994,0.583755,5.340738,0.23704,0.791417,0.175013
1702327429226562,-7.900994,0.622755,5.387738,0.29504,0.796117,0.166913
1702327429234375,-7.999994,0.659755,5.265738,0.32104,0.805517,0.166813
1702327429242187,-8.3994,0.614755,5.216738,0.38404,0.810417,0.166913
1702327429250000,-8.11994,0.652755,5.229738,0.56404,0.824017,0.164313
1702327429257812,-8.18994,0.692755,5.218738,0.59804,0.841317,0.149513
1702327429265625,-8.39994,0.721755,5.153738,0.62104,0.851917,0.135513
1702327429273437,-8.134994,0.749755,5.76738,0.62804,0.850817,0.129313
1702327429281250,-8.133994,0.676755,4.995738,0.82404,0.852017,0.122913
1702327429289062,-8.112994,0.638755,4.970738,0.89904,0.832417,0.111513
1702327429296875,-8.109994,0.582755,4.950738,0.84704,0.820817,0.98413
1702327429304687,-8.154994,0.616755,4.891738,0.83104,0.794417,0.115913
1702327429312500,-8.219994,0.602755,4.866738,0.77204,0.753017,0.107213
1702327429320312,-8.181994,0.619755,4.810738,0.65404,0.753717,0.97713
1702327429328125,-8.268994,0.623755,4.700738,0.62904,0.758117,0.87813
1702327429335937,-8.338994,0.581755,4.608738,0.81304,0.768917,0.77313
1702327429343750,-8.360994,0.546755,4.481738,0.82104,0.768617,0.65813
1702327429351562,-8.396994,0.538755,4.400738,0.76004,0.772017,0.62613
1702327429359375,-8.458994,0.526755,4.367738,0.79904,0.770017,0.54413
1702327429367187,-8.499994,0.546755,4.333738,0.84804,0.768617,0.44913
1702327429375000,-8.463994,0.528755,4.385738,0.103004,0.761817,0.36813
1702327429382812,-8.447994,0.508755,4.371738,0.106304,0.753817,0.35313
1702327429390625,-8.474994,0.510755,4.277738,0.107104,0.733117,0.33813
1702327429398437,-8.506994,0.557755,4.283738,0.90604,0.708217,0.31713
1702327429406250,-8.461994,0.534755,4.295738,0.85204,0.699817,0.20113
1702327429414062,-8.551994,0.562755,4.265738,0.93404,0.716317,0.23613
1702327429421875,-8.600994,0.570755,4.146738,0.77104,0.712717,0.18413
1702327429429687,-8.597994,0.630755,4.81738,0.85104,0.694917,0.13613
1702327429437500,-8.667994,0.659755,4.58738,0.74304,0.682117,0.7113
1702327429445312,-8.653994,0.621755,3.860738,0.58204,0.654517,0.10887
1702327429453125,-8.676994,0.650755,3.765738,0.92104,0.650917,0.18787
1702327429460937,-8.802994,0.677755,3.675738,0.93204,0.655617,0.25287
1702327429468750,-8.878994,0.634755,3.637738,0.104104,0.640817,0.25287
1702327429476562,-8.827994,0.706755,3.775738,0.112704,0.618417,0.16987
1702327429484375,-8.855994,0.757755,3.716738,0.103304,0.605317,0.12387
1702327429492187,-8.878994,0.800755,3.700738,0.106704,0.583517,0.30487
1702327429500000,-8.914994,0.814755,3.626738,0.99404,0.570717,0.22487
1702327429507812,-8.942994,0.867755,3.498738,0.101804,0.567917,0.15787
1702327429515625,-8.967994,0.857755,3.358738,0.104204,0.557517,0.11287
1702327429523437,-8.940994,0.894755,3.326738,0.105804,0.567217,0.4787
1702327429531250,-8.892994,0.969755,3.313738,0.104604,0.596817,0.6087
1702327429539062,-8.876994,0.957755,3.329738,0.112204,0.621317,0.15587
1702327429546875,-8.939994,0.959755,3.328738,0.109404,0.633617,0.23987
1702327429554687,-9.40994,0.944755,3.238738,0.107004,0.622817,0.31787
1702327429562500,-9.82994,0.925755,3.256738,0.130304,0.607917,0.26887
1702327429570312,-9.80994,0.894755,3.324738,0.132104,0.611517,0.36387
1702327429578125,-9.121994,0.935755,3.299738,0.127304,0.614617,0.29987
1702327429593750,-9.272994,0.853755,3.90738,0.112104,0.610717,0.36987
1702327429601562,-9.376994,0.863755,3.13738,0.120704,0.601417,0.33487
1702327429609375,-9.402994,0.817755,2.995738,0.134704,0.606317,0.42987
1702327429617187,-9.389994,0.839755,2.923738,0.146204,0.617917,0.29787
1702327429625000,-9.348994,0.829755,2.892738,0.157404,0.609917,0.34387
1702327429632812,-9.339994,0.816755,2.824738,0.171504,0.591917,0.29587
1702327429640625,-9.321994,0.780755,2.763738,0.185704,0.552817,0.27987
1702327429648437,-9.190994,0.879755,2.730738,0.198904,0.528217,0.487
1702327429656250,-9.76994,0.922755,2.653738,0.209404,0.511617,0.4213
1702327429664062,-9.31994,0.951755,2.554738,0.214704,0.491417,0.613
1702327429671875,-8.974994,1.47755,2.484738,0.203304,0.478217,0.6087
1702327429679687,-9.11994,1.99755,2.437738,0.206004,0.508317,0.8787
1702327429687500,-9.106994,1.120755,2.385738,0.211204,0.551217,0.16287
1702327429695312,-9.199994,1.166755,2.390738,0.209404,0.603417,0.25787
1702327429703125,-9.319994,1.250755,2.444738,0.204504,0.639217,0.28887
1702327429710937,-9.489994,1.319755,2.518738,0.206304,0.670317,0.27087
1702327429718750,-9.601994,1.361755,2.577738,0.188804,0.688117,0.27287
