time,Acceleration X (m/s^2),Acceleration Y (m/s^2),Acceleration Z (m/s^2),Angular Velocity X (rad/s),Angular Velocity Y (rad/s),Angular Velocity Z (rad/s)
1702332278078125,-9.298932,3.181991,-0.016288,,,
1702332278085937,-9.267932,0.488444,2.847991,0.38288,0.3401,0.91615
1702332278093750,-9.232932,0.505444,2.853991,0.7588,0.18299,0.86715
1702332278101562,-9.209932,0.465444,2.910991,0.1088,0.13599,0.85115
1702332278109375,-9.183932,0.427444,2.743991,0.22588,0.1801,0.72415
1702332278117187,-9.210932,0.437444,2.736991,0.45488,0.6301,0.62815
1702332278132812,-9.251932,0.460444,2.923991,0.63588,0.31401,0.43615
1702332278140625,-9.315932,0.417444,2.991991,0.84688,0.31101,0.46915
1702332278148437,-9.430932,0.374444,2.985991,0.105588,0.26401,0.53315
1702332278156250,-9.520932,0.355444,2.926991,0.127988,0.14101,0.51615
1702332278179687,-9.517932,0.340444,2.750991,0.185888,0.43799,0.51615
1702332278187500,-9.384932,0.309444,2.747991,0.188988,0.63999,0.53215
1702332278195312,-9.311932,0.272444,2.772991,0.196588,0.85399,0.49915
1702332278203125,-9.285932,0.219444,2.797991,0.204888,0.94999,0.41915
1702332278210937,-9.200932,0.180444,2.799991,0.219188,0.107099,0.33815
1702332278218750,-9.69932,0.160444,2.817991,0.217788,0.97799,0.25815
1702332278226562,-8.949932,0.133444,2.862991,0.219988,0.93599,0.24415
1702332278234375,-8.855932,0.71444,2.885991,0.211688,0.93299,0.17915
1702332278242187,-8.786932,0.4556,2.889991,0.194088,0.87099,0.14715
1702332278250000,-8.744932,0.77556,2.835991,0.192788,0.77899,0.13215
1702332278257812,-8.744932,0.151556,2.788991,0.171588,0.79199,0.8315
1702332278265625,-8.950932,0.267556,2.770991,0.154188,0.69999,0.2015
1702332278273437,-9.302932,0.374556,2.734991,0.123488,0.72899,0.7685
1702332278281250,-9.538932,0.453556,2.784991,0.88488,0.61699,0.39685
1702332278289062,-9.633932,0.481556,2.924991,0.67188,0.48799,0.44685
1702332278296875,-9.641932,0.516556,3.147991,0.64488,0.24199,0.46085
1702332278304687,-9.668932,0.509556,3.373991,0.51288,0.19399,0.41385
1702332278312500,-9.724932,0.497556,3.484991,0.36488,0.38199,0.20585
1702332278320312,-9.808932,0.474556,3.471991,0.27888,0.55499,0.8215
1702332278328125,-9.871932,0.451556,3.344991,0.25788,0.69199,0.14515
1702332278335937,-9.861932,0.414556,3.195991,0.35088,0.87999,0.35315
1702332278343750,-9.769932,0.375556,3.125991,0.39888,0.104099,0.57915
1702332278351562,-9.631932,0.324556,3.80991,0.39788,0.102599,0.69115
1702332278359375,-9.461932,0.275556,3.70991,0.30088,0.91899,0.80315
1702332278367187,-9.303932,0.223556,3.64991,0.13888,0.74599,0.85115
1702332278375000,-9.203932,0.158556,3.61991,0.15488,0.62299,0.94815
1702332278382812,-9.112932,0.117556,3.75991,0.7212,0.44999,0.102715
1702332278390625,-9.41932,0.82556,3.30991,0.19712,0.37599,0.104515
1702332278398437,-9.13932,0.93556,2.939991,0.38812,0.23699,0.102915
1702332278406250,-9.3932,0.76556,2.869991,0.48812,0.26499,0.102815
1702332278414062,-8.947932,0.39556,2.828991,0.61712,0.34199,0.94815
1702332278421875,-8.889932,0.36556,2.799991,0.73012,0.40299,0.88415
1702332278429687,-8.892932,0.81556,2.718991,0.91912,0.42199,0.80515
1702332278437500,-8.935932,0.135556,2.743991,0.92212,0.44799,0.67515
1702332278445312,-8.911932,0.213556,2.639991,0.87112,0.22899,0.54715
1702332278453125,-8.994932,0.291556,2.510991,0.73712,0.5899,0.38815
1702332278460937,-9.102932,0.285556,2.693991,0.88212,0.33799,0.24315
1702332278468750,-9.220932,0.248556,2.795991,0.93112,0.31999,0.16315
1702332278476562,-9.305932,0.214556,2.964991,0.109312,0.50599,0.8215
1702332278484375,-9.320932,0.152556,3.32991,0.112512,0.28599,0.5015
1702332278492187,-9.414932,0.126556,3.55991,0.99412,0.17899,0.5015
1702332278500000,-9.507932,0.51556,3.104991,0.100712,0.39899,0.4485
1702332278507812,-9.603932,0.22444,3.86991,0.115612,0.40699,0.20685
1702332278515625,-9.670932,0.74444,3.25991,0.120412,0.53399,0.20685
1702332278523437,-9.657932,0.90444,3.80991,0.119912,0.64399,0.41385
1702332278531250,-9.592932,0.87444,3.181991,0.108612,0.64199,0.51085
1702332278539062,-9.572932,0.92444,3.204991,0.103812,0.56199,0.55885
1702332278546875,-9.593932,0.119444,3.188991,0.115012,0.46799,0.62285
1702332278554687,-9.584932,0.149444,3.197991,0.119312,0.37799,0.71785
1702332278562500,-9.590932,0.142444,3.186991,0.116112,0.23699,0.66985
1702332278570312,-9.579932,0.162444,3.100991,0.108112,0.17599,0.55785
1702332278578125,-9.571932,0.171444,3.57991,0.98412,0.20699,0.63785
1702332278585937,-9.559932,0.166444,3.3991,0.84012,0.22299,0.52585
1702332278593750,-9.559932,0.171444,2.949991,0.92012,0.37999,0.55785
1702332278601562,-9.574932,0.181444,2.883991,0.86112,0.37499,0.52685
1702332278609375,-9.564932,0.190444,2.874991,0.84212,0.45699,0.50985
1702332278617187,-9.549932,0.217444,2.885991,0.82612,0.47299,0.50985
1702332278625000,-9.486932,0.229444,2.903991,0.69812,0.58099,0.49485
1702332278632812,-9.395932,0.225444,2.935991,0.69712,0.53399,0.55885
1702332278640625,-9.327932,0.220444,2.926991,0.56712,0.58099,0.60585
1702332278648437,-9.306932,0.223444,2.924991,0.50112,0.67799,0.52485
1702332278656250,-9.281932,0.225444,2.885991,0.52312,0.68699,0.57585
1702332278664062,-9.267932,0.245444,2.863991,0.40712,0.73599,0.59085
1702332278671875,-9.296932,0.239444,2.851991,0.42512,0.75099,0.59085
1702332278679687,-9.366932,0.254444,2.856991,0.51912,0.68899,0.65485
1702332278687500,-9.446932,0.262444,2.851991,0.50112,0.75299,0.68585
1702332278695312,-9.508932,0.295444,2.872991,0.49012,0.76399,0.70385
1702332278703125,-9.571932,0.329444,2.888991,0.44012,0.74999,0.70285
1702332278710937,-9.656932,0.333444,2.908991,0.39112,0.76699,0.62285
1702332278718750,-9.734932,0.332444,2.969991,0.22912,0.81499,0.67085
1702332278726562,-9.788932,0.300444,3.19991,0.11912,0.89299,0.51085
1702332278734375,-9.794932,0.276444,3.35991,0.988,0.92599,0.41385
1702332278742187,-9.791932,0.222444,3.48991,0.18488,0.108099,0.38285
1702332278750000,-9.745932,0.187444,3.71991,0.23288,0.109999,0.18985
1702332278757812,-9.665932,0.156444,3.116991,0.45388,0.97499,0.6615
1702332278765625,-9.617932,0.118444,2.933991,0.69688,0.78899,0.13015
1702332278773437,-9.584932,0.164444,2.940991,0.61388,0.119599,0.25915
1702332278781250,-9.589932,0.157444,3.136991,0.48188,0.116499,0.38715
1702332278789062,-9.570932,0.111444,3.19991,0.62788,0.110599,0.51515
1702332278796875,-9.500932,0.101444,3.7991,0.62688,0.119999,0.59515
1702332278804687,-9.423932,0.96444,3.77991,0.69188,0.117099,0.69215
1702332278812500,-9.338932,0.95444,3.174991,0.69388,0.112699,0.74115
1702332278820312,-9.280932,0.101444,3.186991,0.75788,0.97099,0.82115
1702332278828125,-9.224932,0.93444,3.120991,0.64388,0.92399,0.86915
1702332278835937,-9.188932,0.85444,3.70991,0.64088,0.93699,0.88415
1702332278843750,-9.123932,0.80444,3.14991,0.62588,0.92199,0.88515
1702332278851562,-9.72932,0.57444,2.969991,0.67188,0.93499,0.85215
1702332278859375,-9.75932,0.25444,2.962991,0.70888,0.92399,0.88515
1702332278867187,-9.77932,0.6556,2.930991,0.73788,0.93599,0.85215
1702332278875000,-9.46932,0.29556,2.944991,0.91688,0.95199,0.77215
1702332278882812,-9.28932,0.54556,2.944991,0.88288,0.98099,0.73915
1702332278890625,-9.21932,0.94556,2.973991,0.92788,0.105599,0.70615
1702332278898437,-9.45932,0.122556,3.9991,0.89988,0.104299,0.61115
1702332278906250,-9.91932,0.168556,3.991,0.88588,0.101099,0.48315
1702332278914062,-9.132932,0.199556,3.7991,0.90788,0.102999,0.40415
1702332278921875,-9.144932,0.227556,3.39991,0.88488,0.108699,0.38615
1702332278929687,-9.139932,0.236556,3.63991,0.90288,0.108599,0.27415
1702332278937500,-9.88932,0.241556,3.84991,0.88688,0.111699,0.21015
1702332278945312,-9.47932,0.257556,3.113991,0.90488,0.102299,0.13015
1702332278953125,-9.31932,0.281556,3.109991,0.89088,0.102499,0.14715
1702332278960937,-9.24932,0.295556,3.66991,0.87388,0.100799,0.9815
1702332278968750,-9.14932,0.303556,3.16991,0.78288,0.91799,0.2015
1702332278976562,-8.995932,0.313556,2.996991,0.63488,0.91299,0.7785
1702332278984375,-8.984932,0.291556,2.975991,0.65288,0.92899,0.18985
1702332278992187,-9.51932,0.277556,2.964991,0.60388,0.88099,0.22185
1702332279000000,-9.295932,0.264556,2.955991,0.41288,0.80399,0.23685
1702332279007812,-9.574932,0.286556,2.931991,0.14288,0.86799,0.36485
1702332279015625,-9.727932,0.311556,2.962991,0.6812,0.69299,0.47785
1702332279023437,-9.785932,0.327556,3.64991,0.8412,0.66199,0.47785
1702332279031250,-9.755932,0.339556,3.224991,0.11512,0.64699,0.42885
1702332279039062,-9.722932,0.349556,3.369991,0.10412,0.58399,0.26985
1702332279046875,-9.742932,0.391556,3.371991,0.12212,0.58399,0.10985
1702332279054687,-9.800932,0.394556,3.342991,0.12712,0.67799,0.13015
1702332279062500,-9.849932,0.362556,3.281991,0.7812,0.89899,0.24315
1702332279070312,-9.850932,0.329556,3.195991,0.1488,0.97699,0.37115
1702332279078125,-9.802932,0.273556,3.145991,0.5788,0.113099,0.51415
1702332279085937,-9.677932,0.219556,3.138991,0.4388,0.136899,0.59515
1702332279093750,-9.525932,0.185556,3.174991,0.7012,0.143099,0.62715
1702332279101562,-9.406932,0.158556,3.224991,0.18112,0.135799,0.78815
1702332279109375,-9.333932,0.151556,3.228991,0.27912,0.122999,0.73915
1702332279117187,-9.201932,0.149556,3.287991,0.37712,0.101099,0.77115
1702332279125000,-9.112932,0.205556,3.27991,0.22712,0.77899,0.69215
1702332279132812,-9.58932,0.221556,3.45991,0.13112,0.80999,0.72415
1702332279140625,-8.992932,0.207556,3.151991,0.35512,0.77699,0.54815
1702332279148437,-8.924932,0.210556,3.45991,0.51512,0.69799,0.45115
1702332279156250,-8.845932,0.242556,2.921991,0.48312,0.72899,0.41915
1702332279164062,-8.839932,0.242556,2.865991,0.41712,0.69699,0.33915
1702332279171875,-8.828932,0.257556,2.962991,0.51712,0.69099,0.14515
1702332279179687,-8.820932,0.279556,2.887991,0.63712,0.61999,0.10015
1702332279187500,-8.842932,0.306556,2.851991,0.68712,0.61699,0.1915
1702332279195312,-8.929932,0.334556,2.860991,0.83312,0.64499,0.12585
1702332279203125,-9.16932,0.343556,2.926991,0.79312,0.50599,0.39685
1702332279210937,-9.67932,0.333556,2.955991,0.68512,0.46799,0.47985
1702332279218750,-9.145932,0.293556,3.3991,0.55012,0.26899,0.55785
1702332279226562,-9.242932,0.230556,3.73991,0.58212,0.17499,0.62285
1702332279234375,-9.341932,0.182556,3.129991,0.51512,0.12999,0.63785
1702332279242187,-9.429932,0.144556,3.159991,0.43112,0.6899,0.71685
1702332279250000,-9.486932,0.100556,3.156991,0.36712,0.17599,0.84585
1702332279257812,-9.515932,0.113556,3.168991,0.30212,0.15999,0.89385
1702332279265625,-9.524932,0.102556,3.174991,0.20512,0.20499,0.100685
1702332279273437,-9.506932,0.110556,3.152991,0.17312,0.36099,0.100685
1702332279281250,-9.463932,0.101556,3.136991,0.10412,0.44299,0.106885
1702332279289062,-9.414932,0.99556,3.122991,0.12512,0.46899,0.108685
1702332279296875,-9.334932,0.95556,3.93991,0.10812,0.53299,0.108685
1702332279304687,-9.285932,0.88556,3.52991,0.12812,0.65299,0.111985
1702332279312500,-9.252932,0.80556,3.9991,0.11312,0.74699,0.111985
1702332279320312,-9.224932,0.71556,2.969991,0.15912,0.62399,0.110385
1702332279328125,-9.222932,0.70556,2.926991,0.36612,0.67199,0.116685
1702332279335937,-9.194932,0.65556,2.885991,0.38812,0.68299,0.110485
1702332279343750,-9.203932,0.38556,2.878991,0.43312,0.68599,0.111985
1702332279351562,-9.292932,0.47556,2.912991,0.56012,0.67199,0.113485
1702332279359375,-9.446932,0.58556,2.946991,0.80212,0.65599,0.118285
1702332279367187,-9.522932,0.70556,2.967991,0.76812,0.67199,0.124685
1702332279375000,-9.504932,0.79556,3.46991,0.89712,0.63999,0.126285
1702332279382812,-9.484932,0.111556,3.136991,0.86712,0.65299,0.131185
1702332279390625,-9.487932,0.139556,3.208991,0.87912,0.68899,0.126185
1702332279398437,-9.527932,0.156556,3.199991,0.86512,0.76499,0.123085
1702332279406250,-9.561932,0.169556,3.170991,0.80412,0.110799,0.118285
1702332279414062,-9.556932,0.169556,3.177991,0.83712,0.115399,0.116785
1702332279421875,-9.527932,0.149556,3.197991,0.74112,0.128099,0.107085
1702332279429687,-9.491932,0.134556,3.231991,0.65312,0.136799,0.99385
1702332279437500,-9.441932,0.80556,3.341991,0.66312,0.123299,0.97585
1702332279445312,-9.397932,0.30556,3.247991,0.58212,0.115699,0.87885
1702332279453125,-9.339932,0.65444,3.190991,0.79512,0.126299,0.89585
1702332279460937,-9.313932,0.136444,3.346991,0.110012,0.126399,0.91185
1702332279468750,-9.304932,0.146444,3.237991,0.111612,0.115299,0.95985
1702332279476562,-9.331932,0.187444,3.231991,0.124312,0.117099,0.95885
1702332279484375,-9.386932,0.221444,3.249991,0.139012,0.116699,0.102385
1702332279492187,-9.433932,0.264444,3.265991,0.138912,0.118399,0.105585
1702332279500000,-9.448932,0.332444,3.312991,0.150112,0.115099,0.116885
1702332279507812,-9.424932,0.385444,3.323991,0.161212,0.110499,0.119985
1702332279515625,-9.406932,0.407444,3.294991,0.164512,0.113699,0.115185
1702332279523437,-9.393932,0.404444,3.292991,0.167912,0.121299,0.116885
1702332279531250,-9.348932,0.400444,3.280991,0.158112,0.119899,0.113585
1702332279539062,-9.314932,0.379444,3.246991,0.148612,0.118499,0.95985
1702332279546875,-9.291932,0.357444,3.244991,0.143512,0.118799,0.91085
1702332279554687,-9.266932,0.352444,3.251991,0.140612,0.117199,0.79885
1702332279562500,-9.260932,0.336444,3.278991,0.141112,0.113799,0.70385
1702332279570312,-9.287932,0.366444,3.280991,0.142712,0.107999,0.46285
1702332279578125,-9.346932,0.388444,3.283991,0.139812,0.88999,0.33485
1702332279585937,-9.451932,0.399444,3.308991,0.137812,0.80399,0.15685
1702332279593750,-9.544932,0.372444,3.335991,0.125212,0.67999,0.8315
1702332279601562,-9.607932,0.366444,3.378991,0.115612,0.63299,0.11515
1702332279609375,-9.611932,0.380444,3.375991,0.99112,0.58899,0.13215
1702332279617187,-9.577932,0.403444,3.373991,0.78712,0.60299,0.27515
1702332279625000,-9.564932,0.443444,3.360991,0.69212,0.58799,0.40315
1702332279632812,-9.556932,0.457444,3.326991,0.48612,0.66399,0.45015
1702332279640625,-9.544932,0.471444,3.296991,0.38612,0.85599,0.50015
1702332279648437,-9.489932,0.483444,3.262991,0.22812,0.92999,0.43415
1702332279656250,-9.430932,0.471444,3.269991,0.1488,0.93099,0.43515
1702332279664062,-9.377932,0.468444,3.283991,0.28788,0.96099,0.40215
1702332279671875,-9.273932,0.429444,3.305991,0.38588,0.97699,0.38615
1702332279679687,-9.160932,0.389444,3.285991,0.54588,0.96099,0.38615
1702332279687500,-9.32932,0.361444,3.260991,0.69388,0.99199,0.22615
1702332279695312,-8.913932,0.328444,3.210991,0.78988,0.97599,0.25815
1702332279703125,-8.816932,0.309444,3.131991,0.80688,0.99199,0.25815
1702332279710937,-8.747932,0.310444,3.43991,0.98188,0.100499,0.20915
1702332279718750,-8.644932,0.309444,2.995991,0.113188,0.97799,0.16315
1702332279726562,-8.505932,0.320444,2.939991,0.131088,0.91499,0.9915
1702332279734375,-8.431932,0.319444,2.885991,0.139188,0.91499,0.3415
1702332279742187,-8.431932,0.310444,2.839991,0.134588,0.81999,0.12585
1702332279750000,-8.414932,0.300444,2.821991,0.141788,0.68399,0.28385
1702332279757812,-8.380932,0.264444,2.842991,0.143488,0.68099,0.44485
1702332279765625,-8.442932,0.234444,2.824991,0.151788,0.66399,0.62085
1702332279773437,-8.722932,0.195444,2.842991,0.146588,0.84799,0.71885
1702332279781250,-9.151932,0.154444,2.874991,0.134188,0.94199,0.95785
1702332279789062,-9.572932,0.113444,2.969991,0.115088,0.87799,0.115085
1702332279796875,-9.875932,0.48444,3.218991,0.102788,0.75299,0.145385
1702332279804687,-10.80932,0.49444,3.514991,0.90688,0.55299,0.167685
1702332279812500,-10.167932,0.9444,3.764991,0.105988,0.65399,0.167985
1702332279820312,-10.206932,0.33556,3.927991,0.105988,0.92099,0.169585
1702332279828125,-10.218932,0.90556,3.902991,0.99188,0.101699,0.139085
1702332279835937,-10.197932,0.186556,3.871991,0.109988,0.131599,0.105385
1702332279843750,-10.116932,0.306556,3.611991,0.125588,0.153699,0.68585
1702332279851562,-9.970932,0.378556,3.527991,0.134388,0.193999,0.46285
1702332279859375,-9.816932,0.347556,3.667991,0.127188,0.218999,0.9485
1702332279867187,-9.588932,0.294556,3.818991,0.96588,0.242899,0.9815
1702332279875000,-9.331932,0.248556,3.651991,0.80388,0.205399,0.19415
1702332279882812,-9.118932,0.156556,3.515991,0.68888,0.196099,0.33815
1702332279890625,-8.867932,0.20556,3.610991,0.63988,0.186799,0.49815
1702332279898437,-8.658932,0.82444,3.524991,0.18788,0.160399,0.61115
1702332279906250,-8.543932,0.151444,3.438991,0.15212,0.132299,0.75515
1702332279914062,-8.531932,0.178444,3.375991,0.27712,0.112299,0.75615
1702332279921875,-8.626932,0.187444,3.298991,0.39112,0.93199,0.64315
1702332279929687,-8.762932,0.174444,3.217991,0.38912,0.86999,0.54715
1702332279937500,-8.881932,0.164444,3.230991,0.43612,0.85199,0.35515
1702332279945312,-8.987932,0.175444,3.269991,0.59512,0.72499,0.21015
1702332279953125,-9.114932,0.174444,3.323991,0.64112,0.61599,0.8215
1702332279960937,-9.225932,0.153444,3.375991,0.63612,0.60399,0.5215
1702332279968750,-9.290932,0.100444,3.414991,0.54012,0.63399,0.4485
1702332279976562,-9.318932,0.65444,3.425991,0.55812,0.66299,0.2985
1702332279984375,-9.325932,0.20444,3.405991,0.41812,0.84799,0.11415
1702332279992187,-9.324932,0.30556,3.355991,0.41912,0.103599,0.13015
1702332280000000,-9.310932,0.27556,3.346991,0.20912,0.117799,0.14615
1702332280007812,-9.285932,0.27556,3.373991,0.15212,0.129899,0.28815
1702332280015625,-9.265932,0.21444,3.418991,0.1088,0.131599,0.30515
1702332280023437,-9.202932,0.63444,3.466991,0.17488,0.127199,0.29015
1702332280031250,-9.152932,0.104444,3.504991,0.28888,0.111499,0.21015
1702332280039062,-9.101932,0.158444,3.526991,0.33788,0.102199,0.24215
1702332280046875,-9.71932,0.184444,3.551991,0.38488,0.89399,0.12915
1702332280054687,-9.59932,0.209444,3.567991,0.37488,0.83499,0.3415
1702332280062500,-9.66932,0.246444,3.556991,0.39388,0.78599,0.23785
1702332280070312,-9.67932,0.282444,3.515991,0.35088,0.72399,0.44585
1702332280078125,-9.31932,0.307444,3.492991,0.35388,0.72499,0.58985
1702332280085937,-9.10932,0.287444,3.443991,0.40688,0.66299,0.78085
1702332280093750,-8.983932,0.251444,3.407991,0.32688,0.55099,0.90985
1702332280101562,-8.955932,0.197444,3.346991,0.32788,0.56499,0.110285
1702332280109375,-8.944932,0.158444,3.296991,0.26288,0.54499,0.126385
1702332280117187,-8.986932,0.117444,3.287991,0.13588,0.56099,0.137585
1702332280125000,-9.27932,0.81444,3.253991,0.11088,0.42299,0.158285
1702332280132812,-9.69932,0.59444,3.251991,0.3612,0.43599,0.163185
1702332280140625,-9.124932,0.60444,3.255991,0.10212,0.43299,0.169585
1702332280148437,-9.163932,0.52444,3.240991,0.16312,0.37199,0.179185
1702332280156250,-9.180932,0.81444,3.278991,0.24412,0.29499,0.171185
1702332280164062,-9.176932,0.86444,3.276991,0.31112,0.11999,0.174485
1702332280171875,-9.188932,0.142444,3.240991,0.43912,0.16799,0.169585
1702332280179687,-9.208932,0.205444,3.377991,0.64712,0.17099,0.161485
1702332280187500,-9.248932,0.188444,3.303991,0.72812,0.10799,0.164685
1702332280195312,-9.265932,0.188444,3.278991,0.71612,0.15199,0.156785
1702332280203125,-9.285932,0.197444,3.274991,0.86012,0.9199,0.145485
1702332280210937,-9.338932,0.212444,3.319991,0.93112,0.2399,0.142585
1702332280218750,-9.413932,0.246444,3.348991,0.101912,0.6299,0.148685
1702332280226562,-9.459932,0.308444,3.321991,0.112012,0.7399,0.150385
1702332280234375,-9.501932,0.375444,3.287991,0.104112,0.16699,0.147285
1702332280242187,-9.536932,0.434444,3.296991,0.102012,0.20399,0.145385
1702332280250000,-9.515932,0.490444,3.314991,0.89712,0.37199,0.132785
1702332280257812,-9.491932,0.532444,3.344991,0.92912,0.46699,0.129585
1702332280265625,-9.478932,0.569444,3.344991,0.96412,0.48199,0.121585
1702332280273437,-9.464932,0.593444,3.346991,0.88012,0.59799,0.106985
1702332280281250,-9.423932,0.602444,3.335991,0.90312,0.68699,0.94285
1702332280289062,-9.367932,0.633444,3.323991,0.88512,0.67499,0.84585
1702332280296875,-9.336932,0.642444,3.319991,0.87512,0.67199,0.71885
1702332280304687,-9.301932,0.648444,3.344991,0.71612,0.71799,0.60785
1702332280312500,-9.278932,0.646444,3.386991,0.66612,0.70599,0.50985
1702332280320312,-9.282932,0.633444,3.416991,0.55412,0.81599,0.42985
1702332280328125,-9.329932,0.621444,3.461991,0.47112,0.78799,0.39685
1702332280335937,-9.353932,0.597444,3.486991,0.37512,0.85099,0.33285
1702332280343750,-9.355932,0.572444,3.536991,0.39712,0.84799,0.20585
1702332280351562,-9.359932,0.558444,3.594991,0.35812,0.82199,0.21985
1702332280359375,-9.393932,0.526444,3.655991,0.24912,0.72599,0.17285
1702332280367187,-9.352932,0.511444,3.725991,0.15312,0.82299,0.315
1702332280375000,-9.283932,0.511444,3.748991,0.12412,0.86799,0.6715
1702332280382812,-9.214932,0.508444,3.741991,0.6788,0.92799,0.5015
1702332280390625,-9.133932,0.518444,3.716991,0.13388,0.91399,0.3415
1702332280398437,-9.39932,0.517444,3.648991,0.14988,0.93099,0.8315
1702332280406250,-8.941932,0.523444,3.599991,0.27688,0.92799,0.3415
1702332280414062,-8.882932,0.532444,3.517991,0.22888,0.89799,0.8215
1702332280421875,-8.842932,0.536444,3.454991,0.29888,0.79099,0.1285
1702332280429687,-8.813932,0.556444,3.400991,0.22088,0.66499,0.20485
1702332280437500,-8.818932,0.582444,3.316991,0.23788,0.41199,0.36585
1702332280445312,-8.867932,0.610444,3.303991,0.24588,0.19799,0.50785
1702332280453125,-8.931932,0.632444,3.291991,0.27688,0.6899,0.63785
1702332280460937,-9.932,0.660444,3.280991,0.47388,0.7201,0.86185
1702332280468750,-9.92932,0.672444,3.269991,0.58788,0.4101,0.92585
1702332280476562,-9.161932,0.654444,3.310991,0.79888,0.5601,0.98985
1702332280484375,-9.230932,0.621444,3.348991,0.94388,0.2501,0.97385
1702332280492187,-9.287932,0.563444,3.332991,0.108988,0.16399,0.97285
1702332280500000,-9.325932,0.521444,3.337991,0.129788,0.22499,0.98985
1702332280507812,-9.358932,0.485444,3.380991,0.136388,0.39899,0.95685
1702332280515625,-9.393932,0.445444,3.457991,0.126388,0.52299,0.90885
1702332280523437,-9.420932,0.401444,3.497991,0.124488,0.61499,0.87785
1702332280531250,-9.446932,0.366444,3.574991,0.130888,0.75499,0.86185
1702332280539062,-9.378932,0.325444,3.653991,0.132288,0.75599,0.68585
1702332280546875,-9.326932,0.287444,3.445991,0.148288,0.69599,0.47685
1702332280554687,-9.319932,0.289444,3.479991,0.144788,0.85199,0.34885
1702332280562500,-9.317932,0.322444,3.560991,0.118788,0.97899,0.15685
1702332280570312,-9.309932,0.340444,3.592991,0.81288,0.111899,0.2885
1702332280578125,-9.207932,0.341444,3.608991,0.82488,0.108299,0.4685
1702332280585937,-9.126932,0.349444,3.619991,0.71188,0.88099,0.5015
1702332280593750,-9.72932,0.338444,3.599991,0.65188,0.68099,0.3515
1702332280601562,-9.49932,0.329444,3.553991,0.37788,0.66599,0.5115
1702332280609375,-9.43932,0.311444,3.569991,0.23288,0.61699,0.4585
1702332280617187,-9.44932,0.267444,3.551991,0.10588,0.54099,0.4485
1702332280625000,-9.45932,0.231444,3.569991,0.3912,0.47799,0.4485
1702332280632812,-9.32932,0.213444,3.574991,0.2212,0.41599,0.9285
1702332280640625,-9.8932,0.221444,3.562991,0.12212,0.25599,0.6185
1702332280648437,-8.974932,0.242444,3.556991,0.13312,0.26199,0.1185
1702332280656250,-8.973932,0.244444,3.515991,0.13212,0.16999,0.5315
1702332280664062,-9.18932,0.254444,3.459991,0.12312,0.11599,0.5015
1702332280671875,-9.80932,0.256444,3.389991,0.13812,0.17999,0.3515
1702332280679687,-9.147932,0.255444,3.359991,0.12012,0.16499,0.3515
1702332280687500,-9.252932,0.263444,3.341991,0.18612,0.21199,0.5115
1702332280695312,-9.317932,0.276444,3.348991,0.19812,0.15199,0.2015
1702332280703125,-9.344932,0.291444,3.359991,0.15312,0.32099,0.1285
1702332280710937,-9.375932,0.283444,3.357991,0.18412,0.35399,0.3515
1702332280718750,-9.387932,0.291444,3.353991,0.15512,0.41299,0.1815
1702332280726562,-9.392932,0.298444,3.328991,0.4512,0.59999,0.9815
1702332280734375,-9.373932,0.307444,3.330991,0.12212,0.79099,0.6715
1702332280742187,-9.358932,0.312444,3.301991,0.2188,0.86899,0.8315
1702332280750000,-9.328932,0.318444,3.321991,0.7312,0.93299,0.5215
1702332280757812,-9.290932,0.338444,3.346991,0.812,0.104099,0.1285
1702332280765625,-9.199932,0.344444,3.350991,0.488,0.114699,0.7785
1702332280773437,-9.123932,0.350444,3.353991,0.1012,0.114699,0.17385
1702332280781250,-9.51932,0.343444,3.357991,0.12112,0.117899,0.20485
1702332280789062,-9.24932,0.308444,3.328991,0.26812,0.115899,0.33485
1702332280796875,-9.35932,0.302444,3.312991,0.37912,0.115899,0.41485
1702332280804687,-9.45932,0.328444,3.301991,0.37812,0.112399,0.63985
1702332280812500,-9.52932,0.357444,3.303991,0.39012,0.104699,0.83085
1702332280820312,-9.90932,0.400444,3.312991,0.53212,0.96899,0.95885
1702332280828125,-9.176932,0.432444,3.330991,0.64512,0.90499,0.103985
1702332280835937,-9.212932,0.451444,3.334991,0.75712,0.88899,0.107185
1702332280843750,-9.235932,0.480444,3.305991,0.80412,0.93599,0.115185
1702332280851562,-9.208932,0.510444,3.314991,0.83512,0.73399,0.113485
1702332280859375,-9.158932,0.470444,3.375991,0.71912,0.53299,0.114985
1702332280867187,-9.148932,0.485444,3.228991,0.62412,0.51599,0.110285
1702332280875000,-9.76932,0.504444,3.305991,0.110712,0.61099,0.113385
1702332280882812,-9.54932,0.511444,3.461991,0.125312,0.56299,0.111885
1702332280890625,-9.27932,0.495444,3.368991,0.112412,0.43899,0.98985
1702332280898437,-9.20932,0.501444,3.373991,0.115912,0.49999,0.95885
1702332280906250,-9.32932,0.523444,3.425991,0.114212,0.45599,0.90985
1702332280914062,-9.32932,0.572444,3.477991,0.115712,0.40999,0.87785
1702332280921875,-9.56932,0.619444,3.511991,0.122312,0.43899,0.89485
1702332280929687,-9.77932,0.668444,3.544991,0.133612,0.32999,0.86185
1702332280937500,-9.95932,0.697444,3.562991,0.140012,0.17399,0.86185
1702332280945312,-9.121932,0.757444,3.581991,0.141712,0.9799,0.70185
1702332280953125,-9.127932,0.755444,3.520991,0.140112,0.8299,0.65285
1702332280960937,-9.154932,0.755444,3.517991,0.142112,0.4999,0.55785
1702332280968750,-9.186932,0.769444,3.556991,0.140312,0.599,0.49285
1702332280976562,-9.197932,0.789444,3.574991,0.138512,0.801,0.47685
1702332280984375,-9.236932,0.823444,3.594991,0.127512,0.7101,0.38085
1702332280992187,-9.277932,0.854444,3.603991,0.129412,0.5701,0.30185
1702332281000000,-9.356932,0.911444,3.612991,0.122712,0.16301,0.25285
1702332281007812,-9.423932,0.907444,3.617991,0.114812,0.701,0.22085
1702332281015625,-9.457932,0.912444,3.603991,0.111912,0.3801,0.1285
1702332281023437,-9.465932,0.911444,3.610991,0.90712,0.5001,0.11615
1702332281031250,-9.525932,0.892444,3.692991,0.68112,0.8001,0.10115
1702332281039062,-9.654932,0.899444,3.762991,0.47712,0.2201,0.17915
1702332281046875,-9.754932,0.904444,3.793991,0.37912,0.1801,0.29215
1702332281054687,-9.778932,0.918444,3.811991,0.18212,0.9599,0.37415
1702332281062500,-9.709932,0.912444,3.825991,0.7288,0.17399,0.48515
1702332281070312,-9.598932,0.897444,3.793991,0.31088,0.18699,0.59715
1702332281078125,-9.422932,0.866444,3.766991,0.43988,0.17499,0.72615
1702332281085937,-9.285932,0.824444,3.703991,0.56788,0.19099,0.80615
1702332281093750,-9.170932,0.809444,3.610991,0.63088,0.29899,0.78915
1702332281101562,-9.51932,0.791444,3.495991,0.66288,0.34599,0.78915
1702332281109375,-8.923932,0.779444,3.402991,0.77888,0.23699,0.67715
1702332281117187,-8.789932,0.776444,3.327991,0.94188,0.14299,0.59715
1702332281125000,-8.705932,0.770444,3.273991,0.98688,0.3401,0.50015
1702332281132812,-8.642932,0.767444,3.160991,0.113488,0.14201,0.43615
1702332281140625,-8.619932,0.760444,3.58991,0.115488,0.20301,0.29315
1702332281148437,-8.650932,0.745444,2.993991,0.128488,0.33001,0.19615
1702332281156250,-8.729932,0.751444,2.939991,0.130388,0.45401,0.8415
1702332281164062,-8.848932,0.752444,2.962991,0.130488,0.44201,0.17285
1702332281171875,-8.969932,0.731444,3.23991,0.132888,0.48501,0.33085
1702332281179687,-9.68932,0.680444,3.54991,0.135888,0.56801,0.47685
1702332281187500,-9.168932,0.627444,3.95991,0.137888,0.48801,0.61985
1702332281195312,-9.306932,0.549444,3.156991,0.148688,0.39801,0.60585
1702332281203125,-9.442932,0.495444,3.197991,0.148388,0.24301,0.50985
1702332281210937,-9.521932,0.419444,3.208991,0.156588,0.19401,0.49285
1702332281218750,-9.575932,0.335444,3.251991,0.169688,0.12299,0.37985
1702332281226562,-9.644932,0.282444,3.296991,0.167688,0.16799,0.23585
1702332281234375,-9.686932,0.236444,3.287991,0.167088,0.25999,0.4485
1702332281242187,-9.737932,0.215444,3.339991,0.168388,0.54299,0.11515
1702332281250000,-9.715932,0.226444,3.437991,0.168588,0.59299,0.21215
1702332281257812,-9.699932,0.228444,3.294991,0.180888,0.59199,0.50015
1702332281265625,-9.678932,0.285444,3.425991,0.170888,0.82599,0.59615
1702332281273437,-9.656932,0.349444,3.653991,0.172288,0.101599,0.83615
1702332281281250,-9.610932,0.392444,3.739991,0.149388,0.109199,0.85215
1702332281289062,-9.529932,0.398444,3.545991,0.135188,0.89299,0.94915
1702332281296875,-9.458932,0.396444,3.452991,0.141188,0.103099,0.106015
1702332281304687,-9.309932,0.427444,3.637991,0.113488,0.109199,0.112415
1702332281312500,-9.203932,0.433444,3.576991,0.86488,0.89399,0.117315
1702332281320312,-9.140932,0.406444,3.461991,0.65488,0.89399,0.118915
1702332281328125,-9.61932,0.364444,3.486991,0.46088,0.93799,0.112515
1702332281335937,-9.18932,0.319444,3.481991,0.45988,0.85799,0.104415
1702332281343750,-8.990932,0.263444,3.400991,0.39688,0.84399,0.104415
1702332281351562,-9.3932,0.224444,3.380991,0.23488,0.71799,0.104415
1702332281359375,-9.16932,0.193444,3.416991,0.25088,0.66999,0.99615
1702332281367187,-9.22932,0.153444,3.382991,0.17188,0.56199,0.106015
1702332281375000,-9.75932,0.110444,3.362991,0.15788,0.51699,0.102915
1702332281382812,-9.133932,0.82444,3.350991,0.13988,0.54599,0.104415
1702332281390625,-9.191932,0.60444,3.348991,0.16788,0.60599,0.109115
1702332281398437,-9.242932,0.50444,3.387991,0.28188,0.64099,0.122115
1702332281406250,-9.231932,0.55444,3.411991,0.39788,0.70599,0.120515
1702332281414062,-9.180932,0.40444,3.395991,0.55388,0.73499,0.131615
1702332281421875,-9.95932,0.39444,3.427991,0.61688,0.84399,0.139615
1702332281429687,-9.7932,0.40444,3.452991,0.68188,0.93999,0.142915
1702332281437500,-8.903932,0.19444,3.436991,0.84388,0.92499,0.141315
1702332281445312,-8.787932,0.31444,3.427991,0.92688,0.94199,0.134915
1702332281453125,-8.720932,0.34444,3.370991,0.102388,0.89399,0.130115
1702332281460937,-8.689932,0.66444,3.305991,0.103988,0.87499,0.114015
1702332281468750,-8.628932,0.50444,3.255991,0.106088,0.68999,0.102915
1702332281476562,-8.583932,0.43444,3.203991,0.108088,0.59599,0.85315
1702332281484375,-8.572932,0.38444,3.171991,0.98588,0.43699,0.61215
1702332281492187,-8.612932,0.32444,3.162991,0.90888,0.27899,0.38815
1702332281500000,-8.749932,0.43444,3.138991,0.78288,0.19999,0.16415
1702332281507812,-8.944932,0.59444,3.154991,0.66988,0.16699,0.6715
1702332281515625,-9.180932,0.56444,3.204991,0.60988,0.17999,0.28485
1702332281523437,-9.376932,0.46444,3.260991,0.43488,0.17899,0.47685
1702332281531250,-9.481932,0.24444,3.355991,0.42288,0.14999,0.54085
1702332281539062,-9.577932,0.21556,3.464991,0.43588,0.16199,0.60585
1702332281546875,-9.668932,0.55556,3.509991,0.41988,0.17699,0.65385
1702332281554687,-9.738932,0.77556,3.516991,0.38788,0.20699,0.71885
1702332281562500,-9.764932,0.71556,3.529991,0.22688,0.37999,0.68585
1702332281570312,-9.733932,0.81556,3.568991,0.20888,0.44299,0.58985
1702332281578125,-9.667932,0.132556,3.380991,0.38588,0.28799,0.46185
1702332281585937,-9.611932,0.114556,3.326991,0.2588,0.58299,0.33385
1702332281593750,-9.598932,0.91556,3.414991,0.13412,0.63199,0.25285
1702332281601562,-9.562932,0.78556,3.330991,0.16912,0.63299,0.9285
1702332281609375,-9.506932,0.18556,3.337991,0.27112,0.56699,0.115
1702332281617187,-9.434932,0.31444,3.380991,0.36412,0.44599,0.5115
1702332281625000,-9.355932,0.107444,3.418991,0.42912,0.41499,0.13115
1702332281632812,-9.271932,0.181444,3.447991,0.62312,0.25899,0.14715
1702332281640625,-9.156932,0.237444,3.414991,0.70512,0.16299,0.11415
1702332281648437,-9.49932,0.295444,3.364991,0.86512,0.13099,0.3415
1702332281656250,-9.2932,0.326444,3.323991,0.89212,0.3999,0.9285
1702332281664062,-8.966932,0.328444,3.267991,0.93712,0.3999,0.23685
1702332281671875,-8.940932,0.350444,3.188991,0.98912,0.6001,0.38285
1702332281679687,-8.869932,0.343444,3.160991,0.95412,0.9201,0.57485
1702332281687500,-8.816932,0.300444,3.169991,0.95012,0.13801,0.73385
1702332281695312,-8.862932,0.239444,3.120991,0.112412,0.27701,0.81385
1702332281703125,-8.971932,0.161444,3.88991,0.115912,0.26601,0.92685
1702332281710937,-9.87932,0.132444,3.75991,0.131812,0.14201,0.107085
1702332281718750,-9.165932,0.142444,3.88991,0.128412,0.7901,0.116685
1702332281726562,-9.230932,0.153444,3.122991,0.116912,0.3399,0.113385
1702332281734375,-9.297932,0.173444,3.127991,0.115312,0.7999,0.114985
1702332281742187,-9.387932,0.179444,3.158991,0.113912,0.18799,0.113485
1702332281750000,-9.487932,0.197444,3.201991,0.114612,0.22899,0.105685
1702332281757812,-9.541932,0.224444,3.222991,0.108312,0.30799,0.96085
1702332281765625,-9.545932,0.240444,3.296991,0.88612,0.28099,0.87885
1702332281773437,-9.551932,0.271444,3.362991,0.80812,0.23499,0.76685
1702332281781250,-9.542932,0.320444,3.380991,0.72712,0.20699,0.55785
1702332281789062,-9.545932,0.333444,3.355991,0.65812,0.16599,0.47585
1702332281796875,-9.560932,0.352444,3.364991,0.55212,0.17799,0.34985
1702332281804687,-9.599932,0.398444,3.351991,0.44412,0.33299,0.20585
1702332281812500,-9.616932,0.434444,3.351991,0.37912,0.31699,0.22185
1702332281820312,-9.591932,0.456444,3.353991,0.32912,0.39699,0.22185
1702332281828125,-9.565932,0.475444,3.371991,0.37812,0.19299,0.18985
1702332281835937,-9.496932,0.498444,3.380991,0.35412,0.15499,0.12285
1702332281843750,-9.442932,0.502444,3.362991,0.26412,0.13299,0.10885
1702332281851562,-9.355932,0.507444,3.317991,0.23312,0.6699,0.20585
1702332281859375,-9.294932,0.531444,3.242991,0.13412,0.14699,0.22185
1702332281867187,-9.225932,0.543444,3.156991,0.412,0.16399,0.22085
1702332281875000,-9.126932,0.554444,3.79991,0.11288,0.18199,0.33285
1702332281882812,-9.32932,0.552444,3.7991,0.15988,0.11799,0.33285
1702332281890625,-8.971932,0.538444,2.984991,0.25988,0.4099,0.46085
1702332281898437,-8.922932,0.520444,3.7991,0.32588,0.5301,0.49285
1702332281906250,-8.890932,0.481444,2.998991,0.34188,0.11701,0.58885
1702332281914062,-8.889932,0.455444,2.968991,0.42488,0.19501,0.68485
1702332281921875,-8.892932,0.443444,2.957991,0.47188,0.18101,0.71785
1702332281929687,-8.955932,0.381444,2.964991,0.58788,0.13301,0.81285
1702332281937500,-9.67932,0.347444,2.966991,0.45688,0.1001,0.86185
1702332281945312,-9.170932,0.337444,2.966991,0.50488,0.6699,0.89385
1702332281953125,-9.275932,0.332444,3.3991,0.66488,0.23799,0.89485
1702332281960937,-9.360932,0.291444,3.70991,0.66788,0.17699,0.95785
1702332281968750,-9.468932,0.231444,2.910991,0.89288,0.3699,0.82985
1702332281976562,-9.546932,0.222444,3.25991,0.103988,0.13399,0.78085
1702332281984375,-9.628932,0.224444,3.244991,0.101588,0.31699,0.68585
1702332281992187,-9.719932,0.213444,3.434991,0.98688,0.44699,0.60485
1702332282000000,-9.747932,0.174444,3.312991,0.106488,0.29199,0.39685
1702332282007812,-9.799932,0.149444,3.145991,0.138388,0.32099,0.28485
1702332282015625,-9.762932,0.200444,3.357991,0.133188,0.63499,0.12485
1702332282023437,-9.728932,0.218444,3.387991,0.113788,0.66999,0.13215
1702332282031250,-9.695932,0.217444,3.265991,0.113488,0.76099,0.13115
1702332282039062,-9.610932,0.226444,3.308991,0.116388,0.94599,0.14615
1702332282046875,-9.525932,0.244444,3.319991,0.117988,0.86699,0.13015
1702332282054687,-9.447932,0.245444,3.292991,0.111488,0.81999,0.16215
1702332282062500,-9.354932,0.266444,3.256991,0.98388,0.74099,0.21015
1702332282070312,-9.249932,0.302444,3.260991,0.106388,0.66399,0.29015
1702332282078125,-9.156932,0.324444,3.201991,0.90988,0.68499,0.26015
1702332282085937,-9.96932,0.329444,3.106991,0.90588,0.52599,0.32315
1702332282093750,-9.80932,0.336444,3.54991,0.86088,0.57399,0.21115
1702332282101562,-9.119932,0.333444,3.34991,0.64788,0.58499,0.13015
1702332282109375,-9.147932,0.324444,2.998991,0.65288,0.71499,0.13215
1702332282117187,-9.120932,0.276444,2.989991,0.61788,0.61699,0.8215
1702332282125000,-9.81932,0.230444,3.9991,0.49188,0.52499,0.315
1702332282132812,-9.44932,0.183444,2.991991,0.39588,0.55699,0.1915
1702332282140625,-9.28932,0.140444,2.973991,0.42788,0.58799,0.1285
1702332282148437,-9.74932,0.106444,2.928991,0.42788,0.71399,0.3515
1702332282156250,-9.142932,0.84444,2.899991,0.37488,0.75699,0.1815
1702332282164062,-9.202932,0.76444,2.883991,0.42288,0.77299,0.11415
1702332282171875,-9.263932,0.70444,2.928991,0.42188,0.84899,0.5015
1702332282179687,-9.332932,0.67444,3.991,0.45688,0.80399,0.3415
1702332282187500,-9.426932,0.80444,3.98991,0.40888,0.71199,0.5115
1702332282195312,-9.487932,0.85444,3.220991,0.39188,0.71099,0.6615
1702332282203125,-9.539932,0.76444,3.317991,0.42988,0.66999,0.8415
1702332282210937,-9.554932,0.84444,3.355991,0.42388,0.66499,0.14715
1702332282218750,-9.545932,0.82444,3.362991,0.40888,0.72899,0.13115
1702332282226562,-9.536932,0.106444,3.355991,0.42188,0.89899,0.14615
1702332282234375,-9.521932,0.134444,3.330991,0.43788,0.107099,0.13015
1702332282242187,-9.492932,0.141444,3.296991,0.37288,0.110199,0.14615
1702332282250000,-9.445932,0.158444,3.278991,0.35688,0.121099,0.13015
1702332282257812,-9.383932,0.174444,3.283991,0.30788,0.114699,0.14615
1702332282265625,-9.334932,0.177444,3.253991,0.22388,0.103399,0.9715
1702332282273437,-9.263932,0.180444,3.305991,0.33588,0.95499,0.9615
1702332282281250,-9.206932,0.184444,3.181991,0.35688,0.81999,0.13015
1702332282289062,-9.178932,0.212444,3.113991,0.11488,0.80099,0.3315
1702332282296875,-9.221932,0.237444,3.163991,0.12812,0.73899,0.8115
1702332282304687,-9.239932,0.244444,3.59991,0.9312,0.62999,0.215
1702332282312500,-9.257932,0.278444,3.45991,0.14012,0.63199,0.3415
1702332282320312,-9.282932,0.287444,3.54991,0.7912,0.58099,0.115
1702332282328125,-9.318932,0.312444,3.115991,0.6112,0.48999,0.5015
1702332282335937,-9.345932,0.303444,3.165991,0.6312,0.51899,0.1715
1702332282343750,-9.365932,0.273444,3.199991,0.6788,0.45699,0.4685
1702332282351562,-9.387932,0.262444,3.253991,0.14888,0.55099,0.6285
1702332282359375,-9.390932,0.236444,3.271991,0.21788,0.58699,0.4485
1702332282367187,-9.361932,0.194444,3.285991,0.36188,0.67899,0.6185
1702332282375000,-9.301932,0.158444,3.285991,0.40488,0.81399,0.14385
1702332282382812,-9.240932,0.143444,3.319991,0.56888,0.90999,0.15885
1702332282390625,-9.191932,0.136444,3.341991,0.57988,0.99899,0.17585
1702332282398437,-9.143932,0.134444,3.319991,0.61588,0.104899,0.19085
1702332282406250,-9.120932,0.144444,3.310991,0.63588,0.105199,0.22185
1702332282414062,-9.112932,0.145444,3.312991,0.65088,0.97199,0.30285
1702332282421875,-9.108932,0.142444,3.325991,0.51988,0.84399,0.31985
1702332282429687,-9.121932,0.146444,3.323991,0.49288,0.83099,0.43085
1702332282437500,-9.137932,0.152444,3.323991,0.54088,0.61199,0.44685
1702332282445312,-9.144932,0.166444,3.285991,0.46188,0.59699,0.44685
1702332282453125,-9.175932,0.186444,3.292991,0.51188,0.62899,0.52685
1702332282460937,-9.229932,0.207444,3.262991,0.61188,0.59699,0.67085
1702332282468750,-9.281932,0.221444,3.251991,0.62888,0.56599,0.73485
1702332282476562,-9.315932,0.226444,3.253991,0.60988,0.56399,0.71885
1702332282484375,-9.311932,0.209444,3.274991,0.67988,0.58399,0.76585
1702332282492187,-9.287932,0.179444,3.326991,0.61188,0.65899,0.71885
1702332282500000,-9.260932,0.159444,3.339991,0.56288,0.76799,0.76685
1702332282507812,-9.264932,0.139444,3.332991,0.65988,0.68999,0.76685
1702332282515625,-9.264932,0.116444,3.319991,0.63988,0.73499,0.70385
1702332282523437,-9.259932,0.94444,3.305991,0.55788,0.70299,0.63985
1702332282531250,-9.258932,0.77444,3.294991,0.53088,0.72299,0.66985
1702332282539062,-9.276932,0.78444,3.296991,0.44988,0.67799,0.55785
1702332282546875,-9.312932,0.86444,3.319991,0.38188,0.69099,0.52685
1702332282554687,-9.322932,0.115444,3.321991,0.42888,0.64199,0.51085
1702332282562500,-9.349932,0.149444,3.321991,0.38088,0.65999,0.43085
1702332282570312,-9.372932,0.181444,3.289991,0.34988,0.67599,0.46185
1702332282578125,-9.363932,0.201444,3.258991,0.38388,0.72499,0.41385
1702332282585937,-9.349932,0.228444,3.226991,0.33688,0.66499,0.39685
1702332282593750,-9.325932,0.235444,3.226991,0.28488,0.67799,0.36585
1702332282601562,-9.287932,0.244444,3.204991,0.23988,0.66399,0.41285
1702332282609375,-9.268932,0.254444,3.231991,0.31488,0.67499,0.41485
1702332282617187,-9.243932,0.252444,3.258991,0.35088,0.66199,0.46185
1702332282625000,-9.222932,0.232444,3.280991,0.31888,0.66199,0.47785
1702332282632812,-9.215932,0.221444,3.287991,0.27088,0.67799,0.46185
1702332282640625,-9.184932,0.204444,3.285991,0.33188,0.72099,0.49485
1702332282648437,-9.161932,0.191444,3.285991,0.28788,0.75499,0.57385
1702332282656250,-9.139932,0.172444,3.273991,0.13888,0.76799,0.46285
1702332282664062,-9.123932,0.154444,3.251991,0.12288,0.81499,0.51085
1702332282671875,-9.152932,0.128444,3.328991,0.2588,0.82999,0.47885
1702332282679687,-9.167932,0.90444,3.316991,0.4188,0.68799,0.59185
1702332282687500,-9.194932,0.66444,3.84991,0.8988,0.59199,0.63985
1702332282695312,-9.184932,0.87444,3.149991,0.15788,0.69099,0.60685
1702332282703125,-9.219932,0.122444,3.366991,0.2412,0.71899,0.51185
1702332282710937,-9.228932,0.149444,3.452991,0.23112,0.68999,0.52685
1702332282718750,-9.254932,0.137444,3.253991,0.21112,0.50599,0.50985
1702332282726562,-9.275932,0.159444,3.197991,0.10112,0.59799,0.46185
1702332282734375,-9.264932,0.197444,3.319991,0.16512,0.62999,0.46185
1702332282742187,-9.289932,0.224444,3.256991,0.37412,0.47399,0.47785
1702332282750000,-9.319932,0.219444,3.310991,0.37812,0.70399,0.46285
1702332282757812,-9.333932,0.217444,3.328991,0.39412,0.54599,0.55985
1702332282765625,-9.332932,0.211444,3.312991,0.37512,0.59599,0.57485
1702332282773437,-9.317932,0.199444,3.328991,0.39312,0.59499,0.49485
1702332282781250,-9.319932,0.203444,3.378991,0.37812,0.48399,0.49585
1702332282789062,-9.330932,0.224444,3.402991,0.39112,0.47399,0.42985
1702332282796875,-9.326932,0.258444,3.387991,0.37412,0.42799,0.39685
1702332282804687,-9.335932,0.285444,3.344991,0.42212,0.39899,0.28485
1702332282812500,-9.329932,0.295444,3.301991,0.50712,0.41099,0.26985
1702332282820312,-9.325932,0.324444,3.283991,0.55512,0.42699,0.23785
1702332282828125,-9.292932,0.322444,3.222991,0.54312,0.39299,0.19085
1702332282835937,-9.271932,0.334444,3.192991,0.60712,0.34999,0.3415
1702332282843750,-9.256932,0.338444,3.179991,0.50912,0.22599,0.3515
1702332282851562,-9.278932,0.343444,3.210991,0.42812,0.25799,0.5115
1702332282859375,-9.301932,0.333444,3.251991,0.41712,0.33099,0.3315
1702332282867187,-9.316932,0.343444,3.294991,0.38012,0.42899,0.1915
1702332282875000,-9.322932,0.333444,3.328991,0.39512,0.41499,0.315
1702332282882812,-9.306932,0.322444,3.350991,0.36112,0.44799,0.315
1702332282890625,-9.258932,0.322444,3.357991,0.25412,0.44399,0.5015
1702332282898437,-9.235932,0.307444,3.330991,0.12312,0.44399,0.215
1702332282906250,-9.195932,0.314444,3.328991,0.12512,0.50499,0.1815
1702332282914062,-9.155932,0.321444,3.314991,0.3688,0.55399,0.8215
1702332282921875,-9.141932,0.326444,3.294991,0.10588,0.43199,0.1285
1702332282929687,-9.112932,0.327444,3.282991,0.13988,0.46099,0.23685
1702332282937500,-9.94932,0.323444,3.282991,0.12588,0.44599,0.28485
1702332282945312,-9.115932,0.320444,3.251991,0.17188,0.37899,0.41485
1702332282953125,-9.137932,0.323444,3.210991,0.17388,0.19199,0.47785
1702332282960937,-9.173932,0.335444,3.201991,0.17788,0.19199,0.65385
1702332282968750,-9.251932,0.358444,3.206991,0.34188,0.28699,0.73385
1702332282976562,-9.297932,0.401444,3.197991,0.38788,0.36299,0.71785
1702332282984375,-9.297932,0.416444,3.233991,0.46788,0.25199,0.79885
1702332282992187,-9.292932,0.381444,3.224991,0.76388,0.8499,0.84585
1702332283000000,-9.262932,0.368444,3.82991,0.91188,0.11799,0.87685
1702332283007812,-9.234932,0.373444,3.181991,0.74288,0.29899,0.89485
1702332283015625,-9.235932,0.333444,3.271991,0.77688,0.39399,0.87885
1702332283023437,-9.212932,0.289444,3.197991,0.93788,0.31499,0.89485
1702332283031250,-9.190932,0.273444,3.179991,0.90488,0.42399,0.92685
1702332283039062,-9.209932,0.258444,3.255991,0.97088,0.51999,0.90985
1702332283046875,-9.210932,0.250444,3.312991,0.91888,0.45399,0.87985
1702332283054687,-9.234932,0.247444,3.296991,0.87388,0.45699,0.87785
1702332283062500,-9.262932,0.253444,3.276991,0.64188,0.51399,0.89685
1702332283070312,-9.283932,0.268444,3.265991,0.66388,0.44199,0.86185
1702332283078125,-9.317932,0.253444,3.265991,0.56588,0.48699,0.83085
1702332283085937,-9.338932,0.250444,3.242991,0.38388,0.45299,0.78385
1702332283093750,-9.362932,0.244444,3.217991,0.35488,0.37799,0.75085
1702332283101562,-9.370932,0.225444,3.238991,0.16088,0.34799,0.68585
1702332283109375,-9.381932,0.216444,3.247991,0.14588,0.33299,0.68585
1702332283117187,-9.385932,0.203444,3.228991,0.188,0.36499,0.70185
1702332283125000,-9.392932,0.187444,3.222991,0.13112,0.34699,0.59085
1702332283132812,-9.367932,0.181444,3.242991,0.16312,0.42699,0.55785
1702332283140625,-9.345932,0.174444,3.222991,0.37312,0.41099,0.50985
1702332283148437,-9.331932,0.171444,3.210991,0.37312,0.45799,0.54185
1702332283156250,-9.329932,0.189444,3.186991,0.42312,0.42599,0.42985
1702332283164062,-9.318932,0.195444,3.179991,0.55412,0.56699,0.36585
1702332283171875,-9.314932,0.226444,3.183991,0.55512,0.51899,0.33485
1702332283179687,-9.320932,0.241444,3.197991,0.57512,0.46999,0.25485
1702332283187500,-9.318932,0.274444,3.195991,0.62312,0.51799,0.22285
1702332283195312,-9.315932,0.296444,3.197991,0.64912,0.49299,0.22085
1702332283203125,-9.322932,0.327444,3.208991,0.63312,0.55699,0.12385
1702332283210937,-9.320932,0.342444,3.210991,0.65412,0.63399,0.3515
1702332283218750,-9.325932,0.360444,3.201991,0.70312,0.64899,0.3515
1702332283226562,-9.334932,0.373444,3.195991,0.65612,0.63299,0.8315
1702332283234375,-9.332932,0.377444,3.190991,0.65812,0.73999,0.6615
1702332283242187,-9.330932,0.379444,3.176991,0.64112,0.70899,0.5015
1702332283250000,-9.301932,0.390444,3.199991,0.65712,0.78999,0.13115
1702332283257812,-9.263932,0.383444,3.219991,0.60812,0.83499,0.5015
1702332283265625,-9.245932,0.380444,3.231991,0.67212,0.83399,0.2985
1702332283273437,-9.247932,0.380444,3.219991,0.59212,0.80199,0.2985
1702332283281250,-9.238932,0.382444,3.188991,0.59212,0.75599,0.2985
1702332283289062,-9.243932,0.389444,3.149991,0.59012,0.80099,0.17385
1702332283296875,-9.261932,0.397444,3.120991,0.62512,0.68899,0.19085
1702332283304687,-9.262932,0.424444,3.115991,0.52612,0.68999,0.28685
1702332283312500,-9.282932,0.466444,3.120991,0.57412,0.68899,0.31885
1702332283320312,-9.292932,0.480444,3.140991,0.65512,0.62599,0.35085
1702332283328125,-9.281932,0.488444,3.167991,0.63912,0.54599,0.43185
1702332283335937,-9.284932,0.503444,3.192991,0.59912,0.53699,0.46085
1702332283343750,-9.265932,0.500444,3.222991,0.56912,0.50199,0.57485
1702332283351562,-9.270932,0.506444,3.222991,0.42312,0.42299,0.59085
1702332283359375,-9.240932,0.518444,3.213991,0.48412,0.48899,0.60585
1702332283367187,-9.234932,0.532444,3.194991,0.48712,0.54799,0.70285
1702332283375000,-9.202932,0.544444,3.176991,0.46712,0.64499,0.68585
1702332283382812,-9.182932,0.552444,3.183991,0.48412,0.67299,0.83085
1702332283390625,-9.167932,0.553444,3.176991,0.43912,0.65699,0.73485
1702332283398437,-9.154932,0.557444,3.253991,0.37412,0.59299,0.78385
1702332283406250,-9.143932,0.530444,3.86991,0.32612,0.29499,0.78385
1702332283414062,-9.176932,0.508444,2.948991,0.19812,0.13899,0.73585
1702332283421875,-9.236932,0.505444,3.133991,0.14612,0.14199,0.73485
1702332283429687,-9.330932,0.526444,3.224991,0.35212,0.17699,0.71785
1702332283437500,-9.346932,0.528444,3.210991,0.38712,0.17599,0.63785
1702332283445312,-9.424932,0.504444,3.52991,0.19412,0.8199,0.57385
1702332283453125,-9.435932,0.538444,3.165991,0.17912,0.22399,0.52585
1702332283460937,-9.371932,0.566444,3.271991,0.37312,0.25499,0.47785
1702332283468750,-9.375932,0.566444,3.183991,0.38712,0.28699,0.52585
1702332283476562,-9.367932,0.551444,3.204991,0.35312,0.43199,0.47585
1702332283484375,-9.385932,0.538444,3.242991,0.33912,0.55399,0.47685
1702332283492187,-9.368932,0.539444,3.258991,0.19612,0.58399,0.46185
1702332283500000,-9.330932,0.543444,3.280991,0.16412,0.61499,0.42985
1702332283507812,-9.301932,0.540444,3.344991,0.26212,0.58299,0.42985
1702332283515625,-9.283932,0.544444,3.346991,0.35912,0.37899,0.44585
1702332283523437,-9.286932,0.542444,3.301991,0.39212,0.42499,0.41385
1702332283531250,-9.308932,0.540444,3.242991,0.37512,0.37799,0.46285
1702332283539062,-9.318932,0.541444,3.206991,0.38712,0.35199,0.41285
1702332283546875,-9.355932,0.566444,3.183991,0.37412,0.42699,0.44585
1702332283554687,-9.379932,0.575444,3.181991,0.30712,0.42999,0.38085
1702332283562500,-9.378932,0.603444,3.179991,0.26312,0.52099,0.34985
1702332283570312,-9.371932,0.635444,3.181991,0.19812,0.58499,0.28485
1702332283578125,-9.369932,0.650444,3.174991,0.15112,0.61699,0.17285
1702332283585937,-9.373932,0.645444,3.165991,0.7812,0.67599,0.3085
1702332283593750,-9.365932,0.643444,3.170991,0.6988,0.66399,0.1815
1702332283601562,-9.356932,0.646444,3.185991,0.7188,0.72899,0.8315
1702332283609375,-9.375932,0.638444,3.206991,0.13088,0.81799,0.11415
1702332283617187,-9.372932,0.636444,3.237991,0.14688,0.83399,0.11415
1702332283625000,-9.387932,0.628444,3.292991,0.14888,0.89899,0.14715
1702332283632812,-9.391932,0.617444,3.341991,0.31088,0.99399,0.13115
1702332283640625,-9.367932,0.592444,3.409991,0.29288,0.96099,0.16215
1702332283648437,-9.334932,0.555444,3.445991,0.31288,0.98099,0.18015
1702332283656250,-9.280932,0.500444,3.456991,0.35788,0.97899,0.22715
1702332283664062,-9.205932,0.460444,3.468991,0.39188,0.94799,0.21115
1702332283671875,-9.163932,0.445444,3.443991,0.51788,0.105599,0.25915
1702332283679687,-9.165932,0.439444,3.427991,0.43688,0.114799,0.16215
1702332283687500,-9.179932,0.466444,3.391991,0.48688,0.125899,0.14715
1702332283695312,-9.155932,0.469444,3.366991,0.38788,0.119399,0.13015
1702332283703125,-9.146932,0.473444,3.382991,0.41988,0.113099,0.9815
1702332283710937,-9.107932,0.467444,3.445991,0.47388,0.85299,0.3515
1702332283718750,-9.107932,0.463444,3.366991,0.60688,0.52899,0.6815
1702332283726562,-9.92932,0.486444,3.296991,0.50488,0.58599,0.5015
1702332283734375,-9.133932,0.506444,3.384991,0.30988,0.64599,0.1815
1702332283742187,-9.163932,0.481444,3.314991,0.43088,0.49599,0.4385
1702332283750000,-9.167932,0.486444,3.264991,0.53388,0.59799,0.1715
1702332283757812,-9.180932,0.502444,3.271991,0.63388,0.67699,0.9485
1702332283765625,-9.187932,0.495444,3.319991,0.63088,0.67599,0.1715
1702332283773437,-9.193932,0.492444,3.348991,0.66788,0.71299,0.5115
1702332283781250,-9.202932,0.468444,3.357991,0.74788,0.66299,0.7785
1702332283789062,-9.210932,0.464444,3.391991,0.81388,0.68099,0.2885
1702332283796875,-9.217932,0.457444,3.414991,0.90988,0.72799,0.5115
1702332283804687,-9.228932,0.455444,3.463991,0.90788,0.74199,0.1815
1702332283812500,-9.241932,0.462444,3.459991,0.92588,0.77699,0.11515
1702332283820312,-9.263932,0.449444,3.456991,0.92788,0.69899,0.6815
1702332283828125,-9.287932,0.433444,3.441991,0.98488,0.73999,0.14515
1702332283835937,-9.313932,0.425444,3.425991,0.95588,0.74399,0.13115
1702332283843750,-9.324932,0.432444,3.447991,0.103788,0.69799,0.14715
1702332283851562,-9.333932,0.453444,3.425991,0.95988,0.66899,0.13215
1702332283859375,-9.354932,0.468444,3.454991,0.87588,0.66599,0.13115
1702332283867187,-9.365932,0.475444,3.475991,0.86188,0.66799,0.14715
1702332283875000,-9.343932,0.470444,3.490991,0.85988,0.68099,0.13115
1702332283882812,-9.325932,0.454444,3.493991,0.79488,0.71199,0.14715
1702332283890625,-9.289932,0.427444,3.488991,0.76188,0.69599,0.13015
1702332283898437,-9.248932,0.407444,3.472991,0.68188,0.77599,0.16315
1702332283906250,-9.188932,0.371444,3.468991,0.66988,0.84099,0.14815
1702332283914062,-9.139932,0.356444,3.456991,0.77788,0.71299,0.22715
1702332283921875,-9.108932,0.336444,3.438991,0.76188,0.69799,0.24315
1702332283929687,-9.104932,0.322444,3.411991,0.65388,0.68799,0.29315
1702332283937500,-9.127932,0.320444,3.377991,0.71788,0.63999,0.30915
1702332283945312,-9.141932,0.322444,3.359991,0.65088,0.63799,0.29215
1702332283953125,-9.164932,0.321444,3.355991,0.64588,0.64899,0.33815
1702332283960937,-9.210932,0.309444,3.368991,0.64788,0.57499,0.40415
1702332283968750,-9.244932,0.311444,3.420991,0.76088,0.44999,0.45215
1702332283976562,-9.287932,0.320444,3.434991,0.78888,0.55499,0.40215
1702332283984375,-9.341932,0.296444,3.432991,0.85288,0.58599,0.41815
1702332283992187,-9.352932,0.290444,3.429991,0.79088,0.52599,0.45115
1702332284000000,-9.315932,0.259444,3.411991,0.77388,0.63599,0.53115
1702332284007812,-9.241932,0.225444,3.427991,0.90288,0.71399,0.49915
1702332284015625,-9.194932,0.197444,3.436991,0.91688,0.69699,0.51415
1702332284023437,-9.137932,0.168444,3.425991,0.91988,0.69999,0.53115
1702332284031250,-9.31932,0.155444,3.384991,0.94988,0.69799,0.49915
1702332284039062,-8.943932,0.150444,3.330991,0.93888,0.63999,0.53215
1702332284046875,-8.851932,0.140444,3.312991,0.90588,0.60799,0.50015
1702332284054687,-8.788932,0.132444,3.282991,0.85988,0.45199,0.42015
1702332284062500,-8.764932,0.116444,3.199991,0.68188,0.27799,0.38815
1702332284070312,-8.793932,0.114444,3.133991,0.63488,0.18399,0.29215
1702332284078125,-8.872932,0.131444,3.104991,0.60388,0.13699,0.22815
1702332284085937,-8.996932,0.145444,3.79991,0.43288,0.1599,0.16515
1702332284093750,-9.139932,0.167444,3.70991,0.40788,0.5399,0.11415
1702332284101562,-9.282932,0.155444,3.68991,0.28288,0.6801,0.11515
1702332284109375,-9.458932,0.131444,3.102991,0.12388,0.5799,0.315
1702332284117187,-9.621932,0.121444,3.138991,0.7488,0.7499,0.8415
1702332284125000,-9.694932,0.106444,3.188991,0.188,0.22099,0.3315
1702332284132812,-9.693932,0.87444,3.351991,0.10912,0.38099,0.8215
1702332284140625,-9.645932,0.45444,3.335991,0.5288,0.39899,0.14715
1702332284148437,-9.658932,0.16556,3.150991,0.14988,0.32099,0.16215
1702332284156250,-9.638932,0.23556,3.292991,0.11388,0.52399,0.29015
1702332284164062,-9.613932,0.25556,3.436991,0.12988,0.74399,0.37115
1702332284171875,-9.542932,0.4444,3.461991,0.14412,0.80699,0.38715
1702332284179687,-9.502932,0.5556,3.265991,0.3812,0.64799,0.62615
1702332284187500,-9.493932,0.45444,3.301991,0.12488,0.87099,0.69115
1702332284195312,-9.344932,0.150444,3.524991,0.14612,0.74899,0.75615
1702332284203125,-9.291932,0.185444,3.452991,0.37012,0.51599,0.78915
1702332284210937,-9.253932,0.204444,3.396991,0.43612,0.54499,0.75615
1702332284218750,-9.211932,0.214444,3.436991,0.40212,0.48399,0.69315
1702332284226562,-9.198932,0.236444,3.434991,0.40112,0.43699,0.64515
1702332284234375,-9.198932,0.252444,3.382991,0.36812,0.38899,0.58115
1702332284242187,-9.189932,0.260444,3.384991,0.35012,0.35799,0.46815
1702332284250000,-9.160932,0.280444,3.400991,0.28312,0.29599,0.38915
1702332284257812,-9.138932,0.261444,3.386991,0.23812,0.33999,0.37215
1702332284265625,-9.90932,0.223444,3.373991,0.10812,0.21499,0.37215
1702332284273437,-9.51932,0.168444,3.346991,0.888,0.32599,0.24415
1702332284281250,-9.48932,0.114444,3.352991,0.7288,0.30999,0.26015
1702332284289062,-9.58932,0.82444,3.362991,0.17388,0.45499,0.23015
1702332284296875,-9.74932,0.73444,3.391991,0.34888,0.43799,0.22915
1702332284304687,-9.92932,0.69444,3.377991,0.44388,0.38799,0.24415
1702332284312500,-9.113932,0.63444,3.368991,0.61588,0.39999,0.25915
1702332284320312,-9.120932,0.57444,3.344991,0.63288,0.32199,0.24315
1702332284328125,-9.124932,0.36444,3.325991,0.79188,0.16399,0.30615
1702332284335937,-9.98932,0.35444,3.305991,0.87888,0.13899,0.27615
1702332284343750,-9.76932,0.4444,3.287991,0.102488,0.1399,0.26015
1702332284351562,-9.77932,0.13444,3.273991,0.117488,0.3001,0.18115
1702332284359375,-9.59932,0.13444,3.240991,0.120788,0.7701,0.14915
1702332284367187,-8.983932,0.12444,3.160991,0.127188,0.3001,0.14915
1702332284375000,-8.900932,0.4444,3.118991,0.128788,0.4701,0.8515
1702332284382812,-8.912932,0.6556,3.72991,0.128788,0.201,0.415
1702332284390625,-8.988932,0.0,2.991991,0.112788,0.3501,0.18885
1702332284398437,-9.84932,0.20444,2.926991,0.110088,0.5999,0.37985
1702332284406250,-9.149932,0.36444,2.921991,0.93988,0.18199,0.55585
1702332284414062,-9.225932,0.51444,2.978991,0.84488,0.15099,0.65185
1702332284421875,-9.374932,0.39444,3.61991,0.75988,0.14499,0.76585
1702332284429687,-9.526932,0.26444,3.104991,0.58688,0.20999,0.86085
1702332284437500,-9.624932,0.7556,3.159991,0.48688,0.22199,0.87885
1702332284445312,-9.695932,0.43556,3.224991,0.47288,0.16099,0.89385
1702332284453125,-9.762932,0.80556,3.217991,0.65088,0.22399,0.87785
1702332284460937,-9.804932,0.70556,3.299991,0.43688,0.58299,0.79785
1702332284468750,-9.806932,0.97556,3.369991,0.12888,0.64499,0.66985
1702332284476562,-9.768932,0.155556,3.301991,0.21988,0.76899,0.46285
1702332284484375,-9.708932,0.191556,3.310991,0.22088,0.92699,0.46185
1702332284492187,-9.610932,0.187556,3.342991,0.15188,0.98899,0.25385
1702332284500000,-9.508932,0.157556,3.403991,0.14788,0.108299,0.3085
1702332284507812,-9.412932,0.107556,3.439991,0.4312,0.96099,0.5115
1702332284515625,-9.337932,0.45556,3.380991,0.12712,0.94299,0.8215
1702332284523437,-9.249932,0.22444,3.348991,0.27212,0.92899,0.14615
1702332284531250,-9.144932,0.69444,3.307991,0.35212,0.88199,0.13015
1702332284539062,-9.63932,0.90444,3.255991,0.35112,0.81999,0.14715
1702332284546875,-9.37932,0.102444,3.197991,0.45012,0.72399,0.13015
1702332284554687,-9.12932,0.97444,3.149991,0.61012,0.67799,0.13015
1702332284562500,-8.985932,0.89444,3.124991,0.64112,0.63299,0.14715
1702332284570312,-8.971932,0.85444,3.113991,0.65312,0.58899,0.10015
1702332284578125,-9.932,0.101444,3.106991,0.65112,0.57199,0.2785
1702332284585937,-9.83932,0.90444,3.104991,0.68712,0.61599,0.315
1702332284593750,-9.188932,0.72444,3.113991,0.70412,0.72499,0.4585
1702332284601562,-9.246932,0.58444,3.134991,0.55712,0.75999,0.3515
1702332284609375,-9.276932,0.28444,3.186991,0.48912,0.76099,0.2785
1702332284617187,-9.310932,0.4444,3.262991,0.50812,0.79199,0.10015
1702332284625000,-9.350932,0.21556,3.317991,0.37812,0.77599,0.415
1702332284632812,-9.385932,0.29556,3.339991,0.40912,0.88699,0.5215
1702332284640625,-9.408932,0.27556,3.335991,0.26812,0.85299,0.8315
1702332284648437,-9.402932,0.3444,3.310991,0.13612,0.74599,0.6815
1702332284656250,-9.365932,0.44444,3.308991,0.12212,0.76099,0.14815
1702332284664062,-9.347932,0.86444,3.292991,0.812,0.80899,0.14815
1702332284671875,-9.350932,0.142444,3.283991,0.9188,0.71699,0.10115
1702332284679687,-9.329932,0.196444,3.301991,0.12088,0.74399,0.3515
1702332284687500,-9.307932,0.234444,3.332991,0.9188,0.72899,0.14085
1702332284695312,-9.289932,0.265444,3.328991,0.14288,0.63699,0.21985
1702332284703125,-9.256932,0.275444,3.328991,0.12888,0.66699,0.36385
1702332284710937,-9.225932,0.272444,3.323991,0.14488,0.66399,0.49285
1702332284718750,-9.202932,0.251444,3.296991,0.9388,0.59999,0.46185
1702332284726562,-9.167932,0.224444,3.283991,0.1188,0.56499,0.59085
1702332284734375,-9.144932,0.199444,3.262991,0.1188,0.63999,0.71985
1702332284742187,-9.120932,0.180444,3.251991,0.4712,0.70799,0.74985
1702332284750000,-9.109932,0.169444,3.212991,0.12612,0.73899,0.82985
1702332284757812,-9.91932,0.139444,3.179991,0.6312,0.67299,0.92685
1702332284765625,-9.96932,0.136444,3.174991,0.4712,0.68599,0.105585
1702332284773437,-9.124932,0.117444,3.179991,0.3012,0.73499,0.100685
1702332284781250,-9.158932,0.98444,3.183991,0.288,0.60999,0.105485
1702332284789062,-9.214932,0.118444,3.163991,0.8288,0.54799,0.100685
1702332284796875,-9.290932,0.147444,3.219991,0.2712,0.56599,0.100585
1702332284804687,-9.369932,0.167444,3.283991,0.9988,0.48699,0.95885
1702332284812500,-9.410932,0.185444,3.299991,0.3112,0.45399,0.91085
1702332284820312,-9.446932,0.193444,3.299991,0.3588,0.44099,0.92585
1702332284828125,-9.455932,0.199444,3.305991,0.2988,0.53199,0.78285
1702332284835937,-9.446932,0.201444,3.321991,0.11612,0.63999,0.76785
1702332284843750,-9.416932,0.191444,3.323991,0.11212,0.72299,0.73385
1702332284851562,-9.383932,0.185444,3.420991,0.18012,0.84599,0.65485
1702332284859375,-9.334932,0.171444,3.353991,0.24712,0.75099,0.60685
1702332284867187,-9.304932,0.142444,3.91991,0.11512,0.66099,0.52585
1702332284875000,-9.282932,0.166444,3.161991,0.10212,0.65999,0.47785
1702332284882812,-9.280932,0.210444,3.353991,0.21512,0.70599,0.46285
1702332284890625,-9.280932,0.253444,3.420991,0.38912,0.70999,0.41285
1702332284898437,-9.285932,0.259444,3.208991,0.37612,0.56799,0.33385
1702332284906250,-9.291932,0.294444,3.143991,0.38112,0.53399,0.25485
1702332284914062,-9.307932,0.339444,3.292991,0.41112,0.45799,0.22185
1702332284921875,-9.339932,0.366444,3.188991,0.61812,0.41199,0.25385
1702332284929687,-9.361932,0.382444,3.231991,0.65512,0.59899,0.9385
1702332284937500,-9.400932,0.351444,3.314991,0.59912,0.62299,0.4285
1702332284945312,-9.461932,0.328444,3.287991,0.52412,0.47799,0.1915
1702332284953125,-9.462932,0.296444,3.308991,0.37712,0.57399,0.5215
1702332284960937,-9.449932,0.264444,3.400991,0.35112,0.58599,0.14715
1702332284968750,-9.420932,0.261444,3.479991,0.31912,0.58499,0.13015
1702332284976562,-9.382932,0.227444,3.497991,0.19112,0.64799,0.19415
1702332284984375,-9.327932,0.218444,3.477991,0.9212,0.68399,0.30815
1702332284992187,-9.300932,0.220444,3.475991,0.5088,0.71499,0.40415
1702332285000000,-9.265932,0.217444,3.445991,0.13088,0.69899,0.41915
1702332285007812,-9.220932,0.218444,3.429991,0.11388,0.82299,0.38715
1702332285015625,-9.154932,0.245444,3.393991,0.23988,0.85099,0.38615
1702332285023437,-9.96932,0.264444,3.366991,0.27288,0.74299,0.41815
1702332285031250,-9.47932,0.284444,3.361991,0.35488,0.68199,0.45115
1702332285039062,-9.38932,0.287444,3.314991,0.35288,0.55399,0.43415
1702332285046875,-9.51932,0.271444,3.368991,0.47188,0.44999,0.38815
1702332285054687,-9.100932,0.263444,3.328991,0.50488,0.24699,0.35615
1702332285062500,-9.77932,0.265444,3.142991,0.52388,0.15399,0.27615
1702332285070312,-9.86932,0.258444,3.102991,0.55688,0.15299,0.19615
1702332285078125,-9.111932,0.278444,3.104991,0.71788,0.12099,0.18015
1702332285085937,-9.156932,0.288444,3.120991,0.66888,0.10399,0.9915
1702332285093750,-9.192932,0.298444,3.129991,0.81988,0.10699,0.2785
1702332285101562,-9.186932,0.272444,3.158991,0.91188,0.25499,0.23885
1702332285109375,-9.204932,0.252444,3.194991,0.85988,0.40899,0.23885
1702332285117187,-9.237932,0.208444,3.185991,0.94888,0.58799,0.31685
1702332285125000,-9.275932,0.145444,3.181991,0.91088,0.79899,0.39885
1702332285132812,-9.308932,0.118444,3.240991,0.96188,0.92599,0.46285
1702332285140625,-9.312932,0.58444,3.298991,0.96288,0.95699,0.52685
1702332285148437,-9.345932,0.21444,3.335991,0.91388,0.97299,0.51085
1702332285156250,-9.361932,0.26556,3.350991,0.91688,0.92899,0.46185
1702332285164062,-9.386932,0.50556,3.251991,0.105988,0.74099,0.39785
1702332285171875,-9.385932,0.11556,3.242991,0.79688,0.86199,0.35085
1702332285179687,-9.436932,0.36444,3.362991,0.65488,0.89799,0.22185
1702332285187500,-9.467932,0.6444,3.341991,0.65688,0.71299,0.20485
1702332285195312,-9.481932,0.10444,3.335991,0.63688,0.69599,0.9285
1702332285203125,-9.484932,0.27444,3.405991,0.77988,0.81999,0.4585
1702332285210937,-9.471932,0.49444,3.488991,0.76188,0.89899,0.5015
1702332285218750,-9.458932,0.57444,3.506991,0.63188,0.80299,0.3415
1702332285226562,-9.425932,0.70444,3.504991,0.59788,0.87999,0.6515
1702332285234375,-9.384932,0.74444,3.500991,0.42288,0.89799,0.6615
1702332285242187,-9.339932,0.76444,3.502991,0.32688,0.91599,0.13115
1702332285250000,-9.283932,0.102444,3.488991,0.24788,0.88599,0.14715
1702332285257812,-9.232932,0.116444,3.432991,0.13088,0.81899,0.13015
1702332285265625,-9.180932,0.123444,3.391991,0.11588,0.80599,0.21115
1702332285273437,-9.149932,0.126444,3.355991,0.11688,0.75899,0.17915
1702332285281250,-9.130932,0.121444,3.321991,0.7988,0.67799,0.27415
1702332285289062,-9.124932,0.108444,3.298991,0.13288,0.66599,0.25915
1702332285296875,-9.135932,0.109444,3.278991,0.13488,0.68499,0.34015
1702332285304687,-9.147932,0.104444,3.283991,0.11388,0.69599,0.30715
1702332285312500,-9.132932,0.107444,3.287991,0.18488,0.59299,0.32515
1702332285320312,-9.128932,0.98444,3.312991,0.32688,0.51299,0.35615
1702332285328125,-9.136932,0.97444,3.339991,0.40488,0.52599,0.37115
1702332285335937,-9.131932,0.106444,3.348991,0.56688,0.50999,0.33915
1702332285343750,-9.130932,0.110444,3.341991,0.62988,0.50799,0.32215
1702332285351562,-9.118932,0.99444,3.321991,0.71288,0.55799,0.30715
1702332285359375,-9.86932,0.77444,3.296991,0.90788,0.62099,0.29115
1702332285367187,-9.68932,0.52444,3.289991,0.92288,0.57199,0.21115
1702332285375000,-9.74932,0.41444,3.316991,0.108588,0.58899,0.17915
1702332285382812,-9.89932,0.9444,3.337991,0.115488,0.49799,0.13215
1702332285390625,-9.80932,0.2556,3.337991,0.120188,0.41799,0.11515
1702332285398437,-9.73932,0.19556,3.334991,0.122288,0.29399,0.5985
1702332285406250,-9.99932,0.32556,3.348991,0.130688,0.18599,0.18785
1702332285414062,-9.139932,0.40556,3.325991,0.129088,0.15399,0.21985
1702332285421875,-9.165932,0.48556,3.296991,0.118188,0.17299,0.26685
1702332285429687,-9.203932,0.54556,3.283991,0.115788,0.14699,0.36585
1702332285437500,-9.238932,0.63556,3.258991,0.117988,0.8301,0.44485
1702332285445312,-9.262932,0.65556,3.247991,0.116488,0.7499,0.42785
1702332285453125,-9.278932,0.69556,3.226991,0.118288,0.401,0.53985
1702332285460937,-9.305932,0.72556,3.210991,0.112988,0.13099,0.60585
1702332285468750,-9.312932,0.65556,3.217991,0.111588,0.11899,0.54085
1702332285476562,-9.307932,0.82556,3.210991,0.105088,0.19599,0.60485
1702332285484375,-9.301932,0.87556,3.228991,0.106388,0.23999,0.60585
1702332285492187,-9.307932,0.89556,3.260991,0.98488,0.27099,0.65385
1702332285500000,-9.309932,0.120556,3.274991,0.91988,0.27199,0.60585
1702332285507812,-9.309932,0.147556,3.303991,0.86988,0.34999,0.57385
1702332285515625,-9.313932,0.158556,3.292991,0.78888,0.36599,0.49385
1702332285523437,-9.353932,0.177556,3.267991,0.64488,0.31899,0.52585
1702332285531250,-9.355932,0.171556,3.244991,0.65688,0.44299,0.41385
1702332285539062,-9.326932,0.171556,3.249991,0.60988,0.39799,0.36485
1702332285546875,-9.301932,0.171556,3.332991,0.54588,0.42999,0.34885
1702332285554687,-9.265932,0.178556,3.393991,0.40188,0.41699,0.23585
1702332285562500,-9.242932,0.196556,3.134991,0.43288,0.16699,0.20485
1702332285570312,-9.200932,0.204556,3.41991,0.47988,0.16599,0.12485
1702332285578125,-9.133932,0.167556,3.206991,0.47788,0.35299,0.10885
1702332285585937,-9.77932,0.156556,3.201991,0.17188,0.43299,0.415
1702332285593750,-9.75932,0.161556,3.104991,0.7488,0.41899,0.5215
1702332285601562,-9.82932,0.136556,3.48991,0.7488,0.35499,0.3615
1702332285609375,-9.76932,0.108556,3.95991,0.4112,0.24399,0.6715
1702332285617187,-9.70932,0.85556,3.48991,0.21912,0.19399,0.1385
1702332285625000,-9.69932,0.88556,3.50991,0.42412,0.22799,0.12485
1702332285632812,-9.121932,0.94556,3.82991,0.52212,0.13199,0.15685
1702332285640625,-9.273932,0.116556,3.88991,0.63112,0.13399,0.22085
1702332285648437,-9.447932,0.125556,3.107991,0.64912,0.16399,0.23685
1702332285656250,-9.541932,0.112556,3.156991,0.71212,0.13399,0.22085
1702332285664062,-9.591932,0.107556,3.220991,0.58212,0.10199,0.34885
1702332285671875,-9.630932,0.91556,3.294991,0.61512,0.5399,0.34885
1702332285679687,-9.667932,0.92556,3.351991,0.62812,0.5799,0.25185
1702332285687500,-9.699932,0.65556,3.317991,0.64512,0.21399,0.25185
1702332285695312,-9.695932,0.25556,3.265991,0.58312,0.33799,0.21985
1702332285703125,-9.668932,0.7444,3.263991,0.53612,0.49499,0.9185
1702332285710937,-9.611932,0.38444,3.294991,0.47712,0.63199,0.2885
1702332285718750,-9.536932,0.79444,3.314991,0.56012,0.64699,0.3415
1702332285726562,-9.459932,0.124444,3.312991,0.51412,0.59899,0.11415
1702332285734375,-9.376932,0.154444,3.337991,0.48112,0.59999,0.14615
1702332285742187,-9.323932,0.178444,3.353991,0.52812,0.58599,0.13115
1702332285750000,-9.274932,0.188444,3.355991,0.62612,0.53799,0.14615
1702332285757812,-9.204932,0.196444,3.348991,0.62312,0.50799,0.9915
1702332285765625,-9.150932,0.188444,3.364991,0.65512,0.50799,0.9915
1702332285773437,-9.108932,0.176444,3.339991,0.67312,0.39799,0.14615
1702332285781250,-9.74932,0.151444,3.332991,0.64212,0.37999,0.6615
1702332285789062,-9.35932,0.127444,3.319991,0.65112,0.32299,0.3615
1702332285796875,-9.23932,0.118444,3.273991,0.63512,0.15099,0.3615
1702332285804687,-9.37932,0.107444,3.240991,0.55312,0.18099,0.9285
1702332285812500,-9.111932,0.129444,3.203991,0.40612,0.21299,0.17285
1702332285820312,-9.185932,0.145444,3.176991,0.39312,0.22599,0.20585
1702332285828125,-9.241932,0.146444,3.176991,0.29512,0.35099,0.22085
1702332285835937,-9.300932,0.148444,3.219991,0.16812,0.41299,0.20585
1702332285843750,-9.357932,0.184444,3.287991,0.3188,0.44999,0.20385
1702332285851562,-9.392932,0.186444,3.319991,0.23888,0.32199,0.22085
1702332285859375,-9.394932,0.159444,3.177991,0.49488,0.18099,0.12485
1702332285867187,-9.369932,0.167444,3.109991,0.46088,0.36899,0.1285
1702332285875000,-9.408932,0.172444,3.229991,0.36088,0.48999,0.7785
1702332285882812,-9.375932,0.114444,3.231991,0.49188,0.47699,0.2885
1702332285890625,-9.335932,0.87444,3.177991,0.65288,0.46099,0.9385
1702332285898437,-9.321932,0.76444,3.208991,0.63988,0.44799,0.9285
1702332285906250,-9.311932,0.65444,3.247991,0.86588,0.51099,0.9185
1702332285914062,-9.327932,0.49444,3.285991,0.88088,0.42999,0.18885
1702332285921875,-9.327932,0.43444,3.262991,0.89788,0.41499,0.18885
1702332285929687,-9.342932,0.28444,3.276991,0.94588,0.43099,0.14085
1702332285937500,-9.349932,0.5444,3.265991,0.107388,0.41399,0.17385
1702332285945312,-9.322932,0.14556,3.240991,0.115388,0.42999,0.7785
1702332285953125,-9.306932,0.36556,3.213991,0.102488,0.41599,0.2885
1702332285960937,-9.285932,0.54556,3.201991,0.92788,0.43099,0.1285
1702332285968750,-9.249932,0.61556,3.186991,0.93088,0.41799,0.7585
1702332285976562,-9.240932,0.70556,3.152991,0.92888,0.46299,0.7685
1702332285984375,-9.226932,0.81556,3.140991,0.86788,0.46699,0.4385
1702332285992187,-9.234932,0.87556,3.111991,0.69088,0.40599,0.2115
1702332286000000,-9.240932,0.90556,3.102991,0.67088,0.46399,0.3515
1702332286007812,-9.231932,0.93556,3.104991,0.65188,0.47699,0.1385
1702332286015625,-9.217932,0.101556,3.91991,0.60588,0.44899,0.5115
1702332286023437,-9.220932,0.100556,3.95991,0.50688,0.49399,0.6715
1702332286031250,-9.215932,0.101556,3.88991,0.50788,0.61999,0.5115
1702332286039062,-9.255932,0.107556,3.73991,0.42788,0.65199,0.8415
1702332286046875,-9.311932,0.98556,3.68991,0.39288,0.63499,0.14715
1702332286054687,-9.364932,0.123556,3.77991,0.32988,0.72899,0.6715
1702332286062500,-9.402932,0.156556,3.129991,0.24788,0.75799,0.3515
1702332286070312,-9.402932,0.167556,3.168991,0.36188,0.75999,0.5115
1702332286078125,-9.372932,0.196556,3.210991,0.37888,0.74499,0.5115
1702332286085937,-9.370932,0.206556,3.271991,0.34288,0.77399,0.9815
1702332286093750,-9.365932,0.211556,3.287991,0.26788,0.80999,0.11615
1702332286101562,-9.354932,0.205556,3.285991,0.29888,0.93499,0.14815
1702332286109375,-9.315932,0.214556,3.292991,0.26688,0.95099,0.13215
1702332286117187,-9.271932,0.208556,3.283991,0.26388,0.94999,0.22815
1702332286125000,-9.207932,0.194556,3.287991,0.23088,0.94799,0.17915
1702332286132812,-9.142932,0.162556,3.249991,0.32888,0.93499,0.26015
1702332286140625,-9.93932,0.138556,3.215991,0.13388,0.86999,0.19515
1702332286148437,-9.48932,0.117556,3.197991,0.13788,0.69999,0.14815
1702332286156250,-9.33932,0.95556,3.174991,0.18388,0.76099,0.13115
1702332286164062,-9.27932,0.69556,3.129991,0.13488,0.68199,0.14715
1702332286171875,-9.96932,0.67556,3.120991,0.12088,0.68399,0.10015
1702332286179687,-9.189932,0.51556,3.154991,0.4112,0.64999,0.6715
1702332286187500,-9.294932,0.29556,3.199991,0.4012,0.63499,0.5115
1702332286195312,-9.358932,0.34556,3.217991,0.1688,0.54599,0.12285
1702332286203125,-9.376932,0.61556,3.271991,0.7888,0.46399,0.20385
1702332286210937,-9.396932,0.69556,3.317991,0.6388,0.43399,0.21985
1702332286218750,-9.413932,0.84556,3.335991,0.2512,0.50399,0.23885
1702332286226562,-9.455932,0.85556,3.355991,0.4288,0.61699,0.23685
1702332286234375,-9.432932,0.100556,3.457991,0.3812,0.67899,0.23685
1702332286242187,-9.430932,0.141556,3.247991,0.10588,0.56899,0.22185
1702332286250000,-9.447932,0.191556,3.131991,0.16988,0.63099,0.18985
1702332286257812,-9.448932,0.181556,3.353991,0.33688,0.74599,0.21985
1702332286265625,-9.453932,0.170556,3.468991,0.18888,0.74399,0.22085
1702332286273437,-9.436932,0.176556,3.482991,0.10388,0.69399,0.15785
1702332286281250,-9.456932,0.169556,3.362991,0.23188,0.53899,0.1915
1702332286289062,-9.403932,0.90556,3.436991,0.31388,0.60399,0.5115
1702332286296875,-9.326932,0.20556,3.531991,0.7288,0.47899,0.6715
1702332286304687,-9.300932,0.19556,3.375991,0.12312,0.41299,0.3415
1702332286312500,-9.277932,0.26556,3.344991,0.14012,0.52199,0.3415
1702332286320312,-9.259932,0.48556,3.341991,0.13912,0.44599,0.5115
1702332286328125,-9.233932,0.85556,3.328991,0.11712,0.38699,0.2785
1702332286335937,-9.221932,0.85556,3.321991,0.12912,0.29499,0.10685
1702332286343750,-9.215932,0.72556,3.357991,0.11312,0.15299,0.18785
1702332286351562,-9.215932,0.55556,3.348991,0.13112,0.13699,0.12385
1702332286359375,-9.222932,0.50556,3.301991,0.14412,0.6099,0.17085
1702332286367187,-9.219932,0.70556,3.237991,0.11312,0.5999,0.13985
1702332286375000,-9.231932,0.86556,3.181991,0.13412,0.3999,0.15685
1702332286382812,-9.233932,0.87556,3.147991,0.11312,0.2699,0.20385
1702332286390625,-9.224932,0.92556,3.115991,0.9812,0.8899,0.20385
1702332286398437,-9.215932,0.95556,3.100991,0.6812,0.10299,0.18885
1702332286406250,-9.184932,0.82556,3.95991,0.3312,0.8899,0.21985
1702332286414062,-9.163932,0.75556,3.88991,0.2388,0.12899,0.20685
1702332286421875,-9.139932,0.67556,3.82991,0.7788,0.7099,0.22085
1702332286429687,-9.103932,0.70556,3.72991,0.12688,0.8699,0.25285
1702332286437500,-9.74932,0.73556,3.77991,0.12788,0.7199,0.26885
1702332286445312,-9.47932,0.77556,3.75991,0.16088,0.8699,0.33285
1702332286453125,-9.24932,0.95556,3.54991,0.22588,0.8699,0.34885
1702332286460937,-9.61932,0.109556,3.36991,0.33388,0.5199,0.31785
1702332286468750,-9.145932,0.111556,3.36991,0.38988,0.15099,0.44385
1702332286476562,-9.224932,0.108556,3.36991,0.27288,0.14699,0.47785
1702332286484375,-9.281932,0.120556,3.59991,0.38888,0.11899,0.47685
1702332286492187,-9.324932,0.142556,3.107991,0.43688,0.10199,0.49285
1702332286500000,-9.360932,0.157556,3.179991,0.41688,0.17699,0.47785
1702332286507812,-9.391932,0.188556,3.208991,0.38688,0.19299,0.54185
1702332286515625,-9.422932,0.205556,3.229991,0.38588,0.36599,0.47785
1702332286523437,-9.461932,0.210556,3.242991,0.31588,0.43899,0.52785
1702332286531250,-9.456932,0.216556,3.301991,0.30288,0.41099,0.46185
1702332286539062,-9.475932,0.232556,3.253991,0.56288,0.43099,0.36485
1702332286546875,-9.480932,0.235556,3.170991,0.47788,0.47399,0.33385
1702332286554687,-9.484932,0.217556,3.276991,0.15688,0.64799,0.31785
1702332286562500,-9.500932,0.235556,3.348991,0.13888,0.63199,0.26985
1702332286570312,-9.460932,0.260556,3.276991,0.18488,0.56699,0.23885
1702332286578125,-9.454932,0.239556,3.299991,0.15688,0.61799,0.22085
1702332286585937,-9.409932,0.212556,3.344991,0.5388,0.59999,0.2985
1702332286593750,-9.330932,0.200556,3.359991,0.2188,0.58599,0.3515
1702332286601562,-9.266932,0.168556,3.307991,0.488,0.53699,0.1815
1702332286609375,-9.201932,0.135556,3.260991,0.13912,0.52299,0.1915
1702332286617187,-9.182932,0.96556,3.204991,0.12612,0.56699,0.1815
1702332286625000,-9.143932,0.80556,3.138991,0.13812,0.64899,0.315
1702332286632812,-9.130932,0.70556,3.100991,0.12212,0.67999,0.1285
1702332286640625,-9.115932,0.77556,3.79991,0.13712,0.55399,0.9285
1702332286648437,-9.73932,0.74556,3.75991,0.14112,0.62599,0.25585
1702332286656250,-9.38932,0.86556,3.79991,0.11912,0.72599,0.25385
1702332286664062,-9.37932,0.102556,3.61991,0.14312,0.63899,0.25585
1702332286671875,-9.70932,0.104556,3.32991,0.12112,0.62899,0.26985
1702332286679687,-9.94932,0.104556,2.991991,0.13712,0.64499,0.26985
1702332286687500,-9.126932,0.116556,2.957991,0.15812,0.67099,0.31985
1702332286695312,-9.157932,0.121556,2.953991,0.13712,0.65999,0.26985
1702332286703125,-9.203932,0.133556,2.969991,0.15112,0.67599,0.36585
1702332286710937,-9.289932,0.139556,3.5991,0.23212,0.65899,0.43085
1702332286718750,-9.407932,0.150556,3.59991,0.16812,0.67499,0.44685
1702332286726562,-9.512932,0.164556,3.86991,0.36012,0.62799,0.47885
1702332286734375,-9.564932,0.167556,3.134991,0.29512,0.53499,0.46185
1702332286742187,-9.602932,0.165556,3.197991,0.28112,0.53199,0.47885
1702332286750000,-9.608932,0.166556,3.254991,0.35812,0.45799,0.44585
1702332286757812,-9.609932,0.163556,3.283991,0.36012,0.47199,0.41485
1702332286765625,-9.642932,0.149556,3.292991,0.37712,0.58199,0.36585
1702332286773437,-9.667932,0.119556,3.290991,0.39412,0.61399,0.28585
1702332286781250,-9.675932,0.92556,3.287991,0.38312,0.65599,0.25585
1702332286789062,-9.628932,0.70556,3.303991,0.36712,0.68999,0.9485
1702332286796875,-9.583932,0.54556,3.317991,0.40012,0.78599,0.1815
1702332286804687,-9.519932,0.28556,3.337991,0.38212,0.80399,0.1815
1702332286812500,-9.448932,0.19556,3.344991,0.46612,0.83099,0.115
1702332286820312,-9.386932,0.3444,3.337991,0.50112,0.82899,0.4915
1702332286828125,-9.305932,0.33444,3.332991,0.64412,0.80199,0.14615
1702332286835937,-9.238932,0.36444,3.326991,0.64612,0.84699,0.12915
1702332286843750,-9.216932,0.49444,3.296991,0.84012,0.73699,0.14515
1702332286851562,-9.170932,0.45444,3.274991,0.83412,0.63299,0.13115
1702332286859375,-9.156932,0.36444,3.249991,0.83312,0.60299,0.14715
1702332286867187,-9.146932,0.6444,3.240991,0.83612,0.47399,0.14615
1702332286875000,-9.147932,0.5444,3.224991,0.66812,0.40199,0.13215
1702332286882812,-9.165932,0.7556,3.185991,0.63812,0.27499,0.14715
1702332286890625,-9.212932,0.11556,3.134991,0.65612,0.25699,0.9915
1702332286898437,-9.266932,0.19444,3.147991,0.46212,0.41299,0.3415
1702332286906250,-9.297932,0.70444,3.231991,0.37612,0.44999,0.5215
1702332286914062,-9.272932,0.90444,3.298991,0.23712,0.45999,0.5015
1702332286921875,-9.250932,0.49444,3.32991,0.6788,0.23899,0.3315
1702332286929687,-9.210932,0.39444,3.23991,0.16888,0.24399,0.5115
1702332286937500,-9.168932,0.45444,3.194991,0.42988,0.35299,0.9285
1702332286945312,-9.128932,0.75444,3.233991,0.46188,0.50799,0.22085
1702332286953125,-9.68932,0.71444,3.172991,0.53988,0.41099,0.23885
1702332286960937,-9.54932,0.74444,2.998991,0.82088,0.38399,0.33285
1702332286968750,-9.8932,0.113444,3.81991,0.89988,0.47499,0.42985
1702332286976562,-8.964932,0.103444,3.99991,0.72088,0.42499,0.52685
1702332286984375,-8.954932,0.65444,2.993991,0.78688,0.37599,0.67185
1702332286992187,-8.969932,0.5556,2.993991,0.90088,0.39099,0.76785
1702332287000000,-8.990932,0.53556,3.23991,0.106588,0.23799,0.79885
1702332287007812,-9.18932,0.92556,2.962991,0.114888,0.22299,0.89385
1702332287015625,-9.103932,0.102556,2.951991,0.113288,0.14299,0.99085
1702332287023437,-9.223932,0.89556,2.973991,0.117988,0.14099,0.102385
1702332287031250,-9.371932,0.83556,3.12991,0.114688,0.14099,0.100785
1702332287039062,-9.489932,0.83556,3.57991,0.97088,0.12599,0.97485
1702332287046875,-9.581932,0.86556,3.80991,0.98588,0.12499,0.97585
1702332287054687,-9.635932,0.101556,3.114991,0.92688,0.17999,0.87685
1702332287062500,-9.672932,0.119556,3.141991,0.76088,0.17499,0.89485
1702332287070312,-9.683932,0.135556,3.150991,0.67688,0.29899,0.78285
1702332287078125,-9.665932,0.153556,3.104991,0.59588,0.42399,0.76685
1702332287085937,-9.632932,0.168556,3.95991,0.46088,0.55999,0.70485
1702332287093750,-9.599932,0.181556,3.75991,0.33388,0.67399,0.59085
1702332287101562,-9.553932,0.209556,3.86991,0.16688,0.70099,0.51185
1702332287109375,-9.485932,0.220556,3.138991,0.13488,0.84399,0.43185
1702332287117187,-9.410932,0.236556,3.143991,0.888,0.75399,0.34985
1702332287125000,-9.370932,0.230556,3.125991,0.16912,0.72399,0.25385
1702332287132812,-9.356932,0.210556,3.91991,0.31512,0.66499,0.1915
1702332287140625,-9.366932,0.179556,3.48991,0.38212,0.64699,0.3415
1702332287148437,-9.385932,0.111556,3.28991,0.38212,0.49099,0.5015
1702332287156250,-9.431932,0.57556,3.7991,0.39912,0.48999,0.6615
1702332287164062,-9.462932,0.0,3.16991,0.45112,0.39299,0.8115
1702332287171875,-9.476932,0.53444,3.34991,0.53112,0.47299,0.14515
1702332287179687,-9.465932,0.95444,3.52991,0.49712,0.52099,0.9815
1702332287187500,-9.466932,0.110444,3.64991,0.48512,0.70599,0.14515
1702332287195312,-9.476932,0.131444,3.41991,0.43212,0.75699,0.13015
1702332287203125,-9.435932,0.136444,3.50991,0.35712,0.82999,0.14515
1702332287210937,-9.383932,0.124444,3.68991,0.24412,0.76699,0.12815
1702332287218750,-9.330932,0.107444,2.966991,0.188,0.81899,0.14615
1702332287226562,-9.288932,0.140444,3.21991,0.14212,0.92999,0.13115
1702332287234375,-9.276932,0.122444,3.138991,0.28612,0.91499,0.14715
1702332287242187,-9.274932,0.62444,3.95991,0.12712,0.92799,0.9815
1702332287250000,-9.311932,0.38444,3.111991,0.10912,0.91199,0.3415
1702332287257812,-9.312932,0.24444,3.181991,0.188,0.92599,0.1715
1702332287265625,-9.313932,0.5444,3.265991,0.8688,0.91199,0.14185
1702332287273437,-9.329932,0.16444,3.312991,0.15288,0.92799,0.23785
1702332287281250,-9.340932,0.18444,3.330991,0.10288,0.90999,0.23885
1702332287289062,-9.354932,0.48444,3.353991,0.29988,0.95799,0.36585
1702332287296875,-9.330932,0.72444,3.387991,0.39688,0.98899,0.38185
1702332287304687,-9.291932,0.99444,3.393991,0.50588,0.106299,0.47985
1702332287312500,-9.215932,0.154444,3.359991,0.52488,0.100199,0.47885
1702332287320312,-9.146932,0.175444,3.319991,0.60688,0.100299,0.52685
1702332287328125,-9.139932,0.172444,3.285991,0.65288,0.96899,0.54385
1702332287335937,-9.161932,0.176444,3.246991,0.61088,0.92599,0.68585
1702332287343750,-9.183932,0.183444,3.217991,0.66088,0.89399,0.78185
1702332287351562,-9.208932,0.187444,3.215991,0.64688,0.70699,0.87785
1702332287359375,-9.233932,0.192444,3.217991,0.63088,0.65899,0.92685
1702332287367187,-9.262932,0.199444,3.199991,0.63188,0.65699,0.105485
1702332287375000,-9.305932,0.197444,3.183991,0.64588,0.59199,0.107185
1702332287382812,-9.334932,0.185444,3.158991,0.66588,0.71999,0.113485
1702332287390625,-9.360932,0.168444,3.152991,0.66788,0.70599,0.115085
1702332287398437,-9.369932,0.131444,3.143991,0.66188,0.68499,0.111985
1702332287406250,-9.366932,0.90444,3.149991,0.76088,0.81199,0.111985
1702332287414062,-9.361932,0.52444,3.154991,0.92088,0.82899,0.100685
1702332287421875,-9.349932,0.16444,3.158991,0.87088,0.92199,0.99185
1702332287429687,-9.358932,0.21556,3.197991,0.93188,0.88799,0.94485
1702332287437500,-9.387932,0.36556,3.217991,0.85088,0.90499,0.87985
1702332287445312,-9.415932,0.37556,3.215991,0.69188,0.93999,0.78285
1702332287453125,-9.436932,0.32556,3.251991,0.65788,0.106499,0.67085
1702332287460937,-9.449932,0.34556,3.258991,0.63888,0.109599,0.54285
1702332287468750,-9.456932,0.27556,3.256991,0.65488,0.109799,0.44585
1702332287476562,-9.460932,0.11556,3.276991,0.54388,0.111699,0.38085
1702332287484375,-9.445932,0.17556,3.287991,0.40788,0.115799,0.30285
1702332287492187,-9.414932,0.24556,3.314991,0.56688,0.125299,0.19085
1702332287500000,-9.382932,0.24556,3.326991,0.52088,0.124199,0.6185
1702332287507812,-9.337932,0.33556,3.326991,0.61588,0.128799,0.3415
1702332287515625,-9.308932,0.41556,3.317991,0.53188,0.131599,0.3315
1702332287523437,-9.275932,0.51556,3.328991,0.53088,0.133099,0.6515
1702332287531250,-9.221932,0.51556,3.339991,0.38588,0.133199,0.11315
1702332287539062,-9.196932,0.38556,3.348991,0.38788,0.122499,0.14615
1702332287546875,-9.178932,0.31556,3.335991,0.27588,0.117899,0.13015
1702332287554687,-9.206932,0.25556,3.292991,0.14188,0.118999,0.14515
1702332287562500,-9.244932,0.4556,3.265991,0.12988,0.116299,0.13015
1702332287570312,-9.268932,0.6556,3.301991,0.12888,0.120799,0.14615
1702332287578125,-9.278932,0.6444,3.438991,0.7888,0.108199,0.14515
1702332287585937,-9.255932,0.0,3.278991,0.14888,0.96099,0.13115
1702332287593750,-9.205932,0.22444,3.124991,0.27188,0.93999,0.14515
1702332287601562,-9.178932,0.37444,3.325991,0.44788,0.96999,0.12815
1702332287609375,-9.187932,0.27444,3.475991,0.41888,0.108199,0.11315
1702332287617187,-9.175932,0.0,3.344991,0.45088,0.106699,0.14515
1702332287625000,-9.143932,0.8556,3.280991,0.58088,0.114699,0.13015
1702332287632812,-9.83932,0.22556,3.357991,0.48288,0.116099,0.14515
1702332287640625,-9.31932,0.32556,3.359991,0.58188,0.111599,0.13015
1702332287648437,-8.997932,0.30556,3.359991,0.35488,0.116099,0.8115
1702332287656250,-8.968932,0.55556,3.429991,0.42088,0.111399,0.115
1702332287664062,-8.965932,0.84556,3.422991,0.42188,0.100499,0.1485
1702332287671875,-8.991932,0.132556,3.395991,0.40688,0.100499,0.9385
1702332287679687,-9.2932,0.152556,3.395991,0.45688,0.92499,0.22285
1702332287687500,-9.19932,0.162556,3.398991,0.31388,0.91199,0.20585
1702332287695312,-9.58932,0.144556,3.407991,0.18588,0.88199,0.22185
1702332287703125,-9.110932,0.137556,3.382991,0.16888,0.76999,0.30285
1702332287710937,-9.148932,0.136556,3.344991,0.5788,0.67699,0.31785
1702332287718750,-9.182932,0.139556,3.328991,0.5912,0.65599,0.39985
1702332287726562,-9.236932,0.131556,3.317991,0.12112,0.54899,0.38285
1702332287734375,-9.276932,0.119556,3.289991,0.26512,0.56599,0.36685
1702332287742187,-9.303932,0.105556,3.262991,0.32912,0.56599,0.35085
1702332287750000,-9.342932,0.106556,3.276991,0.37612,0.58499,0.28485
1702332287757812,-9.376932,0.95556,3.305991,0.40912,0.52199,0.26985
1702332287765625,-9.388932,0.79556,3.312991,0.53912,0.47599,0.12485
1702332287773437,-9.402932,0.86556,3.332991,0.46212,0.52099,0.6185
1702332287781250,-9.399932,0.82556,3.341991,0.51012,0.44399,0.1385
1702332287789062,-9.384932,0.84556,3.353991,0.62512,0.41299,0.13015
1702332287796875,-9.372932,0.99556,3.348991,0.62412,0.57099,0.13115
1702332287804687,-9.359932,0.88556,3.366991,0.68912,0.55599,0.19515
1702332287812500,-9.330932,0.87556,3.393991,0.67712,0.56999,0.33915
1702332287820312,-9.330932,0.71556,3.400991,0.69112,0.58799,0.37115
1702332287828125,-9.352932,0.55556,3.414991,0.75612,0.60299,0.37115
1702332287835937,-9.362932,0.29556,3.445991,0.79012,0.61799,0.40315
1702332287843750,-9.355932,0.20556,3.461991,0.74112,0.68199,0.41915
1702332287851562,-9.315932,0.9556,3.466991,0.66112,0.66599,0.45115
1702332287859375,-9.285932,0.5444,3.466991,0.78612,0.66999,0.43615
1702332287867187,-9.225932,0.6444,3.479991,0.73912,0.60599,0.46815
1702332287875000,-9.172932,0.9556,3.366991,0.61112,0.43299,0.45215
1702332287882812,-9.121932,0.20444,3.285991,0.61112,0.52599,0.40315
1702332287890625,-9.81932,0.59444,3.400991,0.66112,0.61699,0.38715
1702332287898437,-9.73932,0.38444,3.420991,0.68012,0.53499,0.28915
1702332287906250,-9.39932,0.24444,3.393991,0.47012,0.37899,0.27315
1702332287914062,-9.43932,0.41444,3.479991,0.38212,0.36999,0.24315
1702332287921875,-9.32932,0.64444,3.526991,0.39912,0.25699,0.14615
1702332287929687,-9.52932,0.74444,3.511991,0.33012,0.18199,0.9915
1702332287937500,-9.76932,0.91444,3.454991,0.24612,0.19999,0.2015
1702332287945312,-9.70932,0.104444,3.416991,0.1488,0.16999,0.5985
1702332287953125,-9.97932,0.106444,3.371991,0.14388,0.401,0.18785
1702332287960937,-9.110932,0.106444,3.353991,0.12888,0.4199,0.28385
1702332287968750,-9.139932,0.98444,3.321991,0.30788,0.8899,0.36385
1702332287976562,-9.134932,0.124444,3.287991,0.54788,0.6999,0.46185
1702332287984375,-9.136932,0.123444,3.294991,0.64288,0.11299,0.59085
1702332287992187,-9.123932,0.105444,3.287991,0.75588,0.17399,0.70285
1702332288000000,-9.108932,0.88444,3.289991,0.92388,0.19499,0.74885
1702332288007812,-9.114932,0.54444,3.292991,0.92688,0.22799,0.81285
1702332288015625,-9.120932,0.14444,3.292991,0.100888,0.27399,0.90885
1702332288023437,-9.126932,0.23556,3.289991,0.107088,0.33399,0.95785
1702332288031250,-9.146932,0.45556,3.312991,0.95988,0.24099,0.98985
1702332288039062,-9.228932,0.65556,3.321991,0.92888,0.25799,0.97285
1702332288046875,-9.308932,0.84556,3.312991,0.94588,0.27499,0.98885
1702332288054687,-9.342932,0.99556,3.344991,0.91388,0.19699,0.97285
1702332288062500,-9.376932,0.103556,3.380991,0.100888,0.22799,0.90885
1702332288070312,-9.446932,0.107556,3.414991,0.90788,0.16199,0.86185
1702332288078125,-9.496932,0.128556,3.432991,0.97588,0.28999,0.84485
1702332288085937,-9.519932,0.132556,3.427991,0.108688,0.33799,0.73285
1702332288093750,-9.496932,0.141556,3.439991,0.108688,0.40099,0.68385
1702332288101562,-9.434932,0.160556,3.457991,0.103388,0.41399,0.62185
1702332288109375,-9.341932,0.192556,3.468991,0.93588,0.55499,0.54085
1702332288117187,-9.262932,0.215556,3.445991,0.93488,0.64999,0.44485
1702332288125000,-9.206932,0.221556,3.423991,0.86788,0.75999,0.31685
1702332288132812,-9.130932,0.206556,3.389991,0.73988,0.71299,0.34885
1702332288140625,-9.57932,0.181556,3.334991,0.68988,0.68099,0.31685
1702332288148437,-8.987932,0.166556,3.305991,0.61388,0.59099,0.26785
1702332288156250,-8.911932,0.156556,3.282991,0.53088,0.49499,0.31685
1702332288164062,-8.873932,0.142556,3.230991,0.38688,0.26099,0.26785
1702332288171875,-8.876932,0.144556,3.160991,0.25688,0.21299,0.25285
1702332288179687,-8.896932,0.153556,3.102991,0.15888,0.7099,0.26885
1702332288187500,-8.970932,0.131556,3.63991,0.13288,0.3501,0.36385
1702332288195312,-9.39932,0.130556,3.61991,0.21688,0.9501,0.44285
1702332288203125,-9.109932,0.140556,3.100991,0.13388,0.17601,0.47585
1702332288210937,-9.151932,0.166556,3.120991,0.11788,0.27001,0.47585
1702332288218750,-9.224932,0.201556,3.109991,0.6988,0.30401,0.60485
1702332288226562,-9.280932,0.188556,3.106991,0.8888,0.14501,0.66785
1702332288234375,-9.358932,0.198556,3.140991,0.10388,0.3701,0.71585
1702332288242187,-9.394932,0.195556,3.253991,0.10612,0.11799,0.73285
1702332288250000,-9.398932,0.219556,3.244991,0.8812,0.5201,0.76385
1702332288257812,-9.427932,0.239556,3.21991,0.7088,0.8501,0.71685
1702332288265625,-9.457932,0.233556,3.168991,0.13388,0.3799,0.74885
1702332288273437,-9.487932,0.197556,3.346991,0.8188,0.22299,0.74985
1702332288281250,-9.510932,0.163556,3.387991,0.15912,0.28599,0.73385
1702332288289062,-9.490932,0.117556,3.398991,0.12712,0.28499,0.78185
1702332288296875,-9.451932,0.54556,3.441991,0.12712,0.28499,0.78185
1702332288304687,-9.427932,0.10556,3.454991,0.11112,0.20599,0.81485
1702332288312500,-9.401932,0.35444,3.418991,0.19212,0.31299,0.89485
1702332288320312,-9.371932,0.75444,3.445991,0.40812,0.44899,0.88085
1702332288328125,-9.368932,0.99444,3.418991,0.40012,0.42499,0.92585
1702332288335937,-9.335932,0.116444,3.398991,0.51612,0.48399,0.92685
1702332288343750,-9.298932,0.143444,3.427991,0.51712,0.38899,0.94385
1702332288351562,-9.242932,0.168444,3.459991,0.60812,0.17399,0.99085
1702332288359375,-9.179932,0.191444,3.411991,0.77012,0.10999,0.100685
1702332288367187,-9.166932,0.200444,3.362991,0.91212,0.3499,0.100585
1702332288375000,-9.165932,0.207444,3.305991,0.90812,0.901,0.108485
1702332288382812,-9.172932,0.207444,3.215991,0.97612,0.6399,0.111785
1702332288390625,-9.186932,0.214444,3.172991,0.108812,0.7999,0.114985
1702332288398437,-9.231932,0.207444,3.138991,0.101212,0.9099,0.115185
1702332288406250,-9.262932,0.215444,3.109991,0.100812,0.4999,0.110185
1702332288414062,-9.280932,0.222444,3.111991,0.94312,0.4301,0.106985
1702332288421875,-9.301932,0.260444,3.109991,0.92812,0.2801,0.102185
1702332288429687,-9.316932,0.260444,3.109991,0.87912,0.5701,0.92485
1702332288437500,-9.319932,0.293444,3.118991,0.88012,0.4101,0.87685
1702332288445312,-9.338932,0.331444,3.118991,0.80412,0.3499,0.74985
1702332288453125,-9.325932,0.351444,3.104991,0.69012,0.5601,0.65285
1702332288460937,-9.317932,0.361444,3.104991,0.72712,0.7501,0.60685
1702332288468750,-9.319932,0.395444,3.70991,0.73912,0.8701,0.57285
1702332288476562,-9.316932,0.397444,3.77991,0.72412,0.5401,0.46085
1702332288484375,-9.330932,0.422444,3.77991,0.72212,0.6901,0.50785
1702332288492187,-9.350932,0.436444,3.57991,0.73812,0.2201,0.50785
1702332288500000,-9.388932,0.450444,3.41991,0.78612,0.7299,0.47585
1702332288507812,-9.438932,0.448444,3.39991,0.79012,0.8399,0.50885
1702332288515625,-9.462932,0.432444,3.25991,0.74112,0.9999,0.50885
1702332288523437,-9.499932,0.435444,3.34991,0.63112,0.9799,0.49385
1702332288531250,-9.502932,0.424444,3.66991,0.64512,0.21099,0.46085
1702332288539062,-9.476932,0.421444,3.127991,0.48612,0.14699,0.39685
1702332288546875,-9.459932,0.377444,3.98991,0.45212,0.3899,0.34885
1702332288554687,-9.444932,0.341444,2.926991,0.34412,0.11499,0.26985
1702332288562500,-9.436932,0.348444,3.5991,0.52012,0.33699,0.18885
1702332288570312,-9.443932,0.315444,3.93991,0.58612,0.43099,0.7685
1702332288578125,-9.413932,0.272444,3.25991,0.44412,0.41399,0.1285
1702332288585937,-9.398932,0.274444,3.50991,0.43012,0.49099,0.1815
1702332288593750,-9.385932,0.273444,3.102991,0.44912,0.50499,0.9815
1702332288601562,-9.386932,0.267444,3.163991,0.56012,0.56999,0.14715
1702332288609375,-9.387932,0.289444,3.179991,0.62512,0.52199,0.13015
1702332288617187,-9.393932,0.292444,3.161991,0.65512,0.47799,0.14715
1702332288625000,-9.423932,0.289444,3.165991,0.62812,0.42799,0.27415
1702332288632812,-9.426932,0.296444,3.168991,0.61312,0.44399,0.32215
1702332288640625,-9.427932,0.301444,3.165991,0.57812,0.49499,0.35515
1702332288648437,-9.432932,0.320444,3.168991,0.58012,0.47599,0.35415
1702332288656250,-9.430932,0.327444,3.154991,0.50012,0.42999,0.40315
1702332288664062,-9.419932,0.324444,3.165991,0.45312,0.49199,0.45015
1702332288671875,-9.392932,0.328444,3.167991,0.42112,0.52299,0.45015
1702332288679687,-9.374932,0.322444,3.165991,0.37112,0.58699,0.45115
1702332288687500,-9.356932,0.320444,3.167991,0.30412,0.58899,0.40315
1702332288695312,-9.338932,0.322444,3.152991,0.21012,0.69799,0.48315
1702332288703125,-9.302932,0.317444,3.156991,0.14512,0.68199,0.46715
1702332288710937,-9.257932,0.303444,3.158991,0.14212,0.71599,0.42015
1702332288718750,-9.225932,0.283444,3.156991,0.6112,0.62099,0.38815
1702332288726562,-9.199932,0.288444,3.133991,0.12988,0.58799,0.40315
1702332288734375,-9.184932,0.274444,3.124991,0.11688,0.68499,0.38815
1702332288742187,-9.171932,0.272444,3.131991,0.29688,0.68599,0.30815
1702332288750000,-9.171932,0.267444,3.129991,0.33088,0.63899,0.26015
1702332288757812,-9.184932,0.251444,3.136991,0.45788,0.57299,0.16315
1702332288765625,-9.223932,0.231444,3.145991,0.53588,0.58699,0.14715
1702332288773437,-9.289932,0.195444,3.147991,0.58788,0.43299,0.13115
1702332288781250,-9.324932,0.192444,3.165991,0.59088,0.45099,0.14815
1702332288789062,-9.348932,0.159444,3.172991,0.62288,0.45099,0.13215
1702332288796875,-9.372932,0.113444,3.177991,0.65688,0.46899,0.14915
1702332288804687,-9.390932,0.82444,3.170991,0.66988,0.55899,0.14815
1702332288812500,-9.394932,0.48444,3.154991,0.66688,0.61899,0.13115
1702332288820312,-9.385932,0.44444,3.131991,0.76588,0.66899,0.16415
1702332288828125,-9.385932,0.17444,3.88991,0.72988,0.68299,0.25915
1702332288835937,-9.379932,0.5444,3.77991,0.71788,0.68499,0.19615
1702332288843750,-9.353932,0.2556,3.84991,0.69788,0.73099,0.26015
1702332288851562,-9.336932,0.5444,3.97991,0.66188,0.67999,0.29015
1702332288859375,-9.324932,0.5444,3.116991,0.64788,0.66699,0.33915
1702332288867187,-9.313932,0.25444,3.125991,0.68188,0.62099,0.29115
1702332288875000,-9.313932,0.23444,3.131991,0.63488,0.54499,0.32415
1702332288882812,-9.305932,0.22444,3.118991,0.64788,0.49499,0.35515
1702332288890625,-9.290932,0.32444,3.73991,0.63588,0.49899,0.35715
1702332288898437,-9.278932,0.5444,3.23991,0.65388,0.45399,0.32515
1702332288906250,-9.283932,0.30444,2.998991,0.54188,0.46799,0.26115
1702332288914062,-9.293932,0.23444,2.998991,0.53888,0.49799,0.30815
1702332288921875,-9.312932,0.19444,3.113991,0.38188,0.54599,0.14915
1702332288929687,-9.305932,0.0,2.994991,0.44788,0.39099,0.14915
1702332288937500,-9.321932,0.29556,2.788991,0.60688,0.38899,0.13215
1702332288945312,-9.324932,0.27556,2.933991,0.65088,0.43199,0.14715
1702332288953125,-9.342932,0.29556,3.100991,0.55288,0.61799,0.11415
1702332288960937,-9.320932,0.26556,3.106991,0.38888,0.69299,0.8215
1702332288968750,-9.312932,0.58556,2.955991,0.45688,0.57199,0.14715
1702332288976562,-9.328932,0.47556,2.969991,0.51888,0.75799,0.13015
1702332288984375,-9.290932,0.14556,3.116991,0.37688,0.82199,0.5115
1702332288992187,-9.295932,0.31556,3.25991,0.21088,0.65999,0.3315
1702332289000000,-9.285932,0.63556,3.18991,0.26188,0.75699,0.5015
1702332289007812,-9.314932,0.92556,3.52991,0.35688,0.87999,0.3415
1702332289015625,-9.329932,0.100556,3.88991,0.44388,0.72599,0.12585
1702332289023437,-9.357932,0.93556,3.127991,0.58688,0.69299,0.15785
1702332289031250,-9.389932,0.82556,3.192991,0.58488,0.62899,0.11085
1702332289039062,-9.393932,0.64556,3.226991,0.50688,0.59999,0.9385
1702332289046875,-9.387932,0.22556,3.276991,0.52488,0.67799,0.20585
1702332289054687,-9.366932,0.2444,3.285991,0.62488,0.71299,0.22085
1702332289062500,-9.342932,0.35444,3.296991,0.65688,0.75899,0.28485
1702332289070312,-9.341932,0.61444,3.303991,0.60688,0.75699,0.25385
1702332289078125,-9.321932,0.71444,3.303991,0.55688,0.72499,0.25385
1702332289085937,-9.320932,0.74444,3.285991,0.64188,0.85099,0.41285
1702332289093750,-9.305932,0.60444,3.247991,0.60988,0.81899,0.46185
1702332289101562,-9.267932,0.50444,3.224991,0.49388,0.75399,0.44685
1702332289109375,-9.226932,0.17444,3.213991,0.47988,0.84799,0.50985
1702332289117187,-9.218932,0.8556,3.179991,0.43588,0.75999,0.47685
1702332289125000,-9.223932,0.30556,3.176991,0.41688,0.66299,0.47785
1702332289132812,-9.216932,0.42556,3.152991,0.36588,0.64499,0.42985
1702332289140625,-9.225932,0.40556,3.136991,0.22088,0.56699,0.41385
1702332289148437,-9.246932,0.24556,3.131991,0.20488,0.42599,0.44585
1702332289156250,-9.255932,0.1444,3.104991,0.15488,0.39299,0.43085
1702332289164062,-9.248932,0.13444,3.109991,0.25388,0.30199,0.39785
1702332289171875,-9.249932,0.14444,3.115991,0.15488,0.39299,0.44685
1702332289179687,-9.233932,0.12444,3.100991,0.12288,0.39299,0.44685
1702332289187500,-9.190932,0.0,3.91991,0.13988,0.45599,0.44685
1702332289195312,-9.169932,0.16556,3.138991,0.12588,0.44399,0.44585
1702332289203125,-9.199932,0.23556,3.115991,0.12388,0.44099,0.47885
1702332289210937,-9.216932,0.45556,3.111991,0.14088,0.51799,0.55885
1702332289218750,-9.213932,0.55556,3.106991,0.12688,0.53599,0.54185
1702332289226562,-9.238932,0.55556,3.167991,0.12588,0.50599,0.47785
1702332289234375,-9.281932,0.77556,3.82991,0.14288,0.25399,0.52585
1702332289242187,-9.316932,0.47556,2.971991,0.9588,0.44399,0.55785
1702332289250000,-9.364932,0.26556,3.109991,0.16412,0.69099,0.62185
1702332289257812,-9.420932,0.59556,3.79991,0.16512,0.51799,0.60685
1702332289265625,-9.448932,0.70556,3.23991,0.13212,0.61199,0.60685
1702332289273437,-9.482932,0.36556,3.77991,0.37312,0.61299,0.60585
1702332289281250,-9.509932,0.26556,3.152991,0.38912,0.59799,0.58985
1702332289289062,-9.531932,0.3556,3.183991,0.37712,0.56199,0.60785
1702332289296875,-9.537932,0.26444,3.195991,0.45512,0.58099,0.55885
1702332289304687,-9.527932,0.56444,3.199991,0.50712,0.65599,0.52785
1702332289312500,-9.487932,0.85444,3.204991,0.56812,0.73699,0.57485
1702332289320312,-9.452932,0.113444,3.206991,0.65212,0.68799,0.52685
1702332289328125,-9.438932,0.133444,3.201991,0.64912,0.87799,0.54185
1702332289335937,-9.381932,0.165444,3.204991,0.55512,0.92199,0.62385
1702332289343750,-9.314932,0.199444,3.206991,0.63512,0.99899,0.67185
1702332289351562,-9.244932,0.216444,3.201991,0.63212,0.96899,0.73485
1702332289359375,-9.202932,0.220444,3.201991,0.66512,0.95399,0.71885
1702332289367187,-9.180932,0.235444,3.215991,0.76412,0.98299,0.73585
1702332289375000,-9.167932,0.242444,3.219991,0.79412,0.95199,0.79985
1702332289382812,-9.184932,0.233444,3.219991,0.90712,0.90599,0.76685
1702332289390625,-9.214932,0.227444,3.215991,0.89212,0.91999,0.78385
1702332289398437,-9.229932,0.225444,3.228991,0.90612,0.92199,0.79885
1702332289406250,-9.257932,0.251444,3.249991,0.86012,0.88799,0.83185
1702332289414062,-9.304932,0.256444,3.242991,0.81312,0.90299,0.75185
1702332289421875,-9.328932,0.277444,3.228991,0.76112,0.85999,0.71885
1702332289429687,-9.339932,0.289444,3.267991,0.66312,0.90999,0.65385
1702332289437500,-9.359932,0.270444,3.274991,0.69612,0.90999,0.60585
1702332289445312,-9.366932,0.262444,3.303991,0.57012,0.86099,0.55885
1702332289453125,-9.382932,0.268444,3.310991,0.53612,0.87999,0.44585
1702332289460937,-9.422932,0.279444,3.337991,0.41012,0.80099,0.36585
1702332289468750,-9.438932,0.279444,3.369991,0.39712,0.79999,0.27085
1702332289476562,-9.456932,0.263444,3.378991,0.31912,0.80199,0.215
1702332289484375,-9.475932,0.258444,3.391991,0.15412,0.77699,0.11615
1702332289492187,-9.473932,0.231444,3.418991,0.5812,0.79199,0.13115
1702332289500000,-9.456932,0.219444,3.436991,0.6588,0.70899,0.16215
1702332289507812,-9.413932,0.201444,3.436991,0.12988,0.69599,0.29115
1702332289515625,-9.352932,0.193444,3.432991,0.22688,0.63299,0.29015
1702332289523437,-9.304932,0.182444,3.427991,0.40788,0.63699,0.30815
1702332289531250,-9.240932,0.187444,3.391991,0.53388,0.68199,0.35515
1702332289539062,-9.170932,0.227444,3.346991,0.66688,0.66899,0.30815
1702332289546875,-9.102932,0.254444,3.267991,0.63288,0.65299,0.35615
1702332289554687,-9.61932,0.281444,3.215991,0.63688,0.48499,0.35715
1702332289562500,-9.20932,0.288444,3.165991,0.69788,0.38599,0.29115
1702332289570312,-8.944932,0.325444,3.102991,0.87788,0.24699,0.24415
1702332289578125,-8.878932,0.329444,3.72991,0.90088,0.12699,0.14915
1702332289585937,-8.872932,0.328444,3.18991,0.92988,0.7499,0.10015
1702332289593750,-8.883932,0.304444,3.11991,0.94888,0.6501,0.1185
1702332289601562,-8.924932,0.256444,3.991,0.108088,0.6601,0.20385
1702332289609375,-8.991932,0.202444,2.966991,0.116288,0.11301,0.34785
1702332289617187,-9.52932,0.164444,2.939991,0.124988,0.6299,0.49085
1702332289625000,-9.121932,0.102444,2.941991,0.134188,0.22699,0.65285
1702332289632812,-9.163932,0.59444,2.944991,0.120088,0.22999,0.71585
1702332289640625,-9.227932,0.22444,3.61991,0.129788,0.43099,0.84485
1702332289648437,-9.256932,0.32556,3.145991,0.129688,0.43099,0.82885
1702332289656250,-9.269932,0.92556,2.926991,0.143988,0.19399,0.79785
1702332289664062,-9.289932,0.103556,2.910991,0.151988,0.31899,0.78185
1702332289671875,-9.316932,0.105556,3.48991,0.161288,0.50399,0.73485
1702332289679687,-9.353932,0.121556,3.195991,0.142188,0.72599,0.74985
1702332289687500,-9.396932,0.150556,3.111991,0.130588,0.69199,0.71885
1702332289695312,-9.471932,0.164556,2.942991,0.132388,0.75599,0.76585
1702332289703125,-9.499932,0.126556,3.152991,0.119488,0.97399,0.79785
1702332289710937,-9.537932,0.116556,3.265991,0.98388,0.87899,0.78185
1702332289718750,-9.570932,0.129556,3.267991,0.74388,0.92599,0.87785
1702332289726562,-9.567932,0.157556,3.416991,0.76188,0.89699,0.84585
1702332289734375,-9.570932,0.183556,3.500991,0.75788,0.90899,0.83085
1702332289742187,-9.541932,0.201556,3.497991,0.64288,0.92299,0.81485
1702332289750000,-9.507932,0.186556,3.543991,0.61088,0.104899,0.83085
1702332289757812,-9.446932,0.136556,3.588991,0.36588,0.101499,0.75185
1702332289765625,-9.383932,0.96556,3.576991,0.20688,0.109799,0.62185
1702332289773437,-9.308932,0.59556,3.527991,0.5688,0.104799,0.52685
1702332289781250,-9.250932,0.26556,3.441991,0.13612,0.111099,0.51085
1702332289789062,-9.196932,0.2556,3.357991,0.28012,0.98799,0.46185
1702332289796875,-9.136932,0.45444,3.283991,0.44112,0.90999,0.46185
1702332289804687,-9.117932,0.72444,3.194991,0.63712,0.89199,0.44685
1702332289812500,-9.81932,0.131444,3.142991,0.82412,0.69299,0.50885
1702332289820312,-9.100932,0.193444,3.122991,0.80812,0.70899,0.52585
1702332289828125,-9.135932,0.237444,3.120991,0.100112,0.48999,0.52585
1702332289835937,-9.156932,0.273444,3.68991,0.105212,0.44099,0.47785
1702332289843750,-9.210932,0.295444,3.50991,0.105112,0.23699,0.55885
1702332289851562,-9.214932,0.325444,3.82991,0.91512,0.14899,0.60485
1702332289859375,-9.221932,0.314444,3.136991,0.87012,0.28599,0.62185
1702332289867187,-9.201932,0.289444,3.167991,0.69412,0.39499,0.62185
1702332289875000,-9.191932,0.265444,3.201991,0.62912,0.51899,0.66985
1702332289882812,-9.196932,0.228444,3.240991,0.61712,0.68599,0.73585
1702332289890625,-9.182932,0.193444,3.296991,0.40712,0.88999,0.79985
1702332289898437,-9.166932,0.164444,3.323991,0.37412,0.92199,0.76685
1702332289906250,-9.129932,0.131444,3.346991,0.38812,0.92499,0.74985
1702332289914062,-9.111932,0.94444,3.350991,0.39212,0.87299,0.81585
1702332289921875,-9.92932,0.84444,3.298991,0.38812,0.79999,0.73485
1702332289929687,-9.114932,0.71444,3.235991,0.38712,0.72299,0.70185
1702332289937500,-9.153932,0.91444,3.231991,0.38912,0.65899,0.63885
1702332289945312,-9.173932,0.118444,3.296991,0.36912,0.44299,0.66985
1702332289953125,-9.256932,0.149444,3.204991,0.38212,0.21099,0.68485
1702332289960937,-9.287932,0.192444,3.100991,0.40512,0.15699,0.71885
1702332289968750,-9.335932,0.255444,3.251991,0.67712,0.20599,0.73485
1702332289976562,-9.380932,0.259444,3.224991,0.71112,0.3201,0.76785
1702332289984375,-9.369932,0.291444,3.100991,0.68912,0.8901,0.78185
1702332289992187,-9.376932,0.329444,3.172991,0.67412,0.7501,0.81385
1702332290000000,-9.394932,0.349444,3.235991,0.73712,0.4401,0.89385
1702332290007812,-9.399932,0.376444,3.240991,0.84612,0.5801,0.103785
1702332290015625,-9.399932,0.412444,3.204991,0.81512,0.4401,0.106985
1702332290023437,-9.406932,0.438444,3.222991,0.84312,0.6001,0.127785
1702332290031250,-9.384932,0.462444,3.215991,0.89212,0.2901,0.130985
1702332290039062,-9.373932,0.464444,3.190991,0.85812,0.4701,0.148685
1702332290046875,-9.367932,0.488444,3.156991,0.84412,0.8001,0.148685
1702332290054687,-9.371932,0.502444,3.111991,0.82212,0.4601,0.164585
1702332290062500,-9.350932,0.523444,3.66991,0.76112,0.5201,0.177585
1702332290070312,-9.330932,0.539444,3.30991,0.69512,0.2799,0.175985
1702332290078125,-9.301932,0.529444,2.998991,0.64612,0.1199,0.182385
1702332290085937,-9.321932,0.539444,2.991991,0.66212,0.2899,0.175885
1702332290093750,-9.347932,0.546444,2.984991,0.67512,0.2899,0.187085
1702332290101562,-9.405932,0.577444,2.991991,0.64812,0.5599,0.190485
1702332290109375,-9.430932,0.604444,3.9991,0.71012,0.5301,0.192085
1702332290117187,-9.414932,0.628444,3.21991,0.51412,0.1099,0.198385
1702332290125000,-9.365932,0.641444,3.30991,0.41712,0.12299,0.193485
1702332290132812,-9.361932,0.618444,3.32991,0.34012,0.14999,0.192085
1702332290140625,-9.351932,0.599444,3.41991,0.25812,0.40399,0.187185
1702332290148437,-9.323932,0.572444,3.991,0.9812,0.40299,0.185585
1702332290156250,-9.302932,0.528444,3.5991,0.6612,0.59099,0.185585
1702332290164062,-9.244932,0.486444,3.66991,0.10788,0.68299,0.174385
1702332290171875,-9.145932,0.463444,3.142991,0.13988,0.72999,0.172785
1702332290179687,-9.78932,0.460444,3.174991,0.23488,0.80899,0.166385
1702332290187500,-9.44932,0.448444,3.192991,0.29888,0.76299,0.159985
1702332290195312,-9.33932,0.423444,3.190991,0.13588,0.80699,0.160085
1702332290203125,-9.86932,0.422444,3.174991,0.15188,0.79399,0.147185
1702332290210937,-9.160932,0.426444,3.154991,0.10588,0.73599,0.132685
1702332290218750,-9.244932,0.455444,3.88991,0.6112,0.66699,0.136085
1702332290226562,-9.279932,0.517444,2.953991,0.14312,0.49599,0.124885
1702332290234375,-9.317932,0.571444,2.905991,0.30312,0.40499,0.115185
1702332290242187,-9.380932,0.619444,2.996991,0.35112,0.25099,0.100685
1702332290250000,-9.426932,0.684444,3.36991,0.46412,0.12799,0.86185
1702332290257812,-9.407932,0.728444,2.989991,0.59512,0.1899,0.68585
1702332290265625,-9.431932,0.722444,2.901991,0.67412,0.4001,0.60485
1702332290273437,-9.452932,0.726444,2.835991,0.72812,0.1999,0.50985
1702332290281250,-9.413932,0.712444,2.768991,0.81112,0.11199,0.43085
1702332290289062,-9.350932,0.692444,2.745991,0.90612,0.19399,0.33385
1702332290296875,-9.417932,0.659444,2.768991,0.93912,0.30199,0.36585
1702332290304687,-9.490932,0.614444,2.831991,0.110112,0.36599,0.28485
1702332290312500,-9.559932,0.586444,2.885991,0.115012,0.36499,0.30185
1702332290320312,-9.592932,0.570444,2.951991,0.116512,0.41399,0.23685
1702332290328125,-9.650932,0.568444,3.39991,0.116612,0.41399,0.18885
1702332290335937,-9.695932,0.584444,3.111991,0.115212,0.46099,0.7685
1702332290343750,-9.725932,0.602444,3.181991,0.113912,0.60199,0.9915
1702332290351562,-9.739932,0.629444,3.217991,0.117312,0.66299,0.11515
1702332290359375,-9.754932,0.670444,3.382991,0.116112,0.83199,0.12915
1702332290367187,-9.702932,0.681444,3.312991,0.119012,0.78799,0.11415
1702332290375000,-9.614932,0.709444,3.75991,0.99612,0.81999,0.14715
1702332290382812,-9.499932,0.760444,3.292991,0.88612,0.97599,0.24215
1702332290390625,-9.428932,0.779444,3.407991,0.80412,0.96099,0.21115
1702332290398437,-9.368932,0.809444,3.346991,0.83812,0.94399,0.21015
1702332290406250,-9.319932,0.814444,3.296991,0.77612,0.76799,0.16115
1702332290414062,-9.288932,0.872444,3.251991,0.51312,0.72599,0.14615
1702332290421875,-9.181932,0.944444,3.346991,0.47712,0.63399,0.8315
1702332290429687,-9.137932,1.19444,3.224991,0.37712,0.57299,0.5985
1702332290437500,-9.75932,1.74444,3.149991,0.38812,0.65099,0.31585
1702332290445312,-9.38932,1.105444,3.115991,0.27612,0.61399,0.55785
1702332290453125,-9.11932,1.123444,3.45991,0.1312,0.58599,0.66885
1702332290460937,-8.983932,1.149444,3.47991,0.11688,0.56699,0.87785
1702332290468750,-8.997932,1.159444,3.93991,0.19588,0.53099,0.110385
1702332290476562,-9.32932,1.122444,3.129991,0.32888,0.31299,0.118285
1702332290484375,-9.98932,1.77444,3.93991,0.38188,0.20499,0.139085
1702332290492187,-9.203932,1.30444,3.14991,0.51188,0.34299,0.158385
1702332290500000,-9.289932,0.956444,2.910991,0.68988,0.37399,0.164785
1702332290507812,-9.369932,0.914444,2.881991,0.65788,0.62499,0.164685
1702332290515625,-9.450932,0.856444,2.905991,0.70888,0.68899,0.169485
1702332290523437,-9.464932,0.833444,2.815991,0.67188,0.80899,0.169585
1702332290531250,-9.425932,0.800444,2.903991,0.76888,0.101499,0.161485
1702332290539062,-9.375932,0.752444,2.939991,0.75088,0.110899,0.147085
1702332290546875,-9.321932,0.673444,3.3991,0.68088,0.109199,0.126385
1702332290554687,-9.346932,0.602444,3.102991,0.76288,0.117499,0.108585
1702332290562500,-9.319932,0.550444,3.136991,0.67688,0.120299,0.97585
1702332290570312,-9.309932,0.503444,3.149991,0.70688,0.112599,0.81485
1702332290578125,-9.319932,0.494444,3.165991,0.67188,0.107799,0.75185
1702332290585937,-9.333932,0.500444,3.172991,0.64388,0.111599,0.58885
1702332290593750,-9.298932,0.527444,3.158991,0.65488,0.122399,0.39785
1702332290601562,-9.241932,0.568444,3.138991,0.45688,0.114699,0.9385
1702332290609375,-9.194932,0.574444,3.152991,0.40288,0.116099,0.9715
1702332290617187,-9.158932,0.574444,3.185991,0.24488,0.114899,0.13115
1702332290625000,-9.144932,0.583444,3.210991,0.13288,0.116499,0.14715
1702332290632812,-9.140932,0.593444,3.206991,0.6588,0.114999,0.24315
1702332290640625,-9.180932,0.601444,3.219991,0.11112,0.116599,0.25915
1702332290648437,-9.217932,0.610444,3.255991,0.19312,0.118099,0.30715
1702332290656250,-9.231932,0.639444,3.260991,0.35512,0.114799,0.29015
1702332290664062,-9.193932,0.631444,3.244991,0.27812,0.103599,0.33715
1702332290671875,-9.219932,0.610444,3.59991,0.16012,0.88399,0.30715
1702332290679687,-9.223932,0.612444,3.59991,0.33812,0.111599,0.19415
1702332290687500,-9.219932,0.608444,3.226991,0.66012,0.116199,0.14615
1702332290695312,-9.249932,0.571444,3.206991,0.64012,0.97799,0.13115
1702332290703125,-9.275932,0.577444,3.165991,0.66212,0.90999,0.14515
1702332290710937,-9.287932,0.604444,3.208991,0.69312,0.97199,0.8115
1702332290718750,-9.286932,0.576444,3.271991,0.76912,0.95999,0.215
1702332290726562,-9.251932,0.588444,3.334991,0.74012,0.97199,0.3085
1702332290734375,-9.235932,0.616444,3.330991,0.89912,0.89299,0.17485
1702332290742187,-9.238932,0.641444,3.310991,0.89812,0.104999,0.20685
1702332290750000,-9.237932,0.716444,3.307991,0.93112,0.98599,0.23885
1702332290757812,-9.213932,0.776444,3.280991,0.81612,0.101899,0.23785
1702332290765625,-9.162932,0.826444,3.334991,0.80012,0.101899,0.26985
1702332290773437,-9.86932,0.945444,3.380991,0.67312,0.93599,0.41585
1702332290781250,-9.5932,1.37444,3.409991,0.52612,0.87399,0.44785
1702332290789062,-8.985932,1.113444,3.436991,0.39312,0.78199,0.55885
1702332290796875,-8.982932,1.190444,3.445991,0.39012,0.67199,0.71885
1702332290804687,-8.977932,1.195444,3.458991,0.22612,0.64199,0.84685
1702332290812500,-8.986932,1.213444,3.481991,0.6212,0.50199,0.89485
1702332290820312,-9.7932,1.212444,3.436991,0.12988,0.38999,0.99185
1702332290828125,-9.45932,1.204444,3.422991,0.13288,0.35899,0.107085
1702332290835937,-9.69932,1.181444,3.425991,0.31488,0.20599,0.114985
1702332290843750,-9.113932,1.137444,3.416991,0.42788,0.18899,0.124685
1702332290851562,-9.151932,1.91444,3.416991,0.55588,0.17299,0.119885
1702332290859375,-9.201932,1.44444,3.393991,0.60888,0.8299,0.126185
1702332290867187,-9.265932,1.30444,3.414991,0.78588,0.16199,0.124585
1702332290875000,-9.308932,0.999444,3.407991,0.75188,0.15999,0.122985
1702332290882812,-9.333932,0.976444,3.402991,0.87688,0.18699,0.124785
1702332290890625,-9.348932,0.945444,3.400991,0.95588,0.16999,0.119985
1702332290898437,-9.359932,0.941444,3.396991,0.95688,0.26699,0.113485
1702332290906250,-9.367932,0.904444,3.416991,0.99088,0.36399,0.105385
1702332290914062,-9.371932,0.911444,3.407991,0.94088,0.41099,0.98985
1702332290921875,-9.331932,0.902444,3.359991,0.89088,0.48899,0.87785
1702332290929687,-9.304932,0.877444,3.368991,0.85688,0.47299,0.81385
1702332290937500,-9.274932,0.837444,3.398991,0.87488,0.44399,0.79785
1702332290945312,-9.233932,0.794444,3.382991,0.69488,0.45899,0.66985
1702332290953125,-9.225932,0.748444,3.330991,0.66288,0.46099,0.60485
1702332290960937,-9.205932,0.734444,3.283991,0.64688,0.50899,0.55685
1702332290968750,-9.234932,0.737444,3.224991,0.56288,0.63099,0.52585
1702332290976562,-9.257932,0.749444,3.163991,0.41488,0.65899,0.52685
1702332290984375,-9.225932,0.761444,3.149991,0.38688,0.58599,0.49285
1702332290992187,-9.206932,0.781444,3.129991,0.36888,0.63299,0.44485
1702332291000000,-9.193932,0.822444,3.124991,0.20888,0.55399,0.46085
1702332291007812,-9.218932,0.859444,3.165991,0.17788,0.61799,0.47685
1702332291015625,-9.224932,0.895444,3.194991,0.22088,0.56699,0.42985
1702332291023437,-9.219932,0.927444,3.151991,0.14288,0.56999,0.36485
1702332291031250,-9.195932,0.969444,3.120991,0.12788,0.55399,0.47685
1702332291039062,-9.256932,0.973444,3.45991,0.15588,0.59699,0.46285
1702332291046875,-9.276932,0.994444,3.68991,0.15688,0.83199,0.49385
1702332291054687,-9.96932,1.354444,3.63991,0.33388,0.87899,0.50985
1702332291062500,-9.291932,1.35444,3.50991,0.72688,0.102699,0.45985
1702332291070312,-9.550932,0.685444,3.430991,0.7988,0.124299,0.50885
1702332291078125,-9.331932,0.792444,3.276991,0.1688,0.87999,0.74985
1702332291085937,-9.252932,0.795444,3.133991,0.29588,0.66499,0.79685
1702332291093750,-9.248932,0.799444,3.240991,0.40488,0.86499,0.79785
1702332291101562,-9.237932,0.729444,3.355991,0.33688,0.87499,0.87985
1702332291109375,-9.239932,0.745444,3.364991,0.37188,0.78299,0.92685
1702332291117187,-9.267932,0.693444,3.294991,0.48788,0.81399,0.107085
1702332291125000,-9.210932,0.772444,3.386991,0.36088,0.78299,0.123085
1702332291132812,-9.110932,0.821444,3.350991,0.55488,0.73399,0.135985
1702332291140625,-9.41932,0.912444,3.273991,0.49888,0.75499,0.148585
1702332291148437,-9.38932,0.899444,3.258991,0.58488,0.69899,0.139285
1702332291156250,-9.23932,0.844444,3.230991,0.67088,0.68899,0.140685
1702332291164062,-9.28932,0.844444,3.203991,0.82988,0.65599,0.132685
1702332291171875,-9.5932,0.848444,3.242991,0.84588,0.57899,0.126285
1702332291179687,-8.998932,0.817444,3.230991,0.81488,0.45699,0.119785
1702332291187500,-9.40932,0.821444,3.253991,0.65588,0.38199,0.113285
1702332291195312,-9.57932,0.849444,3.271991,0.66688,0.39299,0.108685
1702332291203125,-9.129932,0.863444,3.269991,0.65188,0.20799,0.100585
1702332291210937,-9.168932,0.908444,3.224991,0.64888,0.26899,0.91085
1702332291218750,-9.203932,0.884444,3.190991,0.66688,0.20899,0.84585
1702332291226562,-9.273932,0.817444,3.210991,0.61788,0.24199,0.78085
1702332291234375,-9.289932,0.826444,3.219991,0.60188,0.21199,0.66885
1702332291242187,-9.279932,0.892444,3.161991,0.56588,0.22699,0.55685
1702332291250000,-9.263932,0.872444,3.172991,0.45188,0.30499,0.49285
1702332291257812,-9.268932,0.934444,3.213991,0.34088,0.13399,0.46085
1702332291265625,-9.293932,0.964444,3.136991,0.36188,0.12699,0.27085
1702332291273437,-9.345932,0.904444,3.217991,0.15588,0.30399,0.22185
1702332291281250,-9.348932,0.921444,3.240991,0.12088,0.19199,0.20585
1702332291289062,-9.354932,0.961444,3.197991,0.412,0.16299,0.28585
1702332291296875,-9.352932,0.990444,3.215991,0.2012,0.17999,0.23685
1702332291304687,-9.323932,0.997444,3.206991,0.14712,0.16399,0.33285
1702332291312500,-9.287932,1.5444,3.188991,0.35712,0.24299,0.28485
1702332291320312,-9.274932,1.9444,3.122991,0.39212,0.19399,0.23785
1702332291328125,-9.209932,0.975444,3.142991,0.37512,0.23999,0.30185
1702332291335937,-9.168932,0.990444,3.174991,0.38912,0.24299,0.26885
1702332291343750,-9.155932,0.967444,3.194991,0.37512,0.31899,0.26885
1702332291351562,-9.146932,0.952444,3.280991,0.39212,0.39799,0.22085
1702332291359375,-9.171932,0.956444,3.359991,0.31312,0.14599,0.18985
1702332291367187,-9.160932,0.952444,3.352991,0.16812,0.13199,0.7685
1702332291375000,-9.216932,0.921444,3.219991,0.688,0.8601,0.5015
1702332291382812,-9.255932,1.3444,3.136991,0.10612,0.2199,0.1385
1702332291390625,-9.240932,1.48444,3.255991,0.39512,0.799,0.3515
1702332291398437,-9.214932,1.73444,3.140991,0.29412,0.9701,0.5215
1702332291406250,-9.158932,1.70444,3.111991,0.34312,0.6401,0.14915
1702332291414062,-9.33932,1.83444,3.228991,0.52212,0.6601,0.11615
1702332291421875,-9.52932,1.79444,3.271991,0.68412,0.25401,0.22815
1702332291429687,-9.136932,1.29444,3.244991,0.87912,0.33201,0.30815
1702332291437500,-9.193932,0.952444,3.285991,0.104212,0.36401,0.34015
1702332291445312,-9.273932,0.896444,3.294991,0.97612,0.45601,0.40415
1702332291453125,-9.272932,0.856444,3.289991,0.113812,0.41001,0.38815
1702332291460937,-9.299932,0.825444,3.269991,0.117112,0.59801,0.40415
1702332291468750,-9.370932,0.823444,3.274991,0.141012,0.48601,0.38915
1702332291476562,-9.391932,0.865444,3.249991,0.150712,0.56401,0.43715
1702332291484375,-9.387932,0.920444,3.222991,0.173312,0.50201,0.40515
1702332291492187,-9.386932,0.964444,3.235991,0.188112,0.41101,0.43615
1702332291500000,-9.372932,0.991444,3.269991,0.192812,0.48601,0.46915
1702332291507812,-9.406932,0.991444,3.271991,0.196212,0.47301,0.46815
1702332291515625,-9.432932,0.986444,3.262991,0.215912,0.46001,0.51515
1702332291523437,-9.449932,0.962444,3.242991,0.212612,0.50601,0.53215
1702332291531250,-9.465932,0.937444,3.251991,0.220312,0.48501,0.59715
1702332291539062,-9.448932,0.930444,3.249991,0.219012,0.34701,0.61215
1702332291546875,-9.383932,0.922444,3.176991,0.207812,0.39401,0.66015
1702332291554687,-9.331932,0.920444,3.140991,0.201012,0.25001,0.59715
1702332291562500,-9.307932,0.929444,3.115991,0.180612,0.20901,0.59515
1702332291570312,-9.291932,0.952444,3.48991,0.180312,0.14401,0.56415
1702332291578125,-9.247932,0.964444,3.5991,0.173912,0.401,0.54815
1702332291585937,-9.231932,0.942444,2.971991,0.161212,0.11999,0.56415
1702332291593750,-9.204932,0.908444,2.948991,0.167612,0.17999,0.41915
1702332291601562,-9.187932,0.895444,2.946991,0.152512,0.18299,0.29215
1702332291609375,-9.199932,0.893444,2.973991,0.148012,0.35099,0.17915
1702332291617187,-9.228932,0.886444,2.996991,0.143112,0.33399,0.13015
1702332291625000,-9.231932,0.854444,3.5991,0.133112,0.39899,0.6715
1702332291632812,-9.254932,0.838444,2.975991,0.129912,0.51999,0.17385
1702332291640625,-9.276932,0.821444,2.989991,0.131412,0.47099,0.31885
1702332291648437,-9.307932,0.820444,2.987991,0.119812,0.61399,0.41385
1702332291656250,-9.335932,0.821444,2.987991,0.118612,0.73299,0.55985
1702332291664062,-9.330932,0.805444,2.987991,0.115212,0.80899,0.71985
1702332291671875,-9.299932,0.811444,2.939991,0.110412,0.88599,0.80085
1702332291679687,-9.276932,0.828444,2.910991,0.112812,0.89099,0.91085
1702332291687500,-9.271932,0.829444,2.917991,0.102912,0.92399,0.100585
1702332291695312,-9.248932,0.858444,2.899991,0.103512,0.93199,0.108885
1702332291703125,-9.218932,0.891444,2.867991,0.96512,0.88899,0.115085
1702332291710937,-9.219932,0.937444,2.896991,0.91512,0.73199,0.126385
1702332291718750,-9.253932,0.980444,2.971991,0.94512,0.77999,0.132685
1702332291726562,-9.267932,1.34444,3.7991,0.97512,0.63999,0.135885
1702332291734375,-9.211932,1.44444,2.973991,0.105312,0.40599,0.145485
1702332291742187,-9.206932,1.59444,2.959991,0.94412,0.41799,0.147185
1702332291750000,-9.255932,1.80444,3.14991,0.102312,0.40399,0.143885
1702332291757812,-9.258932,1.77444,3.32991,0.105912,0.41599,0.148885
1702332291765625,-9.304932,1.85444,3.50991,0.98912,0.45299,0.147085
