time,Acceleration X (m/s^2),Acceleration Y (m/s^2),Acceleration Z (m/s^2),Angular Velocity X (rad/s),Angular Velocity Y (rad/s),Angular Velocity Z (rad/s)
1702331997078125,-9.34506,-0.256063,2.908425,,,
1702331997085937,-9.36406,0.324063,2.838425,0.276168,0.2698,0.11277
1702331997093750,-9.35606,0.320063,2.786425,0.269468,0.1428,0.10317
1702331997101562,-9.40906,0.269063,2.757425,0.271968,0.988,0.10517
1702331997109375,-9.39206,0.246063,2.721425,0.285568,0.1898,0.10157
1702331997117187,-9.38606,0.249063,2.759425,0.283668,0.2648,0.10327
1702331997132812,-9.31306,0.153063,2.766425,0.296568,0.1098,0.9207
1702331997140625,-9.30306,0.82063,2.728425,0.324168,0.1138,0.8877
1702331997148437,-9.31706,0.42063,2.759425,0.321068,0.1638,0.8547
1702331997156250,-9.32506,0.57063,2.816425,0.326468,0.298,0.8847
1702331997179687,-9.38006,0.135063,2.755425,0.356168,0.1778,0.10747
1702331997187500,-9.33506,0.167063,2.732425,0.361968,0.568,0.10937
1702331997195312,-9.30406,0.192063,2.728425,0.339068,0.592,0.10957
1702331997203125,-9.34406,0.203063,2.703425,0.332468,0.1242,0.10487
1702331997210937,-9.34006,0.235063,2.667425,0.338168,0.2482,0.9637
1702331997218750,-9.30306,0.227063,2.630425,0.345768,0.2072,0.9017
1702331997226562,-9.30806,0.212063,2.542425,0.343968,0.3182,0.7897
1702331997234375,-9.28206,0.182063,2.522425,0.349668,0.3572,0.6807
1702331997242187,-9.28106,0.163063,2.533425,0.349068,0.3732,0.6437
1702331997250000,-9.31406,0.192063,2.565425,0.348968,0.3772,0.7567
1702331997257812,-9.38106,0.239063,2.612425,0.350768,0.5482,0.8367
1702331997265625,-9.53706,0.297063,2.619425,0.360368,0.6452,0.8697
1702331997273437,-9.62406,0.334063,2.599425,0.369968,0.6482,0.9027
1702331997281250,-9.68506,0.383063,2.568425,0.354468,0.5742,0.8987
1702331997289062,-9.70906,0.454063,2.489425,0.359068,0.5032,0.9967
1702331997296875,-9.77606,0.493063,2.443425,0.353868,0.3502,0.10147
1702331997304687,-9.70206,0.429063,2.450425,0.362368,0.3282,0.9967
1702331997312500,-9.74306,0.568063,2.299425,0.369068,0.4232,0.11567
1702331997320312,-9.74506,0.606063,2.423425,0.324468,0.1862,0.11127
1702331997328125,-9.62306,0.490063,2.601425,0.328368,0.812,0.11087
1702331997335937,-9.58306,0.506063,2.561425,0.342768,0.2072,0.10297
1702331997343750,-9.55206,0.470063,2.534425,0.342368,0.2142,0.10637
1702331997351562,-9.49706,0.411063,2.473425,0.363568,0.3042,0.10307
1702331997359375,-9.47106,0.360063,2.470425,0.371468,0.2912,0.10477
1702331997367187,-9.50506,0.342063,2.488425,0.370268,0.3002,0.10457
1702331997375000,-9.55606,0.336063,2.488425,0.370768,0.1982,0.10427
1702331997382812,-9.61206,0.342063,2.520425,0.372168,0.1702,0.10437
1702331997390625,-9.63206,0.380063,2.513425,0.366568,0.2292,0.10317
1702331997398437,-9.59606,0.391063,2.565425,0.358668,0.862,0.10627
1702331997406250,-9.54306,0.387063,2.674425,0.352968,0.1642,0.11477
1702331997414062,-9.52406,0.399063,2.710425,0.350768,0.1032,0.11907
1702331997421875,-9.52406,0.437063,2.601425,0.355468,0.3122,0.13367
1702331997429687,-9.50206,0.379063,2.459425,0.363968,0.2442,0.14317
1702331997437500,-9.44506,0.323063,2.418425,0.337868,0.2052,0.15137
1702331997445312,-9.44806,0.272063,2.398425,0.310968,0.3702,0.15277
1702331997453125,-9.45906,0.229063,2.450425,0.271568,0.3562,0.15707
1702331997460937,-9.43906,0.228063,2.439425,0.257768,0.5272,0.15277
1702331997468750,-9.39606,0.327063,2.346425,0.240768,0.6632,0.13547
1702331997476562,-9.36606,0.333063,2.210425,0.246168,0.5562,0.13027
1702331997484375,-9.33706,0.311063,2.163425,0.237868,0.4822,0.13037
1702331997492187,-9.31706,0.320063,2.156425,0.237768,0.5432,0.11917
1702331997500000,-9.31206,0.306063,2.122425,0.235368,0.5432,0.10427
1702331997507812,-9.37706,0.290063,2.25425,0.241368,0.5792,0.9647
1702331997515625,-9.48606,0.227063,1.935425,0.242168,0.4982,0.9517
1702331997523437,-9.59206,0.159063,1.910425,0.240768,0.3522,0.9187
1702331997531250,-9.72006,0.108063,1.958425,0.236468,0.2692,0.10767
1702331997539062,-9.80606,0.66063,2.28425,0.236968,0.1042,0.10907
1702331997546875,-9.85406,0.71063,2.123425,0.216368,0.1112,0.11777
1702331997554687,-9.85006,0.122063,2.186425,0.211968,0.378,0.12227
1702331997562500,-9.85706,0.157063,2.233425,0.195968,0.638,0.14477
1702331997570312,-9.82206,0.220063,2.240425,0.189468,0.788,0.14967
1702331997578125,-9.75006,0.258063,2.274425,0.184568,0.2188,0.15287
1702331997585937,-9.67406,0.226063,2.326425,0.163768,0.2528,0.15117
1702331997593750,-9.61806,0.265063,2.294425,0.170268,0.2058,0.15277
1702331997601562,-9.64006,0.266063,2.258425,0.167268,0.1468,0.14947
1702331997609375,-9.60406,0.255063,2.213425,0.164268,0.2308,0.14607
1702331997617187,-9.57606,0.275063,2.100425,0.162968,0.3618,0.14267
1702331997625000,-9.53006,0.250063,2.102425,0.124768,0.3968,0.12387
1702331997632812,-9.53006,0.311063,2.77425,0.120968,0.3108,0.11927
1702331997640625,-9.53206,0.302063,2.73425,0.106568,0.2058,0.10157
1702331997648437,-9.47706,0.242063,2.170425,0.85668,0.998,0.9187
1702331997656250,-9.48906,0.214063,2.174425,0.86868,0.788,0.8237
1702331997664062,-9.53606,0.178063,2.183425,0.81968,0.2378,0.7267
1702331997671875,-9.64806,0.178063,2.211425,0.64268,0.3188,0.6777
1702331997679687,-9.78606,0.200063,2.215425,0.59468,0.3538,0.5647
1702331997687500,-9.84006,0.177063,2.211425,0.59668,0.3768,0.3867
1702331997695312,-9.82006,0.143063,2.211425,0.53268,0.2098,0.2097
1702331997703125,-9.81606,0.172063,2.249425,0.46468,0.2388,0.817
1702331997710937,-9.82706,0.215063,2.312425,0.36268,0.2018,0.123
1702331997718750,-9.81106,0.224063,2.267425,0.47668,0.2128,0.1967
1702331997726562,-9.75706,0.256063,2.249425,0.50568,0.4428,0.2627
1702331997734375,-9.72606,0.246063,2.310425,0.41968,0.3678,0.3627
1702331997742187,-9.66606,0.196063,2.251425,0.43968,0.3118,0.3607
1702331997750000,-9.65106,0.149063,2.118425,0.34568,0.3338,0.3267
1702331997757812,-9.60006,0.95063,2.95425,0.10268,0.3448,0.3917
1702331997765625,-9.50006,0.50063,2.102425,0.27032,0.1708,0.3447
1702331997773437,-9.48106,0.0,2.120425,0.48232,0.2918,0.3617
1702331997781250,-9.44406,0.35063,2.174425,0.68732,0.3778,0.3747
1702331997789062,-9.42406,0.98063,2.240425,0.57532,0.4218,0.4397
1702331997796875,-9.43206,0.106063,2.244425,0.41432,0.4838,0.4077
1702331997804687,-9.46406,0.97063,2.210425,0.41332,0.5808,0.4227
1702331997812500,-9.47506,0.75063,2.129425,0.30232,0.7058,0.3587
1702331997820312,-9.45106,0.37063,2.95425,0.43332,0.8268,0.3927
1702331997828125,-9.45506,0.10063,2.145425,0.45632,0.8428,0.3557
1702331997835937,-9.48006,0.33063,2.217425,0.62832,0.8118,0.2957
1702331997843750,-9.56106,0.43063,2.260425,0.76132,0.7738,0.2497
1702331997851562,-9.60506,0.75063,2.281425,0.97032,0.7928,0.2007
1702331997859375,-9.65206,0.97063,2.281425,0.114832,0.8088,0.1527
1702331997867187,-9.66306,0.147063,2.294425,0.121432,0.8708,0.727
1702331997875000,-9.64806,0.162063,2.283425,0.125732,0.8648,0.217
1702331997882812,-9.60906,0.146063,2.290425,0.122932,0.8898,0.557
1702331997890625,-9.59506,0.107063,2.330425,0.131932,0.8248,0.603
1702331997898437,-9.57906,0.110063,2.394425,0.141632,0.7788,0.1243
1702331997906250,-9.57606,0.96063,2.457425,0.139332,0.7018,0.1843
1702331997914062,-9.63206,0.101063,2.430425,0.147532,0.6248,0.3123
1702331997921875,-9.72806,0.130063,2.391425,0.152332,0.6938,0.5063
1702331997929687,-9.79406,0.143063,2.391425,0.169832,0.5578,0.6033
1702331997937500,-9.78806,0.134063,2.389425,0.173032,0.3908,0.7973
1702331997945312,-9.78106,0.145063,2.360425,0.153732,0.4538,0.8133
1702331997953125,-9.81406,0.187063,2.362425,0.157632,0.5528,0.8103
1702331997960937,-9.81006,0.185063,2.394425,0.149332,0.6028,0.7633
1702331997968750,-9.74206,0.172063,2.378425,0.140732,0.7048,0.7343
1702331997976562,-9.61906,0.185063,2.375425,0.126032,0.7818,0.5893
1702331997984375,-9.52306,0.142063,2.369425,0.118132,0.7478,0.5563
1702331997992187,-9.44106,0.110063,2.364425,0.107132,0.7418,0.5543
1702331998000000,-9.41506,0.48063,2.344425,0.126032,0.8598,0.5733
1702331998007812,-9.41506,0.2063,2.371425,0.143832,0.8438,0.5573
1702331998015625,-9.40206,0.7063,2.405425,0.136032,0.7908,0.5393
1702331998023437,-9.40406,0.40063,2.398425,0.135832,0.8408,0.5083
1702331998031250,-9.42406,0.83063,2.378425,0.135032,0.8238,0.3593
1702331998039062,-9.44606,0.108063,2.387425,0.147432,0.9268,0.3783
1702331998046875,-9.40606,0.100063,2.466425,0.139432,0.8458,0.2973
1702331998054687,-9.30906,0.97063,2.522425,0.132532,0.7888,0.2673
1702331998062500,-9.22406,0.89063,2.572425,0.109732,0.6798,0.1873
1702331998070312,-9.21206,0.43063,2.504425,0.97032,0.5808,0.1213
1702331998078125,-9.26906,0.14937,2.405425,0.92132,0.4558,0.1053
1702331998085937,-9.31906,0.115937,2.344425,0.93132,0.4648,0.1243
1702331998093750,-9.33706,0.110937,2.335425,0.99932,0.3968,0.1063
1702331998101562,-9.38806,0.92937,2.339425,0.114032,0.2938,0.1243
1702331998109375,-9.40006,0.118937,2.400425,0.117632,0.1938,0.1383
1702331998117187,-9.42906,0.139937,2.459425,0.110632,0.1418,0.2053
1702331998125000,-9.46206,0.79937,2.375425,0.88532,0.88,0.2513
1702331998132812,-9.51106,0.74937,2.314425,0.62432,0.1868,0.2523
1702331998140625,-9.53506,0.111937,2.353425,0.68432,0.2488,0.3123
1702331998148437,-9.54706,0.73937,2.382425,0.58432,0.1898,0.3133
1702331998156250,-9.57606,0.72937,2.488425,0.62832,0.3708,0.2993
1702331998164062,-9.52306,0.106937,2.520425,0.63232,0.3798,0.2653
1702331998171875,-9.46606,0.73937,2.357425,0.44932,0.1488,0.1383
1702331998179687,-9.45606,0.44937,2.192425,0.38032,0.1388,0.763
1702331998187500,-9.45406,0.13937,2.156425,0.26932,0.698,0.377
1702331998195312,-9.46806,0.11063,2.208425,0.11232,0.1722,0.77
1702331998203125,-9.52806,0.30063,2.188425,0.1568,0.2222,0.567
1702331998210937,-9.53106,0.65063,2.229425,0.6768,0.58,0.583
1702331998218750,-9.58306,0.78063,2.238425,0.25868,0.122,0.1213
1702331998226562,-9.66406,0.54063,2.220425,0.40368,0.508,0.1053
1702331998234375,-9.71306,0.31063,2.184425,0.55168,0.1818,0.1223
1702331998242187,-9.71706,0.15063,2.188425,0.41168,0.2368,0.1413
1702331998250000,-9.75706,0.61063,2.240425,0.32868,0.2188,0.1563
1702331998257812,-9.78206,0.111063,2.267425,0.34868,0.1658,0.1023
1702331998265625,-9.79806,0.147063,2.281425,0.47368,0.2968,0.1723
1702331998273437,-9.74806,0.117063,2.269425,0.63068,0.3838,0.1383
1702331998281250,-9.67506,0.76063,2.258425,0.62968,0.2408,0.1053
1702331998289062,-9.60706,0.25063,2.217425,0.81568,0.1908,0.1253
1702331998296875,-9.56406,0.16063,2.170425,0.83968,0.3188,0.893
1702331998304687,-9.53606,0.60063,2.125425,0.95568,0.4458,0.377
1702331998312500,-9.54806,0.106063,2.95425,0.89668,0.4508,0.2127
1702331998320312,-9.56306,0.184063,2.113425,0.85968,0.4248,0.2797
1702331998328125,-9.54206,0.231063,2.168425,0.84368,0.4868,0.3117
1702331998335937,-9.57406,0.219063,2.244425,0.82468,0.4838,0.2967
1702331998343750,-9.59406,0.217063,2.301425,0.76168,0.5028,0.2797
1702331998351562,-9.57206,0.231063,2.344425,0.80668,0.4968,0.2327
1702331998359375,-9.55706,0.268063,2.337425,0.85868,0.4758,0.697
1702331998367187,-9.59606,0.284063,2.258425,0.83568,0.4478,0.897
1702331998375000,-9.60906,0.308063,2.193425,0.84968,0.5108,0.63
1702331998382812,-9.59506,0.303063,2.154425,0.85268,0.4678,0.247
1702331998390625,-9.60506,0.261063,2.132425,0.83668,0.3428,0.87
1702331998398437,-9.58306,0.212063,2.120425,0.86068,0.3238,0.207
1702331998406250,-9.57906,0.182063,2.145425,0.80768,0.2208,0.397
1702331998414062,-9.54506,0.178063,2.161425,0.80868,0.3028,0.67
1702331998421875,-9.54506,0.180063,2.186425,0.85868,0.3208,0.217
1702331998429687,-9.55006,0.182063,2.179425,0.84068,0.3648,0.227
1702331998437500,-9.54706,0.191063,2.116425,0.90768,0.3828,0.377
1702331998445312,-9.55106,0.228063,2.66425,0.89268,0.5108,0.527
1702331998453125,-9.56306,0.230063,2.150425,0.68068,0.4718,0.1667
1702331998460937,-9.56406,0.246063,2.150425,0.63568,0.3968,0.2627
1702331998468750,-9.62006,0.256063,2.86425,0.78168,0.4938,0.2457
1702331998476562,-9.61306,0.269063,2.93425,0.84968,0.5268,0.3567
1702331998484375,-9.58306,0.262063,2.138425,0.86868,0.3788,0.2587
1702331998492187,-9.59106,0.249063,2.206425,0.84968,0.3878,0.3087
1702331998500000,-9.61006,0.271063,2.235425,0.88668,0.4088,0.4027
1702331998507812,-9.65106,0.282063,2.204425,0.89868,0.4488,0.3887
1702331998515625,-9.66606,0.313063,2.141425,0.86168,0.5518,0.4067
1702331998523437,-9.63206,0.329063,2.98425,0.91068,0.5678,0.4067
1702331998531250,-9.59506,0.287063,2.55425,0.99068,0.5828,0.3907
1702331998539062,-9.55906,0.262063,2.98425,0.90368,0.6608,0.4017
1702331998546875,-9.54206,0.234063,2.208425,0.85168,0.6078,0.4357
1702331998554687,-9.54206,0.239063,2.263425,0.73768,0.5728,0.4847
1702331998562500,-9.55306,0.279063,2.249425,0.63668,0.5818,0.5027
1702331998570312,-9.54306,0.343063,2.188425,0.58768,0.6448,0.4227
1702331998578125,-9.54506,0.377063,2.136425,0.60168,0.5948,0.4077
1702331998585937,-9.54906,0.412063,2.113425,0.58268,0.5608,0.3607
1702331998593750,-9.56206,0.409063,2.147425,0.57168,0.4928,0.2617
1702331998601562,-9.55006,0.409063,2.197425,0.60668,0.5338,0.2517
1702331998609375,-9.54206,0.437063,2.222425,0.72668,0.5318,0.1837
1702331998617187,-9.53506,0.446063,2.186425,0.82168,0.6108,0.397
1702331998625000,-9.53506,0.408063,2.132425,0.71068,0.5968,0.1027
1702331998632812,-9.53106,0.370063,2.102425,0.60568,0.5278,0.1967
1702331998640625,-9.54006,0.349063,2.57425,0.59168,0.4688,0.2437
1702331998648437,-9.56606,0.398063,2.107425,0.45568,0.4908,0.1667
1702331998656250,-9.61906,0.444063,2.159425,0.28068,0.4778,0.1497
1702331998664062,-9.66706,0.457063,2.181425,0.32368,0.4258,0.227
1702331998671875,-9.71606,0.449063,2.184425,0.16268,0.5688,0.263
1702331998679687,-9.74506,0.433063,2.193425,0.11268,0.5968,0.227
1702331998687500,-9.71606,0.422063,2.229425,0.3568,0.5878,0.273
1702331998695312,-9.66006,0.434063,2.276425,0.3468,0.6348,0.433
1702331998703125,-9.61106,0.455063,2.276425,0.8068,0.6468,0.583
1702331998710937,-9.56806,0.449063,2.235425,0.4868,0.6628,0.263
1702331998718750,-9.52606,0.435063,2.181425,0.9732,0.5808,0.93
1702331998726562,-9.50206,0.389063,2.134425,0.19732,0.4808,0.87
1702331998734375,-9.52306,0.320063,2.147425,0.8232,0.4378,0.243
1702331998742187,-9.52806,0.282063,2.197425,0.19332,0.4248,0.93
1702331998750000,-9.52506,0.306063,2.240425,0.17532,0.4598,0.103
1702331998757812,-9.56306,0.337063,2.247425,0.27632,0.5158,0.243
1702331998765625,-9.59806,0.378063,2.251425,0.32132,0.5998,0.103
1702331998773437,-9.60406,0.393063,2.278425,0.38032,0.6398,0.37
1702331998781250,-9.58306,0.380063,2.310425,0.35432,0.7388,0.547
1702331998789062,-9.55506,0.360063,2.348425,0.45832,0.6798,0.257
1702331998796875,-9.54806,0.344063,2.188425,0.31132,0.5708,0.1227
1702331998804687,-9.51906,0.316063,2.156425,0.29832,0.7228,0.1557
1702331998812500,-9.47806,0.331063,2.229425,0.41732,0.6758,0.1667
1702331998820312,-9.51806,0.341063,2.269425,0.42832,0.6508,0.1967
1702331998828125,-9.54006,0.404063,2.235425,0.29232,0.6038,0.2337
1702331998835937,-9.51506,0.370063,2.249425,0.36032,0.7188,0.2747
1702331998843750,-9.47406,0.282063,2.206425,0.44132,0.5748,0.3077
1702331998851562,-9.47806,0.282063,2.129425,0.44332,0.5568,0.2607
1702331998859375,-9.48206,0.331063,2.211425,0.44532,0.5648,0.4067
1702331998867187,-9.49106,0.395063,2.305425,0.44732,0.5928,0.4237
1702331998875000,-9.54106,0.433063,2.326425,0.41932,0.6118,0.4507
1702331998882812,-9.57006,0.484063,2.278425,0.44332,0.4748,0.4377
1702331998890625,-9.61206,0.462063,2.242425,0.45832,0.3498,0.4217
1702331998898437,-9.64906,0.425063,2.211425,0.44032,0.3688,0.3887
1702331998906250,-9.64406,0.397063,2.245425,0.52132,0.4818,0.3077
1702331998914062,-9.66106,0.359063,2.315425,0.58832,0.4168,0.2447
1702331998921875,-9.67906,0.334063,2.376425,0.66832,0.5288,0.2277
1702331998929687,-9.64806,0.304063,2.394425,0.53832,0.5598,0.2437
1702331998937500,-9.60206,0.298063,2.364425,0.43232,0.6288,0.2307
1702331998945312,-9.55006,0.292063,2.339425,0.44132,0.6058,0.2917
1702331998953125,-9.50606,0.278063,2.333425,0.42932,0.5028,0.4067
1702331998960937,-9.48506,0.248063,2.299425,0.43632,0.4218,0.4667
1702331998968750,-9.46606,0.211063,2.274425,0.43632,0.4368,0.4997
1702331998976562,-9.45706,0.185063,2.274425,0.68232,0.3838,0.4847
1702331998984375,-9.45806,0.174063,2.303425,0.83032,0.3308,0.5027
1702331998992187,-9.48006,0.185063,2.314425,0.92332,0.3208,0.5497
1702331999000000,-9.53806,0.162063,2.337425,0.90732,0.4138,0.5177
1702331999007812,-9.59506,0.117063,2.294425,0.84532,0.4268,0.4697
1702331999015625,-9.61406,0.101063,2.269425,0.70532,0.5308,0.4237
1702331999023437,-9.61006,0.57063,2.265425,0.86332,0.5978,0.4547
1702331999031250,-9.62306,0.36063,2.303425,0.90832,0.4958,0.3717
1702331999039062,-9.65306,0.32063,2.357425,0.91332,0.4088,0.3907
1702331999046875,-9.67306,0.52063,2.391425,0.81832,0.4838,0.4237
1702331999054687,-9.67706,0.94063,2.400425,0.86532,0.5028,0.3747
1702331999062500,-9.66306,0.118063,2.405425,0.81832,0.3908,0.3597
1702331999070312,-9.63606,0.138063,2.387425,0.68832,0.4718,0.2947
1702331999078125,-9.60906,0.144063,2.380425,0.62832,0.4508,0.2487
1702331999085937,-9.57306,0.142063,2.362425,0.61032,0.5318,0.2477
1702331999093750,-9.52906,0.146063,2.326425,0.56732,0.4888,0.1617
1702331999101562,-9.49506,0.139063,2.269425,0.54632,0.5478,0.2157
1702331999109375,-9.45006,0.102063,2.206425,0.51432,0.5938,0.2637
1702331999117187,-9.43006,0.75063,2.174425,0.53832,0.4308,0.3727
1702331999125000,-9.40806,0.67063,2.222425,0.68732,0.5018,0.4547
1702331999132812,-9.38206,0.39063,2.350425,0.92932,0.5138,0.5687
1702331999140625,-9.37606,0.62063,2.271425,0.82632,0.4758,0.5977
1702331999148437,-9.44606,0.86063,2.149425,0.87832,0.5468,0.7117
1702331999156250,-9.47706,0.101063,2.143425,0.104132,0.5278,0.7127
1702331999164062,-9.53506,0.100063,2.195425,0.110632,0.6208,0.7287
1702331999171875,-9.57806,0.120063,2.208425,0.120332,0.6678,0.7127
1702331999179687,-9.61206,0.144063,2.193425,0.117632,0.7798,0.7237
1702331999187500,-9.64006,0.140063,2.159425,0.131432,0.7828,0.6787
1702331999195312,-9.62206,0.144063,2.102425,0.143332,0.8048,0.6497
1702331999203125,-9.63306,0.149063,2.82425,0.160432,0.7508,0.6957
1702331999210937,-9.69006,0.187063,2.68425,0.193532,0.6698,0.6757
1702331999218750,-9.74906,0.223063,2.66425,0.212432,0.6948,0.6087
1702331999226562,-9.77806,0.235063,2.71425,0.255032,0.6228,0.4987
1702331999234375,-9.78506,0.242063,2.71425,0.282732,0.6358,0.4197
1702331999242187,-9.76106,0.245063,2.28425,0.307932,0.6698,0.3117
1702331999250000,-9.72206,0.258063,1.976425,0.342732,0.6668,0.2277
1702331999257812,-9.73506,0.304063,1.885425,0.383332,0.6168,0.1807
1702331999265625,-9.80006,0.330063,1.815425,0.422332,0.7568,0.847
1702331999273437,-9.91806,0.388063,1.768425,0.471032,0.8268,0.1667
1702331999281250,-10.306,0.430063,1.752425,0.521732,0.8018,0.897
1702331999289062,-10.2906,0.462063,1.737425,0.599032,0.9008,0.243
1702331999296875,-10.6906,0.469063,1.766425,0.657732,0.9878,0.863
1702331999304687,-10.14406,0.518063,1.725425,0.707332,0.11828,0.1203
1702331999312500,-10.18806,0.549063,1.705425,0.751932,0.14278,0.1403
1702331999320312,-10.20606,0.603063,1.703425,0.811532,0.16898,0.2943
1702331999328125,-10.18406,0.640063,1.728425,0.876932,0.18868,0.5163
1702331999335937,-10.17106,0.691063,1.737425,0.936832,0.19218,0.7733
1702331999343750,-10.16806,0.719063,1.719425,0.990132,0.20378,0.10483
1702331999351562,-10.14806,0.699063,1.746425,1.41732,0.20598,0.13063
1702331999359375,-10.13906,0.722063,1.728425,1.108732,0.20358,0.15273
1702331999367187,-10.16806,0.660063,1.728425,1.174332,0.20398,0.17963
1702331999375000,-10.19306,0.555063,1.762425,1.238432,0.20208,0.19923
1702331999382812,-10.15006,0.478063,1.764425,1.294932,0.18848,0.22663
1702331999390625,-10.9606,0.481063,1.739425,1.349932,0.17498,0.26193
1702331999398437,-10.2706,0.377063,1.730425,1.416132,0.15548,0.29903
1702331999406250,-9.93306,0.379063,1.718425,1.458732,0.16628,0.33583
1702331999414062,-9.79606,0.441063,1.764425,1.501532,0.20698,0.37583
1702331999421875,-9.66706,0.549063,1.843425,1.557432,0.24848,0.41243
1702331999429687,-9.65106,0.634063,1.989425,1.610132,0.28538,0.44593
1702331999437500,-9.60506,0.780063,2.100425,1.659832,0.30108,0.48323
1702331999445312,-9.61806,0.936063,2.197425,1.700232,0.32058,0.51223
1702331999453125,-9.64206,-1.16063,2.163425,1.738532,0.34278,0.53743
1702331999460937,-9.53506,-1.104063,2.147425,1.804532,0.37208,0.56823
1702331999468750,-9.42806,-1.79063,2.32425,1.873232,0.35728,0.59683
1702331999476562,-9.37206,-1.105063,1.860425,1.943332,0.38348,0.62713
1702331999484375,-9.33006,-1.57063,1.976425,2.43932,0.41308,0.65273
1702331999492187,-9.33506,-1.164063,2.39425,2.111632,0.42658,0.68663
1702331999500000,-9.39006,-1.188063,1.955425,2.176932,0.43418,0.72823
1702331999507812,-9.47206,-1.273063,1.635425,2.251632,0.43438,0.76193
1702331999515625,-9.47006,-1.237063,1.431425,2.384432,0.44718,0.80683
1702331999523437,-9.33406,-1.224063,1.666425,2.502932,0.39228,0.85643
1702331999531250,-9.31306,-1.138063,1.612425,2.569132,0.30998,0.90463
1702331999539062,-9.30106,-1.64063,1.549425,2.650732,0.32038,0.94123
1702331999546875,-9.22206,-1.65063,1.476425,2.736132,0.29158,0.98153
1702331999554687,-9.21606,0.971063,1.461425,2.824632,0.25488,-1.733
1702331999562500,-9.28906,0.938063,1.470425,2.917532,0.23848,-1.3923
1702331999570312,-9.31806,0.920063,1.515425,2.990532,0.21528,-1.8573
1702331999578125,-9.38206,0.888063,1.537425,3.60432,0.18718,-1.12413
1702331999585937,-9.41306,0.872063,1.409425,3.144332,0.15328,-1.15313
1702331999593750,-9.44706,0.550063,1.522425,3.246232,0.11758,-1.18683
1702331999601562,-9.53206,0.376063,1.608425,3.292732,0.8398,-1.21263
1702331999609375,-9.61506,0.283063,1.770425,3.353532,0.11078,-1.22353
1702331999617187,-9.54706,0.325063,1.815425,3.406032,0.9798,-1.23503
1702331999625000,-9.49106,0.333063,1.827425,3.493532,0.8438,-1.22193
1702331999632812,-9.56206,0.212063,1.788425,3.536032,0.4808,-1.20793
1702331999640625,-9.61606,0.167063,1.553425,3.587932,0.8138,-1.17883
1702331999648437,-9.74706,0.152063,1.614425,3.645832,0.9318,-1.14023
1702331999656250,-9.91206,0.120063,1.441425,3.706632,0.8538,-1.11143
1702331999664062,-10.2806,0.50063,1.328425,3.797132,0.12058,-1.8083
1702331999671875,-10.19606,0.3063,1.366425,3.890132,0.14258,-1.5043
1702331999679687,-10.27006,0.47063,1.649425,3.961132,0.13388,-1.2143
1702331999687500,-10.41106,0.260937,1.809425,4.23432,0.12018,-1.393
1702331999695312,-10.30006,0.300937,1.929425,4.39832,0.16378,0.99913
1702331999703125,-10.22306,0.199937,1.974425,4.103432,0.15418,0.98103
1702331999710937,-10.31106,0.273937,2.161425,4.136832,0.12518,0.98123
1702331999718750,-10.17906,0.132937,2.193425,4.168532,0.15818,0.95093
1702331999726562,-9.93406,0.126063,1.965425,4.193332,0.18168,0.92323
1702331999734375,-9.96006,0.38937,1.831425,4.255432,0.15748,0.90593
1702331999742187,-9.88206,0.309937,2.7425,4.266632,0.18218,0.88983
1702331999750000,-9.75506,0.257937,1.953425,4.274232,0.19748,0.89653
1702331999757812,-9.78506,0.198937,1.897425,4.260032,0.18918,0.90123
1702331999765625,-9.97406,0.386937,1.935425,4.284532,0.14698,0.93323
1702331999773437,-9.99106,0.415937,2.254425,4.312432,0.9098,0.98933
1702331999781250,-9.94706,0.303937,1.967425,4.308632,0.7288,-1.2433
1702331999789062,-9.72306,0.88063,1.768425,4.311832,0.8188,-1.5983
1702331999796875,-9.61806,0.418937,1.637425,4.379332,0.3898,-1.9053
1702331999804687,-9.40806,0.462937,1.506425,4.381332,0.2838,-1.12893
1702331999812500,-9.34006,0.651937,1.273425,4.409132,0.4668,-1.13203
1702331999820312,-9.60106,1.311937,1.503425,4.380732,0.10408,-1.14473
1702331999828125,-9.26506,1.142937,1.562425,4.278832,0.21168,-1.19103
1702331999835937,-9.31906,1.423937,1.361425,4.276032,0.16548,-1.21083
1702331999843750,-9.40406,1.86937,1.844425,4.291132,0.19208,-1.23803
1702331999851562,-9.36906,1.116937,2.27425,4.254332,0.12138,-1.26193
1702331999859375,-9.53306,1.94937,1.912425,4.211932,0.4358,-1.26693
1702331999867187,-9.36506,1.85937,2.48425,4.160732,0.3578,-1.29573
1702331999875000,-9.41206,0.930937,1.774425,4.125332,0.768,-1.30693
1702331999882812,-9.50606,1.170937,2.9425,4.138932,0.3288,-1.31053
1702331999890625,-9.40806,1.417937,2.102425,4.122232,0.3258,-1.30683
1702331999898437,-9.32506,1.245937,2.100425,4.96232,0.5768,-1.29573
1702331999906250,-9.21406,1.344937,2.154425,4.104532,0.2712,-1.26873
1702331999914062,-9.30806,1.120937,2.43425,4.87632,0.3262,-1.23453
1702331999921875,-9.7206,1.259937,2.221425,4.88332,0.2572,-1.20113
1702331999929687,-9.18306,1.491937,2.248425,4.47832,0.3352,-1.18993
1702331999937500,-9.41806,1.441937,2.190425,4.49732,0.1042,-1.19303
1702331999945312,-9.60406,1.223937,1.869425,4.28432,0.1752,-1.19803
1702331999953125,-9.81906,1.624937,1.788425,4.15232,0.5682,-1.18353
1702331999960937,-9.88906,1.344937,1.687425,4.9632,0.3118,-1.17203
1702331999968750,-9.65406,1.169937,2.7425,3.949032,0.11538,-1.14513
1702331999976562,-9.82406,0.901937,2.12425,3.833332,0.11388,-1.11753
1702331999984375,-9.74506,0.868937,2.319425,3.723532,0.14928,-1.7893
1702331999992187,-9.56006,1.351937,2.658425,3.665932,0.13448,-1.3593
1702332000000000,-9.47006,1.57937,2.391425,3.595832,0.7798,0.99423
1702332000007812,-9.41706,0.656937,2.348425,3.617732,0.6208,0.94933
1702332000015625,-9.72106,0.942937,2.274425,3.536432,0.5758,0.91743
1702332000023437,-9.82906,1.118937,1.894425,3.457632,0.11988,0.90613
1702332000031250,-9.30806,1.69937,1.987425,3.414032,0.17088,0.92713
1702332000039062,-9.41806,0.606937,2.5425,3.412132,0.9858,0.91423
1702332000046875,-9.69306,0.574937,2.269425,3.305832,0.12358,0.91423
1702332000054687,-9.58006,0.688937,2.247425,3.275032,0.13138,0.89983
1702332000062500,-9.59306,1.46937,2.574425,3.256832,0.13618,0.87743
1702332000070312,-9.47906,0.891937,2.427425,3.198032,0.10528,0.89633
1702332000078125,-9.34806,1.29937,2.348425,3.121532,0.13158,0.88863
1702332000085937,-9.40206,0.597937,2.39425,3.96732,0.14408,0.85503
1702332000093750,-9.48806,0.511937,2.136425,3.21932,0.21528,0.87403
1702332000101562,-9.37606,0.32937,2.222425,2.962132,0.21888,0.87733
1702332000109375,-9.63606,0.223937,2.204425,2.941032,0.15758,0.87723
1702332000117187,-9.40006,0.581937,2.522425,2.976532,0.15948,0.88853
1702332000125000,-9.49406,0.704937,2.145425,2.982432,0.6878,0.87573
1702332000132812,-9.63206,0.906937,2.574425,3.1232,0.7748,0.90913
1702332000140625,-9.54506,0.998937,2.310425,2.878632,0.8478,0.94783
1702332000148437,-9.42106,0.690937,2.357425,2.826732,0.14328,0.93683
1702332000156250,-9.40206,0.632937,2.186425,2.755232,0.11408,0.93533
1702332000164062,-9.35506,0.757937,2.330425,2.794332,0.13978,0.91593
1702332000171875,-9.11506,1.32937,2.194425,2.798432,0.5558,0.90153
1702332000179687,-9.11006,1.288937,2.97425,2.814332,0.5968,0.86463
1702332000187500,-9.21806,1.263937,2.181425,2.806532,0.6208,0.85323
1702332000195312,-9.906,1.90937,2.492425,2.809932,0.10598,0.85803
1702332000203125,-8.96006,0.791937,2.639425,2.733232,0.2898,0.86633
1702332000210937,-9.11006,0.543937,2.136425,2.738232,0.1012,0.88073
1702332000218750,-9.306,0.254937,2.377425,2.753932,0.1102,0.87933
1702332000226562,-9.62206,0.166937,2.665425,2.641932,0.6822,0.87303
1702332000234375,-9.66906,0.3937,2.186425,2.573032,0.4642,0.89383
1702332000242187,-9.57706,0.15063,2.102425,2.566932,0.2962,0.89213
1702332000250000,-9.92106,0.348937,2.77425,2.526932,0.3592,0.87333
1702332000257812,-9.93206,0.426937,1.705425,2.453232,0.1328,0.86343
1702332000265625,-9.98506,0.622937,2.91425,2.420732,0.11438,0.84373
1702332000273437,-10.306,1.63937,2.502425,2.288432,0.13938,0.83243
1702332000281250,-10.16206,0.917937,2.525425,2.225132,0.13978,0.81973
1702332000289062,-9.91206,1.537937,2.863425,2.137832,0.8668,0.82773
1702332000296875,-9.98306,1.516937,2.495425,2.28832,0.0,0.82313
1702332000304687,-9.80506,0.695937,2.414425,2.33432,0.4408,0.80723
1702332000312500,-9.80806,0.952937,3.10425,1.955232,0.4158,0.78173
1702332000320312,-9.94906,0.948937,2.741425,1.776732,0.742,0.76763
1702332000328125,-9.86906,1.7937,2.613425,1.701132,0.138,0.75463
1702332000335937,-9.89406,1.175937,2.918425,1.663532,0.1748,0.73233
1702332000343750,-9.66506,0.526937,2.678425,1.648932,0.2212,0.72103
1702332000351562,-9.75006,0.74063,2.843425,1.661332,0.5652,0.69703
1702332000359375,-9.76606,0.69937,2.647425,1.599432,0.8582,0.67623
1702332000367187,-9.39906,0.199063,1.906425,1.604632,0.8532,0.66003
1702332000375000,-9.53906,0.269937,2.561425,1.638732,0.7642,0.65343
1702332000382812,-9.53706,0.497937,2.380425,1.568732,0.10952,0.67303
1702332000390625,-9.67706,0.134937,1.854425,1.615732,0.12572,0.66963
1702332000398437,-9.69106,0.142063,2.170425,1.658232,0.5192,0.64213
1702332000406250,-9.41506,0.54063,2.330425,1.608032,0.2182,0.57773
1702332000414062,-9.46306,0.296937,2.294425,1.550632,0.688,0.53153
1702332000421875,-9.15806,0.440937,2.147425,1.487932,0.3668,0.53953
1702332000429687,-9.5006,0.313937,2.54425,1.467832,0.4798,0.50443
1702332000437500,-9.36406,0.554937,2.698425,1.447332,0.9898,0.49943
1702332000445312,-9.16606,0.466937,2.748425,1.375432,0.9828,0.51043
1702332000453125,-9.34106,0.409937,2.407425,1.366232,0.3648,0.48343
1702332000460937,-9.29306,0.170937,2.323425,1.330632,0.5928,0.45123
1702332000468750,-9.11606,0.169937,2.608425,1.259532,0.7798,0.43203
1702332000476562,-9.23406,0.716937,2.881425,1.139632,0.9938,0.43063
1702332000484375,-9.20806,0.737937,2.576425,1.28632,0.7568,0.44493
1702332000492187,-9.36806,0.774937,2.678425,0.975732,0.4368,0.44793
1702332000500000,-9.62006,0.743937,2.960425,0.900532,0.4188,0.43713
1702332000507812,-9.73606,0.539937,2.852425,0.845732,0.2418,0.42093
1702332000515625,-9.49406,0.59937,2.798425,0.795732,0.2338,0.39353
1702332000523437,-9.42206,0.108937,2.976425,0.723032,0.12,0.34753
1702332000531250,-9.29006,0.272937,2.899425,0.614732,0.822,0.32343
1702332000539062,-9.18206,0.208937,2.768425,0.520832,0.1442,0.30423
1702332000546875,-8.99206,0.73063,2.646425,0.441632,0.1632,0.28493
1702332000554687,-8.87606,0.2063,2.601425,0.404232,0.4162,0.26083
1702332000562500,-8.78506,0.43937,2.655425,0.385832,0.7102,0.23523
1702332000570312,-8.66606,0.36063,2.693425,0.359932,0.11062,0.21753
1702332000578125,-8.71406,0.119063,2.596425,0.336632,0.15282,0.18223
1702332000585937,-8.83206,0.117063,2.576425,0.332332,0.16812,0.13113
1702332000593750,-8.92306,0.200063,2.526425,0.304532,0.16562,0.8453
1702332000601562,-9.5906,0.207063,2.511425,0.265632,0.15092,0.2983
1702332000609375,-9.28606,0.139063,2.450425,0.222432,0.14212,0.827
1702332000617187,-9.40906,0.7063,2.520425,0.164132,0.11112,0.4037
1702332000625000,-9.46606,0.55937,2.642425,0.113032,0.7172,0.6787
1702332000632812,-9.53506,0.144937,2.827425,0.59632,0.4962,0.7587
1702332000640625,-9.69706,0.350937,2.805425,0.7732,0.8062,0.7417
1702332000648437,-9.84706,0.352937,2.586425,0.40568,0.12162,0.7757
1702332000656250,-9.86606,0.69937,2.455425,0.43668,0.12232,0.9537
1702332000664062,-9.84806,0.176063,2.473425,0.66668,0.11552,0.9997
1702332000671875,-9.83606,0.230063,2.434425,0.89668,0.9122,0.9977
1702332000679687,-9.87406,0.237063,2.430425,0.98968,0.7122,0.9667
1702332000687500,-9.96906,0.187063,2.432425,0.126368,0.7272,0.8697
1702332000695312,-10.706,0.269063,2.328425,0.147768,0.5152,0.8357
1702332000703125,-9.99706,0.199063,2.238425,0.165168,0.3882,0.6587
1702332000710937,-9.93606,0.80063,2.315425,0.173168,0.3722,0.5467
1702332000718750,-9.92406,0.86937,2.457425,0.196168,0.2002,0.5037
1702332000726562,-9.84906,0.52937,2.480425,0.225368,0.372,0.3737
1702332000734375,-9.75106,0.57063,2.437425,0.243568,0.428,0.5647
1702332000742187,-9.66806,0.36063,2.443425,0.259968,0.1808,0.9177
1702332000750000,-9.46706,0.163063,2.341425,0.272768,0.4568,0.11437
1702332000757812,-9.27606,0.210063,2.321425,0.277968,0.5788,0.14647
1702332000765625,-9.31306,0.112063,2.323425,0.313668,0.6868,0.16727
1702332000773437,-9.31006,0.217063,2.287425,0.337468,0.8358,0.17717
1702332000781250,-9.49006,0.450063,2.310425,0.346468,0.6258,0.19767
1702332000789062,-9.68506,0.531063,2.290425,0.367668,0.5948,0.20727
1702332000796875,-9.79006,0.547063,2.154425,0.372868,0.6158,0.21027
1702332000804687,-9.83206,0.452063,2.317425,0.370668,0.8128,0.19927
1702332000812500,-9.78406,0.375063,2.310425,0.363968,0.8098,0.19617
1702332000820312,-9.73806,0.409063,2.242425,0.335168,0.6308,0.17517
1702332000828125,-9.71006,0.515063,2.236425,0.321968,0.5188,0.16237
1702332000835937,-9.62506,0.528063,2.276425,0.329868,0.6438,0.15757
1702332000843750,-9.45406,0.523063,2.251425,0.327068,0.6538,0.14447
1702332000851562,-9.39906,0.502063,2.183425,0.303968,0.5828,0.14477
1702332000859375,-9.34506,0.499063,2.249425,0.291168,0.7098,0.14627
1702332000867187,-9.28506,0.489063,2.267425,0.284368,0.7498,0.15607
1702332000875000,-9.27506,0.526063,2.256425,0.283168,0.7868,0.15907
1702332000882812,-9.31406,0.519063,2.172425,0.265068,0.9808,0.17377
1702332000890625,-9.46006,0.488063,2.247425,0.242868,0.11268,0.17997
1702332000898437,-9.58506,0.504063,2.211425,0.203568,0.11008,0.17867
1702332000906250,-9.64706,0.444063,2.290425,0.184368,0.11038,0.17857
1702332000914062,-9.70406,0.467063,2.263425,0.190668,0.9968,0.15937
1702332000921875,-9.69906,0.387063,2.292425,0.184468,0.10188,0.15277
1702332000929687,-9.73906,0.356063,2.258425,0.171268,0.10158,0.14487
1702332000937500,-9.70906,0.297063,2.394425,0.158068,0.9508,0.13047
1702332000945312,-9.66206,0.257063,2.382425,0.148868,0.8168,0.13027
1702332000953125,-9.63306,0.282063,2.344425,0.137768,0.6188,0.12057
1702332000960937,-9.61306,0.303063,2.324425,0.111368,0.5628,0.11767
1702332000968750,-9.62106,0.347063,2.276425,0.87168,0.5148,0.11927
1702332000976562,-9.65306,0.361063,2.197425,0.60168,0.5428,0.11667
1702332000984375,-9.64806,0.360063,2.256425,0.41668,0.5738,0.11777
1702332000992187,-9.61606,0.384063,2.294425,0.35368,0.6238,0.11447
1702332001000000,-9.57606,0.329063,2.294425,0.10368,0.6698,0.10757
1702332001007812,-9.57406,0.348063,2.229425,0.13532,0.5858,0.10347
1702332001015625,-9.56706,0.372063,2.170425,0.24532,0.5928,0.9687
1702332001023437,-9.56006,0.388063,2.89425,0.43032,0.7228,0.9557
1702332001031250,-9.57606,0.381063,2.118425,0.58832,0.7918,0.9057
1702332001039062,-9.60006,0.360063,2.136425,0.74632,0.7708,0.7587
1702332001046875,-9.60806,0.345063,2.177425,0.91232,0.9048,0.7287
1702332001054687,-9.64206,0.336063,2.195425,0.96532,0.10578,0.6007
1702332001062500,-9.70706,0.317063,2.308425,0.96832,0.11788,0.6027
1702332001070312,-9.78106,0.287063,2.346425,0.112632,0.12158,0.5847
1702332001078125,-9.80606,0.251063,2.448425,0.120632,0.13598,0.5197
1702332001085937,-9.77406,0.189063,2.554425,0.122232,0.14218,0.5517
1702332001093750,-9.66906,0.115063,2.613425,0.116832,0.14308,0.5487
1702332001101562,-9.57106,0.39063,2.606425,0.124832,0.15278,0.5157
1702332001109375,-9.52406,0.2937,2.701425,0.146832,0.13688,0.5697
1702332001117187,-9.47806,0.43063,2.673425,0.144432,0.12988,0.6947
1702332001125000,-9.45706,0.83063,2.572425,0.143932,0.12888,0.7567
1702332001132812,-9.31906,0.32063,2.669425,0.147832,0.13888,0.7927
1702332001140625,-9.21606,0.3937,2.743425,0.131032,0.11498,0.7247
1702332001148437,-9.22106,0.16937,2.739425,0.118532,0.8798,0.5497
1702332001156250,-9.27006,0.13937,2.782425,0.119932,0.8988,0.5327
1702332001164062,-9.30206,0.29937,2.836425,0.108332,0.8748,0.4987
1702332001171875,-9.31806,0.40937,2.822425,0.94432,0.7838,0.5507
1702332001179687,-9.31906,0.72937,2.757425,0.67132,0.6848,0.6487
1702332001187500,-9.31006,0.128937,2.716425,0.50532,0.6898,0.7747
1702332001195312,-9.27506,0.145937,2.750425,0.22732,0.8168,0.9187
1702332001203125,-9.25506,0.133937,2.825425,0.3968,0.7888,0.9867
1702332001210937,-9.28806,0.132937,2.859425,0.15968,0.7828,0.10477
1702332001218750,-9.31006,0.86937,2.811425,0.13168,0.6758,0.12067
1702332001226562,-9.34406,0.88937,2.822425,0.20868,0.5568,0.13217
1702332001234375,-9.33106,0.103937,2.800425,0.50168,0.5248,0.14497
1702332001242187,-9.32006,0.107937,2.761425,0.56568,0.4278,0.15787
1702332001250000,-9.35806,0.36937,2.764425,0.71868,0.4558,0.15917
1702332001257812,-9.36306,0.22937,2.730425,0.92768,0.5458,0.16727
1702332001265625,-9.40106,0.3063,2.714425,0.97268,0.3688,0.16577
1702332001273437,-9.38106,0.8063,2.725425,0.109968,0.3818,0.15947
1702332001281250,-9.40706,0.1937,2.710425,0.118568,0.3138,0.15597
1702332001289062,-9.40306,0.57937,2.640425,0.125668,0.1058,0.14927
1702332001296875,-9.40606,0.105937,2.633425,0.117068,0.1778,0.14307
1702332001304687,-9.41706,0.61937,2.624425,0.121568,0.938,0.13847
1702332001312500,-9.43106,0.106937,2.594425,0.115368,0.388,0.12857
1702332001320312,-9.43106,0.139937,2.619425,0.117068,0.388,0.13017
1702332001328125,-9.38006,0.180937,2.558425,0.121868,0.1008,0.12857
1702332001335937,-9.39006,0.258937,2.529425,0.138068,0.1478,0.13507
1702332001343750,-9.40406,0.129937,2.540425,0.142568,0.3318,0.13357
1702332001351562,-9.45906,0.32937,2.574425,0.143768,0.2948,0.13057
1702332001359375,-9.49406,0.30937,2.552425,0.156468,0.1608,0.12817
1702332001367187,-9.54606,0.23937,2.524425,0.153768,0.1308,0.11587
1702332001375000,-9.59006,0.9937,2.592425,0.142768,0.1528,0.10927
1702332001382812,-9.64606,0.48063,2.576425,0.159668,0.1098,0.9677
1702332001390625,-9.69906,0.60063,2.599425,0.153468,0.548,0.8697
1702332001398437,-9.74606,0.99063,2.604425,0.153368,0.1178,0.8057
1702332001406250,-9.72406,0.77063,2.574425,0.141768,0.1298,0.7747
1702332001414062,-9.72606,0.73063,2.491425,0.129368,0.888,0.7887
1702332001421875,-9.66606,0.70063,2.495425,0.128668,0.2048,0.7757
1702332001429687,-9.57706,0.108063,2.502425,0.137368,0.4508,0.7727
1702332001437500,-9.55306,0.86063,2.454425,0.130368,0.5068,0.7427
1702332001445312,-9.49606,0.48063,2.518425,0.123568,0.6558,0.8087
1702332001453125,-9.41606,0.23063,2.617425,0.118468,0.6988,0.8257
1702332001460937,-9.33706,0.52063,2.402425,0.112468,0.6278,0.7917
1702332001468750,-9.35406,0.6937,2.402425,0.84868,0.5608,0.8247
1702332001476562,-9.39406,0.19937,2.484425,0.80168,0.6768,0.7107
1702332001484375,-9.45906,0.26937,2.590425,0.70168,0.7988,0.6477
1702332001492187,-9.49806,0.10937,2.529425,0.64268,0.7618,0.6287
1702332001500000,-9.55306,0.55937,2.511425,0.59368,0.6998,0.5487
1702332001507812,-9.59006,0.79937,2.592425,0.44068,0.7488,0.5687
1702332001515625,-9.62006,0.123937,2.671425,0.27968,0.7028,0.5207
1702332001523437,-9.64706,0.133937,2.732425,0.47468,0.7058,0.4877
1702332001531250,-9.67006,0.85937,2.714425,0.54368,0.7428,0.5337
1702332001539062,-9.68906,0.103937,2.766425,0.60568,0.6778,0.5027
1702332001546875,-9.69106,0.168937,2.764425,0.59668,0.7218,0.4987
1702332001554687,-9.68306,0.198937,2.805425,0.41768,0.7498,0.4837
1702332001562500,-9.65206,0.222937,2.773425,0.34868,0.6658,0.4527
1702332001570312,-9.60106,0.221937,2.739425,0.33068,0.6118,0.5187
1702332001578125,-9.46606,0.130937,2.746425,0.27768,0.6068,0.4727
1702332001585937,-9.35106,0.131937,2.707425,0.19868,0.5828,0.2787
1702332001593750,-9.23706,0.193937,2.705425,0.15468,0.3398,0.2287
1702332001601562,-9.14806,0.7063,2.624425,0.4968,0.3438,0.1677
1702332001609375,-9.13006,0.21063,2.583425,0.1632,0.1388,0.1047
1702332001617187,-9.10606,0.22937,2.556425,0.9568,0.1818,0.1697
1702332001625000,-9.15206,0.0,2.535425,0.6768,0.1718,0.2317
1702332001632812,-9.23206,0.93937,2.531425,0.16368,0.3128,0.2157
1702332001640625,-9.31106,0.103937,2.567425,0.7968,0.3518,0.3147
1702332001648437,-9.33706,0.61937,2.626425,0.6268,0.3518,0.2667
1702332001656250,-9.37406,0.36937,2.662425,0.18168,0.3928,0.2957
1702332001664062,-9.43506,0.51937,2.628425,0.16168,0.3558,0.2487
1702332001671875,-9.46406,0.5937,2.603425,0.15768,0.3338,0.2347
1702332001679687,-9.53606,0.4063,2.633425,0.7768,0.3838,0.1537
1702332001687500,-9.54906,0.3063,2.626425,0.15968,0.4648,0.1527
1702332001695312,-9.58406,0.1937,2.576425,0.10168,0.3968,0.1827
1702332001703125,-9.60506,0.0,2.592425,0.4768,0.4648,0.2017
1702332001710937,-9.57906,0.34937,2.610425,0.14268,0.5388,0.3147
1702332001718750,-9.60306,0.70937,2.540425,0.8568,0.5168,0.3917
1702332001726562,-9.59906,0.68937,2.590425,0.568,0.5618,0.5037
1702332001734375,-9.56506,0.67937,2.680425,0.1132,0.5928,0.4877
1702332001742187,-9.56806,0.121937,2.671425,0.3932,0.5838,0.5027
1702332001750000,-9.55106,0.153937,2.707425,0.13932,0.4378,0.4877
1702332001757812,-9.49706,0.186937,2.646425,0.12032,0.3168,0.4387
1702332001765625,-9.42206,0.193937,2.592425,0.22232,0.2948,0.3447
1702332001773437,-9.40506,0.171937,2.612425,0.25032,0.2238,0.3267
1702332001781250,-9.38706,0.142937,2.594425,0.5832,0.1738,0.3277
1702332001789062,-9.38506,0.138937,2.558425,0.2268,0.3018,0.3107
1702332001796875,-9.42606,0.194937,2.545425,0.7368,0.3518,0.3737
1702332001804687,-9.45206,0.233937,2.572425,0.1832,0.4408,0.4597
1702332001812500,-9.47206,0.249937,2.581425,0.1768,0.4278,0.5387
1702332001820312,-9.49206,0.249937,2.527425,0.6968,0.5738,0.6337
1702332001828125,-9.51506,0.238937,2.590425,0.1768,0.6448,0.6837
1702332001835937,-9.52906,0.189937,2.615425,0.12468,0.6448,0.7427
1702332001843750,-9.53506,0.180937,2.624425,0.25268,0.6458,0.6307
1702332001851562,-9.53806,0.190937,2.613425,0.36068,0.5898,0.6337
1702332001859375,-9.53506,0.216937,2.594425,0.48168,0.5868,0.6617
1702332001867187,-9.56106,0.213937,2.572425,0.47168,0.5868,0.6987
1702332001875000,-9.55906,0.253937,2.610425,0.57168,0.6048,0.7617
1702332001882812,-9.57906,0.255937,2.583425,0.60368,0.5738,0.7457
1702332001890625,-9.60506,0.266937,2.576425,0.57968,0.5768,0.7657
1702332001898437,-9.59106,0.264937,2.590425,0.76368,0.7108,0.8427
1702332001906250,-9.58206,0.289937,2.606425,0.85268,0.7538,0.9187
1702332001914062,-9.58506,0.299937,2.624425,0.89568,0.7878,0.8977
1702332001921875,-9.55006,0.278937,2.669425,0.87168,0.7408,0.9827
1702332001929687,-9.49706,0.271937,2.669425,0.89468,0.7408,0.9867
1702332001937500,-9.46106,0.253937,2.628425,0.97668,0.7128,0.9537
1702332001945312,-9.46306,0.240937,2.617425,0.111668,0.7198,0.9727
1702332001953125,-9.44506,0.244937,2.660425,0.108368,0.7508,0.9407
1702332001960937,-9.40506,0.239937,2.685425,0.124668,0.8008,0.9397
1702332001968750,-9.37506,0.243937,2.703425,0.129868,0.7608,0.9217
1702332001976562,-9.35306,0.250937,2.714425,0.133368,0.7168,0.9527
1702332001984375,-9.36206,0.272937,2.700425,0.146268,0.6358,0.10177
1702332001992187,-9.38306,0.310937,2.698425,0.145168,0.7068,0.10307
1702332002000000,-9.37306,0.304937,2.700425,0.156668,0.7568,0.10787
1702332002007812,-9.37606,0.314937,2.700425,0.169168,0.6388,0.11127
1702332002015625,-9.35106,0.306937,2.719425,0.168368,0.6698,0.10447
1702332002023437,-9.34206,0.297937,2.719425,0.181068,0.6668,0.10447
1702332002031250,-9.35806,0.270937,2.703425,0.184968,0.6208,0.10337
1702332002039062,-9.37506,0.253937,2.728425,0.187068,0.6158,0.9027
1702332002046875,-9.39006,0.215937,2.714425,0.194968,0.5498,0.9037
1702332002054687,-9.41706,0.193937,2.746425,0.201168,0.5788,0.8567
1702332002062500,-9.41506,0.202937,2.768425,0.215368,0.6068,0.8097
1702332002070312,-9.40606,0.208937,2.802425,0.216968,0.6388,0.7777
1702332002078125,-9.39106,0.253937,2.816425,0.235068,0.5988,0.6947
1702332002085937,-9.37606,0.259937,2.761425,0.249068,0.5938,0.5847
1702332002093750,-9.33306,0.279937,2.723425,0.265968,0.6528,0.6127
1702332002101562,-9.34006,0.314937,2.700425,0.280168,0.5538,0.5827
1702332002109375,-9.35906,0.325937,2.710425,0.296168,0.6128,0.6957
1702332002117187,-9.38806,0.346937,2.755425,0.318968,0.7558,0.7917
1702332002125000,-9.43106,0.335937,2.965425,0.347868,0.10168,0.9047
1702332002132812,-9.43306,0.352937,2.940425,0.373468,0.9318,0.10187
1702332002140625,-9.41306,0.395937,2.777425,0.385568,0.8468,0.11597
1702332002148437,-9.42806,0.470937,2.845425,0.393768,0.8618,0.13047
1702332002156250,-9.48506,0.542937,2.933425,0.410368,0.10078,0.14467
1702332002164062,-9.47006,0.579937,2.877425,0.450768,0.11118,0.16887
1702332002171875,-9.44606,0.614937,2.705425,0.473368,0.10468,0.17697
1702332002179687,-9.49406,0.672937,2.669425,0.490868,0.10708,0.19317
1702332002187500,-9.52606,0.755937,2.676425,0.512368,0.9798,0.21227
1702332002195312,-9.59406,0.793937,2.592425,0.549368,0.8178,0.22847
1702332002203125,-9.64506,0.729937,2.579425,0.605868,0.9078,0.24467
1702332002210937,-9.67106,0.667937,2.642425,0.662368,0.11058,0.27037
1702332002218750,-9.64606,0.679937,2.737425,0.712068,0.12328,0.29227
1702332002226562,-9.62506,0.698937,2.834425,0.756268,0.12608,0.30087
1702332002234375,-9.61906,0.762937,2.856425,0.785468,0.11208,0.31207
1702332002242187,-9.58906,0.764937,2.870425,0.818668,0.12108,0.32127
1702332002250000,-9.52306,0.787937,2.893425,0.852268,0.13128,0.34237
1702332002257812,-9.41706,0.779937,2.834425,0.905668,0.14518,0.35837
1702332002265625,-9.39006,0.763937,2.872425,0.942768,0.16198,0.38257
1702332002273437,-9.25206,0.821937,2.881425,0.995268,0.16588,0.40627
1702332002281250,-9.17606,0.804937,2.829425,-1.43668,0.16248,0.41437
1702332002289062,-9.6306,0.790937,3.16425,-1.78568,0.14818,0.42677
1702332002296875,-8.98206,0.920937,2.987425,-1.137168,0.11848,0.45077
1702332002304687,-9.806,0.970937,2.845425,-1.170868,0.10858,0.46217
1702332002312500,-8.98606,0.909937,2.818425,-1.203968,0.9818,0.48767
1702332002320312,-9.906,0.980937,2.809425,-1.257868,0.9868,0.51307
1702332002328125,-9.10006,1.16937,2.702425,-1.317268,0.8798,0.54387
1702332002335937,-9.7506,0.974937,2.786425,-1.359868,0.8348,0.57907
1702332002343750,-9.8306,0.912937,2.809425,-1.384168,0.5158,0.60167
1702332002351562,-9.17406,0.869937,2.829425,-1.412768,0.1498,0.63017
1702332002359375,-9.28406,0.902937,2.734425,-1.461368,0.1522,0.65437
1702332002367187,-9.28506,0.851937,2.786425,-1.503768,0.88,0.66697
1702332002375000,-9.12006,0.911937,3.129425,-1.552568,0.1088,0.67487
1702332002382812,-9.2206,1.93937,3.23425,-1.613968,0.1732,0.67647
1702332002390625,-9.3306,1.29937,2.964425,-1.618468,0.3352,0.67187
1702332002398437,-9.12806,1.72937,2.899425,-1.624768,0.7452,0.66877
1702332002406250,-9.30806,1.128937,2.619425,-1.670768,0.10512,0.68777
1702332002414062,-9.41106,1.10937,2.655425,-1.706668,0.11292,0.71187
1702332002421875,-9.37706,0.904937,2.456425,-1.778468,0.8832,0.72427
1702332002429687,-9.25406,0.871937,2.497425,-1.814068,0.7602,0.74347
1702332002437500,-9.15006,0.991937,2.628425,-1.825568,0.11832,0.75157
1702332002445312,-9.9106,1.52937,2.675425,-1.857668,0.13912,0.75497
1702332002453125,-9.8806,1.73937,2.583425,-1.891068,0.16332,0.75197
1702332002460937,-9.9406,1.103937,2.567425,-1.899568,0.16732,0.74697
1702332002468750,-9.22106,1.170937,2.549425,-1.915268,0.19932,0.73927
1702332002476562,-9.38006,1.184937,2.468425,-1.918968,0.19372,0.73737
1702332002484375,-9.40506,1.88937,2.497425,-1.948468,0.19152,0.73867
1702332002492187,-9.52306,1.21937,2.312425,-1.988668,0.21542,0.74527
1702332002500000,-9.58506,0.984937,2.289425,-2.9368,0.20172,0.74707
1702332002507812,-9.56006,0.780937,2.439425,-2.10768,0.20982,0.74547
1702332002515625,-9.61606,0.776937,2.314425,-2.31968,0.21872,0.74217
1702332002523437,-9.58006,0.733937,2.125425,-2.28468,0.22102,0.75037
1702332002531250,-9.60606,0.665937,2.317425,-2.29968,0.23832,0.74247
1702332002539062,-9.69906,0.622937,2.220425,-2.50868,0.23512,0.73767
1702332002546875,-9.54506,0.671937,2.362425,-2.52168,0.17212,0.71507
1702332002554687,-9.34606,0.829937,2.545425,-2.58068,0.13932,0.68787
1702332002562500,-9.22206,0.965937,2.531425,-2.47068,0.14792,0.67157
1702332002570312,-9.19106,1.198937,2.416425,-2.49268,0.15052,0.65277
1702332002578125,-9.35606,1.386937,2.235425,-2.52068,0.15182,0.65377
1702332002585937,-9.61806,1.401937,2.138425,-2.56768,0.14132,0.66507
1702332002593750,-9.80806,1.244937,2.91425,-2.30868,0.12932,0.67647
1702332002601562,-10.5106,1.90937,2.227425,-2.24168,0.10672,0.70077
1702332002609375,-10.6806,0.918937,2.380425,-2.32568,0.10502,0.71987
1702332002617187,-10.9006,0.932937,2.285425,-2.36568,0.14182,0.73087
1702332002625000,-10.15006,0.898937,2.175425,-2.52968,0.12132,0.74197
1702332002632812,-9.88706,0.865937,2.333425,-2.59568,0.11832,0.75807
1702332002640625,-9.56806,0.751937,2.445425,-2.54468,0.13602,0.76147
1702332002648437,-9.35306,0.768937,2.551425,-2.35468,0.18392,0.75167
1702332002656250,-9.19806,0.870937,2.540425,-2.36068,0.24082,0.73697
1702332002664062,-9.13806,0.857937,2.447425,-2.14268,0.27192,0.72937
1702332002671875,-9.17806,0.966937,2.386425,-2.16968,0.27552,0.71837
1702332002679687,-9.23306,1.71937,2.249425,-2.30168,0.26552,0.71177
1702332002687500,-9.31706,1.170937,2.258425,-2.29168,0.28362,0.71797
1702332002695312,-9.38106,1.225937,2.188425,-2.24968,0.29602,0.71367
1702332002703125,-9.48006,1.200937,2.129425,-2.23268,0.29712,0.72897
1702332002710937,-9.54306,1.193937,2.82425,-2.34168,0.27292,0.74197
1702332002718750,-9.58506,1.114937,2.79425,-2.6868,0.25132,0.76607
1702332002726562,-9.63406,1.165937,2.165425,-2.9168,0.23342,0.78347
1702332002734375,-9.60506,1.212937,2.289425,-2.21268,0.19932,0.81287
1702332002742187,-9.46706,1.182937,2.335425,-2.9568,0.19022,0.84117
1702332002750000,-9.34806,1.274937,2.418425,-2.7568,0.18862,0.87367
1702332002757812,-9.31206,1.415937,2.380425,-2.15768,0.19222,0.90427
1702332002765625,-9.32206,1.506937,2.251425,-2.6568,0.18082,0.91687
1702332002773437,-9.40206,1.612937,2.301425,-1.982868,0.18232,0.94247
1702332002781250,-9.49806,1.559937,2.145425,-1.982168,0.17892,0.94927
1702332002789062,-9.64506,1.596937,2.140425,-1.975068,0.15562,0.96167
1702332002796875,-9.74406,1.564937,2.271425,-1.941968,0.15182,0.94437
1702332002804687,-9.81206,1.474937,2.165425,-1.945168,0.18602,0.92987
1702332002812500,-9.91806,1.573937,1.865425,-1.948768,0.20392,0.91197
1702332002820312,-9.88406,1.576937,1.919425,-1.935968,0.18102,0.88447
1702332002828125,-9.76506,1.666937,2.134425,-1.931768,0.16622,0.86067
1702332002835937,-9.61706,1.707937,2.34425,-1.922768,0.20772,0.82747
1702332002843750,-9.53606,1.740937,1.826425,-1.927968,0.21742,0.79827
1702332002851562,-9.45606,1.790937,1.820425,-1.926268,0.21552,0.78207
1702332002859375,-9.48506,1.774937,1.847425,-1.902568,0.22322,0.76657
1702332002867187,-9.49906,1.646937,1.951425,-1.876668,0.21652,0.74727
1702332002875000,-9.59506,1.481937,1.969425,-1.860568,0.20692,0.74237
1702332002882812,-9.67506,1.353937,1.969425,-1.851468,0.19002,0.73397
1702332002890625,-9.79106,1.250937,2.30425,-1.845768,0.17882,0.73117
1702332002898437,-9.74606,1.301937,2.100425,-1.836368,0.16422,0.72937
1702332002906250,-9.61306,1.298937,2.113425,-1.803068,0.16222,0.70897
1702332002914062,-9.58806,1.313937,2.192425,-1.762668,0.17122,0.68797
1702332002921875,-9.57306,1.362937,2.285425,-1.741668,0.16622,0.67667
1702332002929687,-9.57306,1.315937,2.323425,-1.722168,0.16302,0.66387
1702332002937500,-9.65206,1.241937,2.260425,-1.680168,0.16422,0.64457
1702332002945312,-9.71806,1.189937,2.256425,-1.634968,0.15772,0.63487
1702332002953125,-9.66606,1.137937,2.278425,-1.603768,0.15672,0.62377
1702332002960937,-9.62206,1.205937,2.172425,-1.551568,0.13822,0.59827
1702332002968750,-9.51806,1.97937,2.256425,-1.519868,0.11222,0.56167
1702332002976562,-9.47506,1.68937,2.265425,-1.492468,0.10992,0.53897
1702332002984375,-9.43306,1.123937,2.310425,-1.458768,0.11892,0.52927
1702332002992187,-9.32106,1.101937,2.332425,-1.429268,0.11602,0.50857
1702332003000000,-9.26806,1.160937,2.305425,-1.399868,0.13492,0.49097
1702332003007812,-9.16006,1.179937,2.346425,-1.374968,0.14582,0.48087
1702332003015625,-9.18006,1.166937,2.343425,-1.340468,0.15412,0.45537
1702332003023437,-9.23906,1.168937,2.307425,-1.304568,0.14662,0.44427
1702332003031250,-9.33606,1.340937,2.332425,-1.279768,0.13942,0.43167
1702332003039062,-9.36506,1.491937,2.330425,-1.254168,0.13062,0.40737
1702332003046875,-9.52706,1.593937,2.260425,-1.227768,0.11982,0.38187
1702332003054687,-9.64106,1.658937,2.280425,-1.196368,0.10832,0.37417
1702332003062500,-9.69806,1.633937,2.276425,-1.175568,0.11232,0.35627
1702332003070312,-9.70606,1.693937,2.348425,-1.131468,0.10322,0.33877
1702332003078125,-9.67106,1.737937,2.411425,-1.118768,0.11372,0.32907
1702332003085937,-9.72606,1.657937,2.393425,-1.97068,0.11272,0.30837
1702332003093750,-9.72506,1.618937,2.450425,-1.69868,0.9962,0.29697
1702332003101562,-9.82906,1.538937,2.520425,-1.26168,0.7402,0.26797
1702332003109375,-9.78706,1.424937,2.590425,0.971968,0.3252,0.25057
1702332003117187,-9.67906,1.262937,2.631425,0.918768,0.662,0.22147
1702332003125000,-9.71006,1.220937,2.513425,0.855568,0.152,0.19097
1702332003132812,-9.67906,1.258937,2.472425,0.813468,0.2058,0.17647
1702332003140625,-9.56506,1.251937,2.536425,0.783068,0.5068,0.14157
1702332003148437,-9.52006,1.201937,2.601425,0.758468,0.4618,0.10957
1702332003156250,-9.46006,1.261937,2.594425,0.716468,0.4348,0.9017
1702332003164062,-9.30706,1.294937,2.583425,0.695868,0.3048,0.6267
1702332003171875,-9.26306,1.186937,2.576425,0.658868,0.1258,0.3517
1702332003179687,-9.20106,1.201937,2.520425,0.609268,0.432,0.357
1702332003187500,-9.17306,1.130937,2.504425,0.568668,0.1202,0.2043
1702332003195312,-9.14106,1.64937,2.542425,0.525368,0.3002,0.3833
1702332003203125,-9.15106,0.995937,2.608425,0.482768,0.3522,0.6213
1702332003210937,-9.15606,0.984937,2.642425,0.450068,0.5412,0.8933
1702332003218750,-9.10006,0.837937,2.707425,0.404668,0.3972,0.11023
1702332003226562,-9.9406,0.786937,2.777425,0.367568,0.482,0.12803
1702332003234375,-9.8506,0.624937,2.858425,0.321768,0.698,0.13583
1702332003242187,-9.17006,0.628937,2.890425,0.281468,0.1358,0.14393
1702332003250000,-9.23006,0.682937,2.831425,0.248668,0.3778,0.14053
1702332003257812,-9.24806,0.719937,2.992425,0.193668,0.5168,0.13883
1702332003265625,-9.39806,0.767937,2.981425,0.160668,0.4378,0.12713
1702332003273437,-9.55706,0.870937,2.836425,0.132468,0.5568,0.11473
1702332003281250,-9.64106,0.920937,2.872425,0.108068,0.8328,0.9373
1702332003289062,-9.61206,0.926937,2.976425,0.82368,0.8928,0.7763
1702332003296875,-9.67306,1.5937,2.884425,0.58968,0.8388,0.6193
1702332003304687,-9.71606,0.995937,2.872425,0.39868,0.8558,0.5073
1702332003312500,-9.78906,0.877937,3.12425,0.30768,0.10048,0.4623
1702332003320312,-9.80006,0.781937,3.64425,0.11968,0.10048,0.4893
1702332003328125,-9.74106,0.763937,2.929425,0.8532,0.9018,0.5073
1702332003335937,-9.72306,0.725937,2.732425,0.29832,0.8678,0.6193
1702332003343750,-9.62106,0.682937,2.719425,0.60432,0.10458,0.7643
1702332003351562,-9.56506,0.669937,2.633425,0.84932,0.11058,0.8443
1702332003359375,-9.45206,0.597937,2.667425,0.125632,0.13038,0.8583
1702332003367187,-9.37706,0.542937,2.696425,0.148232,0.13808,0.7783
1702332003375000,-9.29606,0.553937,2.621425,0.172032,0.14178,0.7803
1702332003382812,-9.21006,0.586937,2.626425,0.187232,0.14968,0.5993
1702332003390625,-9.19606,0.650937,2.662425,0.198432,0.15588,0.5193
1702332003398437,-9.16306,0.709937,2.741425,0.213032,0.17288,0.4393
1702332003406250,-9.14306,0.769937,2.818425,0.220632,0.16878,0.4093
1702332003414062,-9.19106,0.823937,2.843425,0.238332,0.16878,0.3763
1702332003421875,-9.25306,0.859937,2.879425,0.245132,0.17278,0.3263
1702332003429687,-9.32306,0.897937,2.883425,0.250532,0.18118,0.2753
1702332003437500,-9.35206,0.927937,2.895425,0.256532,0.18208,0.3423
1702332003445312,-9.40206,0.945937,3.1425,0.271232,0.19258,0.2453
1702332003453125,-9.45606,0.957937,3.91425,0.272632,0.19758,0.2303
1702332003460937,-9.45006,0.926937,2.944425,0.277132,0.17648,0.3283
1702332003468750,-9.50706,0.922937,2.822425,0.280832,0.17588,0.4063
1702332003476562,-9.56106,0.967937,3.10425,0.300332,0.19458,0.4383
1702332003484375,-9.59906,0.977937,3.114425,0.301832,0.19488,0.4873
1702332003492187,-9.61106,1.26937,3.19425,0.323032,0.20548,0.4863
1702332003500000,-9.56506,1.78937,2.985425,0.329332,0.21198,0.4553
1702332003507812,-9.49906,1.117937,2.999425,0.341032,0.20978,0.4693
1702332003515625,-9.45606,1.163937,2.935425,0.353532,0.21038,0.4553
1702332003523437,-9.40606,1.258937,2.949425,0.364532,0.21718,0.4733
1702332003531250,-9.30906,1.331937,2.890425,0.367832,0.21368,0.3603
1702332003539062,-9.21106,1.372937,2.849425,0.353132,0.21408,0.4093
1702332003546875,-9.9206,1.361937,2.924425,0.348332,0.21098,0.4253
1702332003554687,-8.97706,1.326937,3.34425,0.359732,0.20478,0.5533
1702332003562500,-8.94706,1.241937,3.91425,0.358532,0.20068,0.5023
1702332003570312,-8.97806,1.183937,3.100425,0.368632,0.19188,0.3873
1702332003578125,-8.96406,1.189937,3.57425,0.366032,0.18878,0.3763
1702332003585937,-8.95406,1.199937,3.89425,0.379832,0.19338,0.3233
1702332003593750,-8.97406,1.217937,3.145425,0.379232,0.19268,0.2623
1702332003601562,-9.4206,1.233937,3.152425,0.404032,0.20418,0.2433
1702332003609375,-9.12706,1.273937,3.150425,0.403432,0.20818,0.2133
1702332003617187,-9.17606,1.285937,3.152425,0.396732,0.22598,0.1833
1702332003625000,-9.20806,1.309937,3.172425,0.405332,0.24398,0.2293
1702332003632812,-9.27806,1.337937,3.202425,0.392232,0.25358,0.1503
1702332003640625,-9.35106,1.368937,3.211425,0.380232,0.25358,0.973
1702332003648437,-9.42906,1.417937,3.132425,0.387132,0.25548,0.1023
1702332003656250,-9.48606,1.488937,3.48425,0.376432,0.25768,0.1163
1702332003664062,-9.52306,1.553937,3.19425,0.368132,0.25798,0.683
1702332003671875,-9.51306,1.611937,2.994425,0.363032,0.25518,0.373
1702332003679687,-9.42006,1.619937,3.44425,0.356032,0.26298,0.813
1702332003687500,-9.21206,1.620937,3.150425,0.350132,0.27418,0.1183
1702332003695312,-9.1506,1.615937,3.206425,0.330432,0.26868,0.1683
1702332003703125,-8.90406,1.579937,3.213425,0.329432,0.26558,0.2053
1702332003710937,-8.86306,1.524937,3.247425,0.322232,0.26128,0.2663
1702332003718750,-8.85506,1.461937,3.294425,0.319832,0.24108,0.2453
1702332003726562,-8.84406,1.400937,3.353425,0.306132,0.23578,0.1683
1702332003734375,-8.87006,1.349937,3.475425,0.298132,0.22448,0.713
1702332003742187,-8.90606,1.330937,3.689425,0.288232,0.22788,0.723
1702332003750000,-8.97506,1.340937,3.608425,0.290832,0.22418,0.273
1702332003757812,-9.3706,1.418937,3.439425,0.302032,0.20498,0.1337
1702332003765625,-9.10906,1.461937,3.375425,0.281232,0.19658,0.2637
1702332003773437,-9.16106,1.500937,3.330425,0.279632,0.19818,0.1997
1702332003781250,-9.13706,1.497937,3.353425,0.283332,0.18398,0.553
1702332003789062,-9.12806,1.477937,3.385425,0.268832,0.18408,0.1203
1702332003796875,-9.9306,1.461937,3.421425,0.263532,0.17848,0.1063
1702332003804687,-9.9106,1.454937,3.378425,0.251132,0.17488,0.2323
1702332003812500,-9.10306,1.497937,3.335425,0.233032,0.17248,0.2823
1702332003820312,-9.3706,1.535937,3.371425,0.228432,0.17678,0.2653
1702332003828125,-8.93606,1.574937,3.400425,0.218132,0.17468,0.2683
1702332003835937,-8.82706,1.578937,3.402425,0.223932,0.16378,0.2953
1702332003843750,-8.75206,1.546937,3.445425,0.223832,0.15948,0.4413
1702332003851562,-8.75006,1.515937,3.466425,0.209832,0.13838,0.5183
1702332003859375,-8.77406,1.480937,3.484425,0.206232,0.13438,0.5523
1702332003867187,-8.83206,1.458937,3.533425,0.203132,0.13098,0.5523
1702332003875000,-8.89506,1.469937,3.540425,0.199432,0.11608,0.5543
1702332003882812,-8.95506,1.459937,3.558425,0.194132,0.9958,0.5403
1702332003890625,-9.506,1.468937,3.549425,0.186832,0.9208,0.5683
1702332003898437,-9.9006,1.482937,3.540425,0.178632,0.8438,0.5523
1702332003906250,-9.11306,1.494937,3.520425,0.170432,0.8318,0.6013
1702332003914062,-9.7706,1.524937,3.511425,0.154332,0.7848,0.6333
1702332003921875,-9.1006,1.521937,3.556425,0.151332,0.6748,0.7773
1702332003929687,-8.94206,1.487937,3.590425,0.147932,0.5998,0.7943
1702332003937500,-8.88906,1.427937,3.608425,0.148932,0.5778,0.7813
1702332003945312,-8.87606,1.373937,3.676425,0.148132,0.4228,0.7923
1702332003953125,-8.84206,1.337937,3.710425,0.149332,0.3198,0.7783
1702332003960937,-8.86206,1.290937,3.739425,0.148832,0.2388,0.7893
1702332003968750,-8.91606,1.239937,3.771425,0.161532,0.908,0.6683
1702332003976562,-8.98806,1.222937,3.748425,0.169832,0.552,0.5863
1702332003984375,-9.6806,1.217937,3.667425,0.161332,0.1462,0.4593
1702332003992187,-9.12406,1.258937,3.599425,0.174032,0.1292,0.3643
1702332004000000,-9.18806,1.314937,3.590425,0.164032,0.1412,0.3013
1702332004007812,-9.22906,1.372937,3.504425,0.177432,0.1672,0.2663
1702332004015625,-9.26106,1.443937,3.407425,0.168932,0.522,0.1553
1702332004023437,-9.27406,1.498937,3.355425,0.171032,0.622,0.1043
1702332004031250,-9.26406,1.571937,3.278425,0.160132,0.1302,0.1193
1702332004039062,-9.24606,1.602937,3.186425,0.143632,0.1232,0.1373
1702332004046875,-9.23906,1.613937,3.163425,0.138532,0.698,0.1543
1702332004054687,-9.21406,1.582937,3.163425,0.133532,0.878,0.1553
1702332004062500,-9.16806,1.571937,3.165425,0.129532,0.1318,0.1273
1702332004070312,-9.15406,1.563937,3.136425,0.116232,0.1138,0.1853
1702332004078125,-9.15506,1.561937,3.104425,0.111032,0.888,0.2513
1702332004085937,-9.16206,1.557937,3.93425,0.100032,0.518,0.1853
1702332004093750,-9.15306,1.580937,3.86425,0.95932,0.328,0.1093
1702332004101562,-9.13806,1.587937,3.186425,0.95232,0.1608,0.2013
1702332004109375,-9.10606,1.541937,3.177425,0.80032,0.148,0.2203
1702332004117187,-9.11106,1.497937,2.985425,0.50732,0.1212,0.2543
1702332004125000,-9.13006,1.490937,3.46425,0.43132,0.1122,0.2523
1702332004132812,-9.14406,1.521937,3.177425,0.51332,0.1622,0.2193
1702332004140625,-9.11106,1.517937,3.71425,0.52232,0.1622,0.1823
1702332004148437,-9.16606,1.510937,3.129425,0.53032,0.1812,0.2023
1702332004156250,-9.21806,1.515937,3.272425,0.67732,0.412,0.2023
1702332004164062,-9.22006,1.527937,3.170425,0.80532,0.1342,0.2023
1702332004171875,-9.28806,1.552937,2.983425,0.75432,0.1162,0.1233
1702332004179687,-9.33906,1.540937,2.989425,0.65932,0.868,0.2023
1702332004187500,-9.36806,1.529937,3.26425,0.48132,0.1178,0.1383
1702332004195312,-9.34006,1.516937,3.21425,0.47332,0.1608,0.1103
1702332004203125,-9.26506,1.521937,3.50425,0.43532,0.1608,0.1373
1702332004210937,-9.8606,1.551937,2.960425,0.38632,0.1648,0.2183
1702332004218750,-9.1406,1.512937,3.226425,0.32732,0.2688,0.3293
1702332004226562,-9.23506,1.416937,3.590425,0.26332,0.2688,0.3773
1702332004234375,-9.45606,1.446937,3.215425,0.36732,0.342,0.2523
1702332004242187,-9.48006,1.514937,3.14425,0.23232,0.1688,0.2633
1702332004250000,-9.42206,1.536937,3.37425,0.21532,0.1218,0.1673
1702332004257812,-9.36406,1.540937,3.44425,0.17932,0.1278,0.1853
1702332004265625,-9.26706,1.559937,3.89425,0.19032,0.1528,0.2363
1702332004273437,-9.17606,1.577937,3.86425,0.19732,0.2528,0.2493
1702332004281250,-9.13706,1.554937,3.23425,0.15932,0.2308,0.2843
1702332004289062,-9.13906,1.525937,2.971425,0.3432,0.2718,0.2663
1702332004296875,-9.15406,1.486937,2.969425,0.1432,0.3248,0.2673
1702332004304687,-9.17906,1.430937,3.64425,0.7568,0.3898,0.1993
1702332004312500,-9.20106,1.388937,3.109425,0.12268,0.3548,0.1343
1702332004320312,-9.22706,1.349937,3.163425,0.7868,0.3608,0.1203
1702332004328125,-9.24906,1.350937,3.184425,0.6268,0.3768,0.1043
1702332004335937,-9.26006,1.366937,3.193425,0.12968,0.3788,0.93
1702332004343750,-9.28306,1.412937,3.111425,0.17868,0.3638,0.253
1702332004351562,-9.30906,1.444937,3.62425,0.20868,0.4068,0.397
1702332004359375,-9.30706,1.459937,3.62425,0.14668,0.5338,0.1197
1702332004367187,-9.29906,1.451937,3.41425,0.21568,0.5708,0.1977
1702332004375000,-9.28106,1.435937,3.53425,0.23368,0.6978,0.2767
