time,Acceleration X (m/s^2),Acceleration Y (m/s^2),Acceleration Z (m/s^2),Angular Velocity X (rad/s),Angular Velocity Y (rad/s),Angular Velocity Z (rad/s)
1700767263750000,-9.552203,-1.380127,1.69414,-0.013646,,
1700767263757812,-9.557203,-1.369127,1.68014,0.8946,0.55258,0.21099
1700767263765625,-9.555203,-1.364127,1.67814,0.7246,0.56858,0.19499
1700767263773437,-9.572203,-1.362127,1.69614,0.9046,0.56958,0.21099
1700767263781250,-9.581203,-1.364127,1.68914,0.4046,0.45958,0.17899
1700767263789062,-9.587203,-1.370127,1.68914,0.4346,0.46158,0.19399
1700767263804687,-9.587203,-1.365127,1.69414,0.13346,0.53358,0.22799
1700767263812500,-9.602203,-1.371127,1.69414,0.3646,0.56458,0.21199
1700767263820312,-9.596203,-1.369127,1.70714,0.346,0.51658,0.19699
1700767263828125,-9.593203,-1.391127,1.69814,0.11846,0.45558,0.22799
1700767263851562,-9.606203,-1.381127,1.67414,0.846,0.61458,0.22699
1700767263859375,-9.590203,-1.383127,1.68014,0.4246,0.61658,0.24299
1700767263867187,-9.587203,-1.381127,1.66914,0.5946,0.66458,0.22599
1700767263875000,-9.581203,-1.366127,1.67614,0.1046,0.61758,0.20999
1700767263882812,-9.590203,-1.371127,1.67114,0.5654,0.59858,0.22699
1700767263890625,-9.583203,-1.364127,1.66414,0.846,0.61558,0.19499
1700767263898437,-9.586203,-1.371127,1.66414,0.2454,0.48958,0.21099
1700767263906250,-9.583203,-1.363127,1.66014,0.6754,0.44658,0.20999
1700767263914062,-9.584203,-1.362127,1.65814,0.854,0.50458,0.22699
1700767263921875,-9.585203,-1.363127,1.65314,0.1346,0.46358,0.19299
1700767263929687,-9.590203,-1.362127,1.65514,0.7154,0.53758,0.21099
1700767263937500,-9.581203,-1.366127,1.68714,0.3754,0.57058,0.19399
1700767263945312,-9.581203,-1.373127,1.68314,0.4154,0.58258,0.21199
1700767263953125,-9.597203,-1.395127,1.69214,0.846,0.55258,0.19499
1700767263960937,-9.603203,-1.392127,1.66714,0.2646,0.60258,0.16199
1700767263968750,-9.588203,-1.393127,1.66014,0.5646,0.58358,0.17899
1700767263976562,-9.583203,-1.381127,1.62814,0.12446,0.57058,0.20999
1700767263984375,-9.586203,-1.377127,1.64914,0.846,0.55258,0.19499
1700767263992187,-9.579203,-1.375127,1.66714,0.7446,0.60158,0.21099
1700767264000000,-9.575203,-1.380127,1.68014,0.5346,0.56558,0.17999
1700767264007812,-9.570203,-1.378127,1.68314,0.2454,0.58358,0.16299
1700767264015625,-9.577203,-1.375127,1.65814,0.7354,0.53558,0.19499
1700767264023437,-9.586203,-1.376127,1.66414,0.2246,0.51958,0.21199
1700767264031250,-9.589203,-1.381127,1.67614,0.6754,0.47858,0.22599
1700767264039062,-9.597203,-1.368127,1.67414,0.754,0.55258,0.25899
1700767264046875,-9.606203,-1.375127,1.65814,0.4046,0.56758,0.24299
1700767264054687,-9.601203,-1.379127,1.66214,0.3754,0.61558,0.29099
1700767264062500,-9.592203,-1.379127,1.66414,0.2154,0.56858,0.30699
1700767264070312,-9.604203,-1.386127,1.67614,0.854,0.56658,0.22799
1700767264078125,-9.598203,-1.380127,1.67414,0.3546,0.68858,0.19699
1700767264085937,-9.592203,-1.377127,1.67114,0.754,0.66258,0.21099
1700767264093750,-9.593203,-1.368127,1.68514,0.8954,0.61458,0.16299
1700767264101562,-9.597203,-1.373127,1.69614,0.8854,0.67758,0.21099
1700767264109375,-9.610203,-1.392127,1.69414,0.946,0.61658,0.16299
1700767264117187,-9.621203,-1.390127,1.68914,0.846,0.60058,0.16299
1700767264125000,-9.623203,-1.390127,1.68514,0.3954,0.67758,0.21099
1700767264132812,-9.634203,-1.400127,1.66514,0.1954,0.60258,0.25799
1700767264140625,-9.630203,-1.374127,1.64614,0.7154,0.67858,0.21099
1700767264148437,-9.619203,-1.372127,1.65114,0.2354,0.69458,0.21099
1700767264156250,-9.614203,-1.365127,1.66714,0.6954,0.72658,0.25799
1700767264164062,-9.588203,-1.361127,1.66714,0.8654,0.71058,0.22599
1700767264171875,-9.583203,-1.356127,1.66914,0.10154,0.74358,0.22599
1700767264179687,-9.552203,-1.361127,1.66214,0.6954,0.64958,0.22599
1700767264187500,-9.558203,-1.361127,1.65114,0.254,0.55658,0.24199
1700767264195312,-9.557203,-1.365127,1.64414,0.8954,0.56658,0.19599
1700767264203125,-9.564203,-1.369127,1.66014,0.9054,0.59758,0.21199
1700767264210937,-9.571203,-1.367127,1.68014,0.3646,0.59558,0.22899
1700767264218750,-9.580203,-1.383127,1.70114,0.4554,0.65558,0.26099
1700767264226562,-9.586203,-1.389127,1.71614,0.4054,0.61358,0.27599
1700767264234375,-9.597203,-1.384127,1.70114,0.3954,0.50558,0.25899
1700767264242187,-9.599203,-1.374127,1.67814,0.2254,0.66258,0.27499
1700767264250000,-9.602203,-1.391127,1.67614,0.1954,0.72758,0.30599
1700767264257812,-9.601203,-1.379127,1.68714,0.7154,0.66258,0.22699
1700767264265625,-9.585203,-1.361127,1.69414,0.10054,0.61958,0.20999
1700767264273437,-9.585203,-1.375127,1.68514,0.5554,0.60158,0.17899
1700767264281250,-9.581203,-1.377127,1.69214,0.4146,0.66358,0.19499
1700767264289062,-9.583203,-1.379127,1.68914,0.2546,0.63258,0.21099
1700767264296875,-9.581203,-1.379127,1.69414,0.2446,0.63158,0.19499
1700767264304687,-9.581203,-1.388127,1.70514,0.2254,0.67858,0.21099
1700767264312500,-9.582203,-1.385127,1.71014,0.10054,0.58858,0.19399
1700767264320312,-9.581203,-1.381127,1.71914,0.7054,0.53858,0.21099
1700767264328125,-9.559203,-1.375127,1.72314,0.8854,0.58458,0.16299
1700767264335937,-9.553203,-1.365127,1.71414,0.10654,0.56558,0.22799
1700767264343750,-9.558203,-1.375127,1.70714,0.5254,0.58658,0.25799
1700767264351562,-9.561203,-1.369127,1.69814,0.746,0.55158,0.22799
1700767264359375,-9.570203,-1.364127,1.68714,0.5354,0.52358,0.20999
1700767264367187,-9.585203,-1.363127,1.67814,0.1046,0.60158,0.19399
1700767264375000,-9.581203,-1.366127,1.68714,0.2254,0.63158,0.22699
1700767264382812,-9.590203,-1.364127,1.70714,0.754,0.66058,0.27499
1700767264390625,-9.588203,-1.369127,1.70314,0.5854,0.69158,0.19599
1700767264398437,-9.595203,-1.369127,1.69814,0.7454,0.66058,0.21199
1700767264406250,-9.586203,-1.369127,1.68914,0.4154,0.56558,0.24399
1700767264414062,-9.601203,-1.384127,1.68714,0.746,0.69258,0.22699
1700767264421875,-9.597203,-1.381127,1.69614,0.3954,0.66158,0.25899
1700767264429687,-9.606203,-1.368127,1.68914,0.754,0.62958,0.29099
1700767264437500,-9.611203,-1.369127,1.68514,0.3046,0.72958,0.25699
1700767264445312,-9.610203,-1.368127,1.69614,0.2646,0.64758,0.24299
1700767264453125,-9.590203,-1.362127,1.69814,0.8846,0.64558,0.21099
1700767264460937,-9.588203,-1.361127,1.70514,0.13846,0.71058,0.19499
1700767264468750,-9.582203,-1.365127,1.69614,0.7046,0.69058,0.21199
1700767264476562,-9.572203,-1.362127,1.68914,0.15346,0.67858,0.21099
1700767264484375,-9.584203,-1.378127,1.68714,0.7246,0.62958,0.25999
1700767264492187,-9.584203,-1.371127,1.70314,0.8846,0.69258,0.21099
1700767264500000,-9.565203,-1.379127,1.70114,0.5846,0.64758,0.21099
1700767264507812,-9.569203,-1.372127,1.69414,0.6946,0.53358,0.19599
1700767264515625,-9.571203,-1.369127,1.70314,0.8646,0.54958,0.21199
1700767264523437,-9.579203,-1.366127,1.71414,0.12346,0.50758,0.20999
1700767264531250,-9.588203,-1.357127,1.70114,0.10746,0.60058,0.25899
1700767264539062,-9.586203,-1.349127,1.69814,0.7246,0.56858,0.21099
1700767264546875,-9.586203,-1.350127,1.70114,0.17046,0.64858,0.19499
1700767264554687,-9.604203,-1.357127,1.69814,0.5646,0.63058,0.21099
1700767264562500,-9.591203,-1.364127,1.70114,0.13546,0.61458,0.19599
1700767264570312,-9.581203,-1.361127,1.69814,0.15546,0.66458,0.20999
1700767264578125,-9.586203,-1.366127,1.70314,0.13946,0.63258,0.24299
1700767264585937,-9.578203,-1.372127,1.70314,0.15646,0.68058,0.22599
1700767264593750,-9.577203,-1.371127,1.70514,0.16746,0.62858,0.25999
1700767264601562,-9.581203,-1.393127,1.70314,0.12046,0.61258,0.32399
1700767264609375,-9.586203,-1.386127,1.70714,0.9046,0.59858,0.32299
1700767264617187,-9.584203,-1.389127,1.71414,0.8946,0.51958,0.27599
1700767264625000,-9.590203,-1.379127,1.72114,0.10546,0.52158,0.25899
1700767264632812,-9.588203,-1.380127,1.71414,0.954,0.50258,0.25999
1700767264640625,-9.579203,-1.391127,1.70114,0.16846,0.55158,0.21099
1700767264648437,-9.586203,-1.397127,1.70514,0.15246,0.56758,0.19499
1700767264656250,-9.584203,-1.401127,1.70114,0.10046,0.50158,0.21299
1700767264664062,-9.580203,-1.396127,1.70314,0.10946,0.60458,0.19399
1700767264671875,-9.578203,-1.399127,1.70714,0.12146,0.63158,0.22699
1700767264679687,-9.579203,-1.398127,1.70514,0.11946,0.61358,0.21199
1700767264687500,-9.575203,-1.400127,1.70714,0.7046,0.61258,0.21199
1700767264695312,-9.584203,-1.387127,1.71914,0.10346,0.58158,0.22799
1700767264703125,-9.584203,-1.382127,1.70314,0.15246,0.58258,0.19499
1700767264710937,-9.583203,-1.395127,1.69414,0.2546,0.56958,0.19499
1700767264718750,-9.582203,-1.393127,1.70114,0.10146,0.64358,0.22799
1700767264726562,-9.579203,-1.384127,1.69814,0.746,0.58258,0.21199
1700767264734375,-9.592203,-1.394127,1.72114,0.946,0.53958,0.16199
1700767264742187,-9.580203,-1.398127,1.72314,0.4446,0.58858,0.19399
1700767264750000,-9.574203,-1.395127,1.72314,0.7446,0.50658,0.21099
1700767264757812,-9.570203,-1.378127,1.69414,0.10446,0.55158,0.19499
1700767264765625,-9.572203,-1.378127,1.68914,0.2346,0.53658,0.19499
1700767264773437,-9.562203,-1.374127,1.71914,0.6846,0.61158,0.21299
1700767264781250,-9.570203,-1.386127,1.72514,0.8946,0.61558,0.24299
1700767264789062,-9.586203,-1.384127,1.73214,0.5646,0.56758,0.22699
1700767264796875,-9.588203,-1.395127,1.73914,0.4154,0.59758,0.24399
1700767264804687,-9.589203,-1.388127,1.72514,0.6954,0.55458,0.22599
1700767264812500,-9.592203,-1.400127,1.71614,0.2454,0.61358,0.27599
1700767264820312,-9.581203,-1.404127,1.69414,0.5746,0.56858,0.22699
1700767264828125,-9.577203,-1.398127,1.69814,0.5546,0.59858,0.21199
1700767264835937,-9.561203,-1.396127,1.72114,0.7046,0.56558,0.24399
1700767264843750,-9.570203,-1.393127,1.71914,0.13746,0.58358,0.19499
1700767264851562,-9.585203,-1.399127,1.72514,0.17246,0.71258,0.20999
1700767264859375,-9.590203,-1.395127,1.72514,0.12246,0.66358,0.19499
1700767264867187,-9.601203,-1.395127,1.71914,0.2246,0.61358,0.19599
1700767264875000,-9.620203,-1.396127,1.71214,0.15846,0.58858,0.20999
1700767264882812,-9.623203,-1.405127,1.69614,0.7546,0.66458,0.22599
1700767264890625,-9.614203,-1.417127,1.68514,0.10446,0.67758,0.19499
1700767264898437,-9.608203,-1.408127,1.68314,0.15146,0.66058,0.19599
1700767264906250,-9.587203,-1.403127,1.69414,0.10646,0.66358,0.21099
1700767264914062,-9.566203,-1.398127,1.69614,0.10246,0.67558,0.22799
1700767264921875,-9.559203,-1.400127,1.67614,0.13646,0.56758,0.22799
1700767264929687,-9.550203,-1.400127,1.68014,0.12146,0.52158,0.21099
1700767264937500,-9.538203,-1.398127,1.68714,0.2446,0.56758,0.25899
1700767264945312,-9.543203,-1.400127,1.69214,0.13746,0.56858,0.21099
1700767264953125,-9.556203,-1.393127,1.69414,0.4246,0.52358,0.21099
1700767264960937,-9.574203,-1.393127,1.70114,0.854,0.56858,0.19499
1700767264968750,-9.581203,-1.397127,1.70314,0.554,0.60058,0.24299
1700767264976562,-9.590203,-1.401127,1.69214,0.2646,0.56858,0.27499
1700767264984375,-9.597203,-1.406127,1.69814,0.2346,0.59858,0.21199
1700767264992187,-9.590203,-1.404127,1.69814,0.854,0.56658,0.27599
1700767265000000,-9.587203,-1.401127,1.70314,0.2546,0.59958,0.24299
1700767265007812,-9.588203,-1.406127,1.69214,0.10446,0.61358,0.22799
1700767265015625,-9.579203,-1.400127,1.69814,0.4046,0.47458,0.19499
1700767265023437,-9.574203,-1.393127,1.70114,0.846,0.50458,0.27599
1700767265031250,-9.575203,-1.398127,1.70514,0.5346,0.50158,0.22799
1700767265039062,-9.567203,-1.373127,1.70314,0.4446,0.53958,0.25799
1700767265046875,-9.573203,-1.362127,1.71214,0.5546,0.56758,0.17899
1700767265054687,-9.577203,-1.368127,1.71014,0.2746,0.52258,0.25899
1700767265062500,-9.581203,-1.364127,1.71014,0.9046,0.56858,0.24299
1700767265070312,-9.571203,-1.370127,1.70114,0.6146,0.58958,0.12899
1700767265078125,-9.564203,-1.362127,1.70714,0.8546,0.56258,0.23899
1700767265085937,-9.563203,-1.379127,1.70514,0.10746,0.60258,0.20999
1700767265093750,-9.562203,-1.390127,1.70114,0.11046,0.55758,0.22599
1700767265101562,-9.567203,-1.399127,1.72114,0.12346,0.50758,0.20999
1700767265109375,-9.576203,-1.397127,1.71914,0.2546,0.46058,0.19499
1700767265117187,-9.580203,-1.394127,1.71214,0.9246,0.47758,0.19399
1700767265125000,-9.592203,-1.400127,1.69814,0.3846,0.56558,0.24399
1700767265132812,-9.601203,-1.404127,1.71014,0.846,0.58358,0.25899
1700767265140625,-9.606203,-1.402127,1.72114,0.8846,0.55158,0.21099
1700767265148437,-9.592203,-1.404127,1.71414,0.2346,0.56758,0.19499
1700767265156250,-9.594203,-1.411127,1.71914,0.4054,0.59758,0.27599
1700767265164062,-9.590203,-1.406127,1.72114,0.5454,0.47358,0.29099
1700767265171875,-9.587203,-1.394127,1.71214,0.454,0.55458,0.27399
1700767265179687,-9.590203,-1.393127,1.71014,0.2546,0.50558,0.24299
1700767265187500,-9.582203,-1.398127,1.71914,0.5154,0.55658,0.22599
1700767265195312,-9.591203,-1.396127,1.72114,0.1054,0.61158,0.25999
1700767265203125,-9.594203,-1.392127,1.72314,0.1046,0.60158,0.20999
1700767265210937,-9.601203,-1.393127,1.73014,0.5446,0.64558,0.19599
1700767265218750,-9.592203,-1.394127,1.70714,0.1146,0.58558,0.28999
1700767265226562,-9.592203,-1.393127,1.69814,0.10446,0.66158,0.21099
1700767265234375,-9.586203,-1.391127,1.69214,0.7046,0.67658,0.19599
1700767265242187,-9.588203,-1.387127,1.69414,0.10246,0.59758,0.21199
1700767265250000,-9.588203,-1.404127,1.70114,0.10446,0.61458,0.19499
1700767265257812,-9.585203,-1.397127,1.69814,0.10546,0.61558,0.22699
1700767265265625,-9.587203,-1.399127,1.72114,0.10646,0.64758,0.21099
1700767265273437,-9.583203,-1.406127,1.71914,0.954,0.62958,0.22799
1700767265281250,-9.587203,-1.399127,1.69614,0.10646,0.61558,0.25899
1700767265289062,-9.585203,-1.397127,1.68014,0.7246,0.64558,0.22699
1700767265296875,-9.583203,-1.395127,1.68714,0.15246,0.56758,0.22799
1700767265304687,-9.589203,-1.380127,1.68914,0.6846,0.59558,0.22899
1700767265312500,-9.586203,-1.378127,1.68914,0.5446,0.61258,0.22799
1700767265320312,-9.599203,-1.393127,1.69214,0.10346,0.59758,0.22799
1700767265328125,-9.588203,-1.385127,1.69214,0.7046,0.58058,0.25999
1700767265335937,-9.592203,-1.384127,1.69614,0.7446,0.55358,0.22699
1700767265343750,-9.592203,-1.388127,1.69614,0.8746,0.70758,0.22799
1700767265351562,-9.584203,-1.389127,1.68714,0.7046,0.61158,0.29199
1700767265359375,-9.586203,-1.400127,1.69614,0.2446,0.53558,0.27599
1700767265367187,-9.594203,-1.397127,1.71014,0.9046,0.50558,0.29099
1700767265375000,-9.585203,-1.406127,1.72114,0.5846,0.49058,0.25899
1700767265382812,-9.579203,-1.395127,1.71014,0.746,0.59758,0.25999
1700767265390625,-9.588203,-1.393127,1.69614,0.10446,0.53658,0.21099
1700767265398437,-9.593203,-1.391127,1.68014,0.5446,0.50458,0.19599
1700767265406250,-9.593203,-1.398127,1.68914,0.7146,0.50358,0.21199
1700767265414062,-9.586203,-1.400127,1.70314,0.646,0.61358,0.17999
1700767265421875,-9.588203,-1.389127,1.69614,0.12046,0.53458,0.25999
1700767265429687,-9.582203,-1.378127,1.69614,0.6946,0.61058,0.24499
1700767265437500,-9.571203,-1.383127,1.70714,0.3746,0.59658,0.19599
1700767265445312,-9.570203,-1.380127,1.70114,0.7346,0.53658,0.24299
1700767265453125,-9.570203,-1.389127,1.69214,0.13546,0.62858,0.21199
1700767265460937,-9.574203,-1.377127,1.70314,0.5554,0.55358,0.22699
1700767265468750,-9.590203,-1.382127,1.69414,0.3946,0.56758,0.21199
1700767265476562,-9.586203,-1.371127,1.69614,0.2454,0.61458,0.19499
1700767265484375,-9.583203,-1.383127,1.69814,0.5846,0.64858,0.20999
1700767265492187,-9.599203,-1.370127,1.70114,0.4046,0.59858,0.25899
1700767265500000,-9.601203,-1.373127,1.69814,0.854,0.61458,0.21099
1700767265507812,-9.588203,-1.366127,1.70114,0.10746,0.55458,0.21099
1700767265515625,-9.588203,-1.369127,1.69414,0.3846,0.58158,0.19599
1700767265523437,-9.588203,-1.373127,1.69414,0.2446,0.58358,0.21099
1700767265531250,-9.577203,-1.380127,1.71614,0.5646,0.61458,0.22699
1700767265539062,-9.581203,-1.379127,1.71214,0.7446,0.50658,0.22699
1700767265546875,-9.578203,-1.376127,1.70314,0.9546,0.57358,0.25699
1700767265554687,-9.574203,-1.373127,1.70714,0.5746,0.61558,0.21099
1700767265562500,-9.579203,-1.373127,1.71414,0.12446,0.58458,0.30699
1700767265570312,-9.588203,-1.375127,1.70514,0.13846,0.50658,0.22699
1700767265578125,-9.601203,-1.365127,1.71614,0.15746,0.57158,0.20999
1700767265585937,-9.612203,-1.380127,1.71414,0.12646,0.61858,0.30599
1700767265593750,-9.614203,-1.392127,1.71914,0.5946,0.52458,0.19399
1700767265601562,-9.612203,-1.396127,1.69614,0.15646,0.64958,0.20999
1700767265609375,-9.614203,-1.405127,1.68914,0.8946,0.63158,0.22699
1700767265617187,-9.614203,-1.411127,1.68314,0.1146,0.64958,0.22599
1700767265625000,-9.592203,-1.402127,1.67114,0.10346,0.70758,0.22799
1700767265632812,-9.572203,-1.400127,1.69214,0.7146,0.69258,0.21099
1700767265640625,-9.551203,-1.397127,1.68914,0.5846,0.67858,0.24299
1700767265648437,-9.543203,-1.400127,1.68914,0.10546,0.58458,0.19499
1700767265656250,-9.534203,-1.382127,1.70114,0.4146,0.53758,0.21099
1700767265664062,-9.555203,-1.379127,1.71014,0.5346,0.56458,0.22799
1700767265671875,-9.570203,-1.369127,1.70114,0.7246,0.48958,0.19499
1700767265679687,-9.581203,-1.373127,1.69814,0.7346,0.61558,0.21099
1700767265687500,-9.585203,-1.382127,1.73014,0.2546,0.50658,0.19499
1700767265695312,-9.592203,-1.375127,1.73414,0.2254,0.53758,0.21099
1700767265703125,-9.593203,-1.367127,1.70514,0.8646,0.50358,0.19599
1700767265710937,-9.586203,-1.364127,1.69614,0.8946,0.55258,0.21099
1700767265718750,-9.586203,-1.380127,1.70514,0.5446,0.67458,0.24399
1700767265726562,-9.570203,-1.387127,1.71914,0.5546,0.66058,0.22799
1700767265734375,-9.572203,-1.393127,1.72314,0.2346,0.70658,0.27599
1700767265742187,-9.577203,-1.404127,1.72114,0.3946,0.61258,0.27599
1700767265750000,-9.588203,-1.406127,1.72314,0.7346,0.53658,0.22699
1700767265757812,-9.596203,-1.399127,1.71214,0.5454,0.56858,0.25899
1700767265765625,-9.590203,-1.384127,1.70114,0.11946,0.58158,0.21199
1700767265773437,-9.583203,-1.379127,1.69414,0.15546,0.57058,0.21099
1700767265781250,-9.586203,-1.384127,1.68914,0.7046,0.51958,0.17999
1700767265789062,-9.572203,-1.395127,1.70314,0.12246,0.60058,0.22699
1700767265796875,-9.555203,-1.396127,1.72114,0.5346,0.54958,0.17999
1700767265804687,-9.550203,-1.400127,1.72814,0.13546,0.55158,0.16299
1700767265812500,-9.561203,-1.389127,1.72314,0.7046,0.47158,0.19599
1700767265820312,-9.573203,-1.385127,1.71214,0.2146,0.50258,0.21199
1700767265828125,-9.577203,-1.377127,1.70514,0.946,0.50658,0.19499
1700767265835937,-9.586203,-1.369127,1.69614,0.10246,0.48758,0.21199
1700767265843750,-9.586203,-1.362127,1.71914,0.11946,0.56658,0.19599
1700767265851562,-9.583203,-1.364127,1.71914,0.13946,0.49258,0.20999
1700767265859375,-9.586203,-1.362127,1.70514,0.12046,0.53458,0.25999
1700767265867187,-9.603203,-1.365127,1.70114,0.6846,0.56358,0.21299
1700767265875000,-9.596203,-1.370127,1.70114,0.13146,0.56258,0.19699
1700767265882812,-9.581203,-1.359127,1.70714,0.4146,0.63058,0.24299
1700767265890625,-9.595203,-1.391127,1.71914,0.10146,0.50258,0.21199
1700767265898437,-9.593203,-1.398127,1.72314,0.8746,0.55058,0.22799
1700767265906250,-9.604203,-1.389127,1.73014,0.6946,0.62658,0.26099
1700767265914062,-9.610203,-1.397127,1.70714,0.15146,0.59758,0.22799
1700767265921875,-9.613203,-1.396127,1.70314,0.10046,0.67158,0.27699
1700767265929687,-9.616203,-1.394127,1.70314,0.6446,0.66958,0.24599
1700767265937500,-9.604203,-1.379127,1.70714,0.3846,0.75358,0.24399
1700767265945312,-9.598203,-1.383127,1.70114,0.9946,0.76558,0.22899
1700767265953125,-9.588203,-1.368127,1.69614,0.946,0.69458,0.24299
1700767265960937,-9.584203,-1.367127,1.66914,0.11846,0.70658,0.24399
1700767265968750,-9.584203,-1.362127,1.67114,0.8746,0.67658,0.19599
1700767265976562,-9.580203,-1.365127,1.66414,0.13446,0.69058,0.19599
1700767265984375,-9.571203,-1.379127,1.69214,0.7746,0.65058,0.22599
1700767265992187,-9.578203,-1.372127,1.71014,0.12546,0.63558,0.20999
1700767266000000,-9.581203,-1.388127,1.70514,0.15446,0.61658,0.19499
1700767266007812,-9.584203,-1.400127,1.68714,0.11946,0.56658,0.21199
1700767266015625,-9.583203,-1.395127,1.68714,0.13646,0.53658,0.19499
1700767266023437,-9.579203,-1.391127,1.70114,0.16846,0.66158,0.19499
1700767266031250,-9.567203,-1.395127,1.70714,0.4046,0.67758,0.21099
1700767266039062,-9.568203,-1.371127,1.72114,0.5446,0.65958,0.21199
1700767266046875,-9.566203,-1.367127,1.70314,0.18446,0.62958,0.19599
1700767266054687,-9.575203,-1.367127,1.70314,0.11946,0.61358,0.21199
1700767266062500,-9.575203,-1.380127,1.69214,0.5346,0.62758,0.25999
1700767266070312,-9.572203,-1.395127,1.69814,0.15346,0.61458,0.21099
1700767266078125,-9.582203,-1.400127,1.70314,0.10046,0.65758,0.18099
1700767266085937,-9.584203,-1.399127,1.70114,0.3546,0.50058,0.19699
1700767266093750,-9.585203,-1.411127,1.70514,0.13746,0.53658,0.24299
1700767266101562,-9.584203,-1.407127,1.71414,0.154,0.54258,0.22499
1700767266109375,-9.582203,-1.414127,1.70314,0.7646,0.52358,0.24199
1700767266117187,-9.596203,-1.417127,1.70114,0.5746,0.56758,0.24299
1700767266125000,-9.576203,-1.413127,1.71214,0.2454,0.62858,0.29199
1700767266132812,-9.575203,-1.407127,1.71914,0.9254,0.57858,0.26099
1700767266140625,-9.586203,-1.400127,1.72314,0.4154,0.45758,0.21199
1700767266148437,-9.576203,-1.393127,1.69614,0.10354,0.44458,0.19499
1700767266156250,-9.576203,-1.388127,1.71014,0.7154,0.53758,0.22699
1700767266164062,-9.578203,-1.374127,1.71414,0.4354,0.45558,0.21199
1700767266171875,-9.575203,-1.380127,1.73014,0.654,0.52058,0.27499
1700767266179687,-9.566203,-1.369127,1.72814,0.946,0.53758,0.24299
1700767266187500,-9.569203,-1.372127,1.74114,0.10054,0.50958,0.19399
1700767266195312,-9.573203,-1.378127,1.71914,0.5754,0.48858,0.21199
1700767266203125,-9.593203,-1.368127,1.71614,0.10454,0.47458,0.21099
1700767266210937,-9.588203,-1.364127,1.72114,0.1146,0.50758,0.25899
1700767266218750,-9.594203,-1.361127,1.71014,0.12446,0.49358,0.20999
1700767266226562,-9.593203,-1.373127,1.69614,0.754,0.45858,0.22699
1700767266234375,-9.586203,-1.377127,1.71914,0.846,0.47458,0.19499
1700767266242187,-9.586203,-1.380127,1.71614,0.2446,0.52158,0.21099
1700767266250000,-9.572203,-1.395127,1.72814,0.946,0.53758,0.19499
1700767266257812,-9.572203,-1.388127,1.73914,0.654,0.53758,0.21099
1700767266265625,-9.568203,-1.387127,1.73914,0.746,0.47358,0.19499
1700767266273437,-9.598203,-1.394127,1.72514,0.6654,0.44758,0.20899
1700767266281250,-9.610203,-1.392127,1.74614,0.654,0.52158,0.24299
1700767266289062,-9.621203,-1.398127,1.73514,0.2646,0.55458,0.22699
1700767266296875,-9.640203,-1.404127,1.72514,0.2654,0.50258,0.22799
1700767266304687,-9.639203,-1.401127,1.71414,0.5554,0.56758,0.24299
1700767266312500,-9.628203,-1.403127,1.71214,0.2346,0.58258,0.22799
1700767266320312,-9.605203,-1.399127,1.71914,0.2746,0.61758,0.25799
1700767266328125,-9.583203,-1.390127,1.71414,0.454,0.55558,0.20999
1700767266335937,-9.563203,-1.397127,1.71614,0.4146,0.55358,0.19499
1700767266343750,-9.554203,-1.387127,1.71014,0.13646,0.52058,0.21099
1700767266351562,-9.541203,-1.387127,1.72114,0.4146,0.58458,0.22699
1700767266359375,-9.547203,-1.373127,1.70514,0.5454,0.47658,0.19399
1700767266367187,-9.551203,-1.388127,1.72114,0.9446,0.58958,0.20899
1700767266375000,-9.565203,-1.371127,1.72314,0.946,0.47558,0.19499
1700767266382812,-9.585203,-1.370127,1.72114,0.4346,0.53958,0.20999
1700767266390625,-9.586203,-1.371127,1.72314,0.5654,0.45958,0.17899
1700767266398437,-9.589203,-1.374127,1.71414,0.5954,0.47058,0.19599
1700767266406250,-9.597203,-1.381127,1.70314,0.654,0.49158,0.21099
1700767266414062,-9.592203,-1.381127,1.70114,0.5554,0.49158,0.19499
1700767266421875,-9.594203,-1.388127,1.71614,0.2546,0.55358,0.21099
1700767266429687,-9.590203,-1.380127,1.70114,0.2554,0.61358,0.21199
1700767266437500,-9.597203,-1.393127,1.69614,0.1054,0.56558,0.19599
1700767266445312,-9.585203,-1.397127,1.69614,0.5746,0.52058,0.27499
1700767266453125,-9.584203,-1.391127,1.70314,0.7454,0.53358,0.29199
1700767266460937,-9.587203,-1.388127,1.70114,0.1046,0.52258,0.22699
1700767266468750,-9.595203,-1.402127,1.71614,0.2246,0.59658,0.25999
1700767266476562,-9.585203,-1.388127,1.72814,0.3854,0.58358,0.29099
1700767266484375,-9.573203,-1.378127,1.72314,0.954,0.53358,0.29199
1700767266492187,-9.573203,-1.376127,1.72514,0.854,0.62858,0.29199
1700767266500000,-9.563203,-1.373127,1.72814,0.946,0.58458,0.24299
1700767266507812,-9.558203,-1.370127,1.73714,0.3554,0.55558,0.28999
1700767266515625,-9.567203,-1.382127,1.73914,0.5454,0.58558,0.21099
1700767266523437,-9.585203,-1.386127,1.74114,0.2546,0.60158,0.19499
1700767266531250,-9.590203,-1.372127,1.72514,0.5254,0.57058,0.25799
1700767266539062,-9.583203,-1.365127,1.72814,0.5054,0.49458,0.22599
1700767266546875,-9.583203,-1.375127,1.71614,0.2646,0.49058,0.30699
1700767266554687,-9.583203,-1.379127,1.71214,0.5354,0.52258,0.24299
1700767266562500,-9.581203,-1.384127,1.71214,0.4046,0.45758,0.24299
1700767266570312,-9.571203,-1.388127,1.71414,0.6146,0.46258,0.22599
1700767266578125,-9.582203,-1.384127,1.72514,0.8846,0.44158,0.22799
1700767266585937,-9.581203,-1.377127,1.71614,0.9046,0.45858,0.24299
1700767266593750,-9.581203,-1.369127,1.71414,0.8946,0.44358,0.22699
1700767266601562,-9.601203,-1.384127,1.72114,0.12246,0.45958,0.22699
1700767266609375,-9.606203,-1.395127,1.71914,0.2454,0.48858,0.24299
1700767266617187,-9.608203,-1.370127,1.73514,0.17146,0.53858,0.22699
1700767266625000,-9.593203,-1.364127,1.73014,0.754,0.48958,0.22699
1700767266632812,-9.589203,-1.363127,1.72514,0.4354,0.54858,0.21199
1700767266640625,-9.591203,-1.365127,1.73014,0.646,0.45658,0.22799
1700767266648437,-9.583203,-1.372127,1.70314,0.5946,0.52358,0.22699
1700767266656250,-9.590203,-1.383127,1.70714,0.2154,0.55458,0.22699
1700767266664062,-9.585203,-1.390127,1.71614,0.4446,0.50758,0.30599
1700767266671875,-9.588203,-1.395127,1.72114,0.2546,0.58458,0.27499
1700767266679687,-9.590203,-1.393127,1.73014,0.5554,0.58458,0.22699
1700767266687500,-9.588203,-1.399127,1.72514,0.11954,0.47458,0.24299
1700767266695312,-9.588203,-1.383127,1.73914,0.5354,0.50758,0.25899
1700767266703125,-9.579203,-1.397127,1.73414,0.5746,0.45958,0.21099
1700767266710937,-9.555203,-1.380127,1.73714,0.4154,0.59858,0.19599
1700767266718750,-9.559203,-1.371127,1.74414,0.7054,0.50658,0.22699
1700767266726562,-9.555203,-1.374127,1.74114,0.4154,0.47258,0.21199
1700767266734375,-9.547203,-1.362127,1.73214,0.1146,0.46158,0.20999
1700767266742187,-9.561203,-1.366127,1.72314,0.5454,0.44358,0.25899
1700767266750000,-9.575203,-1.366127,1.72514,0.4146,0.47458,0.27499
1700767266757812,-9.581203,-1.381127,1.71614,0.7546,0.50858,0.19399
1700767266765625,-9.579203,-1.390127,1.72814,0.7446,0.52258,0.24299
1700767266773437,-9.584203,-1.389127,1.73714,0.2246,0.53358,0.24399
1700767266781250,-9.592203,-1.395127,1.72814,0.2346,0.50458,0.21099
1700767266789062,-9.592203,-1.395127,1.71214,0.7154,0.52158,0.22699
1700767266796875,-9.584203,-1.391127,1.71614,0.2654,0.47158,0.22799
1700767266804687,-9.587203,-1.397127,1.70314,0.2546,0.53758,0.24299
1700767266812500,-9.595203,-1.396127,1.71914,0.13446,0.47258,0.19599
1700767266820312,-9.588203,-1.384127,1.71014,0.5546,0.48858,0.19599
1700767266828125,-9.595203,-1.371127,1.71214,0.5546,0.42558,0.22799
1700767266835937,-9.588203,-1.375127,1.71014,0.7146,0.50358,0.21199
1700767266843750,-9.588203,-1.364127,1.71414,0.5646,0.52058,0.24299
1700767266851562,-9.588203,-1.369127,1.73914,0.5646,0.47358,0.22699
1700767266859375,-9.576203,-1.365127,1.73414,0.6246,0.49458,0.25799
1700767266867187,-9.575203,-1.373127,1.72114,0.7246,0.47358,0.24299
1700767266875000,-9.581203,-1.373127,1.71914,0.13946,0.52358,0.24299
1700767266882812,-9.585203,-1.367127,1.71914,0.2046,0.46958,0.22899
1700767266890625,-9.584203,-1.363127,1.72514,0.13446,0.47158,0.21199
1700767266898437,-9.584203,-1.360127,1.71414,0.13646,0.51958,0.24399
1700767266906250,-9.589203,-1.364127,1.70714,0.7146,0.44158,0.17999
1700767266914062,-9.586203,-1.371127,1.70514,0.10446,0.47458,0.16299
1700767266921875,-9.593203,-1.362127,1.69814,0.7346,0.47458,0.21099
1700767266929687,-9.590203,-1.380127,1.70114,0.5646,0.47358,0.21099
1700767266937500,-9.572203,-1.366127,1.69414,0.12246,0.49158,0.17899
1700767266945312,-9.570203,-1.371127,1.69414,0.12146,0.53658,0.24299
1700767266953125,-9.564203,-1.367127,1.70514,0.11746,0.56458,0.24399
1700767266960937,-9.577203,-1.367127,1.71014,0.16746,0.45658,0.21199
1700767266968750,-9.585203,-1.363127,1.70314,0.15646,0.50858,0.22599
1700767266976562,-9.597203,-1.379127,1.69814,0.15446,0.49058,0.21099
1700767266984375,-9.606203,-1.390127,1.69614,0.8946,0.44258,0.22699
1700767266992187,-9.616203,-1.394127,1.67614,0.18046,0.46958,0.21299
1700767267000000,-9.613203,-1.391127,1.66214,0.10346,0.47158,0.22799
1700767267007812,-9.611203,-1.389127,1.66914,0.8646,0.48658,0.24399
1700767267015625,-9.591203,-1.400127,1.66914,0.13346,0.48558,0.26099
1700767267023437,-9.580203,-1.396127,1.66214,0.13346,0.43858,0.21299
1700767267031250,-9.577203,-1.398127,1.67814,0.15346,0.45858,0.24299
1700767267039062,-9.571203,-1.408127,1.68914,0.14046,0.47658,0.22599
1700767267046875,-9.570203,-1.405127,1.68914,0.16646,0.48658,0.24399
1700767267054687,-9.585203,-1.401127,1.69214,0.4346,0.50758,0.29099
1700767267062500,-9.592203,-1.399127,1.68014,0.3854,0.47358,0.29099
1700767267070312,-9.576203,-1.402127,1.69414,0.7446,0.41358,0.22699
1700767267078125,-9.579203,-1.377127,1.70114,0.9146,0.44558,0.19399
1700767267085937,-9.579203,-1.384127,1.69414,0.4246,0.35058,0.21099
1700767267093750,-9.586203,-1.380127,1.68014,0.12046,0.34858,0.19599
1700767267101562,-9.586203,-1.395127,1.66414,0.10446,0.45758,0.22799
1700767267109375,-9.587203,-1.395127,1.67414,0.4246,0.44458,0.21099
1700767267117187,-9.586203,-1.389127,1.68514,0.2446,0.44158,0.27599
1700767267125000,-9.587203,-1.408127,1.67114,0.17246,0.46058,0.22599
1700767267132812,-9.596203,-1.412127,1.67414,0.3654,0.50858,0.20999
1700767267140625,-9.603203,-1.417127,1.66014,0.4246,0.49058,0.24299
1700767267148437,-9.614203,-1.416127,1.65314,0.4346,0.49358,0.19399
1700767267156250,-9.628203,-1.410127,1.64914,0.7054,0.47558,0.24299
1700767267164062,-9.624203,-1.395127,1.65514,0.846,0.47358,0.25899
1700767267171875,-9.624203,-1.381127,1.66414,0.10354,0.47558,0.21099
1700767267179687,-9.614203,-1.386127,1.66214,0.3854,0.44458,0.24299
1700767267187500,-9.602203,-1.373127,1.66914,0.646,0.45558,0.24399
1700767267195312,-9.589203,-1.364127,1.65314,0.2246,0.45758,0.19599
1700767267203125,-9.595203,-1.364127,1.65514,0.7246,0.44258,0.21099
1700767267210937,-9.590203,-1.361127,1.66414,0.1046,0.46058,0.20999
1700767267218750,-9.584203,-1.365127,1.69414,0.4354,0.48658,0.24399
1700767267226562,-9.597203,-1.368127,1.70514,0.7254,0.56758,0.24299
1700767267234375,-9.603203,-1.365127,1.69814,0.8354,0.49458,0.22599
1700767267242187,-9.605203,-1.365127,1.69214,0.1854,0.47758,0.27399
1700767267250000,-9.606203,-1.368127,1.67814,0.554,0.47658,0.24199
1700767267257812,-9.601203,-1.368127,1.66714,0.3854,0.50658,0.25899
1700767267265625,-9.588203,-1.373127,1.68314,0.4146,0.46058,0.19499
1700767267273437,-9.603203,-1.383127,1.68714,0.7446,0.46058,0.21099
1700767267281250,-9.591203,-1.389127,1.68914,0.6946,0.56458,0.24499
1700767267289062,-9.590203,-1.386127,1.68314,0.12046,0.55158,0.21099
1700767267296875,-9.586203,-1.382127,1.65814,0.654,0.50558,0.25899
1700767267304687,-9.592203,-1.368127,1.64014,0.12546,0.54058,0.20999
1700767267312500,-9.587203,-1.372127,1.66014,0.12546,0.57158,0.20999
1700767267320312,-9.584203,-1.367127,1.65814,0.2046,0.48658,0.19599
1700767267328125,-9.584203,-1.384127,1.65514,0.2346,0.48958,0.21099
1700767267335937,-9.593203,-1.378127,1.66214,0.2854,0.56358,0.21299
1700767267343750,-9.597203,-1.375127,1.65814,0.4154,0.53658,0.17899
1700767267351562,-9.592203,-1.388127,1.63714,0.7254,0.50558,0.19499
1700767267359375,-9.604203,-1.395127,1.63714,0.4054,0.47358,0.21099
1700767267367187,-9.599203,-1.390127,1.62414,0.5746,0.52258,0.19499
1700767267375000,-9.590203,-1.377127,1.65314,0.2346,0.50458,0.21099
1700767267382812,-9.590203,-1.370127,1.63314,0.4246,0.49258,0.20999
1700767267390625,-9.581203,-1.364127,1.64914,0.10746,0.49258,0.19399
1700767267398437,-9.579203,-1.369127,1.64614,0.7246,0.44258,0.21099
1700767267406250,-9.582203,-1.367127,1.63514,0.7246,0.48958,0.24299
1700767267414062,-9.583203,-1.368127,1.64214,0.9046,0.49158,0.22699
1700767267421875,-9.587203,-1.365127,1.65314,0.7746,0.47858,0.24199
1700767267429687,-9.591203,-1.371127,1.64214,0.8746,0.56558,0.24399
1700767267437500,-9.588203,-1.381127,1.65814,0.2646,0.49058,0.22699
1700767267445312,-9.599203,-1.397127,1.63314,0.7346,0.47458,0.25899
1700767267453125,-9.605203,-1.394127,1.63514,0.1046,0.49158,0.22599
1700767267460937,-9.606203,-1.381127,1.62414,0.4246,0.45958,0.24299
1700767267468750,-9.608203,-1.388127,1.62214,0.15546,0.44458,0.24299
1700767267476562,-9.590203,-1.402127,1.62414,0.10646,0.45858,0.25899
1700767267484375,-9.583203,-1.399127,1.65114,0.15646,0.49158,0.27499
1700767267492187,-9.583203,-1.399127,1.65814,0.13946,0.41358,0.19499
1700767267500000,-9.581203,-1.406127,1.64414,0.7446,0.44458,0.22699
1700767267507812,-9.590203,-1.398127,1.64214,0.10446,0.45758,0.24399
1700767267515625,-9.591203,-1.378127,1.64214,0.8846,0.48758,0.27599
1700767267523437,-9.589203,-1.374127,1.64414,0.546,0.45458,0.25999
1700767267531250,-9.589203,-1.367127,1.64914,0.8746,0.40958,0.21199
1700767267539062,-9.588203,-1.367127,1.64914,0.13646,0.45758,0.19599
1700767267546875,-9.585203,-1.363127,1.65514,0.5246,0.47058,0.19699
1700767267554687,-9.600203,-1.364127,1.64414,0.2246,0.44058,0.21199
1700767267562500,-9.602203,-1.367127,1.64414,0.10246,0.50358,0.19599
1700767267570312,-9.602203,-1.362127,1.65314,0.8546,0.45558,0.21199
1700767267578125,-9.609203,-1.362127,1.64214,0.7146,0.44058,0.24399
1700767267585937,-9.611203,-1.368127,1.64614,0.8746,0.51958,0.19599
1700767267593750,-9.607203,-1.369127,1.63314,0.8646,0.48558,0.29199
1700767267601562,-9.609203,-1.375127,1.63114,0.15146,0.50258,0.27599
1700767267609375,-9.598203,-1.369127,1.63514,0.16646,0.50058,0.34099
1700767267617187,-9.582203,-1.380127,1.66714,0.11946,0.55058,0.24399
1700767267625000,-9.576203,-1.384127,1.66914,0.7546,0.49058,0.29099
1700767267632812,-9.588203,-1.379127,1.66914,0.15546,0.50658,0.27499
1700767267640625,-9.583203,-1.386127,1.66914,0.12146,0.45958,0.17899
1700767267648437,-9.602203,-1.369127,1.66914,0.10246,0.45558,0.21199
1700767267656250,-9.615203,-1.393127,1.63714,0.10446,0.44258,0.19499
1700767267664062,-9.616203,-1.394127,1.62214,0.15646,0.53958,0.22599
1700767267671875,-9.617203,-1.368127,1.62614,0.5846,0.45958,0.24299
1700767267679687,-9.614203,-1.388127,1.62614,0.13946,0.53858,0.19399
1700767267687500,-9.601203,-1.386127,1.62814,0.16846,0.56758,0.22799
1700767267695312,-9.600203,-1.371127,1.62614,0.8746,0.51958,0.21199
1700767267703125,-9.579203,-1.386127,1.63714,0.10446,0.55158,0.22799
1700767267710937,-9.577203,-1.395127,1.62214,0.846,0.45758,0.24299
1700767267718750,-9.584203,-1.378127,1.62214,0.2046,0.43958,0.17999
1700767267726562,-9.586203,-1.380127,1.61714,0.8946,0.50358,0.33999
1700767267734375,-9.579203,-1.384127,1.61714,0.4146,0.44358,0.24299
1700767267742187,-9.599203,-1.379127,1.62414,0.10646,0.47558,0.19499
1700767267750000,-9.604203,-1.371127,1.62814,0.8846,0.45758,0.24399
1700767267757812,-9.612203,-1.388127,1.62414,0.13746,0.50658,0.19499
1700767267765625,-9.613203,-1.393127,1.62214,0.11946,0.44158,0.19599
1700767267773437,-9.618203,-1.398127,1.60814,0.7646,0.50858,0.24199
1700767267781250,-9.610203,-1.402127,1.60614,0.854,0.48758,0.24399
1700767267789062,-9.617203,-1.403127,1.61014,0.4046,0.63058,0.22699
1700767267796875,-9.624203,-1.402127,1.61014,0.7046,0.61158,0.24399
1700767267804687,-9.608203,-1.404127,1.61914,0.6846,0.59558,0.22899
1700767267812500,-9.605203,-1.399127,1.61914,0.2454,0.61458,0.24299
1700767267820312,-9.594203,-1.399127,1.61714,0.2446,0.55258,0.22699
1700767267828125,-9.583203,-1.390127,1.61514,0.5746,0.50658,0.19499
1700767267835937,-9.584203,-1.371127,1.62214,0.13746,0.50558,0.21099
1700767267843750,-9.585203,-1.382127,1.65514,0.8946,0.61558,0.24299
1700767267851562,-9.580203,-1.376127,1.66014,0.10246,0.59658,0.22799
1700767267859375,-9.583203,-1.386127,1.64014,0.15646,0.47758,0.19399
1700767267867187,-9.587203,-1.383127,1.62614,0.554,0.53858,0.21099
1700767267875000,-9.583203,-1.390127,1.63114,0.7546,0.50858,0.19399
1700767267882812,-9.583203,-1.395127,1.64014,0.8746,0.69158,0.21199
1700767267890625,-9.588203,-1.377127,1.64214,0.5646,0.59958,0.19499
1700767267898437,-9.598203,-1.390127,1.63714,0.10746,0.60258,0.19399
1700767267906250,-9.591203,-1.394127,1.62614,0.1246,0.58858,0.14599
1700767267914062,-9.605203,-1.394127,1.63314,0.4246,0.56958,0.21099
1700767267921875,-9.610203,-1.399127,1.62814,0.7546,0.46158,0.19399
1700767267929687,-9.605203,-1.401127,1.62814,0.7646,0.54058,0.22599
1700767267937500,-9.607203,-1.399127,1.63114,0.13946,0.57058,0.21099
1700767267945312,-9.580203,-1.403127,1.64214,0.12446,0.47758,0.20999
1700767267953125,-9.581203,-1.397127,1.65114,0.8946,0.61558,0.19499
1700767267960937,-9.578203,-1.399127,1.64914,0.18846,0.55458,0.24299
1700767267968750,-9.585203,-1.404127,1.66714,0.15546,0.53758,0.27499
1700767267976562,-9.596203,-1.400127,1.66414,0.14246,0.60358,0.27399
1700767267984375,-9.588203,-1.406127,1.66214,0.16846,0.61358,0.24399
1700767267992187,-9.587203,-1.403127,1.66714,0.14046,0.60158,0.25799
1700767268000000,-9.588203,-1.402127,1.65814,0.10546,0.58358,0.27499
1700767268007812,-9.587203,-1.405127,1.64614,0.15746,0.68058,0.25799
1700767268015625,-9.579203,-1.400127,1.65314,0.10546,0.64558,0.25899
1700767268023437,-9.578203,-1.396127,1.65814,0.10846,0.68058,0.20999
1700767268031250,-9.578203,-1.396127,1.66214,0.7846,0.47858,0.25799
1700767268039062,-9.584203,-1.394127,1.65814,0.11046,0.60458,0.20899
1700767268046875,-9.576203,-1.394127,1.65314,0.14146,0.58758,0.20999
1700767268054687,-9.578203,-1.404127,1.66414,0.554,0.58558,0.25899
1700767268062500,-9.593203,-1.400127,1.65314,0.14346,0.63558,0.24099
1700767268070312,-9.590203,-1.400127,1.64914,0.12046,0.55158,0.21099
1700767268078125,-9.599203,-1.397127,1.65114,0.10646,0.47558,0.19499
1700767268085937,-9.605203,-1.399127,1.63714,0.10646,0.56958,0.21099
1700767268093750,-9.603203,-1.396127,1.65114,0.14146,0.57158,0.25799
1700767268101562,-9.596203,-1.400127,1.64214,0.15846,0.54158,0.19399
1700767268109375,-9.600203,-1.398127,1.64214,0.12746,0.48058,0.22499
1700767268117187,-9.591203,-1.396127,1.64614,0.9846,0.48258,0.22399
1700767268125000,-9.591203,-1.405127,1.64414,0.15846,0.58658,0.28999
1700767268132812,-9.585203,-1.401127,1.65814,0.12346,0.50658,0.25899
1700767268140625,-9.587203,-1.421127,1.65514,0.17346,0.60258,0.22599
1700767268148437,-9.578203,-1.416127,1.65314,0.14246,0.46258,0.24199
1700767268156250,-9.583203,-1.411127,1.65814,0.2354,0.53658,0.27499
1700767268164062,-9.589203,-1.412127,1.64914,0.7746,0.49258,0.30599
1700767268171875,-9.589203,-1.412127,1.63514,0.7746,0.57158,0.28999
1700767268179687,-9.594203,-1.401127,1.63514,0.12446,0.55558,0.25799
1700767268187500,-9.603203,-1.385127,1.65314,0.14246,0.55558,0.27399
1700767268195312,-9.597203,-1.370127,1.65314,0.7446,0.61658,0.24299
1700767268203125,-9.594203,-1.379127,1.63514,0.12246,0.52258,0.24299
1700767268210937,-9.596203,-1.381127,1.64214,0.6046,0.50858,0.22599
1700767268218750,-9.593203,-1.389127,1.64214,0.1446,0.52658,0.19299
1700767268226562,-9.603203,-1.376127,1.63114,0.17446,0.60358,0.20999
1700767268234375,-9.608203,-1.382127,1.61314,0.15246,0.55158,0.21099
1700767268242187,-9.614203,-1.385127,1.61514,0.18946,0.44658,0.19399
1700767268250000,-9.612203,-1.379127,1.62214,0.9146,0.52358,0.22699
1700767268257812,-9.601203,-1.399127,1.62414,0.5646,0.50458,0.24299
1700767268265625,-9.593203,-1.396127,1.62414,0.4546,0.60358,0.20999
1700767268273437,-9.602203,-1.400127,1.61714,0.1154,0.51758,0.22799
1700767268281250,-9.596203,-1.394127,1.62214,0.4346,0.53858,0.25899
1700767268289062,-9.601203,-1.399127,1.63514,0.2546,0.50558,0.25899
1700767268296875,-9.596203,-1.394127,1.65114,0.10846,0.53958,0.27399
1700767268304687,-9.601203,-1.397127,1.62414,0.16846,0.56758,0.21099
1700767268312500,-9.615203,-1.386127,1.61314,0.12146,0.49058,0.22699
1700767268320312,-9.619203,-1.385127,1.61014,0.18746,0.64758,0.24299
1700767268328125,-9.621203,-1.394127,1.61914,0.9146,0.60158,0.24199
1700767268335937,-9.619203,-1.392127,1.61914,0.7446,0.56958,0.21099
1700767268343750,-9.614203,-1.406127,1.61314,0.4054,0.69258,0.22699
1700767268351562,-9.590203,-1.401127,1.62214,0.2354,0.75558,0.29099
1700767268359375,-9.585203,-1.403127,1.62814,0.2154,0.61558,0.27499
1700767268367187,-9.569203,-1.401127,1.60814,0.2254,0.60058,0.22699
1700767268375000,-9.562203,-1.401127,1.61514,0.2054,0.61858,0.22599
1700767268382812,-9.562203,-1.406127,1.61514,0.2646,0.56958,0.22699
1700767268390625,-9.577203,-1.398127,1.61914,0.7946,0.49558,0.20899
1700767268398437,-9.585203,-1.384127,1.61714,0.10746,0.52358,0.19399
1700767268406250,-9.590203,-1.383127,1.61714,0.14046,0.46058,0.24199
1700767268414062,-9.590203,-1.392127,1.61314,0.12346,0.46158,0.20999
1700767268421875,-9.585203,-1.393127,1.62414,0.17046,0.45958,0.22699
1700767268429687,-9.590203,-1.399127,1.62814,0.5846,0.44458,0.24299
1700767268437500,-9.598203,-1.411127,1.63514,0.1854,0.49458,0.25799
1700767268445312,-9.600203,-1.401127,1.61714,0.354,0.49358,0.22599
1700767268453125,-9.607203,-1.396127,1.61314,0.4746,0.44858,0.24099
1700767268460937,-9.618203,-1.396127,1.61514,0.9246,0.57058,0.27399
1700767268468750,-9.618203,-1.398127,1.61314,0.14146,0.50858,0.25799
1700767268476562,-9.605203,-1.394127,1.61514,0.6146,0.46258,0.24199
1700767268484375,-9.581203,-1.375127,1.61314,0.4246,0.55458,0.21099
1700767268492187,-9.589203,-1.367127,1.61514,0.2946,0.47958,0.19299
1700767268500000,-9.588203,-1.366127,1.61914,0.10846,0.46258,0.19399
1700767268507812,-9.588203,-1.375127,1.62414,0.16846,0.56758,0.21099
1700767268515625,-9.592203,-1.376127,1.61914,0.12446,0.58758,0.19399
1700767268523437,-9.607203,-1.369127,1.62414,0.17346,0.63458,0.20999
1700767268531250,-9.620203,-1.364127,1.61314,0.8746,0.62958,0.22799
1700767268539062,-9.626203,-1.368127,1.61014,0.7246,0.64458,0.32399
1700767268546875,-9.623203,-1.371127,1.61314,0.15946,0.61858,0.33799
1700767268554687,-9.618203,-1.371127,1.61514,0.17746,0.58958,0.28899
1700767268562500,-9.602203,-1.387127,1.61714,0.14246,0.60358,0.28999
1700767268570312,-9.605203,-1.396127,1.61514,0.15646,0.63158,0.33899
1700767268578125,-9.583203,-1.397127,1.61014,0.17146,0.58358,0.32299
1700767268585937,-9.605203,-1.398127,1.61314,0.15746,0.58758,0.25799
1700767268593750,-9.589203,-1.396127,1.61514,0.14246,0.47858,0.25799
1700767268601562,-9.582203,-1.405127,1.62814,0.17246,0.58658,0.24199
1700767268609375,-9.582203,-1.412127,1.64614,0.15546,0.63358,0.20999
1700767268617187,-9.592203,-1.415127,1.64014,0.17046,0.63158,0.24299
1700767268625000,-9.600203,-1.416127,1.63114,0.15646,0.53858,0.25899
1700767268632812,-9.596203,-1.414127,1.62814,0.12346,0.63358,0.22599
1700767268640625,-9.598203,-1.405127,1.62614,0.9346,0.60358,0.20999
1700767268648437,-9.592203,-1.396127,1.62414,0.14046,0.60258,0.20999
1700767268656250,-9.592203,-1.386127,1.60814,0.15646,0.49158,0.29099
1700767268664062,-9.594203,-1.374127,1.61514,0.15646,0.64958,0.20999
1700767268671875,-9.587203,-1.377127,1.61914,0.9146,0.63358,0.19399
1700767268679687,-9.583203,-1.380127,1.62614,0.10546,0.58358,0.24299
1700767268687500,-9.584203,-1.387127,1.61314,0.10446,0.47258,0.24399
1700767268695312,-9.593203,-1.384127,1.61514,0.8746,0.56558,0.25999
1700767268703125,-9.608203,-1.395127,1.60814,0.13746,0.58358,0.24299
1700767268710937,-9.602203,-1.398127,1.61914,0.17446,0.51058,0.19299
1700767268718750,-9.619203,-1.401127,1.61914,0.10546,0.59858,0.27499
1700767268726562,-9.612203,-1.407127,1.61714,0.10746,0.61658,0.25899
1700767268734375,-9.607203,-1.414127,1.63114,0.4246,0.55258,0.27499
1700767268742187,-9.597203,-1.408127,1.62814,0.10446,0.56658,0.25999
1700767268750000,-9.587203,-1.405127,1.61514,0.4346,0.66358,0.27399
1700767268757812,-9.587203,-1.410127,1.61714,0.12146,0.67758,0.24299
1700767268765625,-9.587203,-1.397127,1.61714,0.5946,0.66458,0.22599
1700767268773437,-9.585203,-1.394127,1.62814,0.9246,0.58758,0.22599
1700767268781250,-9.587203,-1.395127,1.61514,0.9046,0.49158,0.21099
1700767268789062,-9.591203,-1.394127,1.61514,0.14046,0.58758,0.19399
1700767268796875,-9.596203,-1.401127,1.61714,0.746,0.64558,0.21099
1700767268804687,-9.607203,-1.405127,1.61914,0.4446,0.55658,0.19399
1700767268812500,-9.607203,-1.396127,1.62814,0.10846,0.52458,0.20999
1700767268820312,-9.607203,-1.398127,1.62614,0.14046,0.63258,0.25799
1700767268828125,-9.591203,-1.396127,1.62814,0.12646,0.57258,0.22599
1700767268835937,-9.587203,-1.401127,1.62614,0.12446,0.61858,0.22599
1700767268843750,-9.589203,-1.399127,1.62814,0.9146,0.60158,0.24199
1700767268851562,-9.585203,-1.381127,1.62414,0.14146,0.61858,0.24199
1700767268859375,-9.592203,-1.388127,1.62214,0.12246,0.60158,0.19499
1700767268867187,-9.594203,-1.385127,1.60614,0.1146,0.68058,0.20999
1700767268875000,-9.601203,-1.390127,1.61014,0.7446,0.67858,0.22699
1700767268882812,-9.596203,-1.394127,1.61314,0.2154,0.56958,0.27499
1700767268890625,-9.605203,-1.397127,1.61914,0.2546,0.63158,0.22699
1700767268898437,-9.598203,-1.396127,1.61514,0.9546,0.46358,0.27399
1700767268906250,-9.603203,-1.412127,1.61014,0.5846,0.55458,0.22699
1700767268914062,-9.595203,-1.421127,1.61514,0.1346,0.55558,0.28999
1700767268921875,-9.603203,-1.421127,1.62614,0.1046,0.49158,0.24299
1700767268929687,-9.606203,-1.411127,1.65314,0.154,0.63658,0.25699
1700767268937500,-9.600203,-1.414127,1.66214,0.1854,0.61858,0.27399
1700767268945312,-9.609203,-1.407127,1.64014,0.9446,0.68258,0.28999
1700767268953125,-9.616203,-1.398127,1.62214,0.2746,0.64958,0.17799
1700767268960937,-9.607203,-1.398127,1.61014,0.4346,0.60258,0.19399
1700767268968750,-9.616203,-1.396127,1.61714,0.17246,0.61758,0.25799
1700767268976562,-9.620203,-1.398127,1.62214,0.3654,0.58758,0.19399
1700767268984375,-9.616203,-1.396127,1.61314,0.7446,0.66358,0.22699
1700767268992187,-9.602203,-1.398127,1.61714,0.6046,0.69758,0.20999
1700767269000000,-9.585203,-1.392127,1.61514,0.10746,0.58558,0.25899
1700767269007812,-9.578203,-1.392127,1.60614,0.7546,0.53858,0.29099
1700767269015625,-9.564203,-1.401127,1.60614,0.2846,0.57158,0.25799
1700767269023437,-9.558203,-1.388127,1.61514,0.3554,0.57258,0.24199
1700767269031250,-9.567203,-1.386127,1.62814,0.1246,0.55658,0.20999
1700767269039062,-9.578203,-1.392127,1.61714,0.4546,0.50958,0.24199
1700767269046875,-9.589203,-1.392127,1.61514,0.7646,0.65058,0.19399
1700767269054687,-9.587203,-1.401127,1.61714,0.254,0.61858,0.25799
1700767269062500,-9.596203,-1.401127,1.60314,0.2546,0.58358,0.27499
1700767269070312,-9.587203,-1.401127,1.61514,0.554,0.60058,0.24299
1700767269078125,-9.596203,-1.401127,1.61314,0.7246,0.58358,0.19499
1700767269085937,-9.603203,-1.403127,1.62214,0.2546,0.70958,0.21099
1700767269093750,-9.597203,-1.404127,1.62214,0.2246,0.59558,0.27599
1700767269101562,-9.601203,-1.401127,1.63114,0.5454,0.64758,0.22699
1700767269109375,-9.605203,-1.401127,1.61314,0.4246,0.60058,0.27499
1700767269117187,-9.613203,-1.404127,1.63514,0.646,0.59658,0.27599
1700767269125000,-9.601203,-1.393127,1.64014,0.754,0.59858,0.29099
1700767269132812,-9.588203,-1.381127,1.64014,0.2254,0.55258,0.25899
1700767269140625,-9.595203,-1.373127,1.63314,0.7146,0.55158,0.21099
1700767269148437,-9.599203,-1.368127,1.62414,0.4046,0.60058,0.16299
1700767269156250,-9.603203,-1.383127,1.62214,0.5554,0.59958,0.22699
1700767269164062,-9.607203,-1.391127,1.62414,0.1346,0.66758,0.19299
1700767269171875,-9.587203,-1.399127,1.63514,0.3854,0.64758,0.21099
1700767269179687,-9.600203,-1.394127,1.63114,0.5054,0.62058,0.20899
1700767269187500,-9.589203,-1.403127,1.63314,0.2546,0.69458,0.19499
1700767269195312,-9.601203,-1.393127,1.62814,0.746,0.64558,0.22699
1700767269203125,-9.598203,-1.394127,1.64214,0.6854,0.60258,0.24199
1700767269210937,-9.603203,-1.397127,1.64014,0.2354,0.56758,0.24299
1700767269218750,-9.603203,-1.401127,1.64014,0.5746,0.56858,0.21099
1700767269226562,-9.592203,-1.408127,1.64914,0.5754,0.61358,0.25999
1700767269234375,-9.588203,-1.397127,1.65514,0.2454,0.59958,0.21099
1700767269242187,-9.583203,-1.399127,1.66014,0.5846,0.61658,0.19499
1700767269250000,-9.587203,-1.406127,1.65814,0.846,0.58358,0.21099
1700767269257812,-9.589203,-1.403127,1.65814,0.8754,0.60058,0.19499
1700767269265625,-9.594203,-1.404127,1.65514,0.7154,0.59958,0.21099
1700767269273437,-9.605203,-1.394127,1.66014,0.10354,0.64658,0.25899
1700767269281250,-9.596203,-1.403127,1.65314,0.6854,0.66458,0.27399
1700767269289062,-9.605203,-1.403127,1.64914,0.5154,0.68158,0.24199
1700767269296875,-9.596203,-1.398127,1.66414,0.8354,0.64958,0.25799
1700767269304687,-9.595203,-1.368127,1.67114,0.10354,0.64558,0.29099
1700767269312500,-9.598203,-1.365127,1.66714,0.6754,0.68158,0.25799
1700767269320312,-9.594203,-1.372127,1.66914,0.254,0.51058,0.24199
1700767269328125,-9.592203,-1.374127,1.67114,0.5354,0.60158,0.20999
1700767269335937,-9.601203,-1.368127,1.66214,0.7254,0.61558,0.19499
1700767269343750,-9.592203,-1.390127,1.66214,0.5654,0.55258,0.21099
1700767269351562,-9.591203,-1.401127,1.68014,0.8554,0.61858,0.19399
1700767269359375,-9.589203,-1.401127,1.68714,0.10154,0.61758,0.24199
1700767269367187,-9.598203,-1.401127,1.68314,0.8354,0.58658,0.30599
1700767269375000,-9.598203,-1.396127,1.66914,0.6754,0.55658,0.25799
1700767269382812,-9.587203,-1.403127,1.65314,0.5254,0.55458,0.27399
1700767269390625,-9.587203,-1.403127,1.68014,0.454,0.61858,0.19399
1700767269398437,-9.564203,-1.396127,1.69214,0.9346,0.65058,0.20999
1700767269406250,-9.551203,-1.405127,1.69214,0.354,0.69858,0.20899
1700767269414062,-9.562203,-1.404127,1.69614,0.8554,0.63258,0.25799
1700767269421875,-9.558203,-1.397127,1.67814,0.9954,0.49458,0.20999
1700767269429687,-9.579203,-1.395127,1.66214,0.7154,0.56858,0.22699
1700767269437500,-9.578203,-1.407127,1.67614,0.454,0.61958,0.16199
1700767269445312,-9.575203,-1.399127,1.69814,0.6854,0.69658,0.20999
1700767269453125,-9.576203,-1.391127,1.69414,0.7154,0.59958,0.21099
1700767269460937,-9.576203,-1.393127,1.67614,0.7154,0.60158,0.16299
1700767269468750,-9.570203,-1.375127,1.66214,0.2454,0.64658,0.17899
1700767269476562,-9.589203,-1.376127,1.67414,0.8354,0.65058,0.24099
1700767269484375,-9.598203,-1.369127,1.67614,0.1854,0.66658,0.25699
1700767269492187,-9.601203,-1.372127,1.67414,0.2354,0.61558,0.24299
1700767269500000,-9.605203,-1.369127,1.67814,0.1954,0.63458,0.22599
1700767269507812,-9.612203,-1.390127,1.64914,0.454,0.57058,0.25799
1700767269515625,-9.610203,-1.396127,1.64614,0.946,0.63258,0.21099
1700767269523437,-9.589203,-1.397127,1.65514,0.946,0.56958,0.19499
1700767269531250,-9.581203,-1.411127,1.67414,0.12046,0.67758,0.21099
1700767269539062,-9.580203,-1.406127,1.67614,0.5846,0.61658,0.19499
1700767269546875,-9.581203,-1.402127,1.67814,0.5754,0.61358,0.21199
1700767269554687,-9.574203,-1.397127,1.67614,0.2546,0.59958,0.22699
1700767269562500,-9.585203,-1.399127,1.68514,0.4046,0.61458,0.22699
1700767269570312,-9.585203,-1.395127,1.70114,0.4146,0.58458,0.24299
1700767269578125,-9.599203,-1.388127,1.67614,0.5746,0.50658,0.17899
1700767269585937,-9.610203,-1.383127,1.66414,0.946,0.52158,0.24299
1700767269593750,-9.605203,-1.383127,1.65114,0.1246,0.54058,0.24199
1700767269601562,-9.601203,-1.383127,1.64014,0.554,0.57058,0.19399
1700767269609375,-9.590203,-1.379127,1.65514,0.454,0.61758,0.25799
1700767269617187,-9.585203,-1.370127,1.65514,0.5454,0.56958,0.21099
1700767269625000,-9.558203,-1.384127,1.63714,0.10254,0.60058,0.24299
1700767269632812,-9.567203,-1.382127,1.61914,0.2546,0.55358,0.22699
1700767269640625,-9.563203,-1.388127,1.62214,0.10846,0.55458,0.25799
1700767269648437,-9.576203,-1.399127,1.63314,0.7346,0.55358,0.21099
1700767269656250,-9.582203,-1.401127,1.64914,0.4446,0.55558,0.25799
1700767269664062,-9.598203,-1.401127,1.65814,0.3754,0.52258,0.24299
1700767269671875,-9.606203,-1.402127,1.65114,0.5654,0.48858,0.22699
1700767269679687,-9.596203,-1.403127,1.66014,0.3654,0.55358,0.32299
1700767269687500,-9.590203,-1.401127,1.65314,0.9046,0.53758,0.25899
1700767269695312,-9.596203,-1.406127,1.65114,0.2646,0.52158,0.25899
1700767269703125,-9.590203,-1.395127,1.66414,0.10646,0.52258,0.22699
1700767269710937,-9.579203,-1.398127,1.65814,0.3946,0.53658,0.19499
1700767269718750,-9.570203,-1.400127,1.66214,0.5646,0.58358,0.21099
1700767269726562,-9.576203,-1.397127,1.66214,0.7446,0.58558,0.19499
1700767269734375,-9.578203,-1.392127,1.66414,0.14046,0.47658,0.22599
1700767269742187,-9.574203,-1.402127,1.66714,0.17046,0.44358,0.24299
1700767269750000,-9.567203,-1.390127,1.66214,0.15746,0.44658,0.20999
1700767269757812,-9.567203,-1.388127,1.65514,0.15546,0.46158,0.19399
1700767269765625,-9.562203,-1.385127,1.66414,0.17546,0.44858,0.24099
1700767269773437,-9.571203,-1.386127,1.67614,0.9346,0.49358,0.24199
1700767269781250,-9.567203,-1.394127,1.68514,0.10846,0.55658,0.19399
1700767269789062,-9.577203,-1.384127,1.67314,0.17046,0.42858,0.21099
1700767269796875,-9.585203,-1.397127,1.65114,0.12146,0.49058,0.19499
1700767269804687,-9.584203,-1.398127,1.66014,0.16646,0.48658,0.21199
1700767269812500,-9.592203,-1.386127,1.66214,0.15446,0.53858,0.19499
1700767269820312,-9.596203,-1.381127,1.66914,0.17346,0.52458,0.22599
1700767269828125,-9.608203,-1.388127,1.66014,0.17046,0.45758,0.27499
1700767269835937,-9.588203,-1.386127,1.64914,0.15446,0.56858,0.24299
1700767269843750,-9.587203,-1.401127,1.65114,0.14146,0.46158,0.22599
1700767269851562,-9.593203,-1.414127,1.66714,0.17446,0.49358,0.24199
1700767269859375,-9.596203,-1.416127,1.66714,0.15846,0.47858,0.22599
1700767269867187,-9.600203,-1.421127,1.66714,0.17446,0.49358,0.28999
1700767269875000,-9.598203,-1.412127,1.67114,0.15846,0.47658,0.33799
1700767269882812,-9.589203,-1.405127,1.66914,0.17546,0.47958,0.27399
1700767269890625,-9.589203,-1.398127,1.65514,0.16046,0.44958,0.24099
1700767269898437,-9.589203,-1.396127,1.65114,0.17446,0.46258,0.24199
1700767269906250,-9.580203,-1.398127,1.65114,0.9546,0.44858,0.24099
1700767269914062,-9.580203,-1.392127,1.64614,0.14246,0.51058,0.24199
1700767269921875,-9.582203,-1.387127,1.66014,0.13046,0.51358,0.25599
1700767269929687,-9.584203,-1.400127,1.66214,0.6346,0.51158,0.24099
1700767269937500,-9.580203,-1.401127,1.66414,0.14046,0.49358,0.19399
1700767269945312,-9.596203,-1.396127,1.65314,0.17446,0.49358,0.27399
1700767269953125,-9.607203,-1.398127,1.64914,0.17546,0.44658,0.27399
1700767269960937,-9.605203,-1.397127,1.64614,0.15546,0.46058,0.22699
1700767269968750,-9.605203,-1.399127,1.64414,0.17246,0.44458,0.25899
1700767269976562,-9.600203,-1.396127,1.62814,0.16146,0.46458,0.32099
1700767269984375,-9.596203,-1.399127,1.62814,0.14146,0.44658,0.22599
1700767269992187,-9.591203,-1.396127,1.62414,0.17546,0.46358,0.22499
1700767270000000,-9.585203,-1.399127,1.61714,0.18846,0.53858,0.22699
1700767270007812,-9.585203,-1.396127,1.62214,0.17446,0.60258,0.27399
1700767270015625,-9.589203,-1.403127,1.61514,0.9146,0.47658,0.19399
1700767270023437,-9.598203,-1.410127,1.61314,0.12246,0.56858,0.24299
1700767270031250,-9.604203,-1.400127,1.61314,0.1446,0.52658,0.24099
1700767270039062,-9.613203,-1.413127,1.61314,0.16046,0.49558,0.25699
1700767270046875,-9.606203,-1.411127,1.61314,0.11146,0.48058,0.24099
1700767270054687,-9.609203,-1.412127,1.61514,0.1954,0.55558,0.28999
1700767270062500,-9.604203,-1.409127,1.61314,0.0,0.54258,0.28899
1700767270070312,-9.602203,-1.401127,1.61514,0.6146,0.50958,0.25799
1700767270078125,-9.596203,-1.383127,1.61314,0.19246,0.44958,0.20899
1700767270085937,-9.600203,-1.378127,1.61914,0.4746,0.46558,0.20899
1700767270093750,-9.596203,-1.367127,1.62414,0.7946,0.41758,0.24099
1700767270101562,-9.592203,-1.397127,1.62614,0.2646,0.41358,0.22699
1700767270109375,-9.602203,-1.395127,1.62214,0.9646,0.46558,0.24099
1700767270117187,-9.612203,-1.392127,1.61714,0.13946,0.44458,0.24299
1700767270125000,-9.603203,-1.390127,1.62614,0.14046,0.46158,0.20999
1700767270132812,-9.609203,-1.396127,1.62414,0.7946,0.51158,0.22499
1700767270140625,-9.606203,-1.400127,1.63514,0.9646,0.46558,0.20899
1700767270148437,-9.600203,-1.394127,1.63114,0.9646,0.44858,0.27299
1700767270156250,-9.596203,-1.408127,1.62414,0.10746,0.50758,0.25899
1700767270164062,-9.585203,-1.396127,1.62214,0.10946,0.47858,0.24199
1700767270171875,-9.586203,-1.400127,1.62214,0.11246,0.51158,0.27299
1700767270179687,-9.584203,-1.396127,1.62614,0.7946,0.51058,0.28899
1700767270187500,-9.602203,-1.402127,1.63314,0.6446,0.46558,0.22499
1700767270195312,-9.618203,-1.395127,1.62814,0.17646,0.44958,0.20899
1700767270203125,-9.633203,-1.413127,1.63514,0.0,0.46558,0.19299
1700767270210937,-9.640203,-1.411127,1.63314,0.9346,0.44758,0.19399
1700767270218750,-9.645203,-1.422127,1.61914,0.12446,0.53858,0.29099
1700767270226562,-9.624203,-1.419127,1.61714,0.9546,0.62058,0.25699
1700767270234375,-9.618203,-1.415127,1.62414,0.7846,0.60458,0.22499
1700767270242187,-9.595203,-1.411127,1.62614,0.14346,0.62058,0.24099
1700767270250000,-9.586203,-1.400127,1.61714,0.11046,0.58958,0.22499
1700767270257812,-9.589203,-1.405127,1.62814,0.4546,0.52558,0.24199
1700767270265625,-9.575203,-1.392127,1.62614,0.11146,0.52658,0.24099
1700767270273437,-9.584203,-1.383127,1.62814,0.1754,0.51158,0.20899
1700767270281250,-9.589203,-1.398127,1.63714,0.5054,0.46358,0.20899
1700767270289062,-9.591203,-1.396127,1.63314,0.6546,0.51358,0.17599
1700767270296875,-9.603203,-1.396127,1.62614,0.354,0.50958,0.19399
1700767270304687,-9.607203,-1.392127,1.62814,0.2746,0.60258,0.20999
1700767270312500,-9.600203,-1.394127,1.63114,0.254,0.62058,0.19299
1700767270320312,-9.595203,-1.400127,1.63314,0.3454,0.65258,0.20899
1700767270328125,-9.604203,-1.398127,1.62614,0.6146,0.69858,0.19299
1700767270335937,-9.604203,-1.404127,1.61514,0.154,0.60558,0.20899
1700767270343750,-9.618203,-1.407127,1.61714,0.2846,0.61958,0.19399
1700767270351562,-9.620203,-1.404127,1.62214,0.2946,0.58958,0.20899
1700767270359375,-9.618203,-1.400127,1.61314,0.3046,0.60558,0.20899
1700767270367187,-9.618203,-1.393127,1.61014,0.4946,0.63758,0.25599
1700767270375000,-9.606203,-1.372127,1.61914,0.5846,0.60158,0.21099
1700767270382812,-9.589203,-1.380127,1.62414,0.14246,0.63658,0.20899
1700767270390625,-9.576203,-1.388127,1.62814,0.2746,0.69658,0.19399
1700767270398437,-9.556203,-1.384127,1.62614,0.17246,0.68058,0.20999
1700767270406250,-9.553203,-1.387127,1.63514,0.1446,0.65258,0.22499
1700767270414062,-9.575203,-1.389127,1.62614,0.8346,0.71658,0.27199
1700767270421875,-9.586203,-1.393127,1.63314,0.1846,0.71658,0.27199
1700767270429687,-9.598203,-1.399127,1.64614,0.2746,0.63258,0.27399
1700767270437500,-9.604203,-1.407127,1.64614,0.3146,0.65158,0.32099
1700767270445312,-9.609203,-1.398127,1.63714,0.9346,0.69658,0.25799
1700767270453125,-9.603203,-1.390127,1.63114,0.7446,0.70958,0.29099
1700767270460937,-9.602203,-1.405127,1.63714,0.12646,0.65158,0.25699
1700767270468750,-9.600203,-1.402127,1.62214,0.11146,0.63558,0.27299
1700767270476562,-9.595203,-1.421127,1.62214,0.10846,0.64958,0.24199
1700767270484375,-9.593203,-1.407127,1.62814,0.11454,0.66758,0.25699
1700767270492187,-9.582203,-1.418127,1.63514,0.9346,0.65058,0.27399
1700767270500000,-9.582203,-1.425127,1.65114,0.7746,0.63458,0.22599
1700767270507812,-9.582203,-1.414127,1.64214,0.12746,0.57358,0.28899
1700767270515625,-9.573203,-1.405127,1.64614,0.254,0.62058,0.22499
1700767270523437,-9.585203,-1.392127,1.65514,0.2746,0.64858,0.25799
1700767270531250,-9.587203,-1.372127,1.65114,0.5254,0.64958,0.24199
1700767270539062,-9.582203,-1.363127,1.64614,0.7846,0.66758,0.20899
1700767270546875,-9.583203,-1.361127,1.65514,0.12546,0.63558,0.20999
1700767270554687,-9.585203,-1.365127,1.65314,0.9646,0.60558,0.30499
1700767270562500,-9.598203,-1.376127,1.65114,0.1446,0.61958,0.25699
1700767270570312,-9.582203,-1.381127,1.66014,0.6346,0.55758,0.32099
1700767270578125,-9.566203,-1.374127,1.65314,0.17746,0.55858,0.28899
1700767270585937,-9.576203,-1.383127,1.64014,0.15846,0.55758,0.22599
1700767270593750,-9.575203,-1.387127,1.62814,0.17646,0.57358,0.30499
1700767270601562,-9.571203,-1.390127,1.65114,0.14346,0.60358,0.30599
1700767270609375,-9.573203,-1.405127,1.66214,0.4646,0.51158,0.24099
1700767270617187,-9.587203,-1.401127,1.66014,0.1446,0.47858,0.30599
1700767270625000,-9.586203,-1.400127,1.65114,0.2454,0.50058,0.28599
1700767270632812,-9.604203,-1.405127,1.64414,0.1654,0.49558,0.28899
1700767270640625,-9.597203,-1.407127,1.62814,0.3146,0.49658,0.20899
1700767270648437,-9.605203,-1.408127,1.64914,0.5746,0.56858,0.22699
1700767270656250,-9.600203,-1.403127,1.64414,0.454,0.55658,0.20999
1700767270664062,-9.602203,-1.391127,1.64414,0.9546,0.49558,0.20899
1700767270671875,-9.586203,-1.371127,1.63514,0.5146,0.45258,0.22399
1700767270679687,-9.600203,-1.384127,1.64214,0.2046,0.51658,0.19099
1700767270687500,-9.589203,-1.378127,1.66014,0.8146,0.52958,0.20799
1700767270695312,-9.582203,-1.365127,1.66914,0.4846,0.60658,0.20799
1700767270703125,-9.588203,-1.379127,1.66214,0.9146,0.53858,0.25899
1700767270710937,-9.586203,-1.384127,1.67614,0.8946,0.55258,0.24299
1700767270718750,-9.588203,-1.397127,1.67414,0.4046,0.59858,0.24299
1700767270726562,-9.602203,-1.391127,1.67114,0.6146,0.61958,0.22599
1700767270734375,-9.603203,-1.399127,1.68314,0.9146,0.60258,0.17799
1700767270742187,-9.582203,-1.395127,1.66714,0.8446,0.62558,0.15899
1700767270750000,-9.585203,-1.399127,1.65314,0.12246,0.60158,0.19499
1700767270757812,-9.580203,-1.396127,1.66414,0.12446,0.58758,0.19399
1700767270765625,-9.580203,-1.412127,1.66214,0.4346,0.55558,0.20999
1700767270773437,-9.585203,-1.410127,1.67114,0.2354,0.58458,0.16299
1700767270781250,-9.587203,-1.399127,1.66214,0.3654,0.61858,0.22599
1700767270789062,-9.598203,-1.401127,1.67414,0.1146,0.66358,0.27399
1700767270796875,-9.610203,-1.405127,1.65814,0.3854,0.61658,0.24299
1700767270804687,-9.623203,-1.400127,1.64414,0.2646,0.69558,0.22599
1700767270812500,-9.623203,-1.391127,1.63714,0.4446,0.60258,0.25799
1700767270820312,-9.627203,-1.384127,1.63514,0.1854,0.65158,0.24099
1700767270828125,-9.621203,-1.385127,1.63114,0.9046,0.70958,0.25899
1700767270835937,-9.614203,-1.398127,1.64614,0.7446,0.69558,0.20999
1700767270843750,-9.591203,-1.401127,1.65114,0.7746,0.69658,0.25799
1700767270851562,-9.578203,-1.401127,1.65114,0.10846,0.71258,0.20999
1700767270859375,-9.555203,-1.412127,1.65114,0.12446,0.69658,0.20999
1700767270867187,-9.548203,-1.407127,1.63514,0.7846,0.62158,0.19299
1700767270875000,-9.555203,-1.407127,1.64914,0.6146,0.68258,0.20899
1700767270882812,-9.568203,-1.414127,1.66014,0.3246,0.56058,0.19199
1700767270890625,-9.577203,-1.405127,1.65814,0.8046,0.49658,0.24099
1700767270898437,-9.586203,-1.409127,1.64914,0.1346,0.58758,0.27399
1700767270906250,-9.584203,-1.409127,1.65114,0.2854,0.65558,0.20699
1700767270914062,-9.584203,-1.412127,1.66014,0.5946,0.68058,0.22599
1700767270921875,-9.587203,-1.408127,1.65814,0.1046,0.60158,0.19399
1700767270929687,-9.582203,-1.396127,1.64914,0.154,0.62158,0.20899
1700767270937500,-9.585203,-1.399127,1.63114,0.7346,0.67858,0.19499
1700767270945312,-9.600203,-1.392127,1.62614,0.6046,0.69758,0.19399
1700767270953125,-9.600203,-1.382127,1.62614,0.4546,0.62058,0.20899
1700767270960937,-9.600203,-1.393127,1.64014,0.7846,0.65258,0.19299
1700767270968750,-9.591203,-1.403127,1.65814,0.2054,0.60258,0.24199
1700767270976562,-9.591203,-1.400127,1.65814,0.4646,0.54258,0.24099
1700767270984375,-9.588203,-1.402127,1.65114,0.6554,0.52758,0.22499
1700767270992187,-9.573203,-1.409127,1.66914,0.3354,0.62058,0.24099
1700767271000000,-9.557203,-1.403127,1.67114,0.3046,0.63658,0.24099
1700767271007812,-9.562203,-1.403127,1.67614,0.7746,0.61958,0.22599
1700767271015625,-9.554203,-1.402127,1.68514,0.10246,0.70358,0.25499
1700767271023437,-9.549203,-1.395127,1.69414,0.5846,0.49158,0.21099
1700767271031250,-9.555203,-1.397127,1.68314,0.11046,0.49558,0.19299
1700767271039062,-9.572203,-1.398127,1.65814,0.11946,0.48658,0.18999
1700767271046875,-9.582203,-1.394127,1.65314,0.10846,0.55658,0.20999
1700767271054687,-9.587203,-1.399127,1.67414,0.9246,0.55458,0.25799
1700767271062500,-9.596203,-1.394127,1.68714,0.12646,0.52558,0.22599
1700767271070312,-9.593203,-1.389127,1.67814,0.9546,0.49558,0.24099
1700767271078125,-9.598203,-1.374127,1.66214,0.254,0.49458,0.20999
1700767271085937,-9.584203,-1.380127,1.65114,0.11046,0.55858,0.20899
1700767271093750,-9.587203,-1.390127,1.65514,0.17546,0.44858,0.22499
1700767271101562,-9.598203,-1.400127,1.67614,0.15846,0.54158,0.19399
1700767271109375,-9.603203,-1.398127,1.67414,0.15746,0.49458,0.20999
1700767271117187,-9.603203,-1.401127,1.68314,0.17346,0.57158,0.22599
1700767271125000,-9.605203,-1.410127,1.69214,0.5946,0.57058,0.19399
1700767271132812,-9.600203,-1.410127,1.66914,0.9146,0.55458,0.25899
1700767271140625,-9.612203,-1.414127,1.66414,0.10646,0.56958,0.21099
1700767271148437,-9.598203,-1.398127,1.66714,0.9346,0.58758,0.25799
1700767271156250,-9.593203,-1.411127,1.67814,0.7846,0.61958,0.25699
1700767271164062,-9.589203,-1.405127,1.66914,0.1146,0.61758,0.25799
1700767271171875,-9.595203,-1.407127,1.67614,0.16046,0.58958,0.25699
1700767271179687,-9.587203,-1.403127,1.66714,0.254,0.52458,0.30599
1700767271187500,-9.596203,-1.401127,1.66714,0.4446,0.52458,0.24199
1700767271195312,-9.591203,-1.419127,1.66914,0.7746,0.46158,0.27399
1700767271203125,-9.600203,-1.407127,1.66914,0.15746,0.60458,0.19399
1700767271210937,-9.592203,-1.401127,1.67614,0.10746,0.58558,0.22699
1700767271218750,-9.582203,-1.409127,1.66714,0.3746,0.59458,0.27699
1700767271226562,-9.585203,-1.406127,1.65814,0.4146,0.55358,0.24299
1700767271234375,-9.571203,-1.401127,1.65114,0.3754,0.58658,0.22599
1700767271242187,-9.574203,-1.403127,1.65314,0.2746,0.57058,0.19399
1700767271250000,-9.571203,-1.403127,1.65314,0.6346,0.57458,0.24099
1700767271257812,-9.573203,-1.396127,1.65314,0.254,0.57258,0.27399
1700767271265625,-9.580203,-1.416127,1.64414,0.1854,0.52558,0.27399
1700767271273437,-9.587203,-1.401127,1.62814,0.1146,0.60258,0.22599
1700767271281250,-9.600203,-1.396127,1.62814,0.2746,0.53958,0.20999
1700767271289062,-9.602203,-1.396127,1.63714,0.6346,0.55758,0.30499
1700767271296875,-9.598203,-1.407127,1.64914,0.11146,0.49558,0.24099
1700767271304687,-9.585203,-1.397127,1.66014,0.10846,0.44558,0.24199
1700767271312500,-9.582203,-1.410127,1.64914,0.6046,0.50958,0.19399
1700767271320312,-9.582203,-1.407127,1.66014,0.3454,0.49458,0.20999
1700767271328125,-9.580203,-1.394127,1.64914,0.354,0.52458,0.20999
1700767271335937,-9.576203,-1.388127,1.65114,0.5354,0.42958,0.24199
1700767271343750,-9.575203,-1.399127,1.67114,0.4546,0.55658,0.22599
1700767271351562,-9.587203,-1.403127,1.65514,0.4546,0.52458,0.25799
1700767271359375,-9.595203,-1.404127,1.65114,0.3154,0.52658,0.33699
1700767271367187,-9.602203,-1.412127,1.66414,0.6146,0.57158,0.28999
1700767271375000,-9.600203,-1.414127,1.66214,0.2846,0.57158,0.25799
1700767271382812,-9.596203,-1.419127,1.65814,0.6854,0.56958,0.32199
1700767271390625,-9.599203,-1.409127,1.65114,0.5146,0.51458,0.22399
1700767271398437,-9.595203,-1.415127,1.63314,0.4454,0.46758,0.27199
1700767271406250,-9.586203,-1.417127,1.62114,0.5954,0.48458,0.23899
1700767271414062,-9.584203,-1.411127,1.62814,0.0,0.60658,0.23999
1700767271421875,-9.582203,-1.402127,1.65814,0.5046,0.57558,0.30399
1700767271429687,-9.591203,-1.400127,1.64414,0.11246,0.52658,0.28899
1700767271437500,-9.604203,-1.406127,1.64414,0.14546,0.59158,0.20799
1700767271445312,-9.623203,-1.396127,1.62814,0.6146,0.50958,0.24199
1700767271453125,-9.620203,-1.397127,1.62814,0.7946,0.51258,0.19299
1700767271460937,-9.635203,-1.406127,1.62614,0.3346,0.48258,0.22399
1700767271468750,-9.631203,-1.404127,1.62814,0.4846,0.51158,0.28899
1700767271476562,-9.609203,-1.412127,1.63314,0.6146,0.66458,0.32199
1700767271484375,-9.593203,-1.402127,1.63314,0.11146,0.66658,0.30499
1700767271492187,-9.578203,-1.408127,1.63114,0.15746,0.60158,0.30599
1700767271500000,-9.567203,-1.421127,1.63114,0.3654,0.58558,0.25799
1700767271507812,-9.557203,-1.423127,1.63114,0.3254,0.57358,0.28899
1700767271515625,-9.569203,-1.420127,1.65314,0.754,0.45858,0.22699
1700767271523437,-9.562203,-1.421127,1.64614,0.1046,0.44558,0.19399
1700767271531250,-9.580203,-1.403127,1.64014,0.3654,0.52358,0.27399
1700767271539062,-9.591203,-1.403127,1.65114,0.11146,0.49458,0.28999
1700767271546875,-9.588203,-1.400127,1.65814,0.6446,0.48058,0.24099
1700767271554687,-9.577203,-1.404127,1.65314,0.1154,0.50058,0.22299
1700767271562500,-9.584203,-1.394127,1.64214,0.14446,0.49558,0.25699
1700767271570312,-9.587203,-1.403127,1.63514,0.3454,0.47858,0.25799
1700767271578125,-9.578203,-1.401127,1.62614,0.3046,0.51058,0.25799
1700767271585937,-9.587203,-1.403127,1.62814,0.7746,0.47858,0.19399
1700767271593750,-9.595203,-1.407127,1.62814,0.11046,0.51058,0.19299
1700767271601562,-9.612203,-1.412127,1.63714,0.9146,0.47658,0.20999
1700767271609375,-9.619203,-1.422127,1.64014,0.3546,0.46758,0.22399
1700767271617187,-9.613203,-1.433127,1.63114,0.4746,0.52658,0.28899
1700767271625000,-9.611203,-1.422127,1.64414,0.1654,0.48058,0.27299
1700767271632812,-9.602203,-1.422127,1.64214,0.1854,0.44858,0.20899
1700767271640625,-9.593203,-1.418127,1.65814,0.11046,0.62058,0.24099
1700767271648437,-9.582203,-1.403127,1.66014,0.6146,0.55658,0.22599
1700767271656250,-9.595203,-1.407127,1.64414,0.3454,0.60458,0.22499
1700767271664062,-9.584203,-1.404127,1.63714,0.3254,0.63758,0.19199
1700767271671875,-9.584203,-1.398127,1.64914,0.154,0.58958,0.24099
1700767271679687,-9.595203,-1.393127,1.65514,0.16446,0.57658,0.23999
1700767271687500,-9.586203,-1.393127,1.65814,0.5046,0.56158,0.19199
1700767271695312,-9.582203,-1.394127,1.65314,0.6146,0.60458,0.19299
1700767271703125,-9.582203,-1.389127,1.64414,0.12746,0.62058,0.25699
1700767271710937,-9.599203,-1.395127,1.62814,0.10546,0.53458,0.20599
1700767271718750,-9.611203,-1.400127,1.63514,0.6746,0.59258,0.25599
1700767271726562,-9.608203,-1.406127,1.65514,0.6746,0.66958,0.28799
1700767271734375,-9.609203,-1.404127,1.66914,0.1446,0.60458,0.25699
1700767271742187,-9.604203,-1.420127,1.66714,0.4646,0.58858,0.27299
1700767271750000,-9.602203,-1.418127,1.66714,0.4546,0.54158,0.24199
1700767271757812,-9.600203,-1.418127,1.64914,0.6246,0.63558,0.22499
1700767271765625,-9.591203,-1.405127,1.64214,0.2846,0.60358,0.19399
1700767271773437,-9.595203,-1.415127,1.63514,0.1846,0.65458,0.20799
1700767271781250,-9.589203,-1.409127,1.65814,0.9346,0.68258,0.20899
1700767271789062,-9.588203,-1.405127,1.66014,0.154,0.65258,0.19299
1700767271796875,-9.593203,-1.402127,1.64614,0.1954,0.72958,0.22599
1700767271804687,-9.593203,-1.395127,1.64014,0.3246,0.66958,0.22399
1700767271812500,-9.587203,-1.398127,1.63114,0.3554,0.60358,0.20999
1700767271820312,-9.594203,-1.398127,1.63114,0.354,0.60258,0.28999
1700767271828125,-9.586203,-1.396127,1.63114,0.11146,0.63658,0.25699
1700767271835937,-9.582203,-1.400127,1.64014,0.12746,0.57358,0.25699
1700767271843750,-9.582203,-1.387127,1.63114,0.4746,0.54358,0.24099
1700767271851562,-9.584203,-1.387127,1.63314,0.12946,0.65358,0.22399
1700767271859375,-9.579203,-1.398127,1.64014,0.8246,0.52858,0.23999
1700767271867187,-9.575203,-1.401127,1.64914,0.3046,0.52658,0.22499
1700767271875000,-9.580203,-1.412127,1.64614,0.1446,0.60458,0.24099
1700767271882812,-9.573203,-1.421127,1.64914,0.4346,0.61858,0.16199
1700767271890625,-9.584203,-1.425127,1.64614,0.14146,0.60258,0.22599
1700767271898437,-9.581203,-1.436127,1.64914,0.154,0.57358,0.24099
1700767271906250,-9.589203,-1.432127,1.64014,0.8454,0.57158,0.22599
1700767271914062,-9.589203,-1.428127,1.64014,0.6954,0.58558,0.24199
1700767271921875,-9.595203,-1.416127,1.64214,0.9954,0.60458,0.22499
1700767271929687,-9.597203,-1.406127,1.64414,0.3154,0.62258,0.23999
1700767271937500,-9.584203,-1.407127,1.64614,0.6654,0.52658,0.22499
1700767271945312,-9.577203,-1.400127,1.64614,0.1054,0.51558,0.23899
1700767271953125,-9.584203,-1.393127,1.63014,0.3746,0.54658,0.22299
1700767271960937,-9.582203,-1.396127,1.64914,0.1754,0.55858,0.19299
1700767271968750,-9.582203,-1.390127,1.64914,0.9954,0.46358,0.20999
1700767271976562,-9.573203,-1.396127,1.65114,0.4546,0.47958,0.19299
1700767271984375,-9.568203,-1.398127,1.64914,0.1754,0.52758,0.20899
1700767271992187,-9.575203,-1.394127,1.64614,0.4754,0.45158,0.20799
1700767272000000,-9.585203,-1.396127,1.63114,0.2846,0.47858,0.19399
1700767272007812,-9.580203,-1.398127,1.64914,0.4746,0.46558,0.20899
1700767272015625,-9.591203,-1.395127,1.64614,0.4554,0.45258,0.19199
1700767272023437,-9.607203,-1.396127,1.64914,0.2054,0.49258,0.22599
1700767272031250,-9.604203,-1.397127,1.64914,0.6154,0.48358,0.23999
1700767272039062,-9.604203,-1.393127,1.65114,0.3146,0.47958,0.27299
1700767272046875,-9.604203,-1.391127,1.64414,0.8046,0.46558,0.20899
1700767272054687,-9.606203,-1.393127,1.64214,0.5746,0.47158,0.25399
1700767272062500,-9.600203,-1.380127,1.63314,0.14346,0.49458,0.25799
1700767272070312,-9.584203,-1.391127,1.62414,0.12846,0.52758,0.20899
1700767272078125,-9.582203,-1.382127,1.66714,0.5546,0.47058,0.18999
1700767272085937,-9.586203,-1.389127,1.67314,0.11746,0.51658,0.20699
1700767272093750,-9.595203,-1.406127,1.67614,0.11646,0.54558,0.23999
1700767272101562,-9.604203,-1.406127,1.68214,0.7046,0.49958,0.28699
1700767272109375,-9.622203,-1.413127,1.66014,0.5146,0.57658,0.23999
1700767272117187,-9.628203,-1.421127,1.65314,0.546,0.56258,0.28699
1700767272125000,-9.613203,-1.426127,1.65514,0.13046,0.60658,0.30399
1700767272132812,-9.597203,-1.442127,1.67614,0.5046,0.59058,0.30399
1700767272140625,-9.583203,-1.427127,1.67114,0.11546,0.60758,0.25599
1700767272148437,-9.575203,-1.416127,1.65514,0.8246,0.71758,0.22399
1700767272156250,-9.570203,-1.407127,1.63714,0.2754,0.60958,0.22299
1700767272164062,-9.571203,-1.401127,1.63514,0.12646,0.57258,0.25799
1700767272171875,-9.584203,-1.395127,1.63014,0.3846,0.59458,0.22199
1700767272179687,-9.575203,-1.391127,1.64614,0.9746,0.52958,0.17599
1700767272187500,-9.602203,-1.404127,1.66414,0.3146,0.68458,0.19199
1700767272195312,-9.598203,-1.398127,1.66414,0.5054,0.48058,0.20899
1700767272203125,-9.593203,-1.391127,1.66214,0.4654,0.57658,0.19199
1700767272210937,-9.582203,-1.391127,1.65514,0.3146,0.58958,0.22499
1700767272218750,-9.586203,-1.384127,1.64014,0.5146,0.59258,0.27199
1700767272226562,-9.584203,-1.380127,1.63114,0.14346,0.62158,0.19299
1700767272234375,-9.583203,-1.397127,1.65114,0.15646,0.57058,0.24199
1700767272242187,-9.584203,-1.396127,1.64614,0.8146,0.62258,0.22399
1700767272250000,-9.582203,-1.392127,1.64214,0.11246,0.57258,0.33699
1700767272257812,-9.587203,-1.392127,1.64614,0.9246,0.55658,0.20999
1700767272265625,-9.584203,-1.400127,1.64914,0.9446,0.60458,0.24099
1700767272273437,-9.595203,-1.398127,1.65114,0.8146,0.56058,0.23999
1700767272281250,-9.587203,-1.399127,1.66214,0.9346,0.57158,0.25799
1700767272289062,-9.589203,-1.403127,1.66714,0.6146,0.64858,0.30599
1700767272296875,-9.586203,-1.405127,1.67114,0.1754,0.63658,0.22499
1700767272304687,-9.585203,-1.399127,1.67414,0.1246,0.60258,0.27399
1700767272312500,-9.587203,-1.394127,1.66714,0.254,0.57258,0.27399
1700767272320312,-9.591203,-1.385127,1.64014,0.254,0.58758,0.24199
1700767272328125,-9.589203,-1.371127,1.63114,0.13046,0.70158,0.20799
1700767272335937,-9.598203,-1.364127,1.65514,0.13046,0.67058,0.19199
1700767272343750,-9.607203,-1.366127,1.66214,0.10046,0.67158,0.19099
1700767272351562,-9.609203,-1.375127,1.65514,0.4946,0.57558,0.22399
1700767272359375,-9.600203,-1.391127,1.63714,0.154,0.58958,0.20899
1700767272367187,-9.606203,-1.395127,1.63714,0.11346,0.65358,0.23999
1700767272375000,-9.590203,-1.404127,1.63714,0.6746,0.57658,0.22399
1700767272382812,-9.586203,-1.402127,1.64214,0.14946,0.62458,0.25499
1700767272390625,-9.595203,-1.407127,1.64914,0.3246,0.59158,0.20799
1700767272398437,-9.597203,-1.413127,1.66214,0.8446,0.64058,0.22299
1700767272406250,-9.606203,-1.411127,1.66014,0.5046,0.62358,0.22399
1700767272414062,-9.599203,-1.402127,1.66414,0.1946,0.56158,0.23999
1700767272421875,-9.605203,-1.394127,1.66214,0.9246,0.63458,0.20999
1700767272429687,-9.609203,-1.387127,1.65514,0.7746,0.68258,0.20899
1700767272437500,-9.601203,-1.381127,1.65314,0.10746,0.68058,0.19399
1700767272445312,-9.598203,-1.385127,1.63514,0.7546,0.61758,0.20999
1700767272453125,-9.602203,-1.396127,1.64414,0.1854,0.66658,0.25699
1700767272460937,-9.599203,-1.392127,1.65114,0.654,0.66258,0.24299
1700767272468750,-9.598203,-1.405127,1.66014,0.4646,0.65158,0.24099
1700767272476562,-9.599203,-1.411127,1.66914,0.146,0.69958,0.32099
1700767272484375,-9.595203,-1.402127,1.66014,0.2754,0.73358,0.30299
1700767272492187,-9.599203,-1.397127,1.65114,0.7646,0.75458,0.25299
1700767272500000,-9.604203,-1.402127,1.66414,0.7046,0.65758,0.23899
1700767272507812,-9.597203,-1.399127,1.67114,0.754,0.65758,0.31799
1700767272515625,-9.582203,-1.392127,1.68914,0.3554,0.69858,0.19299
1700767272523437,-9.582203,-1.396127,1.67614,0.8054,0.62258,0.23999
1700767272531250,-9.582203,-1.398127,1.65814,0.3554,0.63458,0.22599
1700767272539062,-9.580203,-1.396127,1.65114,0.9546,0.68358,0.24099
1700767272546875,-9.571203,-1.396127,1.64414,0.14546,0.63858,0.20799
1700767272554687,-9.575203,-1.393127,1.64414,0.7146,0.54858,0.20599
1700767272562500,-9.579203,-1.386127,1.65314,0.8746,0.62558,0.30299
1700767272570312,-9.579203,-1.397127,1.66714,0.7246,0.65858,0.20599
1700767272578125,-9.600203,-1.391127,1.65814,0.5146,0.63858,0.25599
1700767272585937,-9.607203,-1.400127,1.66214,0.1854,0.54258,0.19299
1700767272593750,-9.604203,-1.402127,1.64214,0.154,0.51158,0.20899
1700767272601562,-9.593203,-1.405127,1.64214,0.2946,0.49458,0.22599
1700767272609375,-9.597203,-1.404127,1.65114,0.11146,0.60558,0.22499
1700767272617187,-9.596203,-1.396127,1.65814,0.6046,0.60258,0.27399
1700767272625000,-9.588203,-1.388127,1.67814,0.2254,0.61558,0.25899
1700767272632812,-9.580203,-1.397127,1.66914,0.9146,0.63358,0.22599
1700767272640625,-9.576203,-1.410127,1.66914,0.1146,0.61758,0.24199
1700767272648437,-9.567203,-1.413127,1.68914,0.4246,0.56958,0.24299
1700767272656250,-9.564203,-1.418127,1.69614,0.3146,0.55858,0.22499
1700767272664062,-9.562203,-1.408127,1.67814,0.1346,0.63458,0.25799
1700767272671875,-9.582203,-1.402127,1.67614,0.1646,0.51158,0.27299
1700767272679687,-9.586203,-1.409127,1.67114,0.154,0.58958,0.24099
1700767272687500,-9.586203,-1.413127,1.66714,0.3254,0.68458,0.22499
1700767272695312,-9.589203,-1.407127,1.65814,0.6854,0.58658,0.22599
1700767272703125,-9.587203,-1.396127,1.65814,0.6046,0.61958,0.19399
1700767272710937,-9.594203,-1.399127,1.65514,0.1046,0.58658,0.20999
1700767272718750,-9.598203,-1.396127,1.66214,0.10154,0.63358,0.19399
1700767272726562,-9.604203,-1.402127,1.64914,0.6246,0.55758,0.24099
1700767272734375,-9.602203,-1.402127,1.65814,0.3046,0.57358,0.24099
1700767272742187,-9.584203,-1.396127,1.64414,0.8246,0.62358,0.19199
1700767272750000,-9.582203,-1.405127,1.65114,0.3046,0.65258,0.20899
1700767272757812,-9.577203,-1.398127,1.66214,0.6346,0.59058,0.20899
1700767272765625,-9.582203,-1.400127,1.66714,0.4646,0.57358,0.24099
1700767272773437,-9.596203,-1.401127,1.68314,0.4346,0.63258,0.25799
1700767272781250,-9.603203,-1.417127,1.67114,0.2546,0.56858,0.21099
1700767272789062,-9.606203,-1.422127,1.65514,0.4946,0.54458,0.20799
1700767272796875,-9.610203,-1.417127,1.63714,0.2254,0.61358,0.18899
1700767272804687,-9.613203,-1.411127,1.62114,0.6746,0.56158,0.20799
1700767272812500,-9.608203,-1.413127,1.62214,0.1554,0.60658,0.22399
1700767272820312,-9.598203,-1.407127,1.63714,0.2946,0.68258,0.22499
1700767272828125,-9.584203,-1.402127,1.62814,0.7846,0.68358,0.20899
1700767272835937,-9.577203,-1.407127,1.64414,0.6646,0.67058,0.19199
1700767272843750,-9.575203,-1.398127,1.64214,0.7754,0.57658,0.23999
1700767272851562,-9.573203,-1.400127,1.64014,0.6454,0.49658,0.24099
1700767272859375,-9.582203,-1.391127,1.64414,0.146,0.48258,0.22399
1700767272867187,-9.585203,-1.390127,1.64414,0.2054,0.58658,0.24199
1700767272875000,-9.577203,-1.400127,1.65314,0.3354,0.57458,0.22499
1700767272882812,-9.573203,-1.407127,1.67414,0.5054,0.65058,0.25699
1700767272890625,-9.575203,-1.401127,1.66914,0.2846,0.61958,0.20999
1700767272898437,-9.582203,-1.416127,1.66414,0.2746,0.58758,0.19399
1700767272906250,-9.582203,-1.405127,1.64014,0.3354,0.51058,0.24099
1700767272914062,-9.582203,-1.416127,1.64414,0.3654,0.61858,0.24199
1700767272921875,-9.586203,-1.403127,1.65314,0.12646,0.63658,0.19299
1700767272929687,-9.593203,-1.395127,1.65514,0.4854,0.60658,0.20799
1700767272937500,-9.586203,-1.400127,1.66214,0.3746,0.67158,0.28699
1700767272945312,-9.582203,-1.416127,1.66214,0.9546,0.63658,0.25699
1700767272953125,-9.579203,-1.416127,1.66714,0.4746,0.49658,0.20899
1700767272960937,-9.571203,-1.407127,1.67314,0.1246,0.58858,0.19399
1700767272968750,-9.562203,-1.408127,1.67814,0.354,0.58858,0.20999
1700767272976562,-9.560203,-1.408127,1.68014,0.1346,0.54158,0.20999
1700767272984375,-9.566203,-1.409127,1.69614,0.1746,0.52858,0.25599
1700767272992187,-9.578203,-1.398127,1.68914,0.5054,0.62058,0.20899
1700767273000000,-9.593203,-1.389127,1.67314,0.1646,0.63858,0.19199
1700767273007812,-9.609203,-1.391127,1.69214,0.1854,0.60458,0.20899
1700767273015625,-9.605203,-1.382127,1.66914,0.1346,0.62058,0.19299
1700767273023437,-9.612203,-1.390127,1.67814,0.9046,0.61658,0.21099
1700767273031250,-9.596203,-1.385127,1.67414,0.7646,0.71258,0.22599
1700767273039062,-9.593203,-1.398127,1.66914,0.17646,0.57458,0.25699
1700767273046875,-9.589203,-1.405127,1.66914,0.11146,0.58858,0.25699
1700767273054687,-9.569203,-1.408127,1.68514,0.1246,0.64858,0.28999
1700767273062500,-9.577203,-1.418127,1.70114,0.1546,0.55758,0.33699
1700767273070312,-9.582203,-1.429127,1.70714,0.1854,0.57358,0.22499
1700767273078125,-9.584203,-1.413127,1.70114,0.3354,0.60558,0.27299
1700767273085937,-9.584203,-1.412127,1.69814,0.9346,0.57258,0.22599
1700767273093750,-9.607203,-1.412127,1.69214,0.4346,0.58458,0.32299
1700767273101562,-9.597203,-1.404127,1.68514,0.3346,0.63758,0.25599
1700767273109375,-9.598203,-1.407127,1.70314,0.7746,0.61958,0.24199
1700767273117187,-9.600203,-1.398127,1.70314,0.14046,0.64958,0.20999
1700767273125000,-9.587203,-1.403127,1.69614,0.15646,0.66458,0.25799
1700767273132812,-9.577203,-1.398127,1.69214,0.14346,0.76158,0.27299
1700767273140625,-9.575203,-1.394127,1.67414,0.12646,0.66758,0.19299
1700767273148437,-9.577203,-1.396127,1.67314,0.9746,0.63758,0.23999
1700767273156250,-9.573203,-1.403127,1.69214,0.1546,0.65158,0.27299
1700767273164062,-9.597203,-1.404127,1.69614,0.6346,0.60558,0.22499
1700767273171875,-9.596203,-1.403127,1.67814,0.14246,0.69658,0.30599
1700767273179687,-9.602203,-1.411127,1.66914,0.5046,0.59258,0.20799
1700767273187500,-9.593203,-1.416127,1.66914,0.1754,0.55858,0.22499
1700767273195312,-9.598203,-1.403127,1.67114,0.10846,0.58758,0.19399
1700767273203125,-9.584203,-1.414127,1.66414,0.17346,0.68058,0.25799
1700767273210937,-9.582203,-1.412127,1.68914,0.15746,0.68058,0.25799
1700767273218750,-9.584203,-1.412127,1.70714,0.15646,0.68058,0.24199
1700767273226562,-9.589203,-1.418127,1.69414,0.14146,0.74258,0.30599
1700767273234375,-9.586203,-1.414127,1.66714,0.17446,0.74358,0.30599
1700767273242187,-9.589203,-1.414127,1.67414,0.9346,0.72758,0.30599
1700767273250000,-9.584203,-1.416127,1.67614,0.7746,0.72758,0.27399
1700767273257812,-9.598203,-1.405127,1.68514,0.12646,0.69658,0.28999
1700767273265625,-9.600203,-1.409127,1.66714,0.9346,0.68158,0.27399
1700767273273437,-9.589203,-1.418127,1.67414,0.6146,0.61958,0.20999
1700767273281250,-9.589203,-1.411127,1.66914,0.7746,0.68258,0.19299
1700767273289062,-9.579203,-1.416127,1.66714,0.9846,0.63958,0.20799
1700767273296875,-9.584203,-1.423127,1.69214,0.1246,0.64958,0.25799
1700767273304687,-9.584203,-1.418127,1.70114,0.6146,0.66758,0.19299
1700767273312500,-9.586203,-1.420127,1.69814,0.12846,0.63658,0.27299
1700767273320312,-9.593203,-1.418127,1.70114,0.454,0.66558,0.19399
1700767273328125,-9.581203,-1.420127,1.71214,0.246,0.63958,0.20799
1700767273335937,-9.576203,-1.419127,1.70114,0.5846,0.71158,0.19399
1700767273343750,-9.555203,-1.410127,1.69614,0.10846,0.60258,0.20999
1700767273351562,-9.560203,-1.405127,1.69614,0.10946,0.61958,0.20999
1700767273359375,-9.576203,-1.404127,1.69614,0.5746,0.63258,0.19499
1700767273367187,-9.580203,-1.398127,1.69414,0.5254,0.68158,0.20999
1700767273375000,-9.586203,-1.405127,1.69614,0.10054,0.68258,0.19299
1700767273382812,-9.592203,-1.399127,1.69214,0.2254,0.66358,0.22699
1700767273390625,-9.607203,-1.392127,1.68314,0.10846,0.69658,0.20999
1700767273398437,-9.605203,-1.392127,1.66414,0.2154,0.61758,0.20999
1700767273406250,-9.605203,-1.401127,1.68014,0.8554,0.68058,0.24199
1700767273414062,-9.603203,-1.401127,1.68914,0.5254,0.55558,0.22599
1700767273421875,-9.594203,-1.406127,1.69814,0.554,0.60058,0.25899
1700767273429687,-9.569203,-1.415127,1.68914,0.2846,0.55458,0.27399
1700767273437500,-9.551203,-1.394127,1.69814,0.4746,0.57458,0.25699
1700767273445312,-9.555203,-1.401127,1.70114,0.8146,0.59058,0.27199
1700767273453125,-9.546203,-1.407127,1.71414,0.12746,0.55958,0.19299
1700767273460937,-9.570203,-1.411127,1.73714,0.14746,0.62358,0.23999
1700767273468750,-9.597203,-1.420127,1.73214,0.6346,0.57458,0.24099
1700767273476562,-9.606203,-1.427127,1.71014,0.4546,0.57258,0.19399
1700767273484375,-9.604203,-1.438127,1.68514,0.4446,0.50958,0.20999
1700767273492187,-9.606203,-1.429127,1.67314,0.11446,0.49758,0.25599
1700767273500000,-9.599203,-1.429127,1.68514,0.11046,0.60458,0.24099
1700767273507812,-9.584203,-1.420127,1.68714,0.9546,0.68358,0.22499
1700767273515625,-9.586203,-1.416127,1.69814,0.1646,0.68458,0.25699
1700767273523437,-9.581203,-1.422127,1.68914,0.5146,0.56058,0.27199
1700767273531250,-9.573203,-1.414127,1.69414,0.1854,0.57358,0.22499
1700767273539062,-9.564203,-1.398127,1.67614,0.2046,0.53158,0.20699
1700767273546875,-9.580203,-1.396127,1.68514,0.6654,0.54358,0.16099
1700767273554687,-9.573203,-1.399127,1.67814,0.6854,0.49458,0.16199
1700767273562500,-9.562203,-1.398127,1.69414,0.0,0.51258,0.20899
1700767273570312,-9.554203,-1.408127,1.70114,0.7446,0.58558,0.19499
1700767273578125,-9.547203,-1.415127,1.70514,0.1046,0.58658,0.19399
1700767273585937,-9.562203,-1.421127,1.69214,0.6854,0.47858,0.20999
1700767273593750,-9.578203,-1.423127,1.69814,0.2846,0.52458,0.22599
1700767273601562,-9.586203,-1.418127,1.70114,0.3054,0.49758,0.25599
1700767273609375,-9.602203,-1.416127,1.68714,0.1246,0.57158,0.24199
1700767273617187,-9.602203,-1.409127,1.69614,0.5146,0.57658,0.25599
1700767273625000,-9.604203,-1.415127,1.68914,0.4746,0.51258,0.24099
1700767273632812,-9.597203,-1.411127,1.71214,0.3254,0.51158,0.25699
1700767273640625,-9.577203,-1.400127,1.69814,0.8546,0.46958,0.20699
1700767273648437,-9.552203,-1.396127,1.70314,0.746,0.50158,0.25399
1700767273656250,-9.542203,-1.399127,1.71214,0.3654,0.50958,0.20999
1700767273664062,-9.541203,-1.396127,1.70314,0.4846,0.59158,0.20799
1700767273671875,-9.545203,-1.398127,1.70514,0.4146,0.44058,0.17399
1700767273679687,-9.564203,-1.405127,1.70714,0.6246,0.46458,0.19299
1700767273687500,-9.585203,-1.396127,1.70114,0.2846,0.47858,0.20999
1700767273695312,-9.605203,-1.398127,1.69414,0.6046,0.47858,0.19399
1700767273703125,-9.604203,-1.393127,1.67814,0.7946,0.60558,0.24099
1700767273710937,-9.606203,-1.395127,1.67114,0.9646,0.51258,0.24099
1700767273718750,-9.605203,-1.396127,1.66414,0.12546,0.52558,0.22599
1700767273726562,-9.586203,-1.398127,1.67314,0.6946,0.54658,0.27099
1700767273734375,-9.584203,-1.409127,1.68014,0.14646,0.49858,0.19199
1700767273742187,-9.581203,-1.417127,1.67614,0.10346,0.51758,0.22199
1700767273750000,-9.583203,-1.413127,1.67614,0.13646,0.50158,0.23799
1700767273757812,-9.581203,-1.420127,1.67814,0.6846,0.49858,0.27199
1700767273765625,-9.584203,-1.413127,1.70114,0.6254,0.41958,0.23999
1700767273773437,-9.578203,-1.401127,1.68714,0.2946,0.47958,0.19299
1700767273781250,-9.571203,-1.405127,1.68314,0.14446,0.52658,0.27299
1700767273789062,-9.575203,-1.407127,1.70514,0.154,0.51158,0.24099
1700767273796875,-9.570203,-1.402127,1.71014,0.146,0.52858,0.25599
1700767273804687,-9.575203,-1.401127,1.69214,0.254,0.52558,0.24199
1700767273812500,-9.588203,-1.404127,1.69614,0.1746,0.49758,0.22399
1700767273820312,-9.584203,-1.402127,1.70514,0.1754,0.52758,0.19299
1700767273828125,-9.591203,-1.396127,1.70114,0.6146,0.54158,0.20999
1700767273835937,-9.586203,-1.398127,1.71014,0.14646,0.51358,0.23999
1700767273843750,-9.580203,-1.398127,1.70314,0.11046,0.46358,0.22499
1700767273851562,-9.577203,-1.393127,1.68214,0.11646,0.46758,0.25599
1700767273859375,-9.571203,-1.387127,1.69214,0.9546,0.51158,0.22499
1700767273867187,-9.560203,-1.399127,1.69614,0.7946,0.48058,0.24099
1700767273875000,-9.564203,-1.394127,1.68514,0.11146,0.46358,0.25799
1700767273882812,-9.578203,-1.396127,1.69214,0.12846,0.44858,0.24099
1700767273890625,-9.578203,-1.401127,1.68314,0.19146,0.46358,0.24099
1700767273898437,-9.589203,-1.398127,1.68914,0.4646,0.46358,0.28999
1700767273906250,-9.609203,-1.396127,1.68314,0.254,0.44658,0.27399
1700767273914062,-9.607203,-1.400127,1.67614,0.11046,0.49358,0.28999
1700767273921875,-9.596203,-1.398127,1.67814,0.4446,0.52458,0.24199
1700767273929687,-9.584203,-1.402127,1.66714,0.1546,0.46558,0.19299
1700767273937500,-9.580203,-1.401127,1.67114,0.12646,0.44658,0.25799
1700767273945312,-9.580203,-1.399127,1.66714,0.9246,0.46158,0.20999
1700767273953125,-9.578203,-1.414127,1.69414,0.354,0.44558,0.25799
1700767273960937,-9.566203,-1.410127,1.69614,0.3454,0.52658,0.22499
1700767273968750,-9.576203,-1.414127,1.70114,0.454,0.49258,0.25799
1700767273976562,-9.586203,-1.414127,1.68514,0.3146,0.51058,0.27299
1700767273984375,-9.576203,-1.404127,1.69214,0.3854,0.49058,0.22699
1700767273992187,-9.586203,-1.409127,1.69214,0.6254,0.48158,0.23999
1700767274000000,-9.575203,-1.405127,1.69414,0.9854,0.47958,0.22499
1700767274007812,-9.568203,-1.403127,1.70114,0.3054,0.51358,0.25599
1700767274015625,-9.576203,-1.401127,1.69814,0.1854,0.47758,0.27399
1700767274023437,-9.569203,-1.392127,1.70114,0.6754,0.49458,0.19399
1700767274031250,-9.562203,-1.392127,1.69614,0.3154,0.49758,0.20799
1700767274039062,-9.575203,-1.398127,1.68914,0.4154,0.44158,0.19599
1700767274046875,-9.572203,-1.391127,1.66914,0.4246,0.45958,0.24299
1700767274054687,-9.589203,-1.387127,1.67814,0.3454,0.51058,0.24199
1700767274062500,-9.596203,-1.385127,1.66914,0.5054,0.47858,0.25799
1700767274070312,-9.602203,-1.391127,1.66414,0.1754,0.54358,0.20899
1700767274078125,-9.605203,-1.398127,1.66914,0.1246,0.52458,0.22599
1700767274085937,-9.595203,-1.400127,1.66014,0.6346,0.47958,0.27299
1700767274093750,-9.586203,-1.398127,1.63714,0.8646,0.47158,0.21199
1700767274101562,-9.578203,-1.408127,1.64014,0.12346,0.52358,0.24299
1700767274109375,-9.569203,-1.390127,1.65114,0.14146,0.47758,0.25799
1700767274117187,-9.567203,-1.399127,1.66914,0.2846,0.50958,0.20999
1700767274125000,-9.569203,-1.403127,1.67114,0.7646,0.49458,0.19399
1700767274132812,-9.580203,-1.401127,1.66914,0.12546,0.50958,0.22599
1700767274140625,-9.585203,-1.399127,1.67114,0.354,0.46258,0.20999
1700767274148437,-9.598203,-1.400127,1.65114,0.9546,0.48058,0.20899
1700767274156250,-9.618203,-1.402127,1.64014,0.7846,0.55658,0.28999
1700767274164062,-9.621203,-1.396127,1.63714,0.10646,0.55358,0.24299
1700767274171875,-9.609203,-1.407127,1.62614,0.14246,0.54158,0.25799
1700767274179687,-9.597203,-1.402127,1.64914,0.16046,0.60558,0.25699
1700767274187500,-9.586203,-1.400127,1.63314,0.13446,0.54658,0.27099
1700767274195312,-9.573203,-1.414127,1.61714,0.4846,0.48058,0.24099
1700767274203125,-9.569203,-1.421127,1.61514,0.6146,0.43158,0.24199
1700767274210937,-9.570203,-1.414127,1.60114,0.9646,0.43458,0.20899
1700767274218750,-9.577203,-1.427127,1.61314,0.11246,0.44958,0.22499
1700767274226562,-9.586203,-1.413127,1.61514,0.11346,0.46458,0.30499
1700767274234375,-9.602203,-1.400127,1.61714,0.3146,0.51258,0.20899
1700767274242187,-9.602203,-1.387127,1.61314,0.4546,0.46358,0.20899
1700767274250000,-9.614203,-1.365127,1.61314,0.17246,0.50858,0.19399
1700767274257812,-9.611203,-1.362127,1.61014,0.10046,0.46858,0.22399
1700767274265625,-9.593203,-1.364127,1.61514,0.8346,0.46858,0.20799
1700767274273437,-9.587203,-1.365127,1.61314,0.17646,0.51258,0.19299
1700767274281250,-9.594203,-1.358127,1.61514,0.11146,0.49558,0.25699
1700767274289062,-9.604203,-1.382127,1.61214,0.9846,0.48258,0.22399
1700767274296875,-9.621203,-1.391127,1.61514,0.17446,0.44758,0.24199
1700767274304687,-9.620203,-1.391127,1.61314,0.16146,0.48058,0.25699
1700767274312500,-9.593203,-1.409127,1.61514,0.17546,0.52658,0.22499
1700767274320312,-9.587203,-1.397127,1.62214,0.15546,0.52358,0.19399
1700767274328125,-9.585203,-1.403127,1.64014,0.19046,0.44658,0.27399
1700767274335937,-9.583203,-1.397127,1.62614,0.17346,0.50858,0.22599
1700767274343750,-9.584203,-1.398127,1.61914,0.16046,0.46258,0.35399
1700767274351562,-9.589203,-1.405127,1.63114,0.15946,0.50858,0.33799
1700767274359375,-9.589203,-1.403127,1.63314,0.17646,0.52658,0.24099
1700767274367187,-9.598203,-1.400127,1.63114,0.15946,0.57358,0.22499
1700767274375000,-9.597203,-1.404127,1.63314,0.14846,0.56158,0.25599
1700767274382812,-9.611203,-1.400127,1.62614,0.14546,0.51158,0.27299
1700767274390625,-9.604203,-1.393127,1.61714,0.16346,0.48258,0.25599
1700767274398437,-9.593203,-1.400127,1.61914,0.18246,0.45358,0.20699
1700767274406250,-9.582203,-1.400127,1.59914,0.16246,0.48258,0.20799
1700767274414062,-9.584203,-1.400127,1.61514,0.18446,0.47058,0.22199
1700767274421875,-9.586203,-1.409127,1.60614,0.19846,0.45458,0.19099
1700767274429687,-9.581203,-1.404127,1.59014,0.16746,0.46958,0.25499
1700767274437500,-9.582203,-1.389127,1.60314,0.18246,0.46958,0.22299
1700767274445312,-9.600203,-1.394127,1.61514,0.15846,0.44758,0.24199
1700767274453125,-9.587203,-1.390127,1.60614,0.17546,0.46258,0.28999
1700767274460937,-9.612203,-1.390127,1.59914,0.15746,0.44658,0.22599
1700767274468750,-9.609203,-1.378127,1.59414,0.17546,0.49458,0.22499
1700767274476562,-9.613203,-1.384127,1.59714,0.16646,0.50058,0.19099
1700767274484375,-9.619203,-1.387127,1.59714,0.14046,0.44558,0.24199
1700767274492187,-9.618203,-1.384127,1.59914,0.17646,0.46458,0.20899
1700767274500000,-9.620203,-1.397127,1.60814,0.16146,0.45058,0.22499
1700767274507812,-9.602203,-1.395127,1.61014,0.18346,0.40758,0.20699
1700767274515625,-9.606203,-1.393127,1.61014,0.18546,0.45458,0.23799
1700767274523437,-9.597203,-1.398127,1.61514,0.17946,0.46658,0.22399
1700767274531250,-9.588203,-1.395127,1.61214,0.24846,0.49958,0.31899
1700767274539062,-9.593203,-1.407127,1.61514,0.21246,0.51358,0.30399
1700767274546875,-9.604203,-1.407127,1.60614,0.15946,0.60358,0.28999
1700767274554687,-9.591203,-1.400127,1.61014,0.17546,0.60458,0.25699
1700767274562500,-9.593203,-1.416127,1.60814,0.17346,0.55458,0.30599
1700767274570312,-9.599203,-1.420127,1.59414,0.25746,0.51258,0.24099
1700767274578125,-9.597203,-1.420127,1.58814,0.18046,0.53058,0.19199
1700767274585937,-9.590203,-1.411127,1.59214,0.19846,0.51658,0.19099
1700767274593750,-9.607203,-1.412127,1.60414,0.17446,0.46258,0.22599
1700767274601562,-9.609203,-1.413127,1.59714,0.20846,0.54258,0.28899
1700767274609375,-9.617203,-1.408127,1.60614,0.17946,0.49758,0.28799
1700767274617187,-9.617203,-1.404127,1.59014,0.16146,0.49658,0.25699
1700767274625000,-9.617203,-1.406127,1.59914,0.14846,0.48358,0.23999
1700767274632812,-9.607203,-1.411127,1.60614,0.17646,0.49458,0.30599
1700767274640625,-9.600203,-1.418127,1.60414,0.15946,0.57358,0.25699
1700767274648437,-9.603203,-1.424127,1.61514,0.18546,0.50158,0.25399
1700767274656250,-9.615203,-1.422127,1.61914,0.13246,0.51458,0.22399
1700767274664062,-9.615203,-1.426127,1.61714,0.12746,0.52658,0.22499
1700767274671875,-9.618203,-1.424127,1.60814,0.17446,0.58858,0.22599
1700767274679687,-9.602203,-1.422127,1.61314,0.15846,0.61958,0.24199
1700767274687500,-9.578203,-1.398127,1.60814,0.12746,0.55658,0.28999
1700767274695312,-9.582203,-1.396127,1.58814,0.14346,0.59058,0.19299
1700767274703125,-9.585203,-1.399127,1.59214,0.17146,0.61658,0.21099
1700767274710937,-9.591203,-1.394127,1.59014,0.10846,0.60258,0.20999
1700767274718750,-9.613203,-1.406127,1.60414,0.9646,0.54358,0.24099
1700767274726562,-9.605203,-1.414127,1.60114,0.10846,0.61758,0.25799
1700767274734375,-9.611203,-1.429127,1.61314,0.7946,0.55758,0.27299
1700767274742187,-9.606203,-1.440127,1.61514,0.15946,0.65158,0.28899
1700767274750000,-9.592203,-1.442127,1.61014,0.11246,0.55858,0.24099
1700767274757812,-9.597203,-1.453127,1.61314,0.14346,0.62158,0.22499
1700767274765625,-9.593203,-1.445127,1.61514,0.9346,0.55758,0.20999
1700767274773437,-9.598203,-1.432127,1.61314,0.9246,0.63358,0.22599
1700767274781250,-9.588203,-1.422127,1.61514,0.6546,0.66858,0.28899
1700767274789062,-9.602203,-1.409127,1.61314,0.10946,0.66658,0.19399
1700767274796875,-9.615203,-1.406127,1.59414,0.13446,0.71958,0.19099
1700767274804687,-9.615203,-1.411127,1.58314,0.14746,0.67058,0.22399
1700767274812500,-9.622203,-1.417127,1.57214,0.7846,0.69858,0.24099
1700767274820312,-9.624203,-1.428127,1.58114,0.11146,0.71458,0.24099
1700767274828125,-9.615203,-1.434127,1.59214,0.4346,0.69658,0.19399
1700767274835937,-9.606203,-1.429127,1.58514,0.14346,0.73058,0.25699
1700767274843750,-9.590203,-1.431127,1.57414,0.16346,0.63958,0.19199
1700767274851562,-9.584203,-1.431127,1.57014,0.14246,0.63658,0.20899
1700767274859375,-9.577203,-1.434127,1.57614,0.9046,0.69558,0.19399
1700767274867187,-9.570203,-1.429127,1.58514,0.14246,0.62058,0.22499
1700767274875000,-9.568203,-1.422127,1.58114,0.13346,0.59358,0.20699
1700767274882812,-9.568203,-1.429127,1.59714,0.9546,0.60558,0.19299
1700767274890625,-9.563203,-1.433127,1.60314,0.17946,0.70158,0.20799
1700767274898437,-9.571203,-1.432127,1.60614,0.12346,0.66458,0.20999
1700767274906250,-9.577203,-1.438127,1.59214,0.14446,0.62158,0.24099
1700767274914062,-9.597203,-1.438127,1.59914,0.154,0.69858,0.22499
1700767274921875,-9.604203,-1.435127,1.58514,0.3046,0.69858,0.25699
1700767274929687,-9.620203,-1.440127,1.57914,0.1146,0.80558,0.24199
1700767274937500,-9.624203,-1.428127,1.60414,0.4646,0.68358,0.22499
1700767274945312,-9.622203,-1.413127,1.59914,0.4446,0.61958,0.19399
1700767274953125,-9.620203,-1.405127,1.58814,0.1046,0.63258,0.20999
1700767274960937,-9.614203,-1.390127,1.58114,0.10646,0.61658,0.19499
1700767274968750,-9.589203,-1.393127,1.58114,0.14346,0.69958,0.20899
1700767274976562,-9.578203,-1.394127,1.60814,0.7546,0.64958,0.19399
1700767274984375,-9.566203,-1.392127,1.61314,0.6246,0.60458,0.20899
1700767274992187,-9.584203,-1.398127,1.60614,0.7746,0.61958,0.19399
1700767275000000,-9.589203,-1.396127,1.58814,0.11146,0.65258,0.19299
1700767275007812,-9.605203,-1.399127,1.57614,0.7146,0.69258,0.21099
1700767275015625,-9.618203,-1.395127,1.58314,0.12546,0.71358,0.19299
1700767275023437,-9.618203,-1.403127,1.59014,0.4346,0.69658,0.20999
1700767275031250,-9.618203,-1.407127,1.58514,0.9146,0.71258,0.19399
1700767275039062,-9.597203,-1.411127,1.57614,0.9346,0.66758,0.17699
1700767275046875,-9.589203,-1.412127,1.57914,0.4146,0.66358,0.21099
1700767275054687,-9.589203,-1.421127,1.57614,0.9046,0.69458,0.25899
1700767275062500,-9.591203,-1.426127,1.58314,0.16946,0.64758,0.17899
1700767275070312,-9.580203,-1.410127,1.59214,0.17446,0.60358,0.20999
1700767275078125,-9.575203,-1.418127,1.59414,0.4546,0.62058,0.19299
1700767275085937,-9.587203,-1.414127,1.61314,0.454,0.58658,0.24199
1700767275093750,-9.584203,-1.423127,1.61014,0.4646,0.60458,0.24099
1700767275101562,-9.595203,-1.420127,1.61514,0.2754,0.62458,0.22299
1700767275109375,-9.600203,-1.434127,1.63314,0.1246,0.61858,0.24199
1700767275117187,-9.604203,-1.440127,1.63314,0.2946,0.66658,0.22499
1700767275125000,-9.610203,-1.435127,1.61714,0.3246,0.62258,0.23999
1700767275132812,-9.590203,-1.431127,1.62214,0.3354,0.62058,0.22499
1700767275140625,-9.590203,-1.422127,1.61514,0.1554,0.66858,0.25699
1700767275148437,-9.581203,-1.424127,1.61914,0.4854,0.63758,0.20799
1700767275156250,-9.589203,-1.421127,1.62414,0.454,0.58758,0.19399
1700767275164062,-9.581203,-1.413127,1.61914,0.1554,0.63758,0.22399
1700767275171875,-9.591203,-1.412127,1.61314,0.6146,0.57258,0.19399
1700767275179687,-9.582203,-1.421127,1.61514,0.9146,0.64958,0.16199
1700767275187500,-9.581203,-1.422127,1.61214,0.6646,0.62358,0.20799
1700767275195312,-9.584203,-1.423127,1.61514,0.3554,0.60358,0.19399
1700767275203125,-9.589203,-1.416127,1.62414,0.6046,0.65058,0.20999
1700767275210937,-9.595203,-1.418127,1.62814,0.9446,0.60458,0.19299
1700767275218750,-9.590203,-1.422127,1.62614,0.1554,0.57558,0.20799
1700767275226562,-9.588203,-1.425127,1.61914,0.1854,0.49558,0.19299
1700767275234375,-9.604203,-1.422127,1.61714,0.11246,0.51258,0.20899
1700767275242187,-9.610203,-1.424127,1.61214,0.4654,0.62358,0.22399
1700767275250000,-9.595203,-1.438127,1.62814,0.1346,0.62058,0.20899
1700767275257812,-9.599203,-1.424127,1.63314,0.2954,0.57658,0.23999
1700767275265625,-9.592203,-1.429127,1.63514,0.11354,0.63758,0.19199
1700767275273437,-9.582203,-1.434127,1.65514,0.11754,0.63358,0.24199
1700767275281250,-9.582203,-1.438127,1.64014,0.6954,0.71158,0.22599
1700767275289062,-9.597203,-1.436127,1.63714,0.3554,0.68158,0.24199
1700767275296875,-9.597203,-1.435127,1.65314,0.4854,0.76158,0.28899
1700767275304687,-9.595203,-1.420127,1.65514,0.446,0.68658,0.27099
1700767275312500,-9.600203,-1.423127,1.64214,0.1246,0.68158,0.27399
1700767275320312,-9.595203,-1.415127,1.64014,0.3154,0.69958,0.25699
1700767275328125,-9.586203,-1.396127,1.62414,0.254,0.73058,0.20899
1700767275335937,-9.591203,-1.400127,1.61714,0.5054,0.66758,0.22499
1700767275343750,-9.582203,-1.414127,1.63114,0.1346,0.69758,0.22499
1700767275351562,-9.587203,-1.416127,1.63714,0.6954,0.71158,0.24199
1700767275359375,-9.584203,-1.420127,1.62814,0.5054,0.69858,0.20899
1700767275367187,-9.582203,-1.419127,1.62614,0.5354,0.71158,0.20999
1700767275375000,-9.586203,-1.438127,1.61314,0.5154,0.68158,0.25799
1700767275382812,-9.584203,-1.427127,1.62414,0.3554,0.69658,0.25799
1700767275390625,-9.580203,-1.428127,1.62614,0.15546,0.71058,0.24199
1700767275398437,-9.611203,-1.429127,1.64014,0.1954,0.69658,0.27399
1700767275406250,-9.624203,-1.422127,1.63114,0.1346,0.69958,0.19299
1700767275414062,-9.618203,-1.407127,1.63314,0.5154,0.71258,0.25799
1700767275421875,-9.618203,-1.409127,1.62214,0.2154,0.69458,0.25799
1700767275429687,-9.618203,-1.416127,1.61314,0.5254,0.71258,0.24199
1700767275437500,-9.613203,-1.417127,1.61514,0.4846,0.69958,0.25699
1700767275445312,-9.598203,-1.421127,1.61914,0.2154,0.75858,0.20999
1700767275453125,-9.575203,-1.418127,1.63114,0.3654,0.75858,0.25799
1700767275460937,-9.557203,-1.417127,1.63114,0.6046,0.74258,0.27399
1700767275468750,-9.561203,-1.423127,1.62814,0.3254,0.77758,0.22499
1700767275476562,-9.550203,-1.432127,1.62414,0.1954,0.69658,0.28999
1700767275484375,-9.551203,-1.428127,1.63114,0.8554,0.58558,0.25799
1700767275492187,-9.568203,-1.429127,1.64914,0.4754,0.65258,0.28899
1700767275500000,-9.586203,-1.431127,1.64214,0.0,0.62258,0.23999
1700767275507812,-9.595203,-1.433127,1.65314,0.8146,0.62258,0.22399
1700767275515625,-9.599203,-1.426127,1.66014,0.2246,0.64158,0.22299
1700767275523437,-9.592203,-1.424127,1.64414,0.6746,0.54558,0.23999
1700767275531250,-9.595203,-1.427127,1.64914,0.4746,0.63658,0.24099
1700767275539062,-9.583203,-1.431127,1.63114,0.5046,0.67058,0.23999
1700767275546875,-9.566203,-1.427127,1.63314,0.3454,0.63658,0.19299
1700767275554687,-9.564203,-1.414127,1.64014,0.6246,0.68358,0.24099
1700767275562500,-9.570203,-1.429127,1.65514,0.14746,0.67058,0.20799
1700767275570312,-9.581203,-1.433127,1.66914,0.6446,0.68458,0.20799
1700767275578125,-9.593203,-1.449127,1.68514,0.4446,0.68158,0.19399
1700767275585937,-9.588203,-1.453127,1.69614,0.3454,0.66758,0.22499
1700767275593750,-9.583203,-1.456127,1.69614,0.1754,0.68358,0.24099
1700767275601562,-9.581203,-1.449127,1.69814,0.3254,0.66858,0.22399
1700767275609375,-9.584203,-1.434127,1.70514,0.5154,0.63458,0.22599
1700767275617187,-9.575203,-1.427127,1.70314,0.1854,0.68258,0.22499
1700767275625000,-9.566203,-1.396127,1.69414,0.1854,0.66658,0.22499
1700767275632812,-9.555203,-1.399127,1.68914,0.354,0.66558,0.24199
1700767275640625,-9.546203,-1.390127,1.69814,0.2946,0.71358,0.24099
1700767275648437,-9.559203,-1.387127,1.70114,0.1354,0.68558,0.23999
1700767275656250,-9.568203,-1.400127,1.69414,0.1446,0.69858,0.22499
1700767275664062,-9.577203,-1.413127,1.69114,0.4554,0.57658,0.23999
1700767275671875,-9.579203,-1.425127,1.69814,0.9546,0.68358,0.24099
1700767275679687,-9.565203,-1.440127,1.69114,0.4554,0.56158,0.22399
1700767275687500,-9.579203,-1.442127,1.70114,0.246,0.59258,0.23999
1700767275695312,-9.572203,-1.449127,1.68714,0.954,0.62558,0.22299
1700767275703125,-9.574203,-1.454127,1.69614,0.3046,0.60458,0.27299
1700767275710937,-9.577203,-1.440127,1.69214,0.9646,0.60558,0.30499
1700767275718750,-9.581203,-1.436127,1.69414,0.14346,0.55758,0.24099
1700767275726562,-9.590203,-1.435127,1.68214,0.13246,0.56158,0.28799
1700767275734375,-9.581203,-1.431127,1.69214,0.4946,0.62258,0.25599
1700767275742187,-9.572203,-1.433127,1.70014,0.2446,0.61158,0.25399
1700767275750000,-9.572203,-1.426127,1.69814,0.2446,0.59658,0.20599
1700767275757812,-9.550203,-1.427127,1.69414,0.5746,0.61158,0.25399
1700767275765625,-9.545203,-1.434127,1.69414,0.5346,0.59358,0.25499
1700767275773437,-9.543203,-1.432127,1.68014,0.1646,0.62258,0.20799
1700767275781250,-9.560203,-1.435127,1.68314,0.4346,0.58658,0.19399
1700767275789062,-9.575203,-1.434127,1.69814,0.454,0.53958,0.20999
1700767275796875,-9.581203,-1.431127,1.69414,0.3154,0.57558,0.19199
1700767275804687,-9.580203,-1.434127,1.66414,0.1146,0.55558,0.22599
1700767275812500,-9.591203,-1.427127,1.67114,0.1346,0.52558,0.20999
1700767275820312,-9.589203,-1.428127,1.66414,0.2154,0.49158,0.25899
1700767275828125,-9.586203,-1.429127,1.66014,0.1346,0.58858,0.22499
1700767275835937,-9.582203,-1.429127,1.66214,0.1446,0.54258,0.25699
1700767275843750,-9.589203,-1.409127,1.68914,0.3354,0.52658,0.25699
1700767275851562,-9.586203,-1.411127,1.68514,0.10146,0.65558,0.30299
1700767275859375,-9.582203,-1.423127,1.66914,0.154,0.54158,0.28899
1700767275867187,-9.568203,-1.418127,1.67114,0.1846,0.60758,0.23999
1700767275875000,-9.570203,-1.421127,1.68514,0.7946,0.58858,0.28899
1700767275882812,-9.575203,-1.420127,1.68714,0.13246,0.53058,0.25599
1700767275890625,-9.573203,-1.425127,1.69614,0.9546,0.48058,0.24099
1700767275898437,-9.568203,-1.431127,1.69414,0.4946,0.52958,0.20799
1700767275906250,-9.571203,-1.427127,1.68914,0.7846,0.47958,0.20899
1700767275914062,-9.581203,-1.413127,1.68214,0.4946,0.49758,0.23999
1700767275921875,-9.565203,-1.406127,1.68514,0.6046,0.50858,0.25799
1700767275929687,-9.571203,-1.399127,1.68314,0.2946,0.57258,0.27399
1700767275937500,-9.573203,-1.407127,1.68714,0.7946,0.55858,0.24099
1700767275945312,-9.579203,-1.415127,1.67814,0.10346,0.50158,0.17399
1700767275953125,-9.577203,-1.422127,1.67614,0.8446,0.51458,0.30399
1700767275960937,-9.573203,-1.420127,1.66714,0.4746,0.46458,0.25699
1700767275968750,-9.584203,-1.411127,1.65814,0.11246,0.51258,0.20899
1700767275976562,-9.582203,-1.414127,1.65514,0.11146,0.55858,0.22499
1700767275984375,-9.584203,-1.418127,1.64214,0.14346,0.51158,0.19299
1700767275992187,-9.577203,-1.413127,1.64614,0.17846,0.49858,0.22399
1700767276000000,-9.582203,-1.403127,1.63514,0.4446,0.52458,0.22599
1700767276007812,-9.584203,-1.403127,1.64914,0.1346,0.54158,0.25799
1700767276015625,-9.591203,-1.396127,1.64014,0.7746,0.58858,0.22599
1700767276023437,-9.607203,-1.398127,1.63114,0.11046,0.54158,0.22599
1700767276031250,-9.616203,-1.400127,1.62614,0.4646,0.57358,0.20899
1700767276039062,-9.620203,-1.404127,1.62414,0.11046,0.52558,0.25799
1700767276046875,-9.620203,-1.413127,1.60814,0.11146,0.52658,0.24099
1700767276054687,-9.606203,-1.420127,1.61214,0.6646,0.59058,0.28799
1700767276062500,-9.620203,-1.444127,1.61914,0.1446,0.54058,0.30599
1700767276070312,-9.597203,-1.440127,1.63714,0.14946,0.54558,0.33599
1700767276078125,-9.595203,-1.429127,1.62214,0.9746,0.54258,0.33699
1700767276085937,-9.586203,-1.425127,1.61714,0.6346,0.47958,0.27299
1700767276093750,-9.581203,-1.435127,1.61214,0.10046,0.45258,0.22399
1700767276101562,-9.586203,-1.411127,1.61914,0.3346,0.46658,0.20799
1700767276109375,-9.582203,-1.409127,1.62414,0.3246,0.44958,0.24099
1700767276117187,-9.586203,-1.403127,1.61514,0.7946,0.44958,0.19299
1700767276125000,-9.595203,-1.389127,1.61914,0.8046,0.46558,0.20899
1700767276132812,-9.598203,-1.383127,1.63314,0.454,0.50858,0.25799
1700767276140625,-9.605203,-1.383127,1.62814,0.10946,0.47858,0.24199
1700767276148437,-9.614203,-1.390127,1.62614,0.9246,0.49358,0.20999
1700767276156250,-9.634203,-1.411127,1.63514,0.9246,0.53958,0.22599
1700767276164062,-9.624203,-1.404127,1.62614,0.16746,0.46958,0.27099
1700767276171875,-9.616203,-1.403127,1.62214,0.12646,0.50958,0.25799
1700767276179687,-9.602203,-1.402127,1.62814,0.13046,0.57558,0.25599
1700767276187500,-9.582203,-1.407127,1.63514,0.12846,0.52758,0.27299
1700767276195312,-9.582203,-1.407127,1.63314,0.10946,0.54058,0.25799
1700767276203125,-9.572203,-1.404127,1.62814,0.18346,0.45358,0.25499
1700767276210937,-9.564203,-1.414127,1.64214,0.12646,0.46258,0.27399
1700767276218750,-9.573203,-1.428127,1.65514,0.17446,0.49358,0.27399
1700767276226562,-9.570203,-1.420127,1.65114,0.16246,0.56058,0.23999
1700767276234375,-9.572203,-1.427127,1.66014,0.16046,0.57458,0.22499
1700767276242187,-9.583203,-1.418127,1.66714,0.15046,0.56258,0.22299
1700767276250000,-9.590203,-1.442127,1.64214,0.17646,0.58958,0.25699
1700767276257812,-9.604203,-1.435127,1.64914,0.17946,0.49758,0.25599
1700767276265625,-9.613203,-1.433127,1.64614,0.12746,0.55858,0.20899
1700767276273437,-9.619203,-1.428127,1.64414,0.11646,0.62558,0.19099
1700767276281250,-9.622203,-1.413127,1.64414,0.14746,0.67058,0.20799
1700767276289062,-9.618203,-1.402127,1.64914,0.16146,0.60558,0.32099
1700767276296875,-9.618203,-1.397127,1.65114,0.17646,0.65258,0.24099
1700767276304687,-9.609203,-1.398127,1.65514,0.15746,0.63358,0.27399
1700767276312500,-9.602203,-1.397127,1.66214,0.16446,0.62358,0.25599
1700767276320312,-9.586203,-1.411127,1.66714,0.12946,0.65358,0.23999
1700767276328125,-9.581203,-1.416127,1.66914,0.11346,0.62258,0.23999
1700767276335937,-9.586203,-1.425127,1.66014,0.12646,0.65058,0.25799
1700767276343750,-9.582203,-1.430127,1.66014,0.9146,0.71158,0.20999
1700767276351562,-9.579203,-1.427127,1.67114,0.16146,0.70058,0.25699
1700767276359375,-9.566203,-1.429127,1.69814,0.1346,0.69758,0.24099
1700767276367187,-9.562203,-1.421127,1.69414,0.13946,0.71158,0.20999
1700767276375000,-9.550203,-1.418127,1.68514,0.9546,0.66758,0.24099
1700767276382812,-9.562203,-1.421127,1.67814,0.10646,0.60158,0.21099
1700767276390625,-9.564203,-1.414127,1.69214,0.6446,0.71558,0.24099
1700767276398437,-9.577203,-1.411127,1.68014,0.9846,0.71758,0.20799
1700767276406250,-9.568203,-1.404127,1.67114,0.6746,0.73458,0.17499
1700767276414062,-9.586203,-1.400127,1.66214,0.20346,0.65758,0.34999
1700767276421875,-9.568203,-1.404127,1.67114,0.16546,0.73358,0.27099
1700767276429687,-9.584203,-1.402127,1.67614,0.12846,0.65158,0.33699
1700767276437500,-9.582203,-1.401127,1.67614,0.10946,0.61758,0.30599
1700767276445312,-9.584203,-1.402127,1.67614,0.18146,0.59258,0.30399
1700767276453125,-9.581203,-1.399127,1.66014,0.17146,0.58158,0.23699
1700767276460937,-9.586203,-1.418127,1.64614,0.17946,0.52858,0.28799
1700767276468750,-9.583203,-1.417127,1.64414,0.16846,0.59458,0.28699
1700767276476562,-9.583203,-1.421127,1.66014,0.18946,0.61458,0.23699
1700767276484375,-9.597203,-1.435127,1.66214,0.16846,0.59458,0.30299
1700767276492187,-9.594203,-1.435127,1.66414,0.16546,0.56058,0.31999
1700767276500000,-9.590203,-1.453127,1.66914,0.17746,0.55858,0.27299
1700767276507812,-9.583203,-1.451127,1.65814,0.16146,0.54358,0.27299
1700767276515625,-9.579203,-1.446127,1.63314,0.18146,0.57658,0.31999
1700767276523437,-9.579203,-1.453127,1.64014,0.16446,0.54558,0.23999
1700767276531250,-9.572203,-1.458127,1.65314,0.17646,0.59058,0.19299
1700767276539062,-9.572203,-1.454127,1.66014,0.12646,0.62058,0.22499
1700767276546875,-9.583203,-1.451127,1.65514,0.6546,0.57558,0.27199
1700767276554687,-9.582203,-1.450127,1.65114,0.5946,0.55558,0.17799
1700767276562500,-9.584203,-1.434127,1.63314,0.1346,0.58858,0.22499
1700767276570312,-9.586203,-1.433127,1.64614,0.1446,0.62158,0.22499
1700767276578125,-9.583203,-1.431127,1.64914,0.3446,0.56158,0.19199
1700767276585937,-9.586203,-1.417127,1.63014,0.2046,0.56258,0.20699
1700767276593750,-9.581203,-1.411127,1.63514,0.9554,0.48158,0.25599
1700767276601562,-9.589203,-1.418127,1.63514,0.3354,0.50958,0.30599
1700767276609375,-9.577203,-1.407127,1.64414,0.1454,0.52858,0.23999
1700767276617187,-9.561203,-1.411127,1.65114,0.4354,0.54658,0.22299
1700767276625000,-9.560203,-1.392127,1.65514,0.8454,0.57158,0.24199
1700767276632812,-9.568203,-1.385127,1.67314,0.9554,0.48158,0.23999
1700767276640625,-9.584203,-1.380127,1.66214,0.8254,0.54258,0.22499
1700767276648437,-9.600203,-1.391127,1.66014,0.3154,0.49758,0.19199
1700767276656250,-9.609203,-1.388127,1.62814,0.7754,0.51458,0.22399
1700767276664062,-9.618203,-1.391127,1.62214,0.3354,0.46458,0.24099
1700767276671875,-9.620203,-1.397127,1.61014,0.2854,0.48358,0.25599
1700767276679687,-9.613203,-1.411127,1.64214,0.4954,0.46458,0.20899
1700767276687500,-9.591203,-1.422127,1.66714,0.154,0.51058,0.25699
1700767276695312,-9.582203,-1.414127,1.65814,0.1346,0.58858,0.22499
1700767276703125,-9.568203,-1.400127,1.63514,0.1546,0.55858,0.22499
1700767276710937,-9.571203,-1.396127,1.63514,0.9954,0.55758,0.19299
1700767276718750,-9.573203,-1.378127,1.64614,0.5054,0.51158,0.20899
1700767276726562,-9.578203,-1.365127,1.66014,0.3354,0.55858,0.19299
1700767276734375,-9.584203,-1.362127,1.66414,0.4354,0.53158,0.20699
1700767276742187,-9.582203,-1.379127,1.67614,0.5154,0.54158,0.19399
1700767276750000,-9.592203,-1.370127,1.68314,0.354,0.57258,0.19399
1700767276757812,-9.582203,-1.383127,1.66914,0.1754,0.57458,0.20899
1700767276765625,-9.582203,-1.389127,1.66714,0.3354,0.57458,0.19299
1700767276773437,-9.585203,-1.388127,1.66414,0.3854,0.61658,0.21099
1700767276781250,-9.589203,-1.398127,1.67614,0.7946,0.57458,0.22499
1700767276789062,-9.586203,-1.400127,1.66414,0.8346,0.57658,0.25599
1700767276796875,-9.591203,-1.405127,1.67114,0.154,0.60358,0.30499
1700767276804687,-9.584203,-1.402127,1.68514,0.3146,0.60558,0.28899
1700767276812500,-9.586203,-1.400127,1.68214,0.1254,0.62258,0.35199
1700767276820312,-9.581203,-1.411127,1.66214,0.546,0.49958,0.27099
1700767276828125,-9.582203,-1.414127,1.66014,0.2946,0.57258,0.24199
1700767276835937,-9.583203,-1.417127,1.66414,0.4154,0.57858,0.28699
1700767276843750,-9.577203,-1.411127,1.66414,0.3246,0.63858,0.19199
1700767276851562,-9.569203,-1.414127,1.66214,0.2946,0.61858,0.27399
1700767276859375,-9.557203,-1.419127,1.68714,0.4546,0.65058,0.27399
1700767276867187,-9.561203,-1.403127,1.66714,0.4754,0.65258,0.27299
1700767276875000,-9.569203,-1.397127,1.67314,0.3554,0.58658,0.25799
1700767276882812,-9.576203,-1.399127,1.66414,0.8454,0.54058,0.24199
1700767276890625,-9.583203,-1.394127,1.64914,0.8454,0.50758,0.27399
1700767276898437,-9.587203,-1.387127,1.66414,0.5054,0.58858,0.22499
1700767276906250,-9.587203,-1.385127,1.66714,0.154,0.48058,0.19299
1700767276914062,-9.589203,-1.394127,1.67814,0.8454,0.61758,0.25799
1700767276921875,-9.594203,-1.387127,1.65814,0.3554,0.51058,0.20999
1700767276929687,-9.594203,-1.389127,1.64914,0.8254,0.49458,0.25799
1700767276937500,-9.595203,-1.398127,1.66014,0.6354,0.59058,0.25599
1700767276945312,-9.591203,-1.398127,1.67814,0.8154,0.52758,0.24099
1700767276953125,-9.579203,-1.402127,1.67814,0.3154,0.54458,0.20799
1700767276960937,-9.587203,-1.396127,1.67414,0.9446,0.46358,0.25799
1700767276968750,-9.584203,-1.407127,1.67614,0.14946,0.52958,0.30399
1700767276976562,-9.573203,-1.392127,1.67614,0.4954,0.55858,0.25699
1700767276984375,-9.582203,-1.382127,1.66914,0.4946,0.57558,0.22399
1700767276992187,-9.582203,-1.396127,1.67114,0.4446,0.60258,0.24199
1700767277000000,-9.588203,-1.398127,1.68714,0.9654,0.62258,0.22399
1700767277007812,-9.589203,-1.385127,1.68314,0.3454,0.57358,0.19299
1700767277015625,-9.584203,-1.387127,1.67414,0.6246,0.48058,0.20899
1700767277023437,-9.582203,-1.385127,1.66014,0.4854,0.49658,0.25699
1700767277031250,-9.590203,-1.379127,1.65314,0.4246,0.58558,0.21099
1700767277039062,-9.584203,-1.396127,1.66014,0.2946,0.49458,0.19299
1700767277046875,-9.593203,-1.391127,1.66414,0.9446,0.55858,0.20899
1700767277054687,-9.600203,-1.384127,1.67314,0.9946,0.62358,0.25599
1700767277062500,-9.595203,-1.398127,1.65814,0.8146,0.52858,0.22399
1700767277070312,-9.602203,-1.395127,1.64914,0.16646,0.56258,0.25499
1700767277078125,-9.582203,-1.396127,1.65114,0.14246,0.54158,0.22599
1700767277085937,-9.582203,-1.398127,1.66014,0.6246,0.46358,0.22499
1700767277093750,-9.581203,-1.409127,1.66414,0.1846,0.60858,0.20799
1700767277101562,-9.582203,-1.400127,1.66214,0.14846,0.53058,0.20799
1700767277109375,-9.571203,-1.399127,1.66414,0.1146,0.46158,0.22599
1700767277117187,-9.580203,-1.396127,1.66214,0.4546,0.44758,0.22599
1700767277125000,-9.587203,-1.407127,1.65114,0.2946,0.46258,0.27399
1700767277132812,-9.587203,-1.394127,1.65314,0.3354,0.51058,0.25699
1700767277140625,-9.582203,-1.385127,1.65814,0.3454,0.49458,0.27399
1700767277148437,-9.575203,-1.375127,1.65814,0.5554,0.45858,0.19499
1700767277156250,-9.593203,-1.373127,1.67414,0.4954,0.54258,0.24099
1700767277164062,-9.589203,-1.369127,1.66914,0.4854,0.51158,0.24099
1700767277171875,-9.596203,-1.371127,1.65514,0.4654,0.54358,0.28799
1700767277179687,-9.591203,-1.367127,1.65114,0.4754,0.54458,0.23999
1700767277187500,-9.600203,-1.362127,1.64014,0.3254,0.49658,0.22499
1700767277195312,-9.600203,-1.351127,1.64014,0.7554,0.53058,0.25499
1700767277203125,-9.596203,-1.352127,1.63114,0.6754,0.47958,0.20999
1700767277210937,-9.582203,-1.358127,1.63714,0.154,0.52758,0.17699
1700767277218750,-9.600203,-1.356127,1.63114,0.4946,0.45158,0.20799
1700767277226562,-9.599203,-1.352127,1.62614,0.3654,0.46158,0.24199
1700767277234375,-9.603203,-1.363127,1.62614,0.6654,0.44758,0.22499
1700767277242187,-9.607203,-1.360127,1.63114,0.3446,0.46658,0.23999
1700767277250000,-9.606203,-1.352127,1.62814,0.8654,0.47658,0.19399
1700767277257812,-9.607203,-1.347127,1.64014,0.1546,0.51158,0.24099
1700767277265625,-9.612203,-1.349127,1.65314,0.16046,0.52858,0.19299
1700767277273437,-9.623203,-1.358127,1.65114,0.12646,0.55658,0.24199
1700767277281250,-9.627203,-1.362127,1.63514,0.4646,0.54258,0.20899
1700767277289062,-9.641203,-1.364127,1.64214,0.1954,0.54158,0.20999
1700767277296875,-9.629203,-1.384127,1.63714,0.3046,0.52658,0.25699
1700767277304687,-9.626203,-1.395127,1.63314,0.9946,0.51458,0.20799
1700767277312500,-9.616203,-1.393127,1.62814,0.6146,0.60458,0.19299
1700767277320312,-9.600203,-1.393127,1.64014,0.6346,0.58958,0.22499
1700767277328125,-9.577203,-1.396127,1.64014,0.11146,0.60558,0.20899
1700767277335937,-9.557203,-1.394127,1.63514,0.11446,0.54458,0.23999
1700767277343750,-9.544203,-1.383127,1.65314,0.3346,0.54458,0.22399
1700767277351562,-9.553203,-1.370127,1.65814,0.0,0.57558,0.23999
1700767277359375,-9.567203,-1.374127,1.65314,0.6246,0.49558,0.19299
1700767277367187,-9.571203,-1.371127,1.67314,0.3054,0.48158,0.25599
1700767277375000,-9.576203,-1.367127,1.66414,0.4846,0.48058,0.24099
1700767277382812,-9.594203,-1.378127,1.64014,0.15946,0.49458,0.25799
1700767277390625,-9.594203,-1.371127,1.64014,0.14346,0.46458,0.20899
1700767277398437,-9.597203,-1.370127,1.63514,0.13846,0.50858,0.14599
1700767277406250,-9.591203,-1.371127,1.61914,0.14646,0.51358,0.19199
1700767277414062,-9.586203,-1.382127,1.61514,0.16246,0.46758,0.19199
1700767277421875,-9.595203,-1.395127,1.62814,0.9946,0.59258,0.20799
1700767277429687,-9.589203,-1.391127,1.62614,0.11146,0.59058,0.17699
1700767277437500,-9.582203,-1.387127,1.63714,0.14246,0.54158,0.19399
1700767277445312,-9.602203,-1.387127,1.62414,0.17846,0.46758,0.20799
1700767277453125,-9.595203,-1.387127,1.62214,0.17846,0.45158,0.19199
1700767277460937,-9.586203,-1.400127,1.61214,0.16846,0.47058,0.18999
1700767277468750,-9.586203,-1.400127,1.65314,0.14446,0.45058,0.20899
1700767277476562,-9.579203,-1.400127,1.66914,0.16646,0.48558,0.19099
1700767277484375,-9.577203,-1.402127,1.66414,0.12946,0.57558,0.22399
