time,Acceleration X (m/s^2),Acceleration Y (m/s^2),Acceleration Z (m/s^2),Angular Velocity X (rad/s),Angular Velocity Y (rad/s),Angular Velocity Z (rad/s)
1694788351726562,-8.967464,2.455974,-0.155858,,,
1694788351734375,-9.90464,2.528974,0.73834,0.149358,0.49328,0.6592
1694788351742187,-9.171464,2.579974,0.77934,0.148058,0.61428,0.10052
1694788351750000,-9.172464,2.636974,0.77534,0.139558,0.52228,0.12702
1694788351757812,-9.166464,2.690974,0.74934,0.122358,0.56628,0.15372
1694788351765625,-9.174464,2.721974,0.74034,0.126258,0.57428,0.17422
1694788351781250,-9.262464,2.856974,0.73134,0.119558,0.50828,0.21952
1694788351789062,-9.392464,2.936974,0.71234,0.116258,0.48328,0.24132
1694788351796875,-9.520464,2.959974,0.71934,0.116958,0.36428,0.24752
1694788351804687,-9.583464,3.974,0.72334,0.103258,0.39728,0.25532
1694788351828125,-9.794464,3.98974,0.70734,0.97358,0.41728,0.20182
1694788351835937,-9.881464,3.110974,0.72834,0.89758,0.37828,0.17822
1694788351843750,-9.949464,3.129974,0.72334,0.92058,0.45528,0.15012
1694788351851562,-10.30464,3.128974,0.74134,0.95758,0.53228,0.12202
1694788351859375,-10.85464,3.100974,0.77534,0.91058,0.65028,0.8632
1694788351867187,-10.69464,3.55974,0.78734,0.93458,0.83628,0.3812
1694788351875000,-9.974464,3.13974,0.78034,0.93358,0.91728,0.42
1694788351882812,-9.831464,2.931974,0.78334,0.101558,0.94628,0.3708
1694788351890625,-9.612464,2.821974,0.78834,0.95858,0.114228,0.6018
1694788351898437,-9.437464,2.794974,0.75634,0.88658,0.124828,0.7108
1694788351906250,-9.342464,2.799974,0.77934,0.94958,0.121928,0.8678
1694788351914062,-9.298464,2.784974,0.79534,0.95658,0.135028,0.8038
1694788351921875,-9.244464,2.772974,0.79934,0.78158,0.136728,0.6938
1694788351929687,-9.172464,2.772974,0.79534,0.78758,0.139628,0.5348
1694788351937500,-9.91464,2.771974,0.79034,0.76858,0.130428,0.3328
1694788351945312,-9.38464,2.766974,0.79334,0.75258,0.131228,0.978
1694788351953125,-9.464,2.755974,0.80234,0.76058,0.119728,0.2602
1694788351960937,-8.941464,2.779974,0.79534,0.75958,0.111828,0.5412
1694788351968750,-8.960464,2.820974,0.79234,0.74658,0.104028,0.8702
1694788351976562,-9.33464,2.864974,0.79934,0.74058,0.96128,0.11822
1694788351984375,-9.124464,2.908974,0.81334,0.74058,0.90228,0.13842
1694788351992187,-9.226464,2.947974,0.80634,0.73958,0.71428,0.14422
1694788352000000,-9.288464,2.959974,0.78534,0.73458,0.54628,0.14552
1694788352007812,-9.354464,2.953974,0.76934,0.71758,0.36328,0.14202
1694788352015625,-9.390464,2.942974,0.74934,0.73258,0.18428,0.12442
1694788352023437,-9.443464,2.978974,0.73934,0.72058,0.772,0.9892
1694788352031250,-9.557464,2.992974,0.74634,0.76158,0.5072,0.7512
1694788352039062,-9.598464,2.961974,0.75634,0.74758,0.2272,0.4862
1694788352046875,-9.569464,2.948974,0.74934,0.76258,0.3728,0.2532
1694788352054687,-9.565464,2.917974,0.72434,0.90158,0.8028,0.1238
1694788352062500,-9.577464,2.869974,0.70834,0.110158,0.14328,0.5278
1694788352070312,-9.601464,2.836974,0.70334,0.122958,0.31528,0.6968
1694788352078125,-9.603464,2.825974,0.70334,0.120158,0.48728,0.7868
1694788352085937,-9.607464,2.817974,0.69034,0.125258,0.54328,0.9738
1694788352093750,-9.601464,2.811974,0.69734,0.126258,0.66128,0.9548
1694788352101562,-9.564464,2.786974,0.70634,0.120258,0.84328,0.8418
1694788352109375,-9.461464,2.759974,0.70434,0.112858,0.86928,0.6388
1694788352117187,-9.348464,2.740974,0.70634,0.114058,0.99928,0.4948
1694788352125000,-9.271464,2.718974,0.70434,0.99358,0.107228,0.1008
1694788352132812,-9.206464,2.708974,0.72434,0.97058,0.115928,0.2772
1694788352140625,-9.172464,2.727974,0.74034,0.82458,0.130028,0.6412
1694788352148437,-9.186464,2.770974,0.76334,0.83758,0.130028,0.10482
1694788352156250,-9.246464,2.824974,0.78334,0.73858,0.128928,0.14092
1694788352164062,-9.373464,2.925974,0.81134,0.74258,0.126028,0.16572
1694788352171875,-9.519464,3.7974,0.84734,0.73758,0.122028,0.18292
1694788352179687,-9.576464,3.37974,0.84434,0.72058,0.119928,0.19542
1694788352187500,-9.530464,3.23974,0.83534,0.61658,0.115028,0.19522
1694788352195312,-9.445464,2.997974,0.80834,0.53058,0.103528,0.19662
1694788352203125,-9.399464,3.3974,0.79034,0.48858,0.82528,0.17732
1694788352210937,-9.411464,3.34974,0.80834,0.46058,0.67528,0.17222
1694788352218750,-9.439464,3.45974,0.80834,0.27358,0.56828,0.15782
1694788352226562,-9.464464,3.64974,0.80534,0.17058,0.49028,0.14662
1694788352234375,-9.469464,3.111974,0.80134,0.15558,0.42628,0.13862
1694788352242187,-9.494464,3.158974,0.78534,0.8258,0.48328,0.12452
1694788352250000,-9.540464,3.188974,0.78234,0.8758,0.50228,0.11672
1694788352257812,-9.528464,3.165974,0.76634,0.14658,0.50628,0.10582
1694788352265625,-9.431464,3.155974,0.73734,0.11658,0.59528,0.9502
1694788352273437,-9.312464,3.184974,0.67834,0.25058,0.67728,0.8882
1694788352281250,-9.307464,3.203974,0.64634,0.24658,0.76428,0.8442
1694788352289062,-9.359464,3.215974,0.64834,0.27658,0.81328,0.8762
1694788352296875,-9.340464,3.229974,0.64434,0.35858,0.85628,0.9702
1694788352304687,-9.289464,3.261974,0.62534,0.38158,0.87228,0.10202
1694788352312500,-9.256464,3.264974,0.59834,0.45058,0.85528,0.10372
1694788352320312,-9.221464,3.255974,0.60034,0.49958,0.84928,0.11302
1694788352328125,-9.183464,3.264974,0.63034,0.48758,0.91328,0.11932
1694788352335937,-9.162464,3.286974,0.63034,0.50158,0.81228,0.12072
1694788352343750,-9.152464,3.306974,0.63734,0.48358,0.81328,0.11922
1694788352351562,-9.193464,3.311974,0.63734,0.51358,0.84528,0.12242
1694788352359375,-9.247464,3.325974,0.61434,0.65358,0.64528,0.10952
1694788352367187,-9.336464,3.344974,0.61134,0.74758,0.65328,0.8452
1694788352375000,-9.413464,3.365974,0.59834,0.75358,0.57328,0.7012
1694788352382812,-9.455464,3.352974,0.58634,0.75658,0.39828,0.4472
1694788352390625,-9.482464,3.338974,0.56634,0.83958,0.35328,0.2262
1694788352398437,-9.519464,3.288974,0.55734,0.89458,0.31328,0.238
1694788352406250,-9.543464,3.250974,0.55534,0.93258,0.25828,0.3698
1694788352414062,-9.528464,3.196974,0.53934,0.98958,0.28028,0.5748
1694788352421875,-9.471464,3.121974,0.52134,0.101958,0.35628,0.7758
1694788352429687,-9.464464,3.71974,0.51434,0.100458,0.33328,0.10268
1694788352437500,-9.463464,3.22974,0.50334,0.102558,0.37328,0.12298
1694788352445312,-9.472464,3.26974,0.52134,0.100958,0.42728,0.12918
1694788352453125,-9.511464,3.47974,0.53434,0.108758,0.57728,0.13038
1694788352460937,-9.537464,3.35974,0.54834,0.102058,0.67828,0.13188
1694788352468750,-9.519464,3.10974,0.56034,0.113758,0.84528,0.12978
1694788352476562,-9.476464,2.987974,0.56434,0.127458,0.109528,0.13068
1694788352484375,-9.441464,2.967974,0.59634,0.124858,0.112428,0.12138
1694788352492187,-9.403464,2.955974,0.61534,0.136558,0.140128,0.10178
1694788352500000,-9.364464,2.952974,0.63734,0.147158,0.146128,0.8748
1694788352507812,-9.335464,2.949974,0.69234,0.151358,0.160528,0.7148
1694788352515625,-9.313464,2.939974,0.74234,0.161358,0.171628,0.5538
1694788352523437,-9.297464,2.952974,0.77634,0.161358,0.176328,0.4588
1694788352531250,-9.272464,2.974974,0.81534,0.167058,0.188828,0.2358
1694788352539062,-9.267464,3.4974,0.87034,0.173658,0.197628,0.0
1694788352546875,-9.257464,3.34974,0.92634,0.172958,0.196928,0.2052
1694788352554687,-9.242464,3.65974,0.96334,0.173758,0.197828,0.4412
1694788352562500,-9.237464,3.95974,0.99934,0.172458,0.193828,0.5802
1694788352570312,-9.246464,3.108974,1.2934,0.187358,0.182828,0.7362
1694788352578125,-9.244464,3.117974,1.7034,0.196158,0.166928,0.8742
1694788352585937,-9.214464,3.90974,1.9034,0.197458,0.169728,0.10162
1694788352593750,-9.169464,3.84974,1.9934,0.192758,0.167728,0.11252
1694788352601562,-9.149464,3.81974,1.10634,0.192058,0.150928,0.11382
1694788352609375,-9.146464,3.85974,1.11534,0.197458,0.140728,0.11032
1694788352617187,-9.197464,3.99974,1.13134,0.196458,0.130928,0.10722
1694788352625000,-9.249464,3.122974,1.14234,0.195058,0.129528,0.10092
1694788352632812,-9.288464,3.148974,1.15434,0.196958,0.127828,0.9922
1694788352640625,-9.312464,3.148974,1.16334,0.191058,0.118028,0.9262
1694788352648437,-9.290464,3.141974,1.17234,0.181858,0.108528,0.8302
1694788352656250,-9.258464,3.118974,1.15434,0.175758,0.110528,0.7992
1694788352664062,-9.179464,3.83974,1.14734,0.170558,0.105828,0.7522
1694788352671875,-9.98464,3.55974,1.12034,0.173158,0.97328,0.7822
1694788352679687,-9.70464,3.53974,1.10434,0.163258,0.102628,0.7502
1694788352687500,-9.122464,3.67974,1.9234,0.160158,0.78928,0.7912
1694788352695312,-9.223464,3.117974,1.7634,0.143958,0.60828,0.8042
1694788352703125,-9.334464,3.132974,1.9034,0.137958,0.57528,0.8182
1694788352710937,-9.393464,3.148974,1.7634,0.124058,0.54028,0.9262
1694788352718750,-9.420464,3.169974,1.3334,0.112058,0.42828,0.8442
1694788352726562,-9.434464,3.194974,1.334,0.103058,0.43128,0.7972
1694788352734375,-9.473464,3.221974,0.99434,0.104258,0.42828,0.8912
1694788352742187,-9.484464,3.215974,0.97634,0.101758,0.44528,0.8742
1694788352750000,-9.457464,3.224974,0.92134,0.98658,0.39528,0.8732
1694788352757812,-9.439464,3.248974,0.90734,0.98758,0.43028,0.8272
1694788352765625,-9.430464,3.243974,0.89634,0.94158,0.36528,0.8102
1694788352773437,-9.432464,3.250974,0.90334,0.94258,0.35028,0.7622
1694788352781250,-9.430464,3.277974,0.91034,0.88358,0.45328,0.7322
1694788352789062,-9.428464,3.281974,0.91934,0.85158,0.43628,0.7482
1694788352796875,-9.401464,3.279974,0.92634,0.90058,0.50828,0.5932
1694788352804687,-9.380464,3.299974,0.90934,0.90858,0.53128,0.4852
1694788352812500,-9.388464,3.313974,0.91234,0.89958,0.58628,0.3602
1694788352820312,-9.368464,3.307974,0.90734,0.84258,0.54228,0.2012
1694788352828125,-9.349464,3.305974,0.89634,0.81658,0.53128,0.592
1694788352835937,-9.332464,3.290974,0.89134,0.84158,0.58628,0.158
1694788352843750,-9.300464,3.299974,0.87334,0.81758,0.52128,0.1128
1694788352851562,-9.279464,3.292974,0.88734,0.92358,0.58828,0.1418
1694788352859375,-9.266464,3.297974,0.88534,0.88058,0.57428,0.2058
1694788352867187,-9.252464,3.303974,0.89134,0.101958,0.62128,0.2038
1694788352875000,-9.251464,3.304974,0.90034,0.97758,0.62128,0.1238
1694788352882812,-9.207464,3.297974,0.91434,0.102758,0.78828,0.1358
1694788352890625,-9.159464,3.263974,0.92834,0.122458,0.84628,0.78
1694788352898437,-9.109464,3.254974,0.93734,0.122558,0.91128,0.562
1694788352906250,-9.51464,3.223974,0.94034,0.126258,0.97528,0.872
1694788352914062,-9.20464,3.190974,0.95834,0.123858,0.105928,0.1532
1694788352921875,-8.988464,3.167974,0.98734,0.130158,0.107528,0.1382
1694788352929687,-8.963464,3.172974,0.98134,0.144158,0.107128,0.1382
1694788352937500,-8.958464,3.159974,1.834,0.136758,0.105628,0.1062
1694788352945312,-8.958464,3.161974,1.2934,0.149358,0.110528,0.752
1694788352953125,-8.967464,3.179974,1.3534,0.147458,0.102128,0.1062
1694788352960937,-8.974464,3.170974,1.6534,0.150358,0.106828,0.1702
1694788352968750,-8.963464,3.178974,1.6534,0.136458,0.110328,0.2172
1694788352976562,-8.968464,3.187974,1.4934,0.142158,0.100228,0.2162
1694788352984375,-9.38464,3.195974,1.4934,0.134358,0.91628,0.2922
1694788352992187,-9.136464,3.227974,1.6734,0.120558,0.83428,0.3212
1694788353000000,-9.263464,3.260974,1.7634,0.123558,0.69628,0.3652
1694788353007812,-9.398464,3.320974,1.8534,0.115658,0.61328,0.4102
1694788353015625,-9.585464,3.377974,1.8334,0.103058,0.60028,0.3122
1694788353023437,-9.719464,3.387974,1.7834,0.98258,0.52128,0.2172
1694788353031250,-9.760464,3.351974,1.7534,0.99458,0.56228,0.622
1694788353039062,-9.753464,3.332974,1.3934,0.98958,0.56928,0.1588
1694788353046875,-9.771464,3.328974,1.1934,0.96058,0.61128,0.3458
1694788353054687,-9.800464,3.279974,1.3034,0.88558,0.60328,0.5188
1694788353062500,-9.754464,3.235974,1.2334,0.94758,0.67928,0.7518
1694788353070312,-9.671464,3.198974,1.1034,0.82458,0.73728,0.8758
1694788353078125,-9.581464,3.155974,1.1234,0.80158,0.82428,0.9698
1694788353085937,-9.492464,3.107974,1.2434,0.74258,0.95028,0.11238
1694788353093750,-9.381464,3.56974,1.3134,0.83258,0.106528,0.10888
1694788353101562,-9.260464,3.40974,1.3334,0.77758,0.111428,0.10578
1694788353109375,-9.176464,3.27974,1.3334,0.75758,0.114428,0.9468
1694788353117187,-9.135464,3.15974,1.7034,0.75458,0.125428,0.7408
1694788353125000,-9.108464,3.974,1.6734,0.72458,0.118128,0.5858
1694788353132812,-9.42464,2.999974,1.6734,0.66058,0.124728,0.5218
1694788353140625,-8.965464,3.18974,1.6134,0.59658,0.98828,0.3088
1694788353148437,-8.906464,3.38974,1.6534,0.50158,0.92828,0.288
1694788353156250,-8.884464,3.46974,1.7734,0.51258,0.85328,0.1742
1694788353164062,-8.885464,3.83974,1.7934,0.48758,0.72728,0.4072
1694788353171875,-8.894464,3.126974,1.7234,0.50058,0.56828,0.5922
1694788353179687,-8.924464,3.180974,1.7834,0.40658,0.54728,0.7642
1694788353187500,-8.975464,3.223974,1.6034,0.32658,0.33828,0.9782
1694788353195312,-9.58464,3.259974,1.6034,0.44958,0.17928,0.10692
1694788353203125,-9.157464,3.304974,1.4034,0.41458,0.5928,0.11762
1694788353210937,-9.230464,3.338974,1.1734,0.30458,0.7072,0.11262
1694788353218750,-9.260464,3.368974,0.99634,0.39858,0.18872,0.10612
1694788353226562,-9.306464,3.406974,0.97134,0.24358,0.26572,0.9812
1694788353234375,-9.372464,3.427974,0.95934,0.33458,0.30072,0.9652
1694788353242187,-9.403464,3.444974,0.93034,0.34158,0.31472,0.8692
1694788353250000,-9.411464,3.459974,0.89534,0.39958,0.25972,0.7472
1694788353257812,-9.401464,3.457974,0.85734,0.46858,0.18872,0.5912
1694788353265625,-9.396464,3.447974,0.83734,0.52158,0.20372,0.4802
1694788353273437,-9.394464,3.432974,0.81634,0.68458,0.4672,0.2982
1694788353281250,-9.433464,3.439974,0.80734,0.67258,0.772,0.1572
1694788353289062,-9.471464,3.438974,0.81134,0.75558,0.3028,0.148
1694788353296875,-9.451464,3.442974,0.79334,0.74258,0.19028,0.2148
1694788353304687,-9.412464,3.442974,0.79834,0.76158,0.38028,0.3518
1694788353312500,-9.380464,3.410974,0.78634,0.90158,0.50028,0.4898
1694788353320312,-9.353464,3.385974,0.78634,0.97558,0.50228,0.5518
1694788353328125,-9.317464,3.373974,0.78634,0.105358,0.55028,0.5498
1694788353335937,-9.270464,3.356974,0.79134,0.109158,0.56528,0.5668
1694788353343750,-9.234464,3.341974,0.79834,0.120758,0.61228,0.5168
1694788353351562,-9.207464,3.343974,0.81234,0.119058,0.69128,0.3738
1694788353359375,-9.211464,3.339974,0.81234,0.125358,0.68528,0.2648
1694788353367187,-9.252464,3.331974,0.82534,0.132858,0.62828,0.1398
1694788353375000,-9.286464,3.331974,0.81934,0.129358,0.62828,0.928
1694788353382812,-9.314464,3.335974,0.84634,0.133558,0.57628,0.768
1694788353390625,-9.350464,3.333974,0.84134,0.145658,0.57528,0.918
1694788353398437,-9.361464,3.316974,0.84834,0.149158,0.56128,0.2018
1694788353406250,-9.347464,3.293974,0.85734,0.147758,0.51328,0.2818
1694788353414062,-9.331464,3.283974,0.85134,0.157258,0.41228,0.3308
1694788353421875,-9.311464,3.261974,0.85534,0.156558,0.38628,0.4868
1694788353429687,-9.285464,3.221974,0.86234,0.161658,0.35228,0.5348
1694788353437500,-9.236464,3.170974,0.85534,0.165158,0.36928,0.5668
1694788353445312,-9.204464,3.127974,0.84934,0.164958,0.35328,0.5818
1694788353453125,-9.188464,3.86974,0.83734,0.166858,0.37628,0.7538
1694788353460937,-9.167464,3.32974,0.82834,0.163758,0.32628,0.7558
1694788353468750,-9.126464,2.987974,0.81034,0.160458,0.30928,0.7088
1694788353476562,-9.148464,2.983974,0.77634,0.149858,0.20928,0.6958
1694788353484375,-9.202464,2.966974,0.76234,0.148458,0.25828,0.6638
1694788353492187,-9.252464,2.967974,0.77834,0.140658,0.17228,0.5718
1694788353500000,-9.292464,2.975974,0.76334,0.125858,0.17428,0.5738
1694788353507812,-9.318464,2.986974,0.74034,0.122158,0.18928,0.4628
1694788353515625,-9.331464,2.975974,0.72434,0.123758,0.24828,0.2898
1694788353523437,-9.350464,3.4974,0.70834,0.108058,0.32828,0.848
1694788353531250,-9.380464,3.31974,0.70334,0.104458,0.25528,0.1022
1694788353539062,-9.426464,3.45974,0.71934,0.103958,0.32028,0.1822
1694788353546875,-9.459464,3.55974,0.71434,0.98058,0.34928,0.3072
1694788353554687,-9.481464,3.78974,0.70034,0.98658,0.42928,0.4522
1694788353562500,-9.501464,3.110974,0.71234,0.97258,0.44428,0.4992
1694788353570312,-9.537464,3.152974,0.72134,0.99458,0.46228,0.4352
1694788353578125,-9.575464,3.187974,0.73234,0.95658,0.53128,0.4542
1694788353585937,-9.581464,3.213974,0.74134,0.108958,0.56028,0.4372
1694788353593750,-9.563464,3.219974,0.74834,0.120758,0.55828,0.4542
1694788353601562,-9.498464,3.218974,0.74634,0.117858,0.61428,0.3302
1694788353609375,-9.446464,3.219974,0.73934,0.123958,0.54628,0.3142
1694788353617187,-9.434464,3.219974,0.75034,0.128658,0.59528,0.3302
1694788353625000,-9.401464,3.220974,0.75534,0.140358,0.60928,0.3482
1694788353632812,-9.344464,3.200974,0.74434,0.139258,0.57728,0.3002
1694788353640625,-9.289464,3.199974,0.76034,0.142458,0.52728,0.2512
1694788353648437,-9.259464,3.190974,0.76234,0.147058,0.52628,0.2522
1694788353656250,-9.251464,3.165974,0.74834,0.152358,0.49228,0.2842
1694788353664062,-9.241464,3.152974,0.73934,0.152858,0.47428,0.2832
1694788353671875,-9.234464,3.132974,0.74234,0.155958,0.42328,0.2822
1694788353679687,-9.236464,3.123974,0.73234,0.154458,0.52328,0.2992
1694788353687500,-9.247464,3.121974,0.73034,0.153358,0.42528,0.2182
1694788353695312,-9.258464,3.90974,0.72834,0.149958,0.45928,0.2352
1694788353703125,-9.256464,3.76974,0.71434,0.149658,0.51128,0.2372
1694788353710937,-9.243464,3.64974,0.70134,0.149458,0.49528,0.2212
1694788353718750,-9.247464,3.67974,0.68534,0.137258,0.57628,0.3472
1694788353726562,-9.249464,3.85974,0.68234,0.125258,0.61328,0.3312
1694788353734375,-9.282464,3.118974,0.68934,0.124658,0.66128,0.4122
1694788353742187,-9.361464,3.151974,0.70034,0.121958,0.81228,0.4452
1694788353750000,-9.395464,3.176974,0.70934,0.125458,0.87728,0.4462
1694788353757812,-9.427464,3.197974,0.73034,0.107258,0.94828,0.4622
1694788353765625,-9.446464,3.194974,0.74334,0.99258,0.110128,0.4812
1694788353773437,-9.385464,3.159974,0.76834,0.100158,0.115428,0.4532
1694788353781250,-9.278464,3.135974,0.76234,0.97158,0.127228,0.4712
1694788353789062,-9.205464,3.117974,0.76734,0.96558,0.122728,0.2962
1694788353796875,-9.226464,3.119974,0.78034,0.79558,0.116728,0.2152
1694788353804687,-9.277464,3.120974,0.81434,0.75458,0.117028,0.1362
1694788353812500,-9.312464,3.134974,0.84434,0.70858,0.114228,0.102
1694788353820312,-9.357464,3.155974,0.85534,0.63858,0.101528,0.1668
1694788353828125,-9.355464,3.157974,0.86434,0.57558,0.100528,0.2758
1694788353835937,-9.333464,3.155974,0.87834,0.60258,0.104728,0.4778
1694788353843750,-9.352464,3.137974,0.87634,0.65858,0.106428,0.5568
1694788353851562,-9.369464,3.130974,0.86234,0.56158,0.99928,0.5428
1694788353859375,-9.381464,3.116974,0.83934,0.63058,0.91328,0.5608
1694788353867187,-9.384464,3.106974,0.81934,0.51858,0.81428,0.5478
1694788353875000,-9.388464,3.93974,0.79434,0.50258,0.79928,0.5638
1694788353882812,-9.417464,3.96974,0.77634,0.46358,0.69628,0.5518
1694788353890625,-9.463464,3.125974,0.77634,0.45758,0.66028,0.4578
1694788353898437,-9.505464,3.122974,0.75734,0.47858,0.64228,0.4748
1694788353906250,-9.508464,3.135974,0.74834,0.53258,0.84128,0.3748
1694788353914062,-9.497464,3.159974,0.74834,0.53158,0.85128,0.2178
1694788353921875,-9.507464,3.157974,0.74334,0.52758,0.83428,0.1858
1694788353929687,-9.527464,3.166974,0.74334,0.57258,0.91528,0.1208
1694788353937500,-9.531464,3.180974,0.75734,0.63658,0.91328,0.1218
1694788353945312,-9.507464,3.193974,0.76934,0.57558,0.104628,0.408
1694788353953125,-9.480464,3.208974,0.77834,0.63758,0.104228,0.62
1694788353960937,-9.482464,3.221974,0.79434,0.75458,0.103828,0.702
1694788353968750,-9.476464,3.209974,0.82334,0.73358,0.112028,0.1672
1694788353976562,-9.457464,3.205974,0.83734,0.76858,0.115228,0.1672
1694788353984375,-9.418464,3.201974,0.82634,0.80558,0.114828,0.2132
1694788353992187,-9.356464,3.172974,0.84834,0.88358,0.120028,0.2022
1694788354000000,-9.278464,3.133974,0.85334,0.99358,0.121328,0.2182
1694788354007812,-9.182464,3.99974,0.86234,0.99758,0.117928,0.2012
1694788354015625,-9.119464,3.81974,0.85834,0.97558,0.121428,0.2182
1694788354023437,-9.91464,3.93974,0.84934,0.108658,0.109428,0.2002
1694788354031250,-9.78464,3.86974,0.86234,0.109758,0.115828,0.2962
1694788354039062,-9.37464,3.108974,0.87134,0.103758,0.120828,0.3282
1694788354046875,-9.47464,3.139974,0.89234,0.115758,0.116628,0.4692
1694788354054687,-9.47464,3.128974,0.91234,0.114058,0.121028,0.6422
1694788354062500,-8.992464,3.126974,0.87834,0.109558,0.125428,0.8152
1694788354070312,-8.913464,3.133974,0.84934,0.95358,0.120028,0.9852
1694788354078125,-8.918464,3.165974,0.85534,0.98058,0.110828,0.11882
1694788354085937,-8.962464,3.189974,0.87134,0.95558,0.98728,0.13122
1694788354093750,-8.984464,3.216974,0.89234,0.87958,0.96628,0.14522
1694788354101562,-9.14464,3.265974,0.88934,0.79658,0.84828,0.14472
1694788354109375,-9.53464,3.318974,0.89634,0.80958,0.79828,0.14462
1694788354117187,-9.124464,3.355974,0.91434,0.71658,0.85128,0.14472
1694788354125000,-9.196464,3.412974,0.91934,0.73958,0.80528,0.12882
1694788354132812,-9.315464,3.472974,0.92334,0.75858,0.84128,0.11942
1694788354140625,-9.422464,3.491974,0.92334,0.77058,0.81428,0.10382
1694788354148437,-9.443464,3.513974,0.91634,0.77258,0.68828,0.8162
1694788354156250,-9.452464,3.520974,0.90234,0.80658,0.74328,0.6922
1694788354164062,-9.443464,3.517974,0.90234,0.76158,0.70228,0.4712
1694788354171875,-9.466464,3.517974,0.89334,0.91758,0.79128,0.2702
1694788354179687,-9.471464,3.531974,0.88434,0.95258,0.83228,0.522
1694788354187500,-9.513464,3.539974,0.89534,0.97458,0.93928,0.1188
1694788354195312,-9.547464,3.557974,0.90434,0.105358,0.99328,0.2588
1694788354203125,-9.563464,3.537974,0.90734,0.111658,0.103428,0.4768
1694788354210937,-9.559464,3.525974,0.89334,0.117858,0.110528,0.5838
1694788354218750,-9.524464,3.496974,0.90234,0.125758,0.117228,0.6298
1694788354226562,-9.456464,3.445974,0.91134,0.126858,0.134228,0.6568
1694788354234375,-9.414464,3.415974,0.91934,0.125058,0.139528,0.7828
1694788354242187,-9.375464,3.390974,0.92834,0.133958,0.134228,0.7358
1694788354250000,-9.330464,3.367974,0.95534,0.135358,0.142128,0.6248
1694788354257812,-9.275464,3.337974,0.98534,0.136658,0.150728,0.6528
1694788354265625,-9.239464,3.323974,0.99834,0.141358,0.147328,0.6698
1694788354273437,-9.173464,3.275974,1.1234,0.145758,0.145428,0.6378
1694788354281250,-9.129464,3.250974,1.2434,0.125558,0.140428,0.5298
1694788354289062,-9.115464,3.234974,1.3334,0.128958,0.143728,0.5458
1694788354296875,-9.118464,3.240974,1.3034,0.123658,0.137128,0.5308
1694788354304687,-9.132464,3.240974,1.3934,0.122058,0.118728,0.5498
1694788354312500,-9.127464,3.234974,1.5334,0.116258,0.113728,0.5368
1694788354320312,-9.148464,3.229974,1.4434,0.108058,0.103628,0.5568
1694788354328125,-9.164464,3.213974,1.4734,0.105958,0.91928,0.5428
1694788354335937,-9.162464,3.206974,1.4434,0.97158,0.87528,0.6698
1694788354343750,-9.155464,3.198974,1.4734,0.94258,0.71028,0.7368
1694788354351562,-9.117464,3.178974,1.4034,0.82958,0.73028,0.7358
1694788354359375,-9.103464,3.136974,1.2434,0.93758,0.61128,0.7698
1694788354367187,-9.111464,3.112974,0.99734,0.86658,0.54628,0.8198
1694788354375000,-9.104464,3.90974,0.96934,0.78658,0.56528,0.8038
1694788354382812,-9.67464,3.56974,0.95834,0.77558,0.46828,0.9318
1694788354390625,-9.29464,3.48974,0.91734,0.75558,0.38528,0.9328
1694788354398437,-9.65464,3.78974,0.89934,0.75858,0.43228,0.8538
1694788354406250,-9.156464,3.98974,0.89734,0.77558,0.42828,0.7758
1694788354414062,-9.220464,3.112974,0.89234,0.72358,0.37328,0.6198
1694788354421875,-9.263464,3.129974,0.87834,0.73458,0.45628,0.5698
1694788354429687,-9.286464,3.148974,0.88534,0.73358,0.40428,0.5248
1694788354437500,-9.302464,3.193974,0.87834,0.74858,0.46628,0.3978
1694788354445312,-9.344464,3.224974,0.86934,0.76158,0.51028,0.2398
1694788354453125,-9.405464,3.252974,0.86234,0.77358,0.40728,0.1788
1694788354460937,-9.431464,3.263974,0.85534,0.93758,0.46928,0.1288
1694788354468750,-9.440464,3.283974,0.86934,0.99958,0.53228,0.488
1694788354476562,-9.460464,3.295974,0.86934,0.104858,0.60028,0.1098
1694788354484375,-9.495464,3.319974,0.87534,0.116858,0.60228,0.2188
1694788354492187,-9.558464,3.312974,0.89634,0.132558,0.58328,0.2658
1694788354500000,-9.594464,3.294974,0.93234,0.148258,0.64028,0.4988
1694788354507812,-9.580464,3.285974,0.94634,0.166558,0.62128,0.5448
1694788354515625,-9.534464,3.276974,0.94834,0.171658,0.65628,0.6228
1694788354523437,-9.464464,3.259974,0.97334,0.177658,0.73028,0.8078
1694788354531250,-9.386464,3.187974,1.834,0.194858,0.79528,0.8688
1694788354539062,-9.295464,3.157974,1.1534,0.209158,0.76328,0.9948
1694788354546875,-9.231464,3.116974,1.2234,0.219758,0.67628,0.9958
1694788354554687,-9.135464,3.59974,1.3634,0.228458,0.63628,0.8548
1694788354562500,-9.92464,3.9974,1.1534,0.232458,0.66828,0.8058
1694788354570312,-9.135464,2.978974,0.98534,0.239858,0.56128,0.6978
1694788354578125,-9.165464,2.935974,1.434,0.226558,0.55628,0.5428
1694788354585937,-9.121464,2.896974,1.1334,0.221758,0.61528,0.2918
1694788354593750,-9.122464,2.929974,0.99534,0.219458,0.48928,0.588
1694788354601562,-9.177464,2.939974,1.934,0.201758,0.49428,0.2832
1694788354609375,-9.233464,2.920974,1.3634,0.195658,0.49128,0.4582
1694788354617187,-9.217464,2.926974,1.2734,0.173958,0.50428,0.6762
1694788354625000,-9.181464,2.964974,0.97934,0.169658,0.48628,0.7062
1694788354632812,-9.226464,2.987974,0.96534,0.154258,0.31528,0.8422
1694788354640625,-9.314464,3.3974,0.96734,0.147458,0.10128,0.7922
1694788354648437,-9.411464,3.9974,0.99234,0.123458,0.12428,0.7592
1694788354656250,-9.489464,3.63974,0.99734,0.123058,0.5828,0.7422
1694788354664062,-9.551464,3.113974,0.99434,0.120058,0.13528,0.5252
1694788354671875,-9.592464,3.158974,0.99434,0.117358,0.20628,0.4472
1694788354679687,-9.615464,3.181974,0.99434,0.120958,0.26228,0.2762
1694788354687500,-9.628464,3.159974,0.97134,0.120058,0.28528,0.1032
1694788354695312,-9.614464,3.130974,0.94034,0.115758,0.41128,0.988
1694788354703125,-9.559464,3.101974,0.92434,0.116358,0.43328,0.2558
1694788354710937,-9.495464,3.57974,0.91934,0.102458,0.52428,0.3318
1694788354718750,-9.399464,3.18974,0.91734,0.101258,0.52828,0.4268
1694788354726562,-9.304464,2.984974,0.89734,0.101458,0.58128,0.5038
1694788354734375,-9.269464,2.954974,0.87934,0.99858,0.64828,0.4708
1694788354742187,-9.258464,2.911974,0.86334,0.98158,0.68128,0.4548
1694788354750000,-9.249464,2.891974,0.86734,0.88458,0.77928,0.2958
1694788354757812,-9.244464,2.893974,0.86134,0.77958,0.79428,0.2028
1694788354765625,-9.247464,2.911974,0.84934,0.77358,0.80428,0.22
1694788354773437,-9.272464,2.934974,0.85134,0.74358,0.83128,0.1592
1694788354781250,-9.294464,2.946974,0.85134,0.68158,0.71028,0.2812
1694788354789062,-9.345464,2.957974,0.87634,0.52158,0.79128,0.4552
1694788354796875,-9.374464,2.960974,0.87034,0.55758,0.80728,0.4392
1694788354804687,-9.376464,2.974974,0.84934,0.54358,0.77328,0.4542
1694788354812500,-9.381464,3.7974,0.84934,0.52458,0.85328,0.5812
1694788354820312,-9.375464,3.2974,0.86534,0.50358,0.75428,0.5642
1694788354828125,-9.341464,3.10974,0.86034,0.48958,0.73528,0.6262
1694788354835937,-9.347464,3.15974,0.84434,0.58258,0.73228,0.6262
1694788354843750,-9.402464,2.991974,0.84434,0.50458,0.74828,0.7052
1694788354851562,-9.456464,2.985974,0.84734,0.55158,0.65428,0.5152
1694788354859375,-9.486464,3.15974,0.84234,0.53658,0.57228,0.4662
1694788354867187,-9.511464,3.51974,0.85134,0.51058,0.57828,0.2932
1694788354875000,-9.529464,3.69974,0.87634,0.54358,0.63228,0.2002
1694788354882812,-9.481464,3.69974,0.88134,0.50558,0.63828,0.262
1694788354890625,-9.400464,3.63974,0.86534,0.62958,0.62228,0.668
1694788354898437,-9.268464,3.12974,0.84934,0.73558,0.69028,0.1268
1694788354906250,-9.146464,3.26974,0.79734,0.76558,0.70928,0.1888
1694788354914062,-9.105464,3.57974,0.77834,0.76558,0.67328,0.1278
1694788354921875,-9.165464,3.91974,0.80834,0.74758,0.63728,0.498
1694788354929687,-9.217464,3.130974,0.84234,0.86958,0.61428,0.292
1694788354937500,-9.240464,3.155974,0.84934,0.101758,0.68828,0.2202
1694788354945312,-9.230464,3.190974,0.84934,0.98358,0.66828,0.3292
1694788354953125,-9.244464,3.190974,0.85334,0.116358,0.57928,0.3762
1694788354960937,-9.223464,3.213974,0.87134,0.124458,0.64028,0.4552
1694788354968750,-9.193464,3.217974,0.86934,0.122558,0.60128,0.6112
1694788354976562,-9.188464,3.201974,0.86934,0.124058,0.71128,0.8022
1694788354984375,-9.189464,3.181974,0.86234,0.121858,0.75528,0.9922
1694788354992187,-9.218464,3.208974,0.84434,0.124958,0.82928,0.12122
1694788355000000,-9.307464,3.241974,0.83734,0.123158,0.72528,0.13042
1694788355007812,-9.413464,3.253974,0.85134,0.121658,0.77528,0.13212
1694788355015625,-9.472464,3.237974,0.87434,0.123558,0.59228,0.12532
1694788355023437,-9.496464,3.208974,0.82634,0.123958,0.62928,0.11442
1694788355031250,-9.526464,3.204974,0.81234,0.116258,0.56928,0.10172
1694788355039062,-9.546464,3.175974,0.81234,0.109058,0.63028,0.7832
1694788355046875,-9.546464,3.164974,0.78334,0.98358,0.60228,0.6882
1694788355054687,-9.571464,3.186974,0.77634,0.87658,0.59528,0.5152
1694788355062500,-9.680464,3.221974,0.80534,0.80358,0.58828,0.3102
1694788355070312,-9.735464,3.223974,0.84834,0.74158,0.59528,0.1692
1694788355078125,-9.716464,3.224974,0.85134,0.74958,0.73228,0.772
1694788355085937,-9.669464,3.206974,0.84834,0.79058,0.87028,0.32
1694788355093750,-9.607464,3.184974,0.85534,0.79858,0.100828,0.1048
1694788355101562,-9.528464,3.157974,0.86034,0.78558,0.110928,0.1028
1694788355109375,-9.446464,3.133974,0.84934,0.81558,0.119128,0.848
1694788355117187,-9.351464,3.98974,0.86734,0.73358,0.120928,0.368
1694788355125000,-9.254464,3.105974,0.86534,0.79358,0.137528,0.142
1694788355132812,-9.199464,3.116974,0.87634,0.76358,0.133628,0.1382
1694788355140625,-9.142464,3.94974,0.89534,0.78158,0.129628,0.2622
1694788355148437,-9.85464,3.104974,0.92234,0.77958,0.132928,0.3102
1694788355156250,-9.22464,3.112974,0.93534,0.77558,0.132528,0.4202
1694788355164062,-8.978464,3.110974,0.96534,0.78058,0.128928,0.4492
1694788355171875,-8.931464,3.122974,0.98834,0.80758,0.125228,0.5282
1694788355179687,-8.882464,3.136974,0.98334,0.76958,0.113228,0.6362
1694788355187500,-8.886464,3.155974,0.97434,0.87958,0.102528,0.6962
1694788355195312,-8.914464,3.177974,0.98534,0.99758,0.103828,0.7452
1694788355203125,-8.937464,3.204974,0.98834,0.88758,0.101828,0.9002
1694788355210937,-8.943464,3.249974,0.96234,0.92958,0.87828,0.10082
1694788355218750,-8.979464,3.294974,0.96234,0.82158,0.69228,0.10812
1694788355226562,-9.66464,3.276974,0.97434,0.95058,0.53628,0.11592
1694788355234375,-9.127464,3.262974,0.97134,0.82958,0.52128,0.11892
1694788355242187,-9.195464,3.307974,0.94234,0.71958,0.43728,0.12342
1694788355250000,-9.268464,3.362974,0.94234,0.74158,0.37328,0.11212
1694788355257812,-9.341464,3.401974,0.95734,0.77158,0.36028,0.10122
1694788355265625,-9.409464,3.410974,0.96234,0.75658,0.34928,0.8862
1694788355273437,-9.439464,3.438974,0.94634,0.86758,0.38428,0.7622
1694788355281250,-9.480464,3.459974,0.93434,0.93558,0.39028,0.5582
1694788355289062,-9.499464,3.454974,0.94334,0.99358,0.36528,0.3392
1694788355296875,-9.525464,3.441974,0.93934,0.101958,0.44228,0.582
1694788355304687,-9.527464,3.444974,0.93434,0.115958,0.43028,0.1608
1694788355312500,-9.512464,3.429974,0.94134,0.120558,0.52028,0.3148
1694788355320312,-9.462464,3.402974,0.93734,0.128358,0.55928,0.4858
1694788355328125,-9.415464,3.407974,0.94634,0.133858,0.57528,0.5498
1694788355335937,-9.386464,3.404974,0.94234,0.147658,0.64028,0.5628
1694788355343750,-9.357464,3.376974,0.95734,0.148758,0.77528,0.5438
1694788355351562,-9.311464,3.351974,0.97334,0.151958,0.79028,0.5278
1694788355359375,-9.268464,3.344974,0.98034,0.157858,0.80228,0.4168
1694788355367187,-9.203464,3.315974,0.99434,0.167258,0.84628,0.3218
1694788355375000,-9.171464,3.290974,0.99634,0.160858,0.79228,0.2138
1694788355382812,-9.145464,3.298974,0.99934,0.163458,0.85228,0.78
1694788355390625,-9.144464,3.292974,1.834,0.164958,0.66428,0.502
1694788355398437,-9.140464,3.296974,1.3734,0.165858,0.64128,0.2232
1694788355406250,-9.134464,3.295974,1.5134,0.165158,0.73928,0.3362
1694788355414062,-9.133464,3.307974,1.5334,0.164458,0.63128,0.4412
1694788355421875,-9.109464,3.331974,1.6734,0.160858,0.58228,0.4572
1694788355429687,-9.87464,3.298974,1.5434,0.159958,0.53028,0.4702
1694788355437500,-9.65464,3.273974,1.2634,0.159258,0.39628,0.4842
1694788355445312,-9.95464,3.281974,1.534,0.145158,0.23128,0.4802
1694788355453125,-9.147464,3.271974,1.1934,0.145258,0.8128,0.4302
1694788355460937,-9.177464,3.271974,1.1934,0.149558,0.3528,0.3202
1694788355468750,-9.204464,3.312974,1.1234,0.131958,0.1072,0.2692
1694788355476562,-9.251464,3.322974,1.1534,0.126158,0.1972,0.1122
1694788355484375,-9.248464,3.275974,0.99934,0.129558,0.1728,0.288
1694788355492187,-9.216464,3.255974,0.94934,0.123758,0.9128,0.1688
1694788355500000,-9.216464,3.241974,0.90534,0.125158,0.6028,0.2158
1694788355507812,-9.241464,3.221974,0.87134,0.123558,0.7928,0.2618
1694788355515625,-9.270464,3.218974,0.84634,0.124158,0.9528,0.2788
1694788355523437,-9.288464,3.221974,0.82834,0.101158,0.9828,0.2328
1694788355531250,-9.313464,3.217974,0.79434,0.101058,0.17928,0.1368
1694788355539062,-9.356464,3.212974,0.78534,0.88458,0.23028,0.738
1694788355546875,-9.400464,3.215974,0.78234,0.74558,0.36628,0.238
1694788355554687,-9.424464,3.209974,0.77634,0.74658,0.41328,0.552
1694788355562500,-9.415464,3.221974,0.77634,0.52258,0.38128,0.1142
1694788355570312,-9.413464,3.209974,0.77834,0.51858,0.54928,0.1502
1694788355578125,-9.399464,3.222974,0.77334,0.40058,0.62328,0.412
1694788355585937,-9.393464,3.257974,0.76034,0.30458,0.62728,0.102
1694788355593750,-9.423464,3.274974,0.76634,0.32258,0.62628,0.58
1694788355601562,-9.437464,3.298974,0.77834,0.33958,0.63028,0.998
1694788355609375,-9.441464,3.296974,0.78534,0.27658,0.64828,0.838
1694788355617187,-9.407464,3.303974,0.79434,0.27058,0.65028,0.1798
1694788355625000,-9.362464,3.324974,0.78534,0.26858,0.78728,0.2228
1694788355632812,-9.333464,3.330974,0.80734,0.27658,0.77128,0.2068
1694788355640625,-9.319464,3.335974,0.80734,0.31458,0.73428,0.1928
1694788355648437,-9.289464,3.340974,0.78734,0.31858,0.80328,0.1578
1694788355656250,-9.294464,3.346974,0.77734,0.28558,0.66928,0.1608
1694788355664062,-9.275464,3.336974,0.78034,0.38158,0.63128,0.1298
1694788355671875,-9.236464,3.299974,0.77534,0.48658,0.64328,0.668
1694788355679687,-9.168464,3.305974,0.75734,0.50058,0.67628,0.338
1694788355687500,-9.164464,3.346974,0.76634,0.68458,0.69928,0.1082
1694788355695312,-9.232464,3.348974,0.78234,0.74058,0.83028,0.2062
1694788355703125,-9.243464,3.315974,0.79134,0.74058,0.89528,0.2702
1694788355710937,-9.146464,3.293974,0.75934,0.82558,0.92128,0.4452
1694788355718750,-9.75464,3.290974,0.72134,0.88858,0.91928,0.4452
1694788355726562,-9.120464,3.276974,0.73934,0.86358,0.89928,0.4902
1694788355734375,-9.177464,3.287974,0.75734,0.85558,0.91528,0.5702
1694788355742187,-9.197464,3.287974,0.76634,0.94758,0.90928,0.6642
1694788355750000,-9.198464,3.321974,0.76634,0.86958,0.87528,0.7102
1694788355757812,-9.247464,3.356974,0.77734,0.80158,0.69328,0.6922
1694788355765625,-9.307464,3.365974,0.79334,0.83858,0.74228,0.6912
1694788355773437,-9.341464,3.365974,0.81434,0.86758,0.69028,0.7072
1694788355781250,-9.334464,3.372974,0.78434,0.73258,0.72928,0.6432
1694788355789062,-9.348464,3.405974,0.78034,0.80858,0.71328,0.5812
1694788355796875,-9.394464,3.417974,0.79834,0.77958,0.76728,0.5042
1694788355804687,-9.456464,3.437974,0.80934,0.73058,0.82228,0.4432
1694788355812500,-9.471464,3.440974,0.80734,0.75358,0.80628,0.3782
1694788355820312,-9.455464,3.413974,0.80934,0.76858,0.99328,0.3202
1694788355828125,-9.440464,3.405974,0.80934,0.74958,0.101828,0.1652
1694788355835937,-9.398464,3.397974,0.80034,0.74058,0.102028,0.852
1694788355843750,-9.321464,3.380974,0.80934,0.75658,0.102128,0.542
1694788355851562,-9.266464,3.331974,0.82134,0.76258,0.107628,0.868
1694788355859375,-9.202464,3.283974,0.84434,0.76658,0.108028,0.1968
1694788355867187,-9.145464,3.269974,0.84834,0.76558,0.118228,0.2098
1694788355875000,-9.60464,3.253974,0.86034,0.76758,0.117928,0.1638
1694788355882812,-9.31464,3.272974,0.88334,0.75258,0.112928,0.1488
1694788355890625,-9.59464,3.285974,0.89234,0.75958,0.105728,0.78
1694788355898437,-9.70464,3.284974,0.90534,0.71658,0.110628,0.392
1694788355906250,-9.55464,3.292974,0.92134,0.61958,0.110328,0.1802
1694788355914062,-9.30464,3.323974,0.92134,0.72658,0.101028,0.3352
1694788355921875,-9.38464,3.351974,0.91234,0.55258,0.106228,0.4302
1694788355929687,-9.64464,3.358974,0.90134,0.62158,0.95528,0.4892
1694788355937500,-9.69464,3.361974,0.91434,0.52058,0.93528,0.6622
1694788355945312,-9.115464,3.388974,0.89434,0.48758,0.75128,0.6432
1694788355953125,-9.186464,3.416974,0.85934,0.50058,0.59828,0.6862
1694788355960937,-9.265464,3.438974,0.88234,0.48658,0.58028,0.7012
1694788355968750,-9.298464,3.441974,0.88734,0.50758,0.49628,0.6672
1694788355976562,-9.326464,3.479974,0.85034,0.47658,0.52128,0.4962
1694788355984375,-9.408464,3.491974,0.84534,0.43058,0.49228,0.4012
1694788355992187,-9.471464,3.492974,0.85534,0.45058,0.51428,0.2442
1694788356000000,-9.508464,3.489974,0.84334,0.46258,0.55828,0.112
1694788356007812,-9.485464,3.483974,0.82334,0.47158,0.59828,0.1928
1694788356015625,-9.474464,3.456974,0.79134,0.47258,0.70728,0.3778
1694788356023437,-9.444464,3.410974,0.77534,0.45558,0.66328,0.5038
1694788356031250,-9.423464,3.400974,0.76434,0.49558,0.84828,0.5798
1694788356039062,-9.380464,3.370974,0.76134,0.52558,0.93628,0.6708
1694788356046875,-9.341464,3.363974,0.75534,0.51758,0.108928,0.7318
1694788356054687,-9.361464,3.384974,0.74834,0.54458,0.105128,0.6378
1694788356062500,-9.391464,3.336974,0.76834,0.52658,0.112328,0.7138
1694788356070312,-9.356464,3.326974,0.79134,0.51558,0.120128,0.5878
1694788356078125,-9.280464,3.308974,0.78234,0.53658,0.134928,0.5388
1694788356085937,-9.210464,3.277974,0.79834,0.51658,0.136828,0.5528
1694788356093750,-9.174464,3.292974,0.82134,0.53258,0.143128,0.4578
1694788356101562,-9.178464,3.313974,0.84234,0.58058,0.140728,0.3178
1694788356109375,-9.181464,3.310974,0.87634,0.63358,0.138428,0.1758
1694788356117187,-9.183464,3.337974,0.88534,0.74158,0.146328,0.958
1694788356125000,-9.247464,3.376974,0.90534,0.74258,0.124228,0.538
1694788356132812,-9.285464,3.379974,0.92134,0.75958,0.132228,0.922
1694788356140625,-9.248464,3.362974,0.92834,0.76258,0.130528,0.912
1694788356148437,-9.175464,3.359974,0.93234,0.77958,0.115428,0.402
1694788356156250,-9.131464,3.357974,0.91634,0.92358,0.120428,0.442
1694788356164062,-9.156464,3.357974,0.94634,0.95258,0.120328,0.602
1694788356171875,-9.185464,3.376974,0.96634,0.98958,0.98428,0.72
1694788356179687,-9.199464,3.371974,0.96034,0.100258,0.102028,0.378
1694788356187500,-9.207464,3.359974,0.94834,0.111158,0.86628,0.568
1694788356195312,-9.225464,3.334974,0.94434,0.117258,0.76928,0.1998
1694788356203125,-9.249464,3.297974,0.96034,0.123658,0.73828,0.2948
1694788356210937,-9.251464,3.261974,0.94634,0.123958,0.62328,0.3918
1694788356218750,-9.244464,3.257974,0.92334,0.122458,0.64528,0.5158
1694788356226562,-9.256464,3.232974,0.92634,0.116258,0.59828,0.5648
1694788356234375,-9.271464,3.201974,0.89934,0.110458,0.59828,0.5498
1694788356242187,-9.280464,3.177974,0.88534,0.102558,0.66928,0.5638
1694788356250000,-9.287464,3.187974,0.88934,0.106758,0.60128,0.5488
1694788356257812,-9.321464,3.190974,0.88034,0.94858,0.63528,0.5338
1694788356265625,-9.290464,3.141974,0.89034,0.85758,0.61328,0.3628
1694788356273437,-9.198464,3.92974,0.87834,0.75358,0.63328,0.3138
1694788356281250,-9.141464,3.110974,0.85134,0.76258,0.69428,0.2048
1694788356289062,-9.195464,3.136974,0.86934,0.73358,0.58928,0.1138
1694788356296875,-9.281464,3.157974,0.89634,0.54958,0.72628,0.648
1694788356304687,-9.316464,3.177974,0.92134,0.49658,0.77628,0.162
1694788356312500,-9.327464,3.195974,0.90534,0.51458,0.80628,0.632
1694788356320312,-9.352464,3.220974,0.91934,0.51758,0.85928,0.12
1694788356328125,-9.346464,3.225974,0.92434,0.51858,0.94528,0.438
1694788356335937,-9.318464,3.218974,0.92134,0.52258,0.96228,0.758
1694788356343750,-9.287464,3.217974,0.92334,0.51958,0.107028,0.2138
1694788356351562,-9.262464,3.228974,0.91734,0.52158,0.111728,0.1348
1694788356359375,-9.266464,3.246974,0.91734,0.50858,0.106828,0.1988
1694788356367187,-9.259464,3.258974,0.93034,0.52758,0.108528,0.2148
1694788356375000,-9.217464,3.263974,0.94634,0.50858,0.106828,0.1828
1694788356382812,-9.177464,3.287974,0.96734,0.61158,0.111628,0.1498
1694788356390625,-9.129464,3.313974,0.99934,0.78058,0.117828,0.1318
1694788356398437,-9.104464,3.338974,1.2434,0.73858,0.117328,0.78
1694788356406250,-9.121464,3.369974,1.3334,0.83858,0.113628,0.562
1694788356414062,-9.164464,3.385974,1.3534,0.105358,0.107628,0.1652
1694788356421875,-9.180464,3.405974,1.5534,0.97358,0.95828,0.2252
1694788356429687,-9.242464,3.444974,1.5334,0.103058,0.85528,0.2562
1694788356437500,-9.282464,3.425974,1.5534,0.124658,0.68328,0.2212
1694788356445312,-9.259464,3.382974,1.4034,0.120358,0.56428,0.2492
1694788356453125,-9.193464,3.372974,1.1234,0.124758,0.53128,0.2182
1694788356460937,-9.176464,3.382974,0.99634,0.122458,0.44828,0.2332
1694788356468750,-9.233464,3.394974,1.734,0.124158,0.36828,0.1212
1694788356476562,-9.302464,3.385974,0.99834,0.125958,0.21428,0.1642
1694788356484375,-9.329464,3.365974,0.99234,0.127758,0.11828,0.212
1694788356492187,-9.358464,3.364974,0.97134,0.132758,0.6928,0.738
1694788356500000,-9.419464,3.346974,0.95334,0.132558,0.15528,0.1028
1694788356507812,-9.439464,3.293974,0.94234,0.144958,0.12528,0.2598
1694788356515625,-9.384464,3.245974,0.90334,0.132758,0.16428,0.3218
1694788356523437,-9.337464,3.222974,0.86934,0.141958,0.9628,0.3698
1694788356531250,-9.345464,3.201974,0.85134,0.130058,0.25228,0.4308
1694788356539062,-9.356464,3.192974,0.82834,0.124058,0.28428,0.3518
1694788356546875,-9.331464,3.165974,0.84234,0.123858,0.31428,0.2578
1694788356554687,-9.281464,3.140974,0.83034,0.109858,0.58028,0.798
1694788356562500,-9.200464,3.136974,0.80534,0.100058,0.62928,0.312
1694788356570312,-9.170464,3.141974,0.80134,0.101958,0.67228,0.1882
1694788356578125,-9.208464,3.164974,0.81934,0.97358,0.61728,0.3122
1694788356585937,-9.286464,3.195974,0.83734,0.89058,0.61628,0.4222
1694788356593750,-9.324464,3.212974,0.84934,0.88158,0.71428,0.4542
1694788356601562,-9.314464,3.243974,0.85134,0.72258,0.74928,0.5492
1694788356609375,-9.278464,3.266974,0.85334,0.84158,0.78028,0.5672
1694788356617187,-9.233464,3.271974,0.87334,0.77158,0.89928,0.5522
1694788356625000,-9.188464,3.285974,0.86434,0.76558,0.87928,0.6622
1694788356632812,-9.149464,3.289974,0.88534,0.78158,0.85928,0.7082
1694788356640625,-9.137464,3.308974,0.88534,0.71558,0.84428,0.7242
1694788356648437,-9.144464,3.335974,0.89134,0.77558,0.69328,0.6902
1694788356656250,-9.194464,3.354974,0.90334,0.74658,0.75928,0.7382
1694788356664062,-9.245464,3.373974,0.91034,0.82758,0.65828,0.6572
1694788356671875,-9.304464,3.385974,0.91434,0.73558,0.62728,0.6562
1694788356679687,-9.341464,3.374974,0.89434,0.79658,0.67928,0.5802
1694788356687500,-9.309464,3.358974,0.87534,0.74958,0.56628,0.4832
1694788356695312,-9.269464,3.364974,0.85034,0.77858,0.50028,0.4512
1694788356703125,-9.250464,3.369974,0.82134,0.78358,0.46928,0.3552
1694788356710937,-9.282464,3.365974,0.82834,0.73858,0.30528,0.2732
1694788356718750,-9.302464,3.358974,0.81834,0.75258,0.35728,0.2272
1694788356726562,-9.311464,3.345974,0.81934,0.83258,0.34128,0.1492
1694788356734375,-9.288464,3.332974,0.81634,0.76058,0.47928,0.1042
1694788356742187,-9.212464,3.323974,0.81934,0.77158,0.55128,0.28
1694788356750000,-9.175464,3.332974,0.82634,0.82258,0.55028,0.198
1694788356757812,-9.180464,3.329974,0.83034,0.97058,0.59928,0.318
1694788356765625,-9.157464,3.279974,0.85534,0.98458,0.75228,0.748
1694788356773437,-9.95464,3.275974,0.84434,0.100758,0.78328,0.608
1694788356781250,-9.87464,3.321974,0.84634,0.96858,0.86828,0.98
1694788356789062,-9.140464,3.361974,0.86834,0.108558,0.90828,0.2112
1694788356796875,-9.180464,3.376974,0.89634,0.115258,0.105428,0.2762
1694788356804687,-9.173464,3.370974,0.91234,0.101458,0.98328,0.4462
1694788356812500,-9.159464,3.397974,0.89634,0.111258,0.86228,0.5092
1694788356820312,-9.156464,3.402974,0.88234,0.98958,0.94328,0.6502
1694788356828125,-9.179464,3.432974,0.90934,0.112958,0.87128,0.6802
1694788356835937,-9.210464,3.430974,0.92134,0.102258,0.68528,0.7382
1694788356843750,-9.256464,3.432974,0.93434,0.101658,0.75128,0.8192
1694788356851562,-9.274464,3.462974,0.93434,0.100258,0.69928,0.8332
1694788356859375,-9.318464,3.491974,0.91834,0.109358,0.70128,0.7562
1694788356867187,-9.356464,3.492974,0.92534,0.109658,0.70028,0.7552
1694788356875000,-9.392464,3.488974,0.93034,0.105458,0.60528,0.6112
1694788356882812,-9.422464,3.488974,0.90934,0.106658,0.48928,0.5782
1694788356890625,-9.406464,3.481974,0.89334,0.106758,0.47528,0.4992
1694788356898437,-9.360464,3.418974,0.87734,0.116058,0.44228,0.4362
1694788356906250,-9.291464,3.383974,0.83934,0.104458,0.43028,0.3562
1694788356914062,-9.260464,3.380974,0.80534,0.98258,0.37028,0.2142
1694788356921875,-9.273464,3.364974,0.79334,0.102958,0.33528,0.1972
1694788356929687,-9.273464,3.337974,0.79334,0.98358,0.33928,0.1342
1694788356937500,-9.268464,3.328974,0.77334,0.93558,0.24428,0.232
1694788356945312,-9.267464,3.309974,0.76234,0.75958,0.29828,0.62
1694788356953125,-9.281464,3.300974,0.74634,0.76158,0.28628,0.1198
1694788356960937,-9.288464,3.320974,0.74134,0.74758,0.30528,0.1818
1694788356968750,-9.290464,3.336974,0.72334,0.71858,0.37528,0.2438
1694788356976562,-9.320464,3.356974,0.70234,0.71758,0.32828,0.3068
1694788356984375,-9.309464,3.363974,0.70534,0.62658,0.36328,0.3068
1694788356992187,-9.289464,3.357974,0.70234,0.59058,0.31428,0.2918
1694788357000000,-9.257464,3.362974,0.68034,0.57758,0.34828,0.3068
1694788357007812,-9.194464,3.379974,0.64334,0.66858,0.37928,0.2738
1694788357015625,-9.180464,3.399974,0.65234,0.68658,0.36028,0.2598
1694788357023437,-9.201464,3.399974,0.67334,0.69758,0.37628,0.2118
1694788357031250,-9.259464,3.394974,0.66634,0.76158,0.36828,0.868
1694788357039062,-9.268464,3.374974,0.67334,0.74958,0.41628,0.238
1694788357046875,-9.249464,3.368974,0.65934,0.76658,0.43228,0.238
1694788357054687,-9.251464,3.357974,0.65734,0.74158,0.45328,0.678
1694788357062500,-9.250464,3.369974,0.66134,0.76158,0.48528,0.528
1694788357070312,-9.250464,3.376974,0.66134,0.76258,0.42128,0.1328
1694788357078125,-9.269464,3.387974,0.65034,0.76158,0.47128,0.1158
1694788357085937,-9.315464,3.411974,0.65734,0.75458,0.42328,0.1468
1694788357093750,-9.379464,3.439974,0.66134,0.75758,0.42528,0.2098
1694788357101562,-9.430464,3.427974,0.70034,0.76158,0.49228,0.2088
1694788357109375,-9.402464,3.409974,0.70234,0.74858,0.57628,0.2228
1694788357117187,-9.324464,3.398974,0.70434,0.77658,0.66228,0.2678
1694788357125000,-9.269464,3.375974,0.69534,0.86758,0.66328,0.3138
1694788357132812,-9.254464,3.344974,0.69634,0.93458,0.72928,0.3438
1694788357140625,-9.256464,3.311974,0.70534,0.89158,0.68328,0.4558
1694788357148437,-9.229464,3.290974,0.70034,0.82858,0.63828,0.5508
1694788357156250,-9.229464,3.277974,0.70734,0.84658,0.75528,0.5478
1694788357164062,-9.233464,3.286974,0.74634,0.97058,0.77028,0.5628
1694788357171875,-9.215464,3.300974,0.75534,0.91158,0.80428,0.5478
1694788357179687,-9.190464,3.322974,0.76434,0.95758,0.83728,0.5778
1694788357187500,-9.191464,3.314974,0.75734,0.101258,0.100528,0.5568
1694788357195312,-9.191464,3.278974,0.77534,0.99658,0.92128,0.5428
1694788357203125,-9.170464,3.278974,0.76634,0.101358,0.88628,0.5278
1694788357210937,-9.166464,3.267974,0.75734,0.99258,0.82828,0.3248
1694788357218750,-9.178464,3.268974,0.75334,0.101058,0.68828,0.2188
1694788357226562,-9.213464,3.282974,0.76434,0.85358,0.64928,0.18
1694788357234375,-9.242464,3.291974,0.78234,0.74858,0.64828,0.752
1694788357242187,-9.265464,3.324974,0.80534,0.78758,0.57728,0.1692
1694788357250000,-9.270464,3.335974,0.81434,0.75658,0.62728,0.2172
1694788357257812,-9.241464,3.319974,0.81234,0.82658,0.57128,0.3432
1694788357265625,-9.229464,3.335974,0.81034,0.89258,0.56728,0.3732
1694788357273437,-9.244464,3.332974,0.80934,0.80858,0.46728,0.4192
1694788357281250,-9.246464,3.332974,0.81934,0.93158,0.49728,0.4522
1694788357289062,-9.232464,3.330974,0.82334,0.91958,0.51428,0.4362
1694788357296875,-9.243464,3.337974,0.79334,0.99458,0.51228,0.4522
1694788357304687,-9.232464,3.330974,0.79134,0.97758,0.49628,0.4362
1694788357312500,-9.238464,3.326974,0.81034,0.93358,0.44428,0.4812
1694788357320312,-9.210464,3.336974,0.81434,0.95758,0.34228,0.5432
1694788357328125,-9.190464,3.329974,0.78634,0.97058,0.34328,0.5132
1694788357335937,-9.175464,3.330974,0.77834,0.81058,0.31228,0.4932
1694788357343750,-9.159464,3.336974,0.77534,0.83958,0.25728,0.5862
1694788357351562,-9.159464,3.339974,0.75534,0.88258,0.15028,0.7102
1694788357359375,-9.180464,3.363974,0.73734,0.74258,0.21928,0.7742
1694788357367187,-9.212464,3.384974,0.71434,0.82058,0.8228,0.7712
1694788357375000,-9.218464,3.435974,0.69834,0.81658,0.11628,0.7882
1694788357382812,-9.207464,3.450974,0.70034,0.85858,0.8228,0.7882
1694788357390625,-9.184464,3.448974,0.67934,0.89158,0.16228,0.8682
1694788357398437,-9.180464,3.492974,0.63834,0.98258,0.22528,0.9172
1694788357406250,-9.237464,3.548974,0.61334,0.95758,0.25728,0.9482
1694788357414062,-9.325464,3.584974,0.61534,0.97258,0.25828,0.9172
1694788357421875,-9.417464,3.625974,0.62234,0.97058,0.37828,0.8732
1694788357429687,-9.440464,3.654974,0.62634,0.103158,0.34228,0.9042
1694788357437500,-9.422464,3.663974,0.63334,0.103558,0.41428,0.7792
1694788357445312,-9.368464,3.671974,0.60634,0.114058,0.46728,0.6722
1694788357453125,-9.365464,3.696974,0.59934,0.125358,0.53228,0.6422
1694788357460937,-9.381464,3.701974,0.63334,0.122358,0.55028,0.6262
1694788357468750,-9.372464,3.694974,0.65834,0.125658,0.63728,0.5342
1694788357476562,-9.336464,3.680974,0.66334,0.134858,0.74028,0.4432
1694788357484375,-9.299464,3.663974,0.64334,0.147858,0.87328,0.3832
1694788357492187,-9.263464,3.638974,0.67034,0.142258,0.81228,0.3052
1694788357500000,-9.210464,3.600974,0.67234,0.150458,0.82928,0.2422
1694788357507812,-9.139464,3.565974,0.66634,0.146458,0.79728,0.1772
1694788357515625,-9.71464,3.539974,0.67734,0.148258,0.83628,0.372
1694788357523437,-9.21464,3.506974,0.68634,0.137058,0.86028,0.398
1694788357531250,-8.989464,3.477974,0.68634,0.145358,0.89228,0.868
1694788357539062,-8.971464,3.470974,0.67534,0.139958,0.69328,0.898
1694788357546875,-8.960464,3.463974,0.69134,0.126358,0.69928,0.1848
1694788357554687,-8.985464,3.467974,0.69134,0.126258,0.64828,0.1548
1694788357562500,-9.32464,3.486974,0.71434,0.123458,0.57828,0.938
1694788357570312,-9.21464,3.450974,0.71634,0.125758,0.57828,0.618
1694788357578125,-8.980464,3.465974,0.70434,0.118458,0.62928,0.618
1694788357585937,-9.28464,3.493974,0.67734,0.110758,0.56228,0.168
1694788357593750,-9.132464,3.510974,0.67734,0.107558,0.64328,0.792
1694788357601562,-9.235464,3.533974,0.70934,0.107458,0.54128,0.1082
1694788357609375,-9.287464,3.536974,0.72734,0.108958,0.50328,0.2012
1694788357617187,-9.288464,3.535974,0.72034,0.114258,0.65428,0.1572
1694788357625000,-9.303464,3.538974,0.70234,0.107058,0.69028,0.1912
1694788357632812,-9.325464,3.521974,0.70434,0.110358,0.65628,0.1742
1694788357640625,-9.307464,3.494974,0.72234,0.113758,0.75928,0.822
1694788357648437,-9.273464,3.466974,0.72534,0.105658,0.79628,0.22
1694788357656250,-9.238464,3.442974,0.72034,0.112658,0.73228,0.918
1694788357664062,-9.215464,3.408974,0.73934,0.102358,0.72128,0.1868
1694788357671875,-9.200464,3.402974,0.74134,0.99958,0.79028,0.2488
1694788357679687,-9.223464,3.407974,0.74834,0.110658,0.84328,0.3568
1694788357687500,-9.236464,3.423974,0.75934,0.109558,0.74428,0.4228
1694788357695312,-9.251464,3.438974,0.77734,0.101358,0.88328,0.4658
1694788357703125,-9.258464,3.433974,0.77034,0.114458,0.78028,0.4508
1694788357710937,-9.228464,3.433974,0.76434,0.107558,0.73028,0.4688
1694788357718750,-9.208464,3.410974,0.74834,0.100658,0.65928,0.3128
1694788357726562,-9.215464,3.428974,0.73434,0.100658,0.49028,0.2858
1694788357734375,-9.270464,3.480974,0.72534,0.98658,0.52028,0.1748
1694788357742187,-9.342464,3.486974,0.74134,0.100758,0.52928,0.188
1694788357750000,-9.384464,3.506974,0.71834,0.95258,0.51328,0.292
1694788357757812,-9.363464,3.524974,0.67934,0.101558,0.37528,0.572
1694788357765625,-9.321464,3.516974,0.69134,0.104258,0.40428,0.1682
1694788357773437,-9.346464,3.539974,0.67734,0.104558,0.50728,0.1232
1694788357781250,-9.411464,3.542974,0.66834,0.121158,0.41628,0.2002
1694788357789062,-9.434464,3.529974,0.68134,0.122758,0.50028,0.1872
1694788357796875,-9.402464,3.500974,0.68834,0.124058,0.43328,0.1862
1694788357804687,-9.317464,3.472974,0.67334,0.123058,0.48728,0.922
1694788357812500,-9.253464,3.458974,0.66434,0.117058,0.48528,0.1542
1694788357820312,-9.190464,3.435974,0.64834,0.122858,0.48728,0.922
1694788357828125,-9.178464,3.440974,0.63434,0.114158,0.35228,0.1192
1694788357835937,-9.179464,3.436974,0.61334,0.104158,0.42228,0.1532
1694788357843750,-9.183464,3.428974,0.60734,0.101458,0.28628,0.1652
1694788357851562,-9.192464,3.413974,0.59334,0.98358,0.31928,0.2122
1694788357859375,-9.132464,3.379974,0.58634,0.100158,0.35428,0.1662
1694788357867187,-9.97464,3.378974,0.56834,0.98458,0.35828,0.722
1694788357875000,-9.107464,3.366974,0.55734,0.100558,0.40928,0.412
1694788357882812,-9.103464,3.370974,0.55434,0.74558,0.45028,0.68
1694788357890625,-9.128464,3.381974,0.54134,0.88058,0.48328,0.508
1694788357898437,-9.169464,3.400974,0.53834,0.79558,0.57128,0.1298
1694788357906250,-9.202464,3.408974,0.53934,0.84858,0.60628,0.2238
1694788357914062,-9.251464,3.407974,0.54534,0.82458,0.64128,0.2058
1694788357921875,-9.239464,3.403974,0.53634,0.74858,0.67728,0.2208
1694788357929687,-9.224464,3.405974,0.53234,0.76458,0.71028,0.2048
1694788357937500,-9.233464,3.421974,0.52534,0.75058,0.71128,0.2208
1694788357945312,-9.246464,3.436974,0.53834,0.73358,0.74028,0.948
1694788357953125,-9.272464,3.442974,0.56134,0.69358,0.85728,0.118
1694788357960937,-9.290464,3.467974,0.58134,0.68158,0.92128,0.672
1694788357968750,-9.325464,3.479974,0.59734,0.64958,0.97028,0.1302
1694788357976562,-9.352464,3.493974,0.61134,0.63558,0.120428,0.1672
1694788357984375,-9.360464,3.491974,0.62734,0.67458,0.120528,0.872
1694788357992187,-9.374464,3.477974,0.62934,0.69958,0.118928,0.722
1694788358000000,-9.401464,3.469974,0.63634,0.72158,0.124528,0.838
1694788358007812,-9.440464,3.470974,0.67034,0.73658,0.123328,0.2088
1694788358015625,-9.448464,3.461974,0.70434,0.77558,0.129228,0.4748
1694788358023437,-9.405464,3.458974,0.73234,0.77858,0.136628,0.6458
1694788358031250,-9.344464,3.455974,0.73934,0.86958,0.140428,0.8008
1694788358039062,-9.298464,3.423974,0.74134,0.99558,0.147528,0.9708
1694788358046875,-9.220464,3.385974,0.78034,0.104758,0.147628,0.10498
1694788358054687,-9.136464,3.338974,0.79134,0.112258,0.149628,0.11428
1694788358062500,-9.58464,3.298974,0.77634,0.113958,0.135828,0.10988
1694788358070312,-9.24464,3.271974,0.78334,0.124558,0.137128,0.10508
1694788358078125,-8.992464,3.225974,0.79834,0.117958,0.120428,0.10228
1694788358085937,-8.971464,3.196974,0.79234,0.119358,0.116328,0.8518
1694788358093750,-8.996464,3.210974,0.78534,0.114458,0.97428,0.7308
1694788358101562,-9.67464,3.215974,0.77634,0.109658,0.90428,0.6228
1694788358109375,-9.159464,3.199974,0.79234,0.103258,0.71728,0.5638
1694788358117187,-9.191464,3.183974,0.77634,0.98058,0.56628,0.5038
1694788358125000,-9.244464,3.178974,0.74134,0.88258,0.51328,0.3798
1694788358132812,-9.298464,3.200974,0.72634,0.87258,0.44228,0.3198
1694788358140625,-9.375464,3.230974,0.73734,0.83958,0.34128,0.2898
1694788358148437,-9.449464,3.275974,0.71434,0.75958,0.27628,0.2918
1694788358156250,-9.507464,3.301974,0.70734,0.82458,0.37128,0.1798
1694788358164062,-9.500464,3.277974,0.69134,0.80758,0.46828,0.688
1694788358171875,-9.441464,3.264974,0.64834,0.88158,0.41628,0.528
1694788358179687,-9.427464,3.253974,0.60234,0.99058,0.43028,0.678
1694788358187500,-9.456464,3.252974,0.60334,0.93258,0.39728,0.538
1694788358195312,-9.510464,3.263974,0.60034,0.95658,0.41528,0.838
1694788358203125,-9.557464,3.279974,0.59834,0.95858,0.37028,0.2098
1694788358210937,-9.580464,3.279974,0.59334,0.91458,0.35728,0.2888
1694788358218750,-9.572464,3.258974,0.58234,0.90858,0.37928,0.4628
1694788358226562,-9.486464,3.217974,0.56634,0.80158,0.36828,0.5418
1694788358234375,-9.372464,3.211974,0.53734,0.75758,0.35628,0.6368
1694788358242187,-9.334464,3.219974,0.55734,0.77158,0.51128,0.7268
1694788358250000,-9.366464,3.230974,0.56434,0.89758,0.59628,0.8338
1694788358257812,-9.364464,3.225974,0.59134,0.97058,0.61128,0.8008
1694788358265625,-9.273464,3.211974,0.59634,0.89358,0.79528,0.7348
1694788358273437,-9.116464,3.198974,0.56634,0.95758,0.94128,0.6218
1694788358281250,-9.26464,3.200974,0.52334,0.103358,0.83428,0.5298
1694788358289062,-9.26464,3.191974,0.54434,0.98458,0.74628,0.4068
1694788358296875,-9.19464,3.179974,0.57134,0.98258,0.82428,0.2328
1694788358304687,-8.979464,3.194974,0.59434,0.92658,0.74428,0.1272
1694788358312500,-8.959464,3.216974,0.59834,0.93758,0.67228,0.2672
1694788358320312,-8.964464,3.258974,0.59634,0.100758,0.59528,0.4702
1694788358328125,-8.994464,3.291974,0.62134,0.97258,0.60628,0.6742
1694788358335937,-9.23464,3.321974,0.62134,0.98958,0.56728,0.7672
1694788358343750,-9.121464,3.349974,0.62534,0.97058,0.51028,0.9382
1694788358351562,-9.213464,3.367974,0.62934,0.108658,0.46028,0.9082
1694788358359375,-9.281464,3.388974,0.63434,0.119358,0.40528,0.9542
1694788358367187,-9.319464,3.392974,0.63234,0.122958,0.45428,0.9552
1694788358375000,-9.401464,3.406974,0.62534,0.121358,0.39028,0.8752
1694788358382812,-9.464464,3.405974,0.63234,0.123558,0.39728,0.6712
1694788358390625,-9.489464,3.382974,0.63234,0.124758,0.40128,0.5782
1694788358398437,-9.480464,3.362974,0.64134,0.121658,0.49428,0.4082
1694788358406250,-9.491464,3.346974,0.60634,0.131158,0.54928,0.2372
1694788358414062,-9.545464,3.343974,0.61634,0.140658,0.63828,0.512
1694788358421875,-9.558464,3.310974,0.63234,0.144458,0.65728,0.438
1694788358429687,-9.554464,3.298974,0.63634,0.135258,0.70128,0.2468
1694788358437500,-9.540464,3.310974,0.62734,0.143258,0.78528,0.3068
1694788358445312,-9.535464,3.306974,0.64534,0.149858,0.83328,0.2908
1694788358453125,-9.525464,3.286974,0.65234,0.139558,0.93528,0.2898
1694788358460937,-9.468464,3.274974,0.66234,0.139158,0.103028,0.1308
1694788358468750,-9.392464,3.269974,0.66634,0.126058,0.108328,0.658
1694788358476562,-9.329464,3.267974,0.67334,0.124558,0.114728,0.292
1694788358484375,-9.292464,3.257974,0.68434,0.139658,0.115128,0.2492
1694788358492187,-9.260464,3.258974,0.67834,0.150558,0.122628,0.4072
1694788358500000,-9.245464,3.261974,0.70034,0.137558,0.117628,0.5172
1694788358507812,-9.238464,3.272974,0.71634,0.141858,0.111928,0.6412
1694788358515625,-9.179464,3.259974,0.72334,0.125458,0.111928,0.7172
1694788358523437,-9.127464,3.262974,0.73734,0.132458,0.109928,0.7812
1694788358531250,-9.109464,3.282974,0.73734,0.126558,0.109628,0.8742
1694788358539062,-9.106464,3.287974,0.76034,0.128358,0.102428,0.9502
1694788358546875,-9.132464,3.307974,0.75734,0.124858,0.100928,0.9512
1694788358554687,-9.138464,3.305974,0.77134,0.122158,0.94128,0.9642
1694788358562500,-9.123464,3.284974,0.76434,0.124658,0.87728,0.9012
1694788358570312,-9.95464,3.266974,0.78034,0.118858,0.84328,0.9152
1694788358578125,-9.77464,3.236974,0.77534,0.110858,0.83428,0.7902
1694788358585937,-9.35464,3.255974,0.78034,0.104258,0.70328,0.6912
1694788358593750,-9.36464,3.255974,0.81034,0.101258,0.79328,0.5522
1694788358601562,-8.990464,3.263974,0.82334,0.106158,0.89728,0.4442
1694788358609375,-8.993464,3.317974,0.82334,0.115458,0.96228,0.4622
1694788358617187,-9.33464,3.373974,0.83734,0.122958,0.112828,0.4822
1694788358625000,-9.35464,3.386974,0.86434,0.122958,0.112928,0.4662
1694788358632812,-9.15464,3.403974,0.86234,0.119158,0.113828,0.7022
1694788358640625,-8.974464,3.408974,0.84834,0.120858,0.113228,0.8272
1694788358648437,-8.952464,3.404974,0.85934,0.124458,0.110628,0.10632
1694788358656250,-8.898464,3.408974,0.86934,0.110658,0.112028,0.12192
1694788358664062,-8.905464,3.455974,0.86234,0.118258,0.108328,0.12662
1694788358671875,-9.22464,3.539974,0.86634,0.115958,0.105828,0.15012
1694788358679687,-9.190464,3.613974,0.89834,0.100958,0.83928,0.15572
1694788358687500,-9.352464,3.682974,0.92334,0.102158,0.71828,0.16342
1694788358695312,-9.459464,3.739974,0.91334,0.91258,0.53428,0.16602
1694788358703125,-9.532464,3.760974,0.89334,0.89958,0.48628,0.16122
1694788358710937,-9.534464,3.740974,0.86834,0.86958,0.35828,0.14522
1694788358718750,-9.492464,3.720974,0.83834,0.78458,0.31228,0.13552
1694788358726562,-9.472464,3.718974,0.80034,0.79058,0.35428,0.11212
1694788358734375,-9.497464,3.720974,0.77934,0.86258,0.35628,0.10602
1694788358742187,-9.562464,3.714974,0.76134,0.77658,0.25028,0.8052
1694788358750000,-9.583464,3.671974,0.74934,0.88158,0.27428,0.5882
1694788358757812,-9.525464,3.622974,0.71534,0.92158,0.39628,0.4172
1694788358765625,-9.432464,3.594974,0.64934,0.81558,0.47228,0.2612
1694788358773437,-9.371464,3.576974,0.63634,0.82258,0.51628,0.48
1694788358781250,-9.361464,3.554974,0.63434,0.75258,0.60628,0.1448
1694788358789062,-9.398464,3.549974,0.62934,0.76458,0.62828,0.2528
1694788358796875,-9.409464,3.543974,0.63134,0.72158,0.81828,0.3598
1694788358804687,-9.384464,3.504974,0.63134,0.67358,0.83828,0.4058
1694788358812500,-9.231464,3.426974,0.63634,0.58358,0.95928,0.4348
1694788358820312,-9.47464,3.375974,0.61834,0.49658,0.96428,0.5308
1694788358828125,-8.911464,3.384974,0.57534,0.47858,0.110028,0.5268
1694788358835937,-8.916464,3.411974,0.55734,0.40058,0.101428,0.4508
1694788358843750,-8.980464,3.393974,0.58834,0.31758,0.94528,0.3418
1694788358851562,-9.35464,3.418974,0.60034,0.22458,0.91128,0.2648
1694788358859375,-9.43464,3.467974,0.60934,0.9358,0.80828,0.2068
1694788358867187,-9.45464,3.506974,0.60934,0.2358,0.75528,0.658
1694788358875000,-9.45464,3.533974,0.62034,0.2258,0.65528,0.678
1694788358882812,-9.65464,3.529974,0.62934,0.6958,0.63628,0.528
1694788358890625,-9.76464,3.527974,0.61334,0.11558,0.65128,0.368
1694788358898437,-9.67464,3.536974,0.59334,0.8658,0.60128,0.538
1694788358906250,-9.124464,3.552974,0.59534,0.5658,0.58828,0.1168
1694788358914062,-9.201464,3.556974,0.58634,0.13758,0.57128,0.1798
1694788358921875,-9.264464,3.557974,0.57234,0.19058,0.56028,0.3848
1694788358929687,-9.310464,3.564974,0.54534,0.18658,0.43328,0.5438
1694788358937500,-9.412464,3.592974,0.52034,0.26658,0.41828,0.6538
1694788358945312,-9.472464,3.589974,0.50634,0.33358,0.47228,0.8098
1694788358953125,-9.506464,3.569974,0.51134,0.32058,0.45928,0.9038
1694788358960937,-9.494464,3.552974,0.51834,0.41958,0.41328,0.10938
1694788358968750,-9.453464,3.527974,0.51134,0.49758,0.50228,0.12478
1694788358976562,-9.418464,3.480974,0.52734,0.62458,0.61828,0.12918
1694788358984375,-9.343464,3.405974,0.55934,0.77258,0.70128,0.13198
1694788358992187,-9.240464,3.355974,0.57134,0.77658,0.81828,0.13018
1694788359000000,-9.181464,3.331974,0.58234,0.86558,0.98528,0.13128
1694788359007812,-9.183464,3.340974,0.60934,0.95958,0.94728,0.12668
1694788359015625,-9.186464,3.342974,0.65934,0.107758,0.105928,0.11688
1694788359023437,-9.173464,3.351974,0.69634,0.113458,0.113728,0.10248
1694788359031250,-9.148464,3.366974,0.70334,0.120758,0.119528,0.8198
1694788359039062,-9.127464,3.364974,0.70534,0.126858,0.116828,0.6008
1694788359046875,-9.67464,3.351974,0.70534,0.133558,0.118028,0.4728
1694788359054687,-9.16464,3.340974,0.72134,0.141558,0.116928,0.2698
1694788359062500,-8.978464,3.352974,0.71834,0.147858,0.105628,0.432
1694788359070312,-9.5464,3.384974,0.72334,0.152758,0.96428,0.2632
1694788359078125,-9.60464,3.423974,0.73434,0.158358,0.87028,0.4152
1694788359085937,-9.130464,3.480974,0.74334,0.159958,0.85028,0.5432
1694788359093750,-9.217464,3.521974,0.76834,0.168558,0.81128,0.6692
1694788359101562,-9.296464,3.536974,0.78434,0.172058,0.82428,0.7002
1694788359109375,-9.346464,3.544974,0.78434,0.181458,0.76928,0.7462
1694788359117187,-9.332464,3.523974,0.77534,0.184658,0.85528,0.6852
1694788359125000,-9.281464,3.488974,0.74834,0.186758,0.73428,0.7282
1694788359132812,-9.264464,3.448974,0.73934,0.191358,0.78928,0.6042
1694788359140625,-9.269464,3.414974,0.72334,0.183758,0.59528,0.4272
1694788359148437,-9.280464,3.389974,0.72134,0.174658,0.60228,0.3172
1694788359156250,-9.298464,3.369974,0.72534,0.171458,0.52128,0.2532
1694788359164062,-9.316464,3.363974,0.71134,0.164358,0.51528,0.172
1694788359171875,-9.317464,3.357974,0.70734,0.154458,0.50428,0.1258
1694788359179687,-9.297464,3.335974,0.70934,0.151758,0.52928,0.3138
1694788359187500,-9.272464,3.329974,0.70234,0.134658,0.48828,0.4408
1694788359195312,-9.260464,3.324974,0.68034,0.124958,0.44128,0.5378
1694788359203125,-9.286464,3.327974,0.67534,0.122858,0.44428,0.5678
1694788359210937,-9.272464,3.302974,0.65534,0.105658,0.46528,0.5528
1694788359218750,-9.231464,3.297974,0.63234,0.101158,0.53428,0.5668
1694788359226562,-9.217464,3.296974,0.63234,0.100058,0.43228,0.5548
1694788359234375,-9.217464,3.305974,0.62334,0.97558,0.51528,0.5538
1694788359242187,-9.197464,3.322974,0.59834,0.78458,0.50128,0.4918
1694788359250000,-9.168464,3.335974,0.59634,0.75458,0.51528,0.3978
1694788359257812,-9.150464,3.362974,0.58734,0.77258,0.54528,0.3348
1694788359265625,-9.182464,3.378974,0.57034,0.75258,0.52428,0.2098
1694788359273437,-9.199464,3.384974,0.57334,0.75958,0.50428,0.988
1694788359281250,-9.225464,3.403974,0.56834,0.79458,0.50128,0.678
1694788359289062,-9.262464,3.437974,0.55934,0.74958,0.51728,0.218
1694788359296875,-9.301464,3.459974,0.57234,0.79158,0.55328,0.668
1694788359304687,-9.342464,3.474974,0.57734,0.76558,0.48428,0.378
1694788359312500,-9.401464,3.512974,0.55434,0.85558,0.54928,0.358
1694788359320312,-9.433464,3.524974,0.56334,0.100858,0.53228,0.978
1694788359328125,-9.432464,3.497974,0.57234,0.99858,0.56928,0.2068
1694788359335937,-9.417464,3.485974,0.57034,0.98058,0.60728,0.2838
1694788359343750,-9.385464,3.476974,0.57234,0.102858,0.59128,0.3468
1694788359351562,-9.366464,3.450974,0.57734,0.114258,0.69228,0.4238
1694788359359375,-9.338464,3.404974,0.59134,0.126158,0.69228,0.4848
1694788359367187,-9.297464,3.357974,0.61634,0.121858,0.86528,0.5758
1694788359375000,-9.260464,3.339974,0.61834,0.123458,0.79628,0.5458
1694788359382812,-9.217464,3.316974,0.62734,0.126358,0.84828,0.5908
1694788359390625,-9.190464,3.280974,0.64134,0.126458,0.86528,0.5908
1694788359398437,-9.185464,3.296974,0.65734,0.126958,0.89528,0.5448
1694788359406250,-9.144464,3.290974,0.68734,0.126458,0.89728,0.5438
1694788359414062,-9.70464,3.282974,0.69634,0.124458,0.94028,0.3378
1694788359421875,-9.17464,3.287974,0.68234,0.123358,0.85128,0.2478
1694788359429687,-8.981464,3.299974,0.69834,0.124058,0.77528,0.32
1694788359437500,-9.464,3.351974,0.70534,0.122058,0.81528,0.2862
1694788359445312,-9.58464,3.403974,0.70734,0.124558,0.75628,0.5052
1694788359453125,-9.110464,3.425974,0.72534,0.122458,0.66328,0.7382
1694788359460937,-9.124464,3.448974,0.73034,0.123758,0.62528,0.8472
1694788359468750,-9.138464,3.475974,0.71834,0.122158,0.62028,0.9722
1694788359476562,-9.172464,3.497974,0.71634,0.127558,0.44628,0.11112
1694788359484375,-9.218464,3.496974,0.72534,0.127558,0.49528,0.11592
1694788359492187,-9.253464,3.508974,0.72734,0.132858,0.39728,0.10962
1694788359500000,-9.284464,3.528974,0.72334,0.132058,0.39828,0.10482
1694788359507812,-9.325464,3.528974,0.72034,0.135158,0.38528,0.9382
1694788359515625,-9.344464,3.520974,0.73934,0.152858,0.31828,0.7802
1694788359523437,-9.333464,3.486974,0.72034,0.148258,0.35628,0.7022
1694788359531250,-9.299464,3.479974,0.69134,0.156258,0.46328,0.5162
1694788359539062,-9.299464,3.464974,0.68934,0.150358,0.48528,0.4072
1694788359546875,-9.296464,3.442974,0.67534,0.163058,0.45328,0.2652
1694788359554687,-9.305464,3.437974,0.67534,0.150958,0.52828,0.1562
1694788359562500,-9.307464,3.418974,0.65734,0.145258,0.51728,0.142
1694788359570312,-9.298464,3.415974,0.65734,0.139358,0.53928,0.798
1694788359578125,-9.282464,3.408974,0.65034,0.149958,0.70628,0.1068
1694788359585937,-9.262464,3.403974,0.65434,0.135758,0.66228,0.1548
1694788359593750,-9.252464,3.408974,0.63934,0.134758,0.67728,0.1398
1694788359601562,-9.273464,3.401974,0.62934,0.127958,0.62628,0.618
1694788359609375,-9.289464,3.405974,0.64534,0.123458,0.74528,0.598
1694788359617187,-9.322464,3.420974,0.63434,0.127358,0.72428,0.298
1694788359625000,-9.298464,3.426974,0.63234,0.117858,0.81028,0.32
1694788359632812,-9.284464,3.435974,0.62334,0.107258,0.83028,0.278
1694788359640625,-9.292464,3.434974,0.62934,0.103558,0.82928,0.512
1694788359648437,-9.257464,3.414974,0.63634,0.100858,0.69328,0.622
1694788359656250,-9.251464,3.418974,0.62534,0.98858,0.89128,0.2082
1694788359664062,-9.253464,3.430974,0.64534,0.100758,0.89128,0.1922
1694788359671875,-9.269464,3.423974,0.66434,0.86558,0.92828,0.2092
1694788359679687,-9.232464,3.423974,0.67534,0.82358,0.73828,0.2972
1694788359687500,-9.165464,3.428974,0.64834,0.77158,0.84328,0.2852
1694788359695312,-9.160464,3.420974,0.62034,0.74358,0.67428,0.2962
1694788359703125,-9.178464,3.426974,0.61634,0.72558,0.50628,0.2932
1694788359710937,-9.220464,3.439974,0.60934,0.58258,0.49328,0.2272
1694788359718750,-9.263464,3.459974,0.60934,0.48158,0.47828,0.2752
1694788359726562,-9.290464,3.486974,0.60734,0.46958,0.46528,0.1802
1694788359734375,-9.324464,3.518974,0.60034,0.38158,0.53328,0.1962
1694788359742187,-9.322464,3.524974,0.59734,0.43658,0.51528,0.2282
1694788359750000,-9.297464,3.520974,0.59534,0.47158,0.59828,0.2142
1694788359757812,-9.259464,3.499974,0.57234,0.46858,0.63328,0.1992
1694788359765625,-9.202464,3.475974,0.55234,0.55658,0.80128,0.1892
1694788359773437,-9.149464,3.482974,0.53834,0.56358,0.94928,0.2382
1694788359781250,-9.143464,3.484974,0.53134,0.55758,0.98328,0.2552
1694788359789062,-9.117464,3.471974,0.55434,0.65558,0.107728,0.3512
1694788359796875,-9.74464,3.488974,0.56634,0.77858,0.120628,0.4172
1694788359804687,-9.65464,3.525974,0.57034,0.72158,0.129028,0.5142
1694788359812500,-9.73464,3.530974,0.60034,0.79058,0.135228,0.5612
1694788359820312,-9.51464,3.518974,0.62234,0.78258,0.141428,0.7362
1694788359828125,-8.989464,3.525974,0.61834,0.87858,0.139328,0.7672
1694788359835937,-8.990464,3.553974,0.62534,0.93558,0.140628,0.8472
1694788359843750,-9.55464,3.604974,0.65934,0.96858,0.141728,0.9722
1694788359851562,-9.142464,3.629974,0.69834,0.96658,0.144528,0.11132
1694788359859375,-9.184464,3.655974,0.71834,0.92658,0.142828,0.11772
1694788359867187,-9.205464,3.685974,0.72234,0.97458,0.144428,0.11622
1694788359875000,-9.236464,3.701974,0.72934,0.98958,0.132728,0.11442
1694788359882812,-9.254464,3.729974,0.73834,0.96958,0.127728,0.10782
1694788359890625,-9.254464,3.734974,0.74534,0.112458,0.129628,0.9382
1694788359898437,-9.257464,3.719974,0.76334,0.125458,0.128128,0.8622
1694788359906250,-9.284464,3.724974,0.75434,0.122758,0.130628,0.6742
1694788359914062,-9.306464,3.711974,0.77534,0.123158,0.129528,0.5162
1694788359921875,-9.318464,3.695974,0.78634,0.135658,0.131828,0.2832
1694788359929687,-9.297464,3.684974,0.78634,0.139258,0.132728,0.322
1694788359937500,-9.290464,3.692974,0.78834,0.146158,0.131528,0.1568
1694788359945312,-9.296464,3.653974,0.81334,0.155258,0.140328,0.2948
1694788359953125,-9.266464,3.583974,0.84834,0.159958,0.140828,0.4518
1694788359960937,-9.186464,3.531974,0.84634,0.164558,0.149528,0.5278
1694788359968750,-9.61464,3.473974,0.82534,0.152158,0.144828,0.5448
1694788359976562,-9.4464,3.432974,0.82334,0.150558,0.141328,0.4988
1694788359984375,-9.37464,3.413974,0.82534,0.138558,0.139528,0.4378
1694788359992187,-9.99464,3.399974,0.85334,0.120558,0.124328,0.2678
1694788360000000,-9.151464,3.401974,0.86234,0.104058,0.115628,0.1298
1694788360007812,-9.158464,3.403974,0.87134,0.101058,0.117028,0.518
1694788360015625,-9.160464,3.431974,0.86234,0.92058,0.104628,0.1162
1694788360023437,-9.202464,3.455974,0.84334,0.75758,0.101528,0.1952
1694788360031250,-9.253464,3.465974,0.84634,0.76258,0.92628,0.2702
1694788360039062,-9.277464,3.469974,0.83434,0.72358,0.90928,0.3492
1694788360046875,-9.296464,3.498974,0.81634,0.73658,0.92728,0.3192
1694788360054687,-9.326464,3.495974,0.79534,0.75858,0.87628,0.2852
1694788360062500,-9.329464,3.493974,0.77534,0.74558,0.81428,0.1582
1694788360070312,-9.324464,3.499974,0.77034,0.62358,0.76728,0.1412
1694788360078125,-9.335464,3.511974,0.74534,0.56658,0.72428,0.488
1694788360085937,-9.363464,3.522974,0.74134,0.64058,0.72628,0.1108
1694788360093750,-9.406464,3.525974,0.72534,0.61358,0.59628,0.2398
1694788360101562,-9.435464,3.521974,0.72334,0.52658,0.56828,0.3508
1694788360109375,-9.429464,3.511974,0.71334,0.52258,0.67628,0.4888
1694788360117187,-9.410464,3.510974,0.70234,0.51558,0.64328,0.5378
1694788360125000,-9.363464,3.486974,0.70234,0.46658,0.81728,0.6278
1694788360132812,-9.303464,3.457974,0.69134,0.54458,0.90128,0.6728
1694788360140625,-9.233464,3.429974,0.69334,0.56258,0.93628,0.7348
1694788360148437,-9.171464,3.429974,0.68034,0.69058,0.98528,0.7808
1694788360156250,-9.165464,3.408974,0.70734,0.77458,0.112028,0.7918
1694788360164062,-9.114464,3.356974,0.74134,0.76158,0.132028,0.7408
1694788360171875,-8.996464,3.323974,0.74434,0.77458,0.138428,0.6608
1694788360179687,-8.894464,3.328974,0.73934,0.86458,0.149628,0.5478
1694788360187500,-8.849464,3.309974,0.74134,0.86058,0.144128,0.4228
1694788360195312,-8.824464,3.282974,0.78534,0.85658,0.145028,0.2188
1694788360203125,-8.801464,3.289974,0.81634,0.80558,0.138928,0.932
1694788360210937,-8.797464,3.333974,0.82534,0.84558,0.141328,0.3302
1694788360218750,-8.861464,3.394974,0.84434,0.96358,0.133128,0.6422
1694788360226562,-8.943464,3.445974,0.87834,0.85858,0.132428,0.8442
1694788360234375,-9.19464,3.506974,0.91634,0.86658,0.131528,0.10962
1694788360242187,-9.74464,3.531974,0.93034,0.99958,0.125828,0.12062
1694788360250000,-9.144464,3.575974,0.94334,0.98958,0.119128,0.11562
1694788360257812,-9.189464,3.609974,0.96234,0.115758,0.116828,0.12192
1694788360265625,-9.256464,3.628974,0.98234,0.122858,0.112428,0.10642
1694788360273437,-9.315464,3.666974,0.99134,0.135958,0.110928,0.9062
1694788360281250,-9.372464,3.686974,1.1634,0.147958,0.113028,0.7512
1694788360289062,-9.397464,3.683974,1.2534,0.159458,0.110228,0.5312
1694788360296875,-9.404464,3.698974,1.3934,0.165658,0.112728,0.2812
1694788360304687,-9.382464,3.695974,1.5434,0.188958,0.120328,0.448
1694788360312500,-9.319464,3.659974,1.6634,0.198958,0.118928,0.2178
1694788360320312,-9.253464,3.645974,1.6634,0.213058,0.121228,0.4518
1694788360328125,-9.228464,3.627974,1.7334,0.225458,0.128028,0.5438
1694788360335937,-9.247464,3.619974,1.9134,0.226458,0.119728,0.5288
1694788360343750,-9.278464,3.600974,1.10534,0.235558,0.111128,0.5298
1694788360351562,-9.246464,3.550974,1.13234,0.229358,0.104528,0.5478
1694788360359375,-9.179464,3.519974,1.13734,0.224058,0.100928,0.5028
1694788360367187,-9.116464,3.484974,1.11634,0.222858,0.90828,0.4408
1694788360375000,-9.93464,3.444974,1.11934,0.221658,0.70428,0.3988
1694788360382812,-9.108464,3.431974,1.12134,0.222958,0.56528,0.2918
1694788360390625,-9.151464,3.422974,1.13734,0.212058,0.46328,0.2168
1694788360398437,-9.187464,3.427974,1.11934,0.198258,0.44828,0.2018
1694788360406250,-9.237464,3.410974,1.10334,0.195258,0.38428,0.2508
1694788360414062,-9.256464,3.383974,1.10134,0.185458,0.27228,0.3148
1694788360421875,-9.284464,3.360974,1.8334,0.176058,0.29228,0.4118
1694788360429687,-9.296464,3.325974,1.5634,0.173358,0.22828,0.4918
1694788360437500,-9.296464,3.310974,1.4734,0.165858,0.21628,0.5718
1694788360445312,-9.279464,3.304974,1.1734,0.148158,0.15328,0.5568
1694788360453125,-9.297464,3.307974,0.97634,0.148658,0.10628,0.6518
1694788360460937,-9.342464,3.281974,0.94434,0.124458,0.6428,0.7488
1694788360468750,-9.330464,3.267974,0.92434,0.107658,0.228,0.7988
1694788360476562,-9.304464,3.252974,0.91234,0.94658,0.9028,0.7798
1694788360484375,-9.290464,3.247974,0.87534,0.82558,0.13228,0.9208
1694788360492187,-9.295464,3.263974,0.84634,0.73458,0.18128,0.8268
1694788360500000,-9.297464,3.277974,0.84634,0.73558,0.13028,0.8438
1694788360507812,-9.334464,3.311974,0.81634,0.58558,0.26728,0.8268
1694788360515625,-9.368464,3.354974,0.82134,0.61658,0.35028,0.8088
1694788360523437,-9.400464,3.361974,0.81834,0.55258,0.51828,0.7578
1694788360531250,-9.368464,3.365974,0.81634,0.69158,0.56328,0.6938
1694788360539062,-9.284464,3.339974,0.83234,0.73558,0.76228,0.6258
1694788360546875,-9.159464,3.295974,0.82834,0.68858,0.86228,0.5768
1694788360554687,-9.58464,3.269974,0.80534,0.71458,0.92728,0.5118
1694788360562500,-8.985464,3.221974,0.82134,0.68058,0.88628,0.2938
1694788360570312,-8.957464,3.194974,0.87134,0.69358,0.88128,0.1838
1694788360578125,-8.953464,3.207974,0.90334,0.67558,0.85828,0.118
1694788360585937,-8.932464,3.222974,0.93534,0.69058,0.82428,0.118
1694788360593750,-8.884464,3.207974,0.95834,0.70758,0.79928,0.1592
1694788360601562,-8.840464,3.231974,0.96034,0.74258,0.76228,0.2862
1694788360609375,-8.856464,3.277974,0.94434,0.74858,0.70928,0.3142
1694788360617187,-8.901464,3.293974,0.93534,0.72958,0.60528,0.4072
1694788360625000,-8.959464,3.325974,0.91234,0.84658,0.50128,0.4372
1694788360632812,-9.2464,3.358974,0.90034,0.95858,0.37828,0.4812
1694788360640625,-9.59464,3.421974,0.85934,0.92958,0.32728,0.4952
1694788360648437,-9.144464,3.477974,0.85234,0.96758,0.25828,0.5582
1694788360656250,-9.218464,3.504974,0.86434,0.100358,0.25228,0.6352
1694788360664062,-9.287464,3.533974,0.86134,0.117258,0.35228,0.5762
1694788360671875,-9.323464,3.527974,0.86434,0.123358,0.36728,0.5922
1694788360679687,-9.339464,3.520974,0.86134,0.122858,0.45228,0.5952
1694788360687500,-9.355464,3.523974,0.86434,0.143358,0.51628,0.5502
1694788360695312,-9.407464,3.517974,0.86434,0.147858,0.60128,0.5212
1694788360703125,-9.473464,3.542974,0.87334,0.146458,0.65728,0.3812
1694788360710937,-9.564464,3.554974,0.89334,0.149458,0.69528,0.2722
1694788360718750,-9.618464,3.541974,0.91634,0.148158,0.81928,0.1342
1694788360726562,-9.590464,3.504974,0.92534,0.147458,0.88728,0.712
1694788360734375,-9.501464,3.483974,0.93434,0.147858,0.93028,0.1788
1694788360742187,-9.438464,3.461974,0.93934,0.149158,0.93428,0.2558
1694788360750000,-9.370464,3.420974,0.94834,0.144458,0.90728,0.3818
1694788360757812,-9.319464,3.408974,0.95034,0.129758,0.93028,0.4768
1694788360765625,-9.331464,3.415974,0.96234,0.125158,0.93128,0.4778
1694788360773437,-9.339464,3.405974,0.99834,0.123858,0.91228,0.4478
1694788360781250,-9.307464,3.391974,1.534,0.125958,0.93128,0.5258
1694788360789062,-9.264464,3.396974,0.98534,0.112458,0.89928,0.5128
1694788360796875,-9.250464,3.398974,1.534,0.110858,0.94828,0.4648
1694788360804687,-9.264464,3.373974,1.1934,0.122358,0.94228,0.3378
1694788360812500,-9.218464,3.351974,1.534,0.115358,0.77328,0.3268
1694788360820312,-9.129464,3.329974,0.95334,0.118058,0.78728,0.2638
1694788360828125,-9.50464,3.299974,0.91034,0.96258,0.59028,0.2688
1694788360835937,-9.38464,3.292974,0.91434,0.94758,0.47028,0.2088
1694788360843750,-9.81464,3.304974,0.91934,0.84058,0.40128,0.1018
1694788360851562,-9.152464,3.343974,0.92134,0.73258,0.25028,0.738
1694788360859375,-9.166464,3.370974,0.92334,0.76358,0.13028,0.448
1694788360867187,-9.152464,3.382974,0.91234,0.74858,0.10828,0.942
1694788360875000,-9.152464,3.399974,0.89234,0.76258,0.4228,0.622
1694788360882812,-9.171464,3.433974,0.86434,0.74358,0.2528,0.782
1694788360890625,-9.185464,3.422974,0.83034,0.75658,0.7128,0.1892
1694788360898437,-9.201464,3.426974,0.81434,0.74158,0.2228,0.1722
1694788360906250,-9.221464,3.438974,0.78434,0.72458,0.10528,0.2212
1694788360914062,-9.267464,3.438974,0.77534,0.75458,0.17028,0.2542
1694788360921875,-9.294464,3.427974,0.77534,0.74058,0.27628,0.1632
1694788360929687,-9.287464,3.393974,0.75934,0.78458,0.32528,0.1802
1694788360937500,-9.259464,3.369974,0.75034,0.76158,0.39828,0.232
1694788360945312,-9.227464,3.349974,0.74834,0.76458,0.46928,0.848
1694788360953125,-9.174464,3.320974,0.73534,0.81358,0.48928,0.1938
1694788360960937,-9.99464,3.276974,0.74134,0.79958,0.57828,0.3178
1694788360968750,-9.38464,3.264974,0.73934,0.76758,0.58128,0.3648
1694788360976562,-9.31464,3.281974,0.74834,0.76858,0.59928,0.3958
1694788360984375,-9.63464,3.302974,0.76434,0.84458,0.67628,0.2678
1694788360992187,-9.100464,3.318974,0.77534,0.85758,0.67428,0.2048
1694788361000000,-9.111464,3.321974,0.77634,0.75358,0.65528,0.1128
1694788361007812,-9.120464,3.300974,0.79134,0.75858,0.68128,0.1242
1694788361015625,-9.93464,3.284974,0.78734,0.73958,0.62728,0.2332
1694788361023437,-9.78464,3.296974,0.77334,0.76258,0.61828,0.3882
1694788361031250,-9.125464,3.332974,0.76934,0.73858,0.58328,0.4832
1694788361039062,-9.193464,3.344974,0.78534,0.73858,0.51328,0.5432
1694788361046875,-9.261464,3.369974,0.79134,0.70558,0.52928,0.5752
1694788361054687,-9.323464,3.419974,0.78034,0.67758,0.51328,0.5592
1694788361062500,-9.448464,3.472974,0.78034,0.76958,0.51328,0.5282
1694788361070312,-9.559464,3.514974,0.78634,0.74058,0.48128,0.4802
1694788361078125,-9.630464,3.532974,0.79334,0.75458,0.48528,0.3862
1694788361085937,-9.640464,3.548974,0.79334,0.74058,0.55828,0.2472
1694788361093750,-9.612464,3.548974,0.78234,0.77858,0.56328,0.892
1694788361101562,-9.588464,3.537974,0.76534,0.93658,0.55028,0.488
1694788361109375,-9.577464,3.547974,0.78434,0.100558,0.53728,0.2058
1694788361117187,-9.557464,3.523974,0.79134,0.98758,0.64428,0.3128
1694788361125000,-9.483464,3.490974,0.78434,0.101058,0.67628,0.3288
1694788361132812,-9.416464,3.474974,0.77534,0.109158,0.69328,0.4068
1694788361140625,-9.373464,3.458974,0.77734,0.122958,0.64028,0.4078
1694788361148437,-9.360464,3.426974,0.77134,0.125758,0.59428,0.5328
1694788361156250,-9.348464,3.408974,0.77734,0.124158,0.66028,0.4848
1694788361164062,-9.311464,3.370974,0.76834,0.127358,0.60428,0.3768
1694788361171875,-9.270464,3.341974,0.76634,0.125958,0.52128,0.4098
1694788361179687,-9.254464,3.315974,0.75734,0.125458,0.53928,0.4088
1694788361187500,-9.228464,3.276974,0.76034,0.124558,0.50228,0.3638
1694788361195312,-9.189464,3.257974,0.75734,0.112058,0.42028,0.3188
1694788361203125,-9.140464,3.252974,0.74134,0.108558,0.37028,0.3038
1694788361210937,-9.85464,3.246974,0.74834,0.109958,0.35028,0.2418
1694788361218750,-9.67464,3.244974,0.73934,0.99058,0.43428,0.1618
1694788361226562,-9.37464,3.228974,0.74634,0.100658,0.37828,0.378
1694788361234375,-9.11464,3.236974,0.73234,0.100058,0.37528,0.572
1694788361242187,-8.984464,3.251974,0.72334,0.95258,0.42328,0.1522
1694788361250000,-8.989464,3.256974,0.72834,0.83158,0.42728,0.1202
1694788361257812,-8.970464,3.267974,0.73734,0.77058,0.44128,0.2292
1694788361265625,-8.972464,3.306974,0.71234,0.76458,0.37328,0.2602
1694788361273437,-8.992464,3.348974,0.71434,0.75458,0.43928,0.2762
1694788361281250,-9.30464,3.361974,0.72834,0.79958,0.47028,0.3242
1694788361289062,-9.34464,3.390974,0.70734,0.74758,0.48728,0.3722
1694788361296875,-9.49464,3.438974,0.70034,0.75458,0.38228,0.4312
1694788361304687,-9.130464,3.460974,0.68434,0.73458,0.38728,0.3382
1694788361312500,-9.197464,3.491974,0.70034,0.75458,0.36928,0.3532
1694788361320312,-9.268464,3.527974,0.70434,0.73758,0.37328,0.2752
1694788361328125,-9.311464,3.557974,0.70434,0.86358,0.42128,0.2292
1694788361335937,-9.366464,3.593974,0.69334,0.97058,0.50728,0.1532
1694788361343750,-9.423464,3.619974,0.69334,0.103558,0.54028,0.1072
1694788361351562,-9.512464,3.642974,0.70634,0.113758,0.61028,0.162
1694788361359375,-9.552464,3.643974,0.73834,0.124058,0.66228,0.1088
1694788361367187,-9.550464,3.631974,0.76534,0.138758,0.86328,0.1498
1694788361375000,-9.525464,3.587974,0.75734,0.153158,0.111628,0.2378
1694788361382812,-9.471464,3.531974,0.78234,0.172258,0.121628,0.3458
1694788361390625,-9.364464,3.482974,0.78034,0.175258,0.120328,0.4708
1694788361398437,-9.310464,3.454974,0.77534,0.173458,0.113828,0.4878
1694788361406250,-9.320464,3.415974,0.81034,0.175758,0.115528,0.5508
1694788361414062,-9.329464,3.386974,0.86034,0.173658,0.115628,0.5348
1694788361421875,-9.306464,3.366974,0.89834,0.180258,0.125528,0.5478
1694788361429687,-9.250464,3.328974,0.93034,0.190158,0.128828,0.5298
1694788361437500,-9.182464,3.298974,0.93234,0.174658,0.132628,0.5448
1694788361445312,-9.131464,3.276974,0.93034,0.176958,0.129028,0.5318
1694788361453125,-9.141464,3.261974,0.92834,0.178658,0.118828,0.5498
1694788361460937,-9.174464,3.240974,0.94234,0.177858,0.110428,0.5028
1694788361468750,-9.164464,3.216974,0.94234,0.173658,0.103428,0.4428
1694788361476562,-9.144464,3.214974,0.93534,0.171558,0.96128,0.2718
1694788361484375,-9.139464,3.220974,0.92634,0.155958,0.86128,0.1958
1694788361492187,-9.143464,3.228974,0.92434,0.145958,0.76128,0.2008
1694788361500000,-9.183464,3.245974,0.92134,0.146258,0.65528,0.288
1694788361507812,-9.203464,3.257974,0.92134,0.144958,0.66828,0.492
1694788361515625,-9.218464,3.258974,0.92134,0.132958,0.54828,0.1552
1694788361523437,-9.232464,3.257974,0.90134,0.123358,0.51828,0.1232
1694788361531250,-9.233464,3.246974,0.89834,0.125858,0.38128,0.2002
1694788361539062,-9.255464,3.251974,0.87834,0.120458,0.40228,0.892
1694788361546875,-9.284464,3.256974,0.87134,0.108558,0.39428,0.688
1694788361554687,-9.325464,3.250974,0.85534,0.101158,0.36328,0.1018
1694788361562500,-9.360464,3.253974,0.84134,0.95758,0.38928,0.2568
1694788361570312,-9.382464,3.253974,0.83034,0.101258,0.34028,0.3678
1694788361578125,-9.396464,3.252974,0.81234,0.93358,0.34828,0.5088
1694788361585937,-9.371464,3.234974,0.81434,0.90358,0.33428,0.5718
1694788361593750,-9.337464,3.220974,0.78734,0.78258,0.53828,0.5528
1694788361601562,-9.301464,3.220974,0.75734,0.78258,0.52228,0.5688
1694788361609375,-9.285464,3.204974,0.75734,0.94858,0.55228,0.5508
1694788361617187,-9.237464,3.196974,0.75534,0.81058,0.62328,0.5658
1694788361625000,-9.214464,3.208974,0.74434,0.83358,0.64928,0.4258
1694788361632812,-9.247464,3.243974,0.73934,0.86958,0.66228,0.3138
1694788361640625,-9.288464,3.284974,0.76634,0.99058,0.64228,0.2818
1694788361648437,-9.303464,3.294974,0.78034,0.97858,0.68228,0.478
1694788361656250,-9.274464,3.293974,0.77834,0.100258,0.67528,0.1412
1694788361664062,-9.190464,3.293974,0.74634,0.100258,0.66728,0.3292
1694788361671875,-9.122464,3.296974,0.73534,0.110758,0.69428,0.4402
1694788361679687,-9.122464,3.332974,0.72534,0.110458,0.55128,0.6562
1694788361687500,-9.168464,3.373974,0.75534,0.120758,0.51128,0.7662
1694788361695312,-9.190464,3.408974,0.79834,0.123058,0.47028,0.9702
1694788361703125,-9.181464,3.459974,0.79634,0.124458,0.48228,0.10802
1694788361710937,-9.195464,3.479974,0.79334,0.136258,0.44228,0.11912
1694788361718750,-9.188464,3.491974,0.79334,0.159558,0.48528,0.12392
1694788361726562,-9.177464,3.484974,0.80234,0.166658,0.44728,0.13342
1694788361734375,-9.186464,3.486974,0.78434,0.176058,0.46128,0.13342
1694788361742187,-9.194464,3.471974,0.77534,0.180958,0.46028,0.13182
1694788361750000,-9.201464,3.449974,0.75234,0.185058,0.50728,0.13982
1694788361757812,-9.210464,3.438974,0.74334,0.193358,0.44128,0.12872
1694788361765625,-9.218464,3.410974,0.75034,0.199758,0.39228,0.12072
1694788361773437,-9.218464,3.398974,0.73934,0.196258,0.47928,0.11792
1694788361781250,-9.193464,3.382974,0.73434,0.185758,0.45228,0.10672
1694788361789062,-9.211464,3.387974,0.72534,0.188058,0.47228,0.9412
1694788361796875,-9.248464,3.382974,0.73434,0.175258,0.48128,0.8172
1694788361804687,-9.286464,3.379974,0.73434,0.171158,0.46928,0.7062
1694788361812500,-9.313464,3.388974,0.71834,0.171358,0.48928,0.6282
1694788361820312,-9.365464,3.393974,0.72134,0.150258,0.46328,0.5312
1694788361828125,-9.394464,3.390974,0.71634,0.144858,0.48328,0.4362
1694788361835937,-9.383464,3.372974,0.70934,0.128158,0.50828,0.3262
1694788361843750,-9.367464,3.369974,0.69634,0.117358,0.48128,0.2312
1694788361851562,-9.374464,3.385974,0.69834,0.99158,0.50228,0.2152
1694788361859375,-9.397464,3.378974,0.69834,0.91458,0.52428,0.1372
1694788361867187,-9.398464,3.386974,0.69134,0.74058,0.51528,0.68
1694788361875000,-9.369464,3.383974,0.68934,0.67858,0.58928,0.1148
1694788361882812,-9.332464,3.401974,0.67334,0.55158,0.61228,0.1768
1694788361890625,-9.330464,3.419974,0.67034,0.53558,0.63328,0.2548
1694788361898437,-9.325464,3.408974,0.66634,0.53858,0.63428,0.3018
1694788361906250,-9.300464,3.426974,0.67534,0.41958,0.83928,0.3148
1694788361914062,-9.272464,3.424974,0.67534,0.35058,0.97728,0.3258
1694788361921875,-9.223464,3.407974,0.68034,0.32858,0.94228,0.3288
1694788361929687,-9.165464,3.395974,0.66834,0.33958,0.99128,0.2638
1694788361937500,-9.124464,3.396974,0.66834,0.27558,0.101028,0.2638
1694788361945312,-9.135464,3.405974,0.67034,0.26158,0.105928,0.2468
1694788361953125,-9.167464,3.417974,0.69134,0.27558,0.102228,0.1688
1694788361960937,-9.179464,3.430974,0.68634,0.27658,0.100728,0.2008
1694788361968750,-9.186464,3.446974,0.70034,0.27458,0.102328,0.1848
1694788361976562,-9.193464,3.452974,0.70934,0.27258,0.95428,0.1238
1694788361984375,-9.197464,3.460974,0.71834,0.26158,0.91728,0.778
1694788361992187,-9.195464,3.487974,0.71634,0.27758,0.88628,0.1568
1694788362000000,-9.209464,3.509974,0.71834,0.26058,0.90328,0.1248
1694788362007812,-9.250464,3.505974,0.73934,0.39858,0.88128,0.778
1694788362015625,-9.241464,3.496974,0.74534,0.51958,0.88028,0.1078
1694788362023437,-9.189464,3.510974,0.72734,0.49958,0.86228,0.458
1694788362031250,-9.212464,3.529974,0.71634,0.53158,0.86028,0.298
1694788362039062,-9.252464,3.525974,0.73834,0.62458,0.80728,0.308
1694788362046875,-9.254464,3.516974,0.73834,0.69958,0.76928,0.472
1694788362054687,-9.250464,3.511974,0.72734,0.80458,0.81828,0.342
1694788362062500,-9.275464,3.502974,0.71334,0.86358,0.74928,0.642
1694788362070312,-9.295464,3.490974,0.70734,0.94158,0.63028,0.312
1694788362078125,-9.308464,3.470974,0.71834,0.100258,0.64728,0.0
1694788362085937,-9.304464,3.447974,0.71634,0.95658,0.80028,0.118
1694788362093750,-9.311464,3.440974,0.72934,0.99958,0.76828,0.588
1694788362101562,-9.317464,3.412974,0.73634,0.98958,0.85228,0.588
1694788362109375,-9.303464,3.364974,0.73934,0.109658,0.95228,0.1018
1694788362117187,-9.248464,3.321974,0.74134,0.112458,0.99228,0.2418
1694788362125000,-9.220464,3.313974,0.73934,0.113458,0.103928,0.2268
1694788362132812,-9.218464,3.294974,0.75734,0.109858,0.105828,0.2258
1694788362140625,-9.183464,3.261974,0.77834,0.119558,0.113828,0.2088
1694788362148437,-9.136464,3.258974,0.77534,0.104058,0.116028,0.2398
1694788362156250,-9.130464,3.291974,0.78234,0.109758,0.120528,0.968
1694788362164062,-9.159464,3.313974,0.81434,0.103458,0.120128,0.282
1694788362171875,-9.169464,3.331974,0.84134,0.98258,0.114828,0.1532
1694788362179687,-9.160464,3.365974,0.85534,0.99958,0.115928,0.2782
1694788362187500,-9.125464,3.370974,0.85734,0.95858,0.111628,0.4952
1694788362195312,-9.62464,3.371974,0.86034,0.87558,0.109928,0.5582
1694788362203125,-9.31464,3.377974,0.84134,0.93558,0.107828,0.6362
1694788362210937,-9.67464,3.395974,0.85534,0.76258,0.87528,0.7722
1694788362218750,-9.148464,3.417974,0.86434,0.83158,0.72228,0.7202
1694788362226562,-9.201464,3.435974,0.88234,0.76758,0.60828,0.6872
1694788362234375,-9.258464,3.474974,0.88034,0.85758,0.59028,0.6722
1694788362242187,-9.288464,3.499974,0.89334,0.82858,0.59528,0.5622
1694788362250000,-9.316464,3.514974,0.89634,0.90258,0.61428,0.4692
1694788362257812,-9.316464,3.518974,0.88934,0.94758,0.58628,0.3292
1694788362265625,-9.325464,3.519974,0.87734,0.112258,0.60328,0.2032
1694788362273437,-9.326464,3.490974,0.84834,0.123258,0.62528,0.0
1694788362281250,-9.306464,3.467974,0.83434,0.113858,0.63328,0.1238
1694788362289062,-9.273464,3.466974,0.82334,0.119958,0.70328,0.2158
1694788362296875,-9.258464,3.465974,0.81434,0.121058,0.67328,0.3598
1694788362304687,-9.265464,3.449974,0.84134,0.128158,0.65228,0.2808
1694788362312500,-9.231464,3.434974,0.83034,0.140158,0.66928,0.3258
1694788362320312,-9.215464,3.428974,0.82134,0.140258,0.69928,0.2468
1694788362328125,-9.217464,3.426974,0.81634,0.144958,0.74428,0.1518
1694788362335937,-9.219464,3.428974,0.82334,0.149358,0.80628,0.248
1694788362343750,-9.224464,3.417974,0.83034,0.149158,0.73528,0.672
1694788362351562,-9.225464,3.398974,0.84134,0.147958,0.86628,0.1482
1694788362359375,-9.230464,3.382974,0.82834,0.161158,0.75928,0.2412
1694788362367187,-9.225464,3.373974,0.82534,0.161358,0.70628,0.2872
1694788362375000,-9.214464,3.361974,0.82834,0.147058,0.80928,0.3362
1694788362382812,-9.214464,3.364974,0.82334,0.148658,0.65728,0.3332
1694788362390625,-9.230464,3.364974,0.82534,0.148858,0.60728,0.3152
1694788362398437,-9.246464,3.369974,0.83034,0.147058,0.59028,0.3472
1694788362406250,-9.251464,3.372974,0.84334,0.133158,0.51328,0.2352
1694788362414062,-9.248464,3.367974,0.84134,0.124558,0.51528,0.2022
1694788362421875,-9.243464,3.371974,0.82334,0.124358,0.51528,0.2182
1694788362429687,-9.260464,3.373974,0.80934,0.115058,0.48528,0.2012
1694788362437500,-9.267464,3.368974,0.81434,0.99158,0.35428,0.1332
1694788362445312,-9.275464,3.403974,0.79334,0.100458,0.35628,0.872
1694788362453125,-9.323464,3.432974,0.79834,0.98558,0.35628,0.1342
1694788362460937,-9.316464,3.407974,0.81634,0.100058,0.42328,0.1362
1694788362468750,-9.241464,3.391974,0.80034,0.93858,0.48928,0.2002
1694788362476562,-9.141464,3.399974,0.75034,0.92758,0.47228,0.1832
1694788362484375,-9.81464,3.391974,0.74134,0.86258,0.50728,0.2152
1694788362492187,-9.67464,3.377974,0.73234,0.96458,0.51828,0.3272
1694788362500000,-9.76464,3.379974,0.73034,0.90158,0.51528,0.4212
1694788362507812,-9.85464,3.396974,0.73034,0.76758,0.54928,0.4672
1694788362515625,-9.65464,3.429974,0.73634,0.79658,0.61428,0.5312
1694788362523437,-9.62464,3.459974,0.73634,0.82258,0.59328,0.6262
1694788362531250,-9.62464,3.493974,0.73934,0.88458,0.64028,0.6892
1694788362539062,-9.104464,3.530974,0.74134,0.79758,0.65328,0.7822
1694788362546875,-9.103464,3.536974,0.75034,0.81958,0.76728,0.9272
1694788362554687,-9.103464,3.552974,0.74834,0.77558,0.78328,0.9582
1694788362562500,-9.110464,3.570974,0.76334,0.78758,0.77628,0.11312
1694788362570312,-9.121464,3.581974,0.76634,0.89558,0.83828,0.11952
1694788362578125,-9.147464,3.615974,0.77734,0.77558,0.75728,0.11612
1694788362585937,-9.183464,3.626974,0.79334,0.83258,0.77328,0.11782
1694788362593750,-9.211464,3.640974,0.80034,0.84858,0.76128,0.10532
1694788362601562,-9.256464,3.655974,0.81634,0.90258,0.81328,0.9432
1694788362609375,-9.290464,3.682974,0.80734,0.78358,0.75528,0.7842
1694788362617187,-9.324464,3.695974,0.81134,0.78258,0.77828,0.6442
1694788362625000,-9.355464,3.729974,0.81334,0.82758,0.78428,0.4722
1694788362632812,-9.385464,3.738974,0.83634,0.96658,0.77328,0.2542
1694788362640625,-9.384464,3.747974,0.82734,0.100258,0.70828,0.1582
1694788362648437,-9.368464,3.732974,0.83134,0.100958,0.76128,0.482
1694788362656250,-9.336464,3.715974,0.82534,0.99058,0.92028,0.878
1694788362664062,-9.314464,3.712974,0.81334,0.105158,0.95628,0.1648
1694788362671875,-9.281464,3.690974,0.81634,0.107158,0.92028,0.1508
1694788362679687,-9.237464,3.669974,0.81134,0.120358,0.94828,0.1358
1694788362687500,-9.160464,3.634974,0.80934,0.124358,0.96828,0.2128
1694788362695312,-9.97464,3.614974,0.80934,0.119458,0.100328,0.1958
1694788362703125,-9.40464,3.603974,0.81434,0.125758,0.96628,0.1498
1694788362710937,-9.28464,3.576974,0.79534,0.123958,0.95128,0.1648
1694788362718750,-9.67464,3.592974,0.81134,0.125558,0.91828,0.1968
1694788362726562,-9.133464,3.590974,0.83434,0.123858,0.90228,0.2128
1694788362734375,-9.149464,3.609974,0.85234,0.125858,0.88328,0.1988
1694788362742187,-9.106464,3.597974,0.86634,0.125558,0.90328,0.2448
1694788362750000,-9.65464,3.592974,0.85734,0.125558,0.88628,0.2448
1694788362757812,-9.69464,3.579974,0.84834,0.126058,0.85128,0.2308
1694788362765625,-9.62464,3.565974,0.85234,0.124058,0.76928,0.2628
1694788362773437,-9.103464,3.546974,0.84834,0.119558,0.68628,0.2658
1694788362781250,-9.122464,3.545974,0.84534,0.123258,0.73328,0.1528
1694788362789062,-9.155464,3.557974,0.85534,0.112858,0.68328,0.1398
1694788362796875,-9.205464,3.538974,0.87734,0.100758,0.64928,0.788
1694788362804687,-9.216464,3.508974,0.86834,0.100358,0.68228,0.308
1694788362812500,-9.215464,3.514974,0.84634,0.91958,0.63428,0.958
1694788362820312,-9.248464,3.518974,0.83634,0.77558,0.63928,0.958
1694788362828125,-9.283464,3.505974,0.85534,0.76558,0.62628,0.2218
1694788362835937,-9.256464,3.505974,0.85734,0.73958,0.64628,0.3008
1694788362843750,-9.250464,3.516974,0.84334,0.59958,0.66828,0.3318
1694788362851562,-9.244464,3.528974,0.83434,0.51858,0.70828,0.4248
1694788362859375,-9.252464,3.536974,0.83934,0.60158,0.74128,0.4718
1694788362867187,-9.228464,3.533974,0.83934,0.69158,0.92328,0.4508
1694788362875000,-9.177464,3.537974,0.81634,0.61958,0.99328,0.4978
1694788362882812,-9.144464,3.539974,0.79834,0.53858,0.94228,0.4048
1694788362890625,-9.102464,3.548974,0.80234,0.69758,0.91928,0.3088
1694788362898437,-9.94464,3.576974,0.83434,0.73758,0.83028,0.2648
1694788362906250,-9.156464,3.601974,0.82934,0.75058,0.94628,0.2148
1694788362914062,-9.206464,3.591974,0.85034,0.74758,0.99428,0.1198
1694788362921875,-9.223464,3.617974,0.87334,0.79958,0.103228,0.1152
1694788362929687,-9.189464,3.618974,0.88034,0.73258,0.96228,0.2392
1694788362937500,-9.162464,3.613974,0.86434,0.88258,0.88928,0.3012
1694788362945312,-9.139464,3.591974,0.86234,0.97558,0.91728,0.3802
1694788362953125,-9.124464,3.556974,0.85934,0.87458,0.88528,0.4592
1694788362960937,-9.100464,3.541974,0.85534,0.95258,0.78028,0.4882
1694788362968750,-9.55464,3.518974,0.84634,0.78358,0.73128,0.5332
1694788362976562,-9.77464,3.528974,0.83234,0.85058,0.61028,0.5452
1694788362984375,-9.150464,3.529974,0.84834,0.89358,0.59528,0.4992
1694788362992187,-9.183464,3.519974,0.88534,0.83858,0.59628,0.4662
1694788363000000,-9.184464,3.542974,0.88434,0.81958,0.55128,0.3562
1694788363007812,-9.247464,3.572974,0.86434,0.83858,0.50428,0.2612
1694788363015625,-9.288464,3.555974,0.85934,0.74658,0.53128,0.732
1694788363023437,-9.264464,3.533974,0.85234,0.81858,0.39928,0.68
1694788363031250,-9.250464,3.516974,0.82134,0.78058,0.44128,0.2418
1694788363039062,-9.263464,3.488974,0.79634,0.76658,0.37628,0.2908
1694788363046875,-9.282464,3.486974,0.77534,0.63658,0.33228,0.4188
1694788363054687,-9.288464,3.486974,0.77734,0.57158,0.22028,0.5148
1694788363062500,-9.287464,3.455974,0.76634,0.62158,0.25428,0.5618
1694788363070312,-9.285464,3.475974,0.73934,0.55958,0.37428,0.5748
1694788363078125,-9.287464,3.493974,0.73234,0.59058,0.37328,0.5588
1694788363085937,-9.315464,3.479974,0.72534,0.66558,0.47228,0.5558
1694788363093750,-9.353464,3.439974,0.71634,0.67658,0.59228,0.5678
1694788363101562,-9.329464,3.400974,0.68434,0.59558,0.65828,0.5538
1694788363109375,-9.272464,3.384974,0.65934,0.53358,0.76128,0.5668
1694788363117187,-9.227464,3.367974,0.66634,0.51858,0.86228,0.5498
1694788363125000,-9.220464,3.356974,0.69134,0.54958,0.104528,0.5298
1694788363132812,-9.195464,3.347974,0.69834,0.53558,0.119828,0.5578
1694788363140625,-9.152464,3.340974,0.70734,0.52058,0.119828,0.5418
1694788363148437,-9.102464,3.366974,0.72834,0.56758,0.118028,0.5578
1694788363156250,-9.73464,3.385974,0.74634,0.76358,0.134528,0.5528
1694788363164062,-9.114464,3.415974,0.79134,0.79958,0.136028,0.5378
1694788363171875,-9.166464,3.431974,0.82834,0.88958,0.134228,0.5528
1694788363179687,-9.159464,3.418974,0.87334,0.96658,0.137128,0.4888
1694788363187500,-9.123464,3.426974,0.88034,0.104058,0.143628,0.4558
1694788363195312,-9.137464,3.449974,0.89634,0.117658,0.139628,0.3618
1694788363203125,-9.144464,3.421974,0.92334,0.127758,0.132528,0.2988
1694788363210937,-9.119464,3.396974,0.94634,0.124558,0.132628,0.2988
1694788363218750,-9.87464,3.390974,0.93934,0.126458,0.125828,0.3158
1694788363226562,-9.89464,3.400974,0.93934,0.130658,0.122528,0.3318
1694788363234375,-9.117464,3.428974,0.94634,0.139958,0.107228,0.3508
1694788363242187,-9.175464,3.413974,0.96034,0.147658,0.93128,0.2598
1694788363250000,-9.230464,3.427974,0.96034,0.150558,0.91828,0.3528
1694788363257812,-9.306464,3.469974,0.95334,0.150158,0.87228,0.4318
1694788363265625,-9.407464,3.514974,0.93034,0.158658,0.65328,0.5318
1694788363273437,-9.474464,3.517974,0.94834,0.168858,0.58628,0.5628
1694788363281250,-9.508464,3.515974,0.95934,0.174758,0.51828,0.5788
1694788363289062,-9.507464,3.497974,0.94434,0.173658,0.53628,0.6268
1694788363296875,-9.404464,3.432974,0.93934,0.174158,0.58628,0.6418
1694788363304687,-9.272464,3.378974,0.93034,0.175058,0.57228,0.6718
1694788363312500,-9.199464,3.340974,0.90334,0.178358,0.55028,0.5788
1694788363320312,-9.183464,3.290974,0.91734,0.187258,0.53028,0.5468
1694788363328125,-9.162464,3.248974,0.92434,0.179658,0.56628,0.5628
1694788363335937,-9.112464,3.222974,0.91234,0.174858,0.51728,0.5478
1694788363343750,-9.73464,3.222974,0.90134,0.175258,0.52928,0.4548
1694788363351562,-9.48464,3.217974,0.89934,0.173258,0.42328,0.3158
1694788363359375,-9.44464,3.223974,0.89434,0.175658,0.33828,0.2848
1694788363367187,-9.55464,3.258974,0.88734,0.166758,0.34928,0.1138
1694788363375000,-9.122464,3.289974,0.87334,0.150758,0.31228,0.742
1694788363382812,-9.156464,3.292974,0.87634,0.152258,0.25628,0.2132
1694788363390625,-9.133464,3.298974,0.85534,0.145558,0.31728,0.4342
1694788363398437,-9.113464,3.319974,0.82634,0.150258,0.32628,0.5912
1694788363406250,-9.88464,3.308974,0.82434,0.141058,0.35628,0.7162
1694788363414062,-9.85464,3.319974,0.82334,0.128558,0.35128,0.9192
1694788363421875,-9.79464,3.359974,0.82134,0.123858,0.32928,0.10752
1694788363429687,-9.119464,3.381974,0.81434,0.121658,0.36428,0.10772
1694788363437500,-9.189464,3.411974,0.80934,0.123058,0.41028,0.11882
1694788363445312,-9.262464,3.459974,0.79334,0.123358,0.34328,0.11702
1694788363453125,-9.329464,3.510974,0.81134,0.120958,0.44928,0.11122
1694788363460937,-9.383464,3.530974,0.79634,0.123358,0.38028,0.10932
1694788363468750,-9.419464,3.541974,0.81134,0.122058,0.46828,0.9852
1694788363476562,-9.456464,3.546974,0.81134,0.122258,0.49428,0.7502
1694788363484375,-9.447464,3.548974,0.83034,0.119558,0.54928,0.6572
1694788363492187,-9.360464,3.534974,0.83034,0.112358,0.70828,0.4872
1694788363500000,-9.294464,3.515974,0.82134,0.124758,0.80928,0.4272
1694788363507812,-9.290464,3.515974,0.81634,0.120458,0.89928,0.3032
1694788363515625,-9.318464,3.519974,0.84834,0.121858,0.85428,0.1622
1694788363523437,-9.306464,3.479974,0.88234,0.125158,0.97328,0.1172
1694788363531250,-9.254464,3.469974,0.88734,0.125158,0.111228,0.112
1694788363539062,-9.203464,3.471974,0.87534,0.125958,0.116828,0.1458
1694788363546875,-9.194464,3.473974,0.88934,0.125858,0.113328,0.1308
1694788363554687,-9.183464,3.457974,0.92334,0.123958,0.114928,0.828
1694788363562500,-9.155464,3.435974,0.92134,0.119958,0.114828,0.528
1694788363570312,-9.161464,3.443974,0.92334,0.112658,0.116528,0.378
1694788363578125,-9.173464,3.426974,0.92634,0.104358,0.111828,0.538
1694788363585937,-9.157464,3.404974,0.93934,0.101258,0.108528,0.388
1694788363593750,-9.129464,3.395974,0.94234,0.100058,0.99928,0.258
1694788363601562,-9.145464,3.402974,0.95134,0.95958,0.93328,0.598
1694788363609375,-9.148464,3.390974,0.94434,0.82558,0.88828,0.598
1694788363617187,-9.171464,3.395974,0.95534,0.76558,0.68828,0.958
1694788363625000,-9.214464,3.397974,0.96034,0.76458,0.70728,0.1418
1694788363632812,-9.271464,3.398974,0.96034,0.76558,0.66328,0.2998
1694788363640625,-9.284464,3.387974,0.94634,0.75558,0.64928,0.3948
1694788363648437,-9.255464,3.379974,0.93734,0.76558,0.60528,0.5198
1694788363656250,-9.257464,3.377974,0.93034,0.75158,0.54128,0.5998
1694788363664062,-9.284464,3.376974,0.92134,0.74658,0.52728,0.7118
1694788363671875,-9.288464,3.324974,0.92334,0.70858,0.39628,0.7608
1694788363679687,-9.269464,3.302974,0.90334,0.51558,0.40228,0.8248
1694788363687500,-9.263464,3.279974,0.88934,0.54458,0.38628,0.8408
1694788363695312,-9.258464,3.241974,0.88534,0.54358,0.38828,0.9028
1694788363703125,-9.244464,3.221974,0.88334,0.51058,0.33828,0.8878
1694788363710937,-9.225464,3.210974,0.86234,0.53358,0.38828,0.9198
1694788363718750,-9.239464,3.192974,0.85134,0.52558,0.40228,0.8078
1694788363726562,-9.227464,3.190974,0.86034,0.49958,0.45128,0.7768
1694788363734375,-9.178464,3.180974,0.86234,0.40358,0.55128,0.6808
1694788363742187,-9.135464,3.190974,0.82834,0.47658,0.56428,0.6008
1694788363750000,-9.115464,3.194974,0.81434,0.33658,0.54828,0.5548
1694788363757812,-9.144464,3.213974,0.83534,0.30958,0.59328,0.4138
1694788363765625,-9.183464,3.251974,0.84634,0.50158,0.61728,0.2388
1694788363773437,-9.187464,3.268974,0.85834,0.50358,0.67528,0.348
1694788363781250,-9.179464,3.301974,0.86034,0.59458,0.78428,0.1402
1694788363789062,-9.177464,3.334974,0.84834,0.58958,0.88028,0.2842
1694788363796875,-9.180464,3.349974,0.88234,0.59758,0.90628,0.4902
1694788363804687,-9.182464,3.363974,0.86634,0.59858,0.91728,0.6302
1694788363812500,-9.207464,3.395974,0.85734,0.73458,0.89428,0.7252
1694788363820312,-9.275464,3.428974,0.88034,0.74258,0.67028,0.7812
1694788363828125,-9.323464,3.451974,0.88734,0.75458,0.68828,0.7822
1694788363835937,-9.349464,3.481974,0.89334,0.73158,0.66928,0.8772
1694788363843750,-9.375464,3.506974,0.89134,0.77358,0.63728,0.8302
1694788363851562,-9.399464,3.520974,0.89834,0.81058,0.65528,0.7512
1694788363859375,-9.401464,3.518974,0.89834,0.86158,0.79128,0.6752
1694788363867187,-9.390464,3.500974,0.90034,0.96658,0.67228,0.6432
1694788363875000,-9.345464,3.490974,0.89334,0.99658,0.67828,0.5022
1694788363882812,-9.310464,3.450974,0.88434,0.99958,0.73128,0.4252
1694788363890625,-9.268464,3.419974,0.86034,0.106658,0.70128,0.2672
1694788363898437,-9.243464,3.378974,0.84634,0.108358,0.67128,0.1572
1694788363906250,-9.253464,3.368974,0.83934,0.106058,0.61128,0.472
1694788363914062,-9.245464,3.351974,0.82134,0.99358,0.59828,0.648
1694788363921875,-9.250464,3.326974,0.82134,0.100558,0.52128,0.2218
1694788363929687,-9.251464,3.338974,0.81034,0.90858,0.54028,0.2708
1694788363937500,-9.281464,3.336974,0.81234,0.92158,0.50728,0.2868
1694788363945312,-9.297464,3.309974,0.80534,0.88858,0.49328,0.3338
1694788363953125,-9.297464,3.287974,0.78234,0.84258,0.49828,0.4128
1694788363960937,-9.271464,3.278974,0.75534,0.79858,0.48128,0.3978
1694788363968750,-9.240464,3.261974,0.74634,0.76358,0.51328,0.3338
1694788363976562,-9.226464,3.248974,0.73034,0.76458,0.49428,0.2878
1694788363984375,-9.213464,3.252974,0.69634,0.71458,0.46228,0.2718
1694788363992187,-9.251464,3.255974,0.68734,0.65458,0.40728,0.1488
1694788364000000,-9.269464,3.248974,0.68434,0.57558,0.42428,0.858
1694788364007812,-9.290464,3.244974,0.66634,0.52958,0.39228,0.1028
1694788364015625,-9.301464,3.264974,0.65034,0.42158,0.32728,0.1048
1694788364023437,-9.329464,3.296974,0.63634,0.37958,0.34528,0.1368
1694788364031250,-9.370464,3.323974,0.63434,0.32858,0.34728,0.1358
1694788364039062,-9.391464,3.357974,0.62334,0.38058,0.26328,0.2008
1694788364046875,-9.402464,3.389974,0.61434,0.29258,0.28228,0.2178
1694788364054687,-9.433464,3.438974,0.62234,0.37658,0.26428,0.1998
1694788364062500,-9.469464,3.443974,0.63134,0.53058,0.34728,0.2598
1694788364070312,-9.432464,3.441974,0.62734,0.50558,0.46328,0.2118
1694788364078125,-9.355464,3.446974,0.60934,0.63958,0.49128,0.1318
1694788364085937,-9.299464,3.450974,0.58634,0.78758,0.53728,0.658
1694788364093750,-9.290464,3.459974,0.57734,0.80358,0.51728,0.198
1694788364101562,-9.317464,3.478974,0.59334,0.85558,0.58028,0.432
1694788364109375,-9.321464,3.487974,0.60034,0.100558,0.60328,0.2172
1694788364117187,-9.296464,3.507974,0.62534,0.111858,0.65228,0.2522
1694788364125000,-9.243464,3.507974,0.63634,0.122558,0.62928,0.3462
1694788364132812,-9.189464,3.508974,0.66134,0.134358,0.75828,0.4452
1694788364140625,-9.169464,3.497974,0.67734,0.154358,0.88728,0.4642
1694788364148437,-9.105464,3.469974,0.70934,0.170858,0.84928,0.5122
1694788364156250,-9.21464,3.448974,0.71434,0.173758,0.92828,0.6242
1694788364164062,-8.965464,3.453974,0.73434,0.176358,0.95928,0.6882
1694788364171875,-8.977464,3.461974,0.73234,0.193958,0.85228,0.7012
1694788364179687,-9.464,3.457974,0.75734,0.195458,0.79728,0.8092
1694788364187500,-9.4464,3.447974,0.75734,0.197158,0.75928,0.9022
1694788364195312,-9.11464,3.450974,0.75534,0.196458,0.67428,0.9482
1694788364203125,-9.30464,3.439974,0.76134,0.196058,0.52328,0.9612
1694788364210937,-9.50464,3.435974,0.75934,0.196358,0.45928,0.8652
1694788364218750,-9.79464,3.438974,0.76434,0.194858,0.36028,0.8002
1694788364226562,-9.154464,3.475974,0.76634,0.191958,0.34528,0.7842
1694788364234375,-9.239464,3.500974,0.77534,0.178158,0.26728,0.6872
1694788364242187,-9.307464,3.503974,0.78634,0.178158,0.26728,0.7032
1694788364250000,-9.351464,3.511974,0.78634,0.178858,0.32428,0.5152
1694788364257812,-9.356464,3.486974,0.78034,0.180558,0.37728,0.4382
1694788364265625,-9.316464,3.455974,0.77334,0.178258,0.48128,0.3452
1694788364273437,-9.285464,3.446974,0.74834,0.179658,0.60228,0.2542
1694788364281250,-9.280464,3.437974,0.74334,0.175258,0.69128,0.1622
1694788364289062,-9.269464,3.416974,0.76634,0.172558,0.83128,0.392
1694788364296875,-9.259464,3.419974,0.74634,0.174258,0.103128,0.742
1694788364304687,-9.287464,3.414974,0.75234,0.169358,0.103328,0.592
1694788364312500,-9.291464,3.388974,0.78434,0.156158,0.113828,0.132
1694788364320312,-9.259464,3.379974,0.79634,0.148558,0.113828,0.592
1694788364328125,-9.218464,3.378974,0.78934,0.139058,0.107428,0.422
1694788364335937,-9.204464,3.374974,0.81234,0.126058,0.117528,0.582
1694788364343750,-9.218464,3.387974,0.82834,0.119658,0.111128,0.412
1694788364351562,-9.246464,3.418974,0.84834,0.116258,0.111328,0.262
1694788364359375,-9.284464,3.459974,0.88734,0.108758,0.101028,0.1012
1694788364367187,-9.308464,3.495974,0.90334,0.102458,0.104328,0.1482
1694788364375000,-9.308464,3.481974,0.90734,0.102458,0.109728,0.872
1694788364382812,-9.270464,3.462974,0.90534,0.95758,0.99728,0.1172
1694788364390625,-9.241464,3.484974,0.88034,0.95558,0.103128,0.1182
1694788364398437,-9.202464,3.485974,0.89134,0.96958,0.86628,0.362
1694788364406250,-9.170464,3.479974,0.89834,0.91258,0.74428,0.1422
1694788364414062,-9.120464,3.461974,0.88934,0.91158,0.65828,0.1722
1694788364421875,-9.102464,3.474974,0.88234,0.95958,0.59228,0.1232
1694788364429687,-9.141464,3.492974,0.87134,0.85058,0.52628,0.1372
1694788364437500,-9.159464,3.490974,0.86234,0.84758,0.47528,0.1682
1694788364445312,-9.177464,3.502974,0.86434,0.94058,0.43828,0.1982
1694788364453125,-9.204464,3.504974,0.85234,0.92258,0.35428,0.2122
1694788364460937,-9.223464,3.506974,0.84634,0.96558,0.33328,0.3072
1694788364468750,-9.242464,3.501974,0.82334,0.80458,0.40228,0.3062
1694788364476562,-9.217464,3.503974,0.81634,0.80258,0.41528,0.4002
1694788364484375,-9.181464,3.488974,0.78634,0.89258,0.51628,0.3722
1694788364492187,-9.156464,3.487974,0.76234,0.80458,0.48128,0.4332
1694788364500000,-9.161464,3.502974,0.74834,0.78558,0.49828,0.4652
1694788364507812,-9.157464,3.508974,0.74834,0.84158,0.50728,0.6392
1694788364515625,-9.122464,3.515974,0.74634,0.84458,0.57228,0.6862
1694788364523437,-9.103464,3.523974,0.74134,0.74758,0.52328,0.7332
1694788364531250,-9.111464,3.544974,0.73234,0.73558,0.60228,0.8272
1694788364539062,-9.143464,3.574974,0.74134,0.75458,0.66528,0.9222
1694788364546875,-9.137464,3.575974,0.77334,0.74758,0.69928,0.9552
1694788364554687,-9.120464,3.607974,0.77534,0.72258,0.81428,0.10852
1694788364562500,-9.109464,3.623974,0.77234,0.70958,0.89328,0.11962
1694788364570312,-9.103464,3.638974,0.80034,0.73558,0.90828,0.12442
1694788364578125,-9.68464,3.648974,0.78234,0.72758,0.92428,0.12432
1694788364585937,-9.50464,3.649974,0.77034,0.73658,0.85728,0.12582
1694788364593750,-9.42464,3.648974,0.77734,0.73258,0.75228,0.13012
1694788364601562,-9.79464,3.653974,0.77934,0.74358,0.73628,0.13012
1694788364609375,-9.134464,3.659974,0.80034,0.72158,0.53728,0.12512
1694788364617187,-9.188464,3.658974,0.81834,0.71258,0.60628,0.11892
1694788364625000,-9.227464,3.692974,0.81634,0.74458,0.54628,0.9842
1694788364632812,-9.254464,3.712974,0.82034,0.73358,0.55628,0.7332
1694788364640625,-9.255464,3.703974,0.83134,0.76458,0.61528,0.5162
1694788364648437,-9.229464,3.703974,0.83634,0.81658,0.62028,0.3582
1694788364656250,-9.191464,3.702974,0.81134,0.100258,0.59328,0.932
1694788364664062,-9.186464,3.680974,0.78634,0.100558,0.53028,0.348
1694788364671875,-9.165464,3.658974,0.78234,0.99458,0.56728,0.1438
1694788364679687,-9.175464,3.644974,0.77934,0.105358,0.62028,0.2048
1694788364687500,-9.172464,3.622974,0.77734,0.114658,0.58428,0.2208
1694788364695312,-9.151464,3.613974,0.76334,0.103658,0.55128,0.1588
1694788364703125,-9.115464,3.587974,0.74734,0.110858,0.51428,0.958
1694788364710937,-9.83464,3.578974,0.74334,0.104958,0.61528,0.788
1694788364718750,-9.95464,3.581974,0.74534,0.112458,0.57728,0.0
1694788364726562,-9.143464,3.567974,0.73634,0.122158,0.65528,0.792
1694788364734375,-9.181464,3.595974,0.74734,0.122958,0.63428,0.2052
1694788364742187,-9.217464,3.614974,0.75934,0.121658,0.65128,0.2052
1694788364750000,-9.207464,3.608974,0.75434,0.124958,0.59528,0.2972
1694788364757812,-9.181464,3.600974,0.73634,0.122758,0.53028,0.2812
1694788364765625,-9.153464,3.594974,0.72534,0.124958,0.57828,0.2962
1694788364773437,-9.167464,3.580974,0.70934,0.121558,0.49628,0.2802
1694788364781250,-9.182464,3.572974,0.71634,0.108158,0.46428,0.2772
1694788364789062,-9.180464,3.558974,0.71834,0.115658,0.46528,0.2312
1694788364796875,-9.176464,3.571974,0.71134,0.106258,0.48528,0.2322
1694788364804687,-9.169464,3.565974,0.69134,0.97058,0.33428,0.2592
1694788364812500,-9.179464,3.572974,0.67534,0.103758,0.29928,0.2262
1694788364820312,-9.183464,3.587974,0.65034,0.93858,0.31828,0.2432
1694788364828125,-9.224464,3.612974,0.62734,0.78558,0.27128,0.2572
1694788364835937,-9.268464,3.632974,0.63834,0.73358,0.23728,0.3192
1694788364843750,-9.315464,3.640974,0.64034,0.75258,0.28528,0.3512
1694788364851562,-9.309464,3.628974,0.63334,0.74658,0.36928,0.3852
1694788364859375,-9.215464,3.626974,0.60434,0.74158,0.37128,0.2892
1694788364867187,-9.134464,3.596974,0.57734,0.76358,0.43828,0.2432
1694788364875000,-9.106464,3.579974,0.56534,0.54058,0.36428,0.1792
1694788364882812,-9.138464,3.617974,0.56534,0.49558,0.34728,0.1942
1694788364890625,-9.211464,3.635974,0.57234,0.55158,0.38028,0.1962
1694788364898437,-9.235464,3.650974,0.59034,0.56258,0.48228,0.1182
1694788364906250,-9.236464,3.679974,0.59534,0.43758,0.47128,0.712
1694788364914062,-9.236464,3.699974,0.59734,0.53358,0.58628,0.572
1694788364921875,-9.204464,3.704974,0.62034,0.62858,0.72028,0.292
1694788364929687,-9.160464,3.702974,0.61734,0.71258,0.86828,0.972
1694788364937500,-9.136464,3.723974,0.63434,0.76658,0.83228,0.952
1694788364945312,-9.139464,3.725974,0.66334,0.76458,0.83128,0.1262
1694788364953125,-9.104464,3.716974,0.70034,0.75258,0.96428,0.1602
1694788364960937,-9.44464,3.683974,0.70934,0.86558,0.106228,0.2272
1694788364968750,-9.9464,3.663974,0.71134,0.91358,0.109428,0.2282
1694788364976562,-8.932464,3.625974,0.72034,0.94058,0.114428,0.2302
1694788364984375,-8.862464,3.649974,0.72734,0.98858,0.115528,0.3402
1694788364992187,-8.856464,3.676974,0.75434,0.101558,0.113628,0.3872
1694788365000000,-8.888464,3.695974,0.80434,0.99358,0.115128,0.4982
1694788365007812,-8.931464,3.721974,0.82934,0.99458,0.109528,0.6212
1694788365015625,-8.959464,3.737974,0.83134,0.119258,0.112228,0.6862
1694788365023437,-8.967464,3.719974,0.84534,0.123858,0.110428,0.6702
1694788365031250,-8.935464,3.691974,0.84834,0.122958,0.112328,0.5912
1694788365039062,-8.903464,3.683974,0.85034,0.123958,0.104128,0.5592
1694788365046875,-8.923464,3.688974,0.85734,0.124458,0.97328,0.5572
1694788365054687,-8.974464,3.713974,0.85934,0.124058,0.87428,0.5242
1694788365062500,-9.33464,3.751974,0.86634,0.126958,0.64028,0.4722
1694788365070312,-9.120464,3.797974,0.87034,0.122358,0.55828,0.4392
1694788365078125,-9.227464,3.828974,0.87734,0.139258,0.50328,0.4542
1694788365085937,-9.289464,3.807974,0.87034,0.129058,0.42128,0.4352
1694788365093750,-9.289464,3.787974,0.84334,0.124558,0.30328,0.4322
1694788365101562,-9.271464,3.780974,0.79034,0.123058,0.27428,0.3372
1694788365109375,-9.237464,3.755974,0.77234,0.124358,0.11128,0.2252
1694788365117187,-9.255464,3.751974,0.76334,0.126158,0.10928,0.2402
1694788365125000,-9.289464,3.736974,0.74534,0.123058,0.13028,0.1622
1694788365132812,-9.295464,3.745974,0.71834,0.124658,0.8128,0.982
1694788365140625,-9.323464,3.752974,0.69934,0.123558,0.3728,0.598
1694788365148437,-9.343464,3.734974,0.69034,0.125158,0.528,0.1228
1694788365156250,-9.354464,3.710974,0.69734,0.125458,0.9428,0.2308
1694788365164062,-9.363464,3.701974,0.67734,0.123958,0.14528,0.2618
1694788365171875,-9.322464,3.685974,0.66134,0.125858,0.22028,0.4638
1694788365179687,-9.247464,3.666974,0.64534,0.117858,0.30928,0.5088
1694788365187500,-9.191464,3.653974,0.64034,0.113058,0.30828,0.4618
1694788365195312,-9.170464,3.658974,0.63834,0.118058,0.37528,0.4758
1694788365203125,-9.158464,3.652974,0.63434,0.116858,0.35428,0.3988
1694788365210937,-9.150464,3.653974,0.62934,0.113058,0.45528,0.3328
1694788365218750,-9.115464,3.647974,0.63134,0.106058,0.55328,0.2538
1694788365226562,-9.127464,3.655974,0.62934,0.102158,0.48128,0.828
1694788365234375,-9.137464,3.668974,0.63134,0.100258,0.49828,0.658
1694788365242187,-9.134464,3.660974,0.64734,0.100558,0.63228,0.478
1694788365250000,-9.100464,3.654974,0.64734,0.100358,0.61628,0.628
1694788365257812,-9.71464,3.674974,0.64934,0.98458,0.63328,0.468
1694788365265625,-9.107464,3.668974,0.67234,0.97458,0.76828,0.758
1694788365273437,-9.98464,3.672974,0.70034,0.100858,0.85428,0.1528
1694788365281250,-9.69464,3.651974,0.70634,0.99058,0.94128,0.1968
1694788365289062,-9.27464,3.640974,0.73134,0.100958,0.100628,0.1648
1694788365296875,-8.962464,3.633974,0.71834,0.104258,0.106128,0.2888
1694788365304687,-8.907464,3.637974,0.72534,0.113558,0.107528,0.2728
1694788365312500,-8.923464,3.646974,0.74334,0.121158,0.105728,0.2888
1694788365320312,-8.952464,3.635974,0.76834,0.117858,0.101928,0.1638
1694788365328125,-8.927464,3.648974,0.77334,0.122758,0.110028,0.1308
1694788365335937,-8.893464,3.671974,0.77534,0.123158,0.113028,0.528
1694788365343750,-8.896464,3.691974,0.77534,0.125958,0.109428,0.68
1694788365351562,-8.912464,3.711974,0.81334,0.126858,0.120428,0.2162
1694788365359375,-8.910464,3.708974,0.84534,0.129558,0.115028,0.2942
1694788365367187,-8.862464,3.694974,0.83234,0.143158,0.114128,0.4512
1694788365375000,-8.821464,3.690974,0.81134,0.143458,0.108828,0.4972
1694788365382812,-8.851464,3.719974,0.80434,0.141358,0.98428,0.6052
1694788365390625,-8.956464,3.735974,0.81334,0.139358,0.84628,0.6962
1694788365398437,-9.67464,3.769974,0.84834,0.138058,0.64428,0.7072
1694788365406250,-9.166464,3.806974,0.85234,0.138358,0.59328,0.6892
1694788365414062,-9.233464,3.820974,0.85634,0.133358,0.54628,0.6422
1694788365421875,-9.271464,3.832974,0.84334,0.145858,0.44728,0.5302
1694788365429687,-9.330464,3.848974,0.81834,0.136858,0.38528,0.4342
1694788365437500,-9.385464,3.844974,0.79734,0.140058,0.45828,0.2802
1694788365445312,-9.440464,3.831974,0.76734,0.135058,0.36228,0.2002
1694788365453125,-9.432464,3.808974,0.74734,0.130658,0.34828,0.1362
1694788365460937,-9.414464,3.782974,0.71734,0.134058,0.33728,0.358
1694788365468750,-9.401464,3.765974,0.69534,0.124758,0.27828,0.1788
1694788365476562,-9.379464,3.737974,0.69234,0.120458,0.29528,0.1638
1694788365484375,-9.309464,3.720974,0.67934,0.117758,0.36728,0.2878
1694788365492187,-9.272464,3.722974,0.65234,0.118158,0.51928,0.3008
1694788365500000,-9.288464,3.725974,0.64934,0.117958,0.43628,0.3338
1694788365507812,-9.293464,3.712974,0.64734,0.121158,0.45128,0.3178
1694788365515625,-9.258464,3.684974,0.63434,0.122758,0.51928,0.3318
1694788365523437,-9.175464,3.637974,0.61634,0.109558,0.55428,0.3328
1694788365531250,-9.133464,3.627974,0.58834,0.102958,0.62628,0.3618
1694788365539062,-9.126464,3.627974,0.58634,0.99958,0.62528,0.3308
1694788365546875,-9.153464,3.630974,0.60634,0.101558,0.57128,0.2698
1694788365554687,-9.187464,3.632974,0.60234,0.95258,0.59028,0.2698
1694788365562500,-9.192464,3.657974,0.60234,0.101658,0.61928,0.2068
1694788365570312,-9.160464,3.634974,0.60934,0.92058,0.63728,0.1588
1694788365578125,-9.88464,3.619974,0.60234,0.80758,0.63828,0.958
1694788365585937,-9.1464,3.596974,0.59734,0.81158,0.68828,0.1108
1694788365593750,-8.974464,3.609974,0.59334,0.78058,0.73728,0.628
1694788365601562,-9.29464,3.641974,0.60034,0.78158,0.66928,0.498
1694788365609375,-9.87464,3.645974,0.61334,0.81858,0.68528,0.0
1694788365617187,-9.91464,3.659974,0.62234,0.91258,0.84828,0.662
1694788365625000,-9.71464,3.702974,0.60934,0.79458,0.89728,0.1442
1694788365632812,-9.92464,3.722974,0.64034,0.94358,0.92628,0.1932
1694788365640625,-9.55464,3.694974,0.66834,0.95758,0.97328,0.2732
1694788365648437,-8.967464,3.688974,0.64534,0.93758,0.104328,0.2592
