time,Acceleration X (m/s^2),Acceleration Y (m/s^2),Acceleration Z (m/s^2),Angular Velocity X (rad/s),Angular Velocity Y (rad/s),Angular Velocity Z (rad/s)
1694787711929687,-8.48559,3.818499,1.901024,-0.696828,,
1694787711937500,-8.40459,3.733499,1.890024,0.685928,0.85617,0.406408
1694787711945312,-8.28359,3.588499,1.888024,0.662528,0.64417,0.399008
1694787711953125,-8.16359,3.432499,1.868024,0.648528,0.50417,0.380608
1694787711960937,-8.8059,3.200499,1.821024,0.622528,0.30417,0.378108
1694787711968750,-8.1459,2.970499,1.714024,0.585528,0.7983,0.365108
1694787711984375,-8.15759,2.672499,1.542024,0.497828,0.73583,0.329508
1694787711992187,-8.33459,2.560499,1.567024,0.437428,0.95483,0.291108
1694787712000000,-8.41259,2.492499,1.585024,0.380428,0.106083,0.250908
1694787712007812,-8.38159,2.471499,1.551024,0.313828,0.104983,0.197908
1694787712031250,-8.56259,2.772499,1.530024,0.175328,0.60383,0.40708
1694787712039062,-8.65859,2.863499,1.580024,0.145628,0.27583,0.28692
1694787712046875,-8.69759,2.932499,1.577024,0.116228,0.2017,0.63692
1694787712054687,-8.64359,2.983499,1.543024,0.95928,0.31117,0.106492
1694787712062500,-8.56159,3.44499,1.509024,0.77228,0.52817,0.127392
1694787712070312,-8.47859,3.119499,1.504024,0.61928,0.77317,0.148092
1694787712078125,-8.42659,3.172499,1.534024,0.57028,0.95417,0.165792
1694787712085937,-8.40659,3.140499,1.573024,0.52428,0.110317,0.175492
1694787712093750,-8.44059,3.90499,1.520024,0.46928,0.127017,0.170892
1694787712101562,-8.55259,3.50499,1.484024,0.38828,0.130017,0.160192
1694787712109375,-8.62559,2.956499,1.502024,0.26928,0.129017,0.145992
1694787712117187,-8.61559,2.893499,1.550024,0.15328,0.131617,0.122292
1694787712125000,-8.57959,2.920499,1.532024,0.972,0.129617,0.93892
1694787712132812,-8.61059,2.957499,1.557024,0.5228,0.122117,0.73492
1694787712140625,-8.63759,2.969499,1.643024,0.6928,0.117117,0.68592
1694787712148437,-8.63559,3.9499,1.698024,0.20828,0.122117,0.62492
1694787712156250,-8.73559,3.80499,1.721024,0.25528,0.113117,0.65392
1694787712164062,-8.90759,3.82499,1.798024,0.41928,0.89417,0.66692
1694787712171875,-9.6359,3.43499,1.875024,0.47928,0.84117,0.69692
1694787712179687,-9.15759,2.969499,1.885024,0.63028,0.62017,0.69392
1694787712187500,-9.25659,2.899499,1.828024,0.81428,0.38717,0.53292
1694787712195312,-9.49359,2.815499,1.766024,0.110628,0.1617,0.33792
1694787712203125,-9.86759,2.729499,1.739024,0.138428,0.19883,0.8392
1694787712210937,-10.31759,2.652499,1.746024,0.167328,0.47083,0.1792
1694787712218750,-10.64059,2.569499,1.812024,0.193328,0.60683,0.7808
1694787712226562,-10.74959,2.435499,1.858024,0.213228,0.66483,0.6308
1694787712234375,-10.74559,2.303499,1.801024,0.231428,0.61683,0.6008
1694787712242187,-10.72159,2.191499,1.715024,0.255928,0.72183,0.10808
1694787712250000,-10.78859,2.107499,1.644024,0.268228,0.97983,0.39408
1694787712257812,-11.1059,2.63499,1.613024,0.267128,0.147083,0.76608
1694787712265625,-11.34059,1.939499,1.592024,0.287728,0.196183,0.132508
1694787712273437,-11.73059,1.770499,1.540024,0.294528,0.241083,0.191508
1694787712281250,-12.18759,1.575499,1.463024,0.310328,0.286383,0.245708
1694787712289062,-12.64659,1.334499,1.418024,0.326128,0.312283,0.283908
1694787712296875,-12.96159,1.106499,1.393024,0.324828,0.324283,0.312308
1694787712304687,-13.11359,0.963499,1.382024,0.317428,0.313783,0.318408
1694787712312500,-13.16659,0.890499,1.348024,0.315828,0.300283,0.315008
1694787712320312,-13.14059,0.832499,1.296024,0.314628,0.272083,0.312908
1694787712328125,-13.8059,0.856499,1.241024,0.302328,0.263283,0.309608
1694787712335937,-13.11759,0.935499,1.248024,0.313228,0.256883,0.314108
1694787712343750,-13.18959,0.949499,1.309024,0.333628,0.248583,0.329608
1694787712351562,-13.25059,0.916499,1.364024,0.371928,0.243483,0.346508
1694787712359375,-13.32259,0.870499,1.366024,0.396728,0.245783,0.380808
1694787712367187,-13.37259,0.798499,1.380024,0.426528,0.255683,0.413908
1694787712375000,-13.38559,0.638499,1.373024,0.458628,0.251083,0.446408
1694787712382812,-13.36959,0.479499,1.367024,0.470028,0.262383,0.476508
1694787712390625,-13.35359,0.342499,1.322024,0.465828,0.284883,0.503708
1694787712398437,-13.30459,0.183499,1.293024,0.469128,0.307383,0.529208
1694787712406250,-13.25459,0.40499,1.268024,0.446228,0.316783,0.535908
1694787712414062,-13.21059,0.86501,1.200024,0.420728,0.333883,0.560008
1694787712421875,-13.17059,0.169501,1.113024,0.397728,0.354983,0.566808
1694787712429687,-13.15459,0.212501,1.34024,0.380928,0.364483,0.570308
1694787712437500,-13.20359,0.269501,0.995024,0.353528,0.397883,0.571208
1694787712445312,-13.26459,0.320501,0.959024,0.322628,0.405383,0.568408
1694787712453125,-13.26459,0.335501,0.891024,0.285928,0.412983,0.565608
1694787712460937,-13.26259,0.322501,0.818024,0.258328,0.428983,0.569308
1694787712468750,-13.23759,0.293501,0.761024,0.225028,0.429383,0.585208
1694787712476562,-13.21059,0.266501,0.736024,0.206028,0.414783,0.611808
1694787712484375,-13.20459,0.206501,0.697024,0.178828,0.411383,0.635408
1694787712492187,-13.20159,0.138501,0.644024,0.165628,0.375983,0.664508
1694787712500000,-13.12259,0.107501,0.610024,0.165028,0.351383,0.700108
1694787712507812,-12.99259,0.56501,0.571024,0.182428,0.311183,0.738308
1694787712515625,-12.80359,0.12501,0.521024,0.178928,0.277083,0.764408
1694787712523437,-12.52659,0.13499,0.459024,0.192928,0.230583,0.783708
1694787712531250,-12.23659,0.36499,0.455024,0.217528,0.199083,0.786008
1694787712539062,-11.93259,0.2501,0.451024,0.236128,0.152783,0.778608
1694787712546875,-11.66659,0.85501,0.428024,0.248328,0.120283,0.760608
1694787712554687,-11.48159,0.231501,0.397024,0.273728,0.85983,0.734508
1694787712562500,-11.31559,0.375501,0.372024,0.279628,0.73183,0.693508
1694787712570312,-11.18759,0.470501,0.357024,0.268628,0.59483,0.657208
1694787712578125,-11.7859,0.564501,0.322024,0.252428,0.67383,0.640108
1694787712585937,-10.85859,0.688501,0.282024,0.248028,0.76583,0.631008
1694787712593750,-10.62459,0.834501,0.237024,0.237128,0.94483,0.636108
1694787712601562,-10.46859,0.936501,0.132024,0.219028,0.127683,0.646408
1694787712609375,-10.37059,-1.25501,0.87024,0.200928,0.164583,0.677108
1694787712617187,-10.24459,-1.111501,0.106024,0.194928,0.192983,0.687208
1694787712625000,-10.8059,-1.173501,0.131024,0.179928,0.205583,0.704808
1694787712632812,-9.85659,-1.183501,0.117024,0.160128,0.217683,0.719308
1694787712640625,-9.63659,-1.190501,0.95024,0.135728,0.230783,0.718208
1694787712648437,-9.43859,-1.190501,0.65024,0.128128,0.231283,0.708908
1694787712656250,-9.28859,-1.166501,0.72024,0.110628,0.231383,0.685408
1694787712664062,-9.22159,-1.111501,0.108024,0.105728,0.233483,0.669808
1694787712671875,-9.13459,-1.110501,0.156024,0.104128,0.233983,0.658808
1694787712679687,-9.459,-1.214501,0.179024,0.82728,0.230183,0.657308
1694787712687500,-8.88059,-1.368501,0.104024,0.87328,0.234483,0.671408
1694787712695312,-8.73959,-1.567501,0.67976,0.83428,0.235383,0.698208
1694787712703125,-8.62559,-1.790501,0.245976,0.82328,0.258783,0.741108
1694787712710937,-8.51459,-1.960501,0.376976,0.53728,0.284383,0.763808
1694787712718750,-8.41159,-2.26501,0.417976,0.11128,0.295083,0.773808
1694787712726562,-8.33959,-2.29501,0.412976,0.31872,0.287183,0.769108
1694787712734375,-8.22659,-1.996501,0.412976,0.78972,0.279083,0.750508
1694787712742187,-8.9459,-1.957501,0.435976,0.122672,0.262283,0.709508
1694787712750000,-7.97759,-1.891501,0.458976,0.176472,0.242283,0.676508
1694787712757812,-7.88559,-1.808501,0.456976,0.213772,0.229883,0.629408
1694787712765625,-7.86659,-1.692501,0.443976,0.246472,0.225383,0.595008
1694787712773437,-7.86359,-1.565501,0.390976,0.281872,0.207583,0.560308
1694787712781250,-7.80359,-1.443501,0.327976,0.314272,0.195883,0.539808
1694787712789062,-7.67159,-1.346501,0.313976,0.333972,0.201083,0.533908
1694787712796875,-7.57159,-1.205501,0.343976,0.358272,0.196783,0.541808
1694787712804687,-7.57359,-1.18501,0.378976,0.356472,0.215983,0.567308
1694787712812500,-7.60959,0.874501,0.326976,0.371172,0.229683,0.599108
1694787712820312,-7.57359,0.842501,0.244976,0.379772,0.237683,0.644808
1694787712828125,-7.43159,0.835501,0.198976,0.374372,0.234383,0.688708
1694787712835937,-7.23659,0.781501,0.228976,0.364072,0.229383,0.745108
1694787712843750,-7.8959,0.692501,0.237976,0.352972,0.232583,0.787408
1694787712851562,-7.7059,0.570501,0.222976,0.337072,0.231683,0.823408
1694787712859375,-7.15659,0.529501,0.167976,0.317072,0.228483,0.831008
1694787712867187,-7.18459,0.586501,0.96976,0.304572,0.209383,0.821208
1694787712875000,-7.8259,0.657501,0.133976,0.306972,0.196483,0.789408
1694787712882812,-6.98059,0.682501,0.310976,0.326872,0.193483,0.773808
1694787712890625,-7.8759,0.634501,0.492976,0.331872,0.197283,0.758208
1694787712898437,-7.40759,0.600501,0.561976,0.342972,0.206383,0.733408
1694787712906250,-7.79959,0.562501,0.522976,0.364872,0.218583,0.707108
1694787712914062,-8.14959,0.499501,0.500976,0.389772,0.204383,0.674008
1694787712921875,-8.35759,0.490501,0.477976,0.403772,0.196683,0.650408
1694787712929687,-8.38359,0.523501,0.497976,0.407072,0.179483,0.620308
1694787712937500,-8.33959,0.526501,0.550976,0.424672,0.154983,0.579008
1694787712945312,-8.30759,0.529501,0.566976,0.430072,0.149783,0.531808
1694787712953125,-8.32759,0.540501,0.509976,0.441672,0.141483,0.476708
1694787712960937,-8.41159,0.529501,0.438976,0.460672,0.136883,0.421908
1694787712968750,-8.55259,0.485501,0.388976,0.481372,0.125183,0.365208
1694787712976562,-8.67959,0.410501,0.343976,0.485072,0.123283,0.324408
1694787712984375,-8.79059,0.411501,0.307976,0.483872,0.122983,0.296208
1694787712992187,-8.84459,0.479501,0.293976,0.496272,0.129483,0.291708
1694787713000000,-8.84059,0.618501,0.370976,0.496072,0.148683,0.315608
1694787713007812,-8.89059,0.845501,0.516976,0.498572,0.171083,0.374108
1694787713015625,-9.10159,-1.50501,0.674976,0.504972,0.216283,0.438008
1694787713023437,-9.35759,-1.273501,0.767976,0.513672,0.248583,0.496708
1694787713031250,-9.50859,-1.504501,0.840976,0.529472,0.276883,0.552508
1694787713039062,-9.47159,-1.741501,0.910976,0.562272,0.279683,0.593608
1694787713046875,-9.33759,-1.957501,-1.46976,0.595572,0.277283,0.626608
1694787713054687,-9.20859,-2.72501,-1.194976,0.618172,0.298583,0.638308
1694787713062500,-9.15759,-2.166501,-1.305976,0.651972,0.309983,0.627808
1694787713070312,-9.12359,-2.251501,-1.375976,0.676772,0.313483,0.607608
1694787713078125,-9.9659,-2.371501,-1.432976,0.706572,0.321783,0.556208
1694787713085937,-9.11759,-2.451501,-1.537976,0.748872,0.331783,0.492308
1694787713093750,-9.19759,-2.497501,-1.630976,0.797472,0.329583,0.426608
1694787713101562,-9.26959,-2.509501,-1.710976,0.844372,0.333383,0.351708
1694787713109375,-9.35059,-2.504501,-1.780976,0.888172,0.319783,0.285708
1694787713117187,-9.42159,-2.446501,-1.842976,0.943872,0.325983,0.232908
1694787713125000,-9.45459,-2.368501,-1.906976,0.987272,0.319883,0.192308
1694787713132812,-9.40559,-2.268501,-1.954976,1.28772,0.302883,0.170108
1694787713140625,-9.40259,-2.177501,-2.4976,1.62872,0.309683,0.146908
1694787713148437,-9.41759,-2.67501,-2.43976,1.91672,0.300983,0.143808
1694787713156250,-9.43259,-1.944501,-2.16976,1.117672,0.291083,0.129708
1694787713164062,-9.42659,-1.850501,-1.973976,1.123872,0.266183,0.118308
1694787713171875,-9.33759,-1.780501,-1.962976,1.133272,0.241383,0.97408
1694787713179687,-9.23459,-1.711501,-1.960976,1.139472,0.214783,0.82708
1694787713187500,-9.15059,-1.675501,-1.971976,1.131972,0.195883,0.60308
1694787713195312,-9.8559,-1.657501,-1.960976,1.144772,0.189583,0.35108
1694787713203125,-9.4959,-1.624501,-1.971976,1.149472,0.189683,0.28808
1694787713210937,-8.99459,-1.668501,-1.987976,1.147672,0.204983,0.34008
1694787713218750,-8.84359,-1.768501,-2.9976,1.148872,0.224383,0.56408
1694787713226562,-8.72459,-1.907501,-2.70976,1.147272,0.244883,0.83408
1694787713234375,-8.76659,-2.126501,-2.168976,1.148072,0.281983,0.132908
1694787713242187,-8.94259,-2.391501,-2.281976,1.156272,0.319283,0.204408
1694787713250000,-9.11759,-2.636501,-2.333976,1.169172,0.360983,0.258808
1694787713257812,-9.17759,-2.842501,-2.287976,1.195972,0.359383,0.287208
1694787713265625,-9.20359,-2.985501,-2.230976,1.240372,0.354883,0.287408
1694787713273437,-9.28659,-3.62501,-2.232976,1.275772,0.346583,0.267008
1694787713281250,-9.37159,-3.137501,-2.184976,1.308072,0.337283,0.231008
1694787713289062,-9.44159,-3.181501,-2.125976,1.344272,0.314983,0.175708
1694787713296875,-9.49959,-3.175501,-2.61976,1.384572,0.289783,0.111208
1694787713304687,-9.48759,-3.150501,-1.979976,1.425572,0.262083,0.52608
1694787713312500,-9.42359,-3.130501,-1.874976,1.458272,0.235883,0.16692
1694787713320312,-9.38559,-3.1501,-1.761976,1.504772,0.208983,0.85892
1694787713328125,-9.44559,-2.805501,-1.638976,1.547372,0.206583,0.142292
1694787713335937,-9.50959,-2.633501,-1.466976,1.576672,0.182183,0.175592
1694787713343750,-9.56359,-2.506501,-1.302976,1.600072,0.175683,0.202392
1694787713351562,-9.58259,-2.435501,-1.147976,1.622772,0.167783,0.188292
1694787713359375,-9.57859,-2.341501,0.997976,1.646472,0.178183,0.154792
1694787713367187,-9.66559,-2.251501,0.849976,1.663972,0.196383,0.108792
1694787713375000,-9.80659,-2.180501,0.654976,1.667572,0.220283,0.35992
1694787713382812,-9.97059,-2.100501,0.449976,1.684872,0.244483,0.29008
1694787713390625,-10.14459,-1.987501,0.247976,1.683772,0.263183,0.106208
1694787713398437,-10.31459,-1.930501,0.51976,1.682572,0.279283,0.174108
1694787713406250,-10.38059,-1.933501,0.117024,1.681572,0.293983,0.232508
1694787713414062,-10.28059,-2.5501,0.285024,1.680972,0.307583,0.301708
1694787713421875,-10.5859,-2.126501,0.397024,1.679872,0.322383,0.360208
1694787713429687,-9.75759,-2.304501,0.464024,1.679172,0.345683,0.412508
1694787713437500,-9.37659,-2.526501,0.551024,1.681472,0.367383,0.463208
1694787713445312,-9.1759,-2.751501,0.631024,1.691572,0.406383,0.498708
1694787713453125,-8.73459,-2.965501,0.714024,1.711672,0.434983,0.537208
1694787713460937,-8.60059,-3.134501,0.844024,1.736372,0.454783,0.572208
1694787713468750,-8.58959,-3.277501,1.4024,1.751472,0.489083,0.591908
1694787713476562,-8.62659,-3.395501,1.175024,1.769272,0.488983,0.626508
1694787713484375,-8.65559,-3.497501,1.341024,1.774472,0.492783,0.658108
1694787713492187,-8.65659,-3.643501,1.455024,1.778672,0.469283,0.695208
1694787713500000,-8.60959,-3.817501,1.545024,1.775272,0.457083,0.710708
1694787713507812,-8.53659,-4.1501,1.645024,1.791672,0.439283,0.726108
1694787713515625,-8.51659,-4.189501,1.723024,1.795972,0.420083,0.739808
1694787713523437,-8.46559,-4.374501,1.803024,1.809072,0.414883,0.739908
1694787713531250,-8.36359,-4.543501,1.881024,1.829172,0.398083,0.728608
1694787713539062,-8.23859,-4.682501,1.940024,1.843872,0.396383,0.706608
1694787713546875,-8.21659,-4.750501,2.9024,1.860972,0.401783,0.688008
1694787713554687,-8.36659,-4.736501,2.89024,1.873372,0.397683,0.666108
1694787713562500,-8.59459,-4.738501,2.205024,1.867772,0.393983,0.634608
1694787713570312,-8.83859,-4.757501,2.307024,1.861972,0.403483,0.611208
1694787713578125,-9.2459,-4.793501,2.371024,1.846972,0.393783,0.603008
1694787713585937,-9.10559,-4.825501,2.428024,1.848672,0.372683,0.585308
1694787713593750,-8.97459,-4.916501,2.485024,1.843772,0.361183,0.583508
1694787713601562,-8.74659,-4.987501,2.517024,1.830672,0.359283,0.578508
1694787713609375,-8.58459,-5.25501,2.515024,1.813772,0.346183,0.578108
1694787713617187,-8.52659,-5.21501,2.537024,1.784972,0.353583,0.573408
1694787713625000,-8.54659,-5.23501,2.588024,1.759172,0.344683,0.560508
1694787713632812,-8.52359,-5.22501,2.626024,1.731872,0.343883,0.550908
1694787713640625,-8.43759,-5.41501,2.633024,1.701472,0.346383,0.547608
1694787713648437,-8.33259,-5.84501,2.588024,1.669372,0.339283,0.539408
1694787713656250,-8.22759,-5.179501,2.540024,1.635872,0.348283,0.540908
1694787713664062,-8.15759,-5.311501,2.486024,1.618072,0.379083,0.532008
1694787713671875,-8.13259,-5.458501,2.413024,1.596572,0.411483,0.542108
1694787713679687,-8.13759,-5.592501,2.364024,1.584472,0.433683,0.539308
1694787713687500,-8.16659,-5.687501,2.332024,1.575572,0.449183,0.533308
1694787713695312,-8.19459,-5.740501,2.302024,1.563772,0.476983,0.519708
1694787713703125,-8.20859,-5.729501,2.271024,1.557872,0.487883,0.504208
1694787713710937,-8.23359,-5.724501,2.248024,1.541772,0.495983,0.474408
1694787713718750,-8.23659,-5.711501,2.216024,1.534972,0.507683,0.433808
1694787713726562,-8.27959,-5.683501,2.143024,1.518872,0.518083,0.394708
1694787713734375,-8.36159,-5.644501,2.95024,1.510472,0.529483,0.358708
1694787713742187,-8.41859,-5.588501,2.52024,1.497372,0.531683,0.316308
1694787713750000,-8.43059,-5.522501,2.17024,1.485572,0.541983,0.282008
1694787713757812,-8.39359,-5.425501,1.974024,1.475572,0.549883,0.252208
1694787713765625,-8.31759,-5.352501,1.935024,1.448472,0.549483,0.233208
1694787713773437,-8.20759,-5.314501,1.876024,1.432572,0.551183,0.192308
1694787713781250,-8.9759,-5.245501,1.814024,1.403872,0.561283,0.170408
1694787713789062,-8.4059,-5.192501,1.748024,1.382872,0.574483,0.147008
1694787713796875,-8.7359,-5.125501,1.670024,1.359172,0.581083,0.115608
1694787713804687,-8.18559,-5.68501,1.609024,1.335172,0.600483,0.103208
1694787713812500,-8.32459,-5.44501,1.552024,1.311172,0.606983,0.79708
1694787713820312,-8.43159,-5.33501,1.481024,1.282372,0.610783,0.79508
1694787713828125,-8.49459,-5.19501,1.410024,1.259372,0.618383,0.78008
1694787713835937,-8.51959,-5.12501,1.349024,1.239572,0.611983,0.76208
1694787713843750,-8.54959,-4.996501,1.290024,1.195672,0.603283,0.58308
1694787713851562,-8.59359,-4.966501,1.242024,1.165472,0.597283,0.50108
1694787713859375,-8.65459,-4.945501,1.226024,1.121372,0.584083,0.29208
1694787713867187,-8.71959,-4.944501,1.230024,1.78872,0.561083,0.208
1694787713875000,-8.77859,-4.946501,1.232024,1.42472,0.525283,0.18092
1694787713882812,-8.82059,-4.917501,1.230024,0.998672,0.501783,0.45692
1694787713890625,-8.78559,-4.905501,1.232024,0.959172,0.472083,0.74692
1694787713898437,-8.67359,-4.860501,1.237024,0.924472,0.457283,0.105092
1694787713906250,-8.57759,-4.766501,1.250024,0.880872,0.432583,0.145192
1694787713914062,-8.46259,-4.660501,1.275024,0.844872,0.422083,0.192592
1694787713921875,-8.31759,-4.548501,1.300024,0.807572,0.400983,0.242092
1694787713929687,-8.20359,-4.423501,1.332024,0.768772,0.385183,0.294492
1694787713937500,-8.16059,-4.265501,1.356024,0.732672,0.373783,0.329592
1694787713945312,-8.16059,-4.173501,1.375024,0.693072,0.374183,0.349992
1694787713953125,-8.17259,-4.165501,1.406024,0.647672,0.371783,0.358392
1694787713960937,-8.19559,-4.171501,1.422024,0.616872,0.373583,0.342792
1694787713968750,-8.27259,-4.165501,1.406024,0.584572,0.378883,0.330292
1694787713976562,-8.34759,-4.169501,1.406024,0.550772,0.394683,0.294192
1694787713984375,-8.36059,-4.180501,1.445024,0.531972,0.405583,0.261192
1694787713992187,-8.42159,-4.164501,1.434024,0.506872,0.404983,0.226692
1694787714000000,-8.53559,-4.162501,1.402024,0.489772,0.409483,0.204792
1694787714007812,-8.60359,-4.186501,1.392024,0.474072,0.411883,0.175092
1694787714015625,-8.58659,-4.230501,1.363024,0.469172,0.404983,0.162592
1694787714023437,-8.57559,-4.220501,1.320024,0.470372,0.394283,0.148692
1694787714031250,-8.68459,-4.169501,1.304024,0.448872,0.391183,0.141092
1694787714039062,-8.85259,-4.131501,1.344024,0.444272,0.389383,0.139592
1694787714046875,-8.85259,-4.126501,1.381024,0.442272,0.372483,0.128892
1694787714054687,-8.68659,-4.158501,1.340024,0.443672,0.371983,0.117892
1694787714062500,-8.50959,-4.202501,1.242024,0.441772,0.373383,0.103692
1694787714070312,-8.37559,-4.222501,1.156024,0.437272,0.387683,0.89392
1694787714078125,-8.24859,-4.238501,1.129024,0.439872,0.417383,0.65092
1694787714085937,-8.11659,-4.216501,1.78024,0.447772,0.432883,0.52392
1694787714093750,-7.99459,-4.144501,0.990024,0.459872,0.457783,0.43792
1694787714101562,-7.94159,-3.999501,0.923024,0.455172,0.476783,0.43292
1694787714109375,-7.91859,-3.830501,0.891024,0.455572,0.487383,0.58792
1694787714117187,-7.85159,-3.632501,0.854024,0.460672,0.501583,0.82092
1694787714125000,-7.71359,-3.458501,0.802024,0.464272,0.501383,0.119692
1694787714132812,-7.48659,-3.296501,0.722024,0.465072,0.494583,0.166992
1694787714140625,-7.26059,-3.107501,0.639024,0.453872,0.500083,0.218792
1694787714148437,-7.9359,-2.903501,0.530024,0.448372,0.488883,0.267592
1694787714156250,-6.99359,-2.730501,0.452024,0.444772,0.484383,0.324292
1694787714164062,-6.92359,-2.564501,0.367024,0.434872,0.469183,0.367092
1694787714171875,-6.86859,-2.411501,0.244024,0.423172,0.454183,0.406692
1694787714179687,-6.89259,-2.243501,0.98024,0.426572,0.448883,0.413292
1694787714187500,-7.659,-2.87501,0.52976,0.423072,0.457683,0.406592
1694787714195312,-7.15759,-1.971501,0.161976,0.413572,0.470583,0.382792
1694787714203125,-7.27259,-1.894501,0.239976,0.422372,0.478683,0.344992
1694787714210937,-7.31159,-1.837501,0.358976,0.424872,0.491083,0.314892
1694787714218750,-7.29259,-1.782501,0.495976,0.453272,0.491683,0.269292
1694787714226562,-7.22259,-1.670501,0.613976,0.475072,0.491783,0.223392
1694787714234375,-7.17059,-1.557501,0.682976,0.491372,0.501183,0.180792
1694787714242187,-7.15759,-1.443501,0.743976,0.514872,0.499683,0.142892
1694787714250000,-7.21359,-1.319501,0.780976,0.529472,0.493483,0.119292
1694787714257812,-7.37159,-1.228501,0.785976,0.545872,0.493383,0.84692
1694787714265625,-7.56659,-1.183501,0.792976,0.545272,0.475683,0.59992
1694787714273437,-7.66459,-1.169501,0.794976,0.543172,0.453783,0.19692
1694787714281250,-7.67359,-1.180501,0.806976,0.539672,0.435683,0.8108
1694787714289062,-7.72259,-1.195501,0.824976,0.537272,0.416183,0.40708
1694787714296875,-7.80359,-1.279501,0.821976,0.523072,0.395183,0.65208
1694787714304687,-7.85059,-1.434501,0.814976,0.511872,0.376483,0.83608
1694787714312500,-7.88959,-1.583501,0.830976,0.515572,0.360883,0.133508
1694787714320312,-7.88059,-1.795501,0.866976,0.496372,0.354483,0.181908
1694787714328125,-7.68859,-2.58501,0.865976,0.493672,0.344483,0.228908
1694787714335937,-7.37059,-2.350501,0.855976,0.488572,0.322283,0.275408
1694787714343750,-6.98859,-2.607501,0.882976,0.481672,0.302783,0.307908
1694787714351562,-6.72359,-2.753501,0.897976,0.475272,0.275983,0.310408
1694787714359375,-6.72859,-2.737501,0.829976,0.464572,0.255083,0.292708
1694787714367187,-7.4259,-2.658501,0.620976,0.441372,0.238783,0.240308
1694787714375000,-7.43459,-2.594501,0.342976,0.419172,0.179383,0.179208
1694787714382812,-7.67459,-2.572501,0.96976,0.405772,0.136583,0.123408
1694787714390625,-7.72659,-2.611501,0.41024,0.359072,0.79683,0.88808
1694787714398437,-7.59659,-2.729501,0.149024,0.324072,0.41883,0.78308
1694787714406250,-7.34759,-2.950501,0.225024,0.295772,0.14383,0.77708
1694787714414062,-7.17959,-3.234501,0.243024,0.257672,0.4717,0.105108
1694787714421875,-7.12259,-3.511501,0.219024,0.223972,0.15083,0.128808
1694787714429687,-7.28259,-3.680501,0.213024,0.208172,0.51983,0.153208
1694787714437500,-7.64059,-3.836501,0.245024,0.195872,0.88283,0.177408
1694787714445312,-7.97359,-3.999501,0.331024,0.200472,0.127983,0.190808
1694787714453125,-8.13459,-4.131501,0.414024,0.201872,0.146483,0.196008
1694787714460937,-8.18959,-4.199501,0.466024,0.197872,0.135983,0.187708
1694787714468750,-8.28959,-4.241501,0.512024,0.170172,0.125883,0.178008
1694787714476562,-8.41859,-4.256501,0.596024,0.135772,0.97083,0.144108
1694787714484375,-8.56759,-4.299501,0.705024,0.104572,0.71183,0.88408
1694787714492187,-8.70459,-4.383501,0.746024,0.52872,0.48883,0.51608
1694787714500000,-8.75259,-4.523501,0.681024,0.16872,0.22483,0.11508
1694787714507812,-8.78059,-4.639501,0.567024,0.5328,0.4083,0.28392
1694787714515625,-8.82659,-4.776501,0.494024,0.21928,0.1817,0.39592
1694787714523437,-8.91459,-4.944501,0.504024,0.26428,0.10383,0.43992
1694787714531250,-8.96159,-5.131501,0.491024,0.32828,0.21783,0.28092
1694787714539062,-9.59,-5.320501,0.423024,0.22228,0.34183,0.10492
1694787714546875,-9.3259,-5.482501,0.311024,0.21028,0.67283,0.9108
1694787714554687,-9.5459,-5.664501,0.218024,0.4228,0.90383,0.12908
1694787714562500,-9.10559,-5.786501,0.132024,0.2172,0.96783,0.9808
1694787714570312,-9.18659,-5.829501,0.64024,0.14472,0.123883,0.4208
1694787714578125,-9.30359,-5.812501,0.23024,0.31672,0.146483,0.17092
1694787714585937,-9.52259,-5.776501,0.7024,0.43072,0.155083,0.40492
1694787714593750,-9.78559,-5.674501,0.9024,0.49672,0.160283,0.80992
1694787714601562,-9.99059,-5.614501,0.29024,0.53472,0.159783,0.118692
1694787714609375,-10.159,-5.616501,0.29024,0.40072,0.134583,0.153892
1694787714617187,-9.91459,-5.579501,0.25976,0.37872,0.119683,0.204492
1694787714625000,-9.88759,-5.571501,0.114976,0.32772,0.121283,0.251692
1694787714632812,-9.86359,-5.601501,0.202976,0.30372,0.135783,0.306092
1694787714640625,-9.89659,-5.608501,0.319976,0.46772,0.147983,0.343692
1694787714648437,-9.93059,-5.583501,0.410976,0.60972,0.163683,0.365192
1694787714656250,-9.98959,-5.537501,0.442976,0.90372,0.189783,0.395692
1694787714664062,-10.6459,-5.376501,0.408976,0.118372,0.193683,0.423692
1694787714671875,-10.18259,-5.162501,0.347976,0.121572,0.184583,0.445792
1694787714679687,-10.36659,-4.959501,0.279976,0.120672,0.191983,0.469292
1694787714687500,-10.52759,-4.768501,0.225976,0.119372,0.172883,0.493192
1694787714695312,-10.62159,-4.628501,0.189976,0.99672,0.161883,0.504592
1694787714703125,-10.63859,-4.537501,0.189976,0.84072,0.134983,0.497392
1694787714710937,-10.63459,-4.478501,0.214976,0.66672,0.121183,0.472592
1694787714718750,-10.56759,-4.446501,0.255976,0.55772,0.111783,0.449492
1694787714726562,-10.48159,-4.438501,0.292976,0.46172,0.105783,0.421392
1694787714734375,-10.38859,-4.451501,0.312976,0.48672,0.111383,0.391392
1694787714742187,-10.32759,-4.487501,0.326976,0.49872,0.111983,0.366292
1694787714750000,-10.29259,-4.548501,0.319976,0.52572,0.116483,0.350492
1694787714757812,-10.28259,-4.606501,0.309976,0.78172,0.116883,0.331492
1694787714765625,-10.33059,-4.626501,0.310976,0.84172,0.115883,0.315792
1694787714773437,-10.41159,-4.649501,0.296976,0.100872,0.115383,0.310992
1694787714781250,-10.50059,-4.730501,0.261976,0.104872,0.105183,0.299992
1694787714789062,-10.55859,-4.843501,0.270976,0.127672,0.107083,0.281092
1694787714796875,-10.54059,-4.993501,0.329976,0.128872,0.93083,0.268892
1694787714804687,-10.45959,-5.126501,0.416976,0.153272,0.88283,0.254792
1694787714812500,-10.38359,-5.226501,0.493976,0.169472,0.101383,0.238492
1694787714820312,-10.35759,-5.303501,0.540976,0.191172,0.104283,0.246292
1694787714828125,-10.31959,-5.383501,0.597976,0.224572,0.100883,0.252292
1694787714835937,-10.27559,-5.479501,0.676976,0.243072,0.115883,0.259692
1694787714843750,-10.29159,-5.522501,0.756976,0.278572,0.123383,0.267292
1694787714851562,-10.42259,-5.506501,0.818976,0.312272,0.145583,0.282092
1694787714859375,-10.62059,-5.488501,0.815976,0.335572,0.170383,0.289392
1694787714867187,-10.83759,-5.451501,0.806976,0.367872,0.182483,0.309192
1694787714875000,-11.3459,-5.356501,0.773976,0.392372,0.193083,0.301092
1694787714882812,-11.18459,-5.282501,0.768976,0.408972,0.189483,0.297792
1694787714890625,-11.26459,-5.264501,0.775976,0.414972,0.204983,0.273992
1694787714898437,-11.29659,-5.250501,0.794976,0.423872,0.200683,0.256892
1694787714906250,-11.31459,-5.233501,0.821976,0.415672,0.202083,0.236292
1694787714914062,-11.31559,-5.237501,0.846976,0.413172,0.191583,0.215992
1694787714921875,-11.22459,-5.263501,0.880976,0.419272,0.202283,0.192192
1694787714929687,-11.10959,-5.258501,0.932976,0.417572,0.203183,0.174992
1694787714937500,-11.759,-5.250501,0.964976,0.403772,0.198083,0.167392
1694787714945312,-10.93859,-5.213501,0.980976,0.399072,0.197883,0.161192
1694787714953125,-10.92059,-5.194501,0.976976,0.390172,0.202883,0.162792
1694787714960937,-10.95159,-5.217501,0.989976,0.376072,0.193583,0.162892
1694787714968750,-10.98759,-5.284501,-1.42976,0.359472,0.188383,0.160092
1694787714976562,-10.97759,-5.362501,-1.114976,0.350272,0.185383,0.161792
1694787714984375,-10.92959,-5.441501,-1.182976,0.344372,0.178683,0.166792
1694787714992187,-10.88359,-5.477501,-1.239976,0.332272,0.174483,0.177892
1694787715000000,-10.87159,-5.445501,-1.273976,0.323172,0.165383,0.193692
1694787715007812,-10.90059,-5.345501,-1.283976,0.307172,0.160083,0.230192
1694787715015625,-10.92059,-5.186501,-1.233976,0.289472,0.132583,0.284092
1694787715023437,-10.91459,-5.22501,-1.172976,0.254072,0.107083,0.354092
1694787715031250,-10.84359,-4.865501,-1.115976,0.221672,0.77083,0.431892
1694787715039062,-10.69859,-4.702501,-1.45976,0.193972,0.33983,0.522492
1694787715046875,-10.56359,-4.476501,0.973976,0.155472,0.9583,0.607992
1694787715054687,-10.45959,-4.243501,0.900976,0.106372,0.9717,0.688792
1694787715062500,-10.39259,-3.995501,0.798976,0.61372,0.35317,0.741392
1694787715070312,-10.31959,-3.724501,0.692976,0.23972,0.49617,0.789092
1694787715078125,-10.26159,-3.444501,0.615976,0.16528,0.50717,0.825492
1694787715085937,-10.20759,-3.237501,0.501976,0.55928,0.62217,0.852592
1694787715093750,-10.14659,-3.91501,0.411976,0.92428,0.64617,0.859192
1694787715101562,-10.10259,-2.983501,0.349976,0.125728,0.62617,0.857992
1694787715109375,-10.10559,-2.889501,0.295976,0.150628,0.48917,0.840392
1694787715117187,-10.11759,-2.849501,0.256976,0.173828,0.39417,0.813692
1694787715125000,-10.11559,-2.835501,0.222976,0.200428,0.33217,0.780692
1694787715132812,-10.12059,-2.836501,0.209976,0.208228,0.34117,0.760492
1694787715140625,-10.14459,-2.828501,0.204976,0.216228,0.14317,0.737992
1694787715148437,-10.19959,-2.803501,0.170976,0.211728,0.4717,0.728392
1694787715156250,-10.28659,-2.753501,0.152976,0.224328,0.6617,0.712792
1694787715164062,-10.35259,-2.728501,0.127976,0.216728,0.983,0.700092
1694787715171875,-10.35259,-2.685501,0.111976,0.224628,0.10717,0.693992
1694787715179687,-10.30159,-2.646501,0.100976,0.230428,0.12317,0.700492
1694787715187500,-10.27059,-2.589501,0.114976,0.231528,0.10217,0.716292
1694787715195312,-10.26459,-2.510501,0.125976,0.231628,0.14517,0.728792
1694787715203125,-10.26759,-2.425501,0.111976,0.229828,0.8117,0.755192
1694787715210937,-10.27259,-2.317501,0.87976,0.231728,0.12717,0.790192
1694787715218750,-10.24759,-2.225501,0.85976,0.231528,0.15717,0.824492
1694787715226562,-10.16359,-2.115501,0.108976,0.224528,0.4417,0.865092
1694787715234375,-10.8559,-2.13501,0.153976,0.214828,0.1517,0.901092
1694787715242187,-9.99159,-1.898501,0.204976,0.200428,0.18283,0.938192
1694787715250000,-9.87759,-1.784501,0.243976,0.176728,0.33983,0.972292
1694787715257812,-9.79059,-1.639501,0.272976,0.153628,0.55183,0.998192
1694787715265625,-9.71859,-1.487501,0.332976,0.128428,0.90183,1.14792
1694787715273437,-9.66459,-1.329501,0.396976,0.108228,0.110883,1.34492
1694787715281250,-9.62259,-1.178501,0.430976,0.91128,0.133083,1.49592
1694787715289062,-9.55559,-1.32501,0.488976,0.64828,0.149283,1.53892
1694787715296875,-9.49659,0.883501,0.550976,0.53828,0.170783,1.56592
1694787715304687,-9.48659,0.745501,0.584976,0.49028,0.194583,1.65492
1694787715312500,-9.49059,0.636501,0.639976,0.45828,0.198083,1.70092
1694787715320312,-9.45759,0.504501,0.689976,0.39828,0.193083,1.70092
1694787715328125,-9.38259,0.402501,0.737976,0.39928,0.196483,1.68392
1694787715335937,-9.30259,0.292501,0.792976,0.47628,0.193183,1.66992
1694787715343750,-9.24759,0.186501,0.854976,0.53528,0.189583,1.67292
1694787715351562,-9.21459,0.85501,0.897976,0.50728,0.178183,1.68892
1694787715359375,-9.18659,0.41499,0.927976,0.61528,0.163483,1.72292
1694787715367187,-9.14559,0.176499,0.955976,0.76328,0.157883,1.96192
1694787715375000,-9.11959,0.309499,0.980976,0.86628,0.147083,1.118492
1694787715382812,-9.9659,0.430499,0.985976,0.104528,0.141883,1.145392
1694787715390625,-9.5559,0.561499,-1.13976,0.121028,0.127683,1.164692
1694787715398437,-9.2059,0.694499,-1.43976,0.147928,0.125883,1.194792
1694787715406250,-9.459,0.827499,-1.41976,0.164228,0.110483,1.223592
1694787715414062,-9.559,0.957499,-1.61976,0.182428,0.108783,1.246992
1694787715421875,-9.1459,1.84499,-1.75976,0.201728,0.119783,1.265892
1694787715429687,-9.6359,1.205499,-1.85976,0.230628,0.109283,1.278792
1694787715437500,-9.14459,1.336499,-1.105976,0.247328,0.115283,1.289592
1694787715445312,-9.25059,1.453499,-1.115976,0.257928,0.111783,1.286692
1694787715453125,-9.31259,1.563499,-1.117976,0.270128,0.101983,1.286992
1694787715460937,-9.35459,1.667499,-1.143976,0.271828,0.96683,1.279292
1694787715468750,-9.38859,1.762499,-1.154976,0.288628,0.77983,1.273692
1694787715476562,-9.38759,1.845499,-1.177976,0.302828,0.59283,1.258492
1694787715484375,-9.37759,1.961499,-1.203976,0.316828,0.48683,1.239992
1694787715492187,-9.40759,2.46499,-1.207976,0.329528,0.33183,1.221492
1694787715500000,-9.45159,2.154499,-1.196976,0.340628,0.27883,1.204292
1694787715507812,-9.50559,2.290499,-1.155976,0.357928,0.1417,1.179992
1694787715515625,-9.53259,2.421499,-1.119976,0.372028,0.7817,1.170592
1694787715523437,-9.49259,2.521499,-1.76976,0.395728,0.43017,1.155692
1694787715531250,-9.43759,2.622499,-1.58976,0.427628,0.62917,1.153292
1694787715539062,-9.37959,2.704499,-1.47976,0.456828,0.74217,1.145892
1694787715546875,-9.29459,2.752499,-1.38976,0.476728,0.86117,1.138492
1694787715554687,-9.25859,2.798499,-1.29976,0.494928,0.91717,1.152792
1694787715562500,-9.23459,2.838499,0.992976,0.523828,0.89717,1.149892
1694787715570312,-9.22359,2.913499,0.968976,0.540528,0.97417,1.159592
1694787715578125,-9.19959,2.994499,0.911976,0.554328,0.84917,1.162392
1694787715585937,-9.15659,3.75499,0.861976,0.581328,0.84717,1.167592
1694787715593750,-9.11059,3.181499,0.813976,0.608628,0.79317,1.167792
1694787715601562,-9.6359,3.276499,0.784976,0.631528,0.70117,1.169192
1694787715609375,-9.2559,3.365499,0.741976,0.660628,0.55917,1.167392
1694787715617187,-8.99659,3.432499,0.695976,0.683828,0.40317,1.157592
1694787715625000,-8.98459,3.509499,0.671976,0.708128,0.23817,1.143392
1694787715632812,-8.96459,3.561499,0.668976,0.740228,0.283,1.136792
1694787715640625,-8.95659,3.629499,0.675976,0.756928,0.18483,1.125692
1694787715648437,-8.91859,3.701499,0.643976,0.780228,0.30683,1.111192
1694787715656250,-8.90359,3.777499,0.650976,0.803628,0.53683,1.84092
1694787715664062,-8.92159,3.829499,0.655976,0.816928,0.75083,1.76192
1694787715671875,-8.94159,3.848499,0.660976,0.830828,0.101783,1.58392
1694787715679687,-8.93959,3.884499,0.680976,0.843428,0.117783,1.31392
1694787715687500,-8.93859,3.926499,0.703976,0.855828,0.128883,1.7792
1694787715695312,-8.92459,3.959499,0.706976,0.854728,0.143083,0.980692
1694787715703125,-8.93759,4.6499,0.713976,0.853428,0.150183,0.957192
1694787715710937,-8.92159,4.42499,0.735976,0.858528,0.158083,0.931792
1694787715718750,-8.91059,4.71499,0.749976,0.849828,0.157183,0.911292
1694787715726562,-8.89259,4.111499,0.754976,0.848828,0.146183,0.886392
1694787715734375,-8.86859,4.173499,0.749976,0.841428,0.147183,0.873692
1694787715742187,-8.84359,4.257499,0.738976,0.837128,0.133883,0.845892
1694787715750000,-8.83259,4.339499,0.718976,0.838928,0.126583,0.830392
1694787715757812,-8.82959,4.434499,0.684976,0.840828,0.106783,0.804292
1694787715765625,-8.82659,4.555499,0.682976,0.846228,0.89283,0.776292
1694787715773437,-8.80759,4.682499,0.644976,0.857628,0.71083,0.737492
1694787715781250,-8.76659,4.809499,0.614976,0.864528,0.50283,0.709592
1694787715789062,-8.75259,4.928499,0.553976,0.872528,0.20583,0.683792
1694787715796875,-8.69659,5.1499,0.489976,0.892928,0.3317,0.662392
1694787715804687,-8.59759,5.60499,0.442976,0.902528,0.24317,0.637792
1694787715812500,-8.45059,5.84499,0.394976,0.924128,0.34317,0.628792
1694787715820312,-8.28059,5.64499,0.366976,0.936528,0.37917,0.616392
1694787715828125,-8.15659,5.58499,0.357976,0.941228,0.46517,0.611892
1694787715835937,-8.8959,5.67499,0.321976,0.941528,0.42617,0.611592
1694787715843750,-8.859,5.65499,0.296976,0.936728,0.41517,0.610192
1694787715851562,-7.93159,5.62499,0.252976,0.924528,0.22917,0.612692
1694787715859375,-7.85459,5.63499,0.220976,0.921128,0.15917,0.625192
1694787715867187,-7.77859,5.84499,0.209976,0.902528,0.683,0.630992
1694787715875000,-7.74659,5.127499,0.175976,0.888528,0.9883,0.654192
1694787715882812,-7.73359,5.119499,0.148976,0.869728,0.35183,0.669292
1694787715890625,-7.77659,5.129499,0.118976,0.854128,0.50383,0.681392
1694787715898437,-7.85159,5.169499,0.98976,0.824928,0.59783,0.682692
1694787715906250,-7.92459,5.202499,0.64976,0.797628,0.67883,0.683792
1694787715914062,-7.97059,5.243499,0.32976,0.768628,0.70783,0.684992
1694787715921875,-8.3959,5.303499,0.14976,0.736528,0.82883,0.675292
1694787715929687,-8.8959,5.389499,0.8024,0.703428,0.81583,0.654592
1694787715937500,-8.12659,5.457499,0.35024,0.691728,0.80583,0.630992
1694787715945312,-8.17359,5.515499,0.62024,0.663128,0.56983,0.607792
1694787715953125,-8.20059,5.564499,0.76024,0.633128,0.45283,0.584292
1694787715960937,-8.19659,5.582499,0.98024,0.612128,0.30683,0.564092
1694787715968750,-8.19859,5.603499,0.87024,0.584128,0.5983,0.537492
1694787715976562,-8.18759,5.609499,0.78024,0.558528,0.19417,0.512892
1694787715984375,-8.14759,5.608499,0.103024,0.537728,0.31117,0.483192
1694787715992187,-8.10159,5.626499,0.101024,0.509428,0.62917,0.456992
1694787716000000,-8.9359,5.670499,0.116024,0.483928,0.86517,0.432292
1694787716007812,-8.9359,5.690499,0.151024,0.457028,0.106417,0.408892
1694787716015625,-8.6459,5.714499,0.189024,0.434928,0.130017,0.376292
1694787716023437,-8.4659,5.743499,0.196024,0.409428,0.146717,0.351392
1694787716031250,-8.1459,5.770499,0.242024,0.401028,0.163917,0.334292
1694787716039062,-7.99059,5.809499,0.312024,0.380128,0.182717,0.301692
1694787716046875,-7.95059,5.825499,0.344024,0.357328,0.186217,0.281392
1694787716054687,-7.93059,5.839499,0.385024,0.336528,0.198717,0.264092
1694787716062500,-7.89159,5.832499,0.408024,0.318728,0.216717,0.243992
1694787716070312,-7.84859,5.813499,0.415024,0.305028,0.210817,0.232792
1694787716078125,-7.81659,5.826499,0.428024,0.281128,0.215317,0.210692
1694787716085937,-7.81059,5.846499,0.444024,0.266128,0.216017,0.199592
1694787716093750,-7.83559,5.861499,0.478024,0.260128,0.232217,0.184292
1694787716101562,-7.86459,5.872499,0.515024,0.233128,0.239317,0.179392
1694787716109375,-7.86959,5.902499,0.551024,0.219628,0.247217,0.162292
1694787716117187,-7.83159,5.916499,0.551024,0.219928,0.254117,0.151392
1694787716125000,-7.81159,5.930499,0.571024,0.213828,0.245117,0.135592
1694787716132812,-7.80459,5.929499,0.578024,0.199128,0.252017,0.126092
1694787716140625,-7.81859,5.910499,0.587024,0.196028,0.241417,0.108692
1694787716148437,-7.83259,5.905499,0.588024,0.181728,0.235317,0.84692
1694787716156250,-7.84859,5.891499,0.601024,0.170828,0.229317,0.76692
1694787716164062,-7.85759,5.882499,0.613024,0.158728,0.226817,0.62492
1694787716171875,-7.83059,5.856499,0.608024,0.139328,0.201117,0.35092
1694787716179687,-7.81459,5.831499,0.613024,0.125828,0.200517,0.17692
1694787716187500,-7.79859,5.819499,0.624024,0.121228,0.183317,0.2908
1694787716195312,-7.81659,5.806499,0.613024,0.114028,0.176917,0.15808
1694787716203125,-7.83659,5.804499,0.620024,0.97328,0.169517,0.28608
1694787716210937,-7.84159,5.795499,0.633024,0.99028,0.150017,0.46208
1694787716218750,-7.84059,5.793499,0.604024,0.91828,0.148417,0.55808
1694787716226562,-7.82959,5.768499,0.590024,0.74728,0.142117,0.51308
1694787716234375,-7.82459,5.769499,0.590024,0.73628,0.130617,0.65808
1694787716242187,-7.81959,5.746499,0.577024,0.74928,0.122617,0.69008
1694787716250000,-7.81259,5.747499,0.561024,0.72228,0.117517,0.73908
1694787716257812,-7.83559,5.734499,0.531024,0.57028,0.116317,0.80308
1694787716265625,-7.83959,5.734499,0.497024,0.52528,0.106617,0.86908
1694787716273437,-7.87259,5.715499,0.490024,0.49128,0.94217,0.96408
1694787716281250,-7.93059,5.730499,0.472024,0.51128,0.90717,0.109108
1694787716289062,-7.97459,5.728499,0.463024,0.46328,0.94617,0.109008
1694787716296875,-8.759,5.738499,0.453024,0.42028,0.89917,0.120108
1694787716304687,-8.2159,5.735499,0.442024,0.49628,0.96417,0.116808
1694787716312500,-8.1859,5.745499,0.445024,0.28528,0.94817,0.117108
1694787716320312,-8.1059,5.739499,0.437024,0.34328,0.98617,0.116808
1694787716328125,-8.2159,5.744499,0.442024,0.46428,0.99317,0.105808
1694787716335937,-8.3559,5.751499,0.442024,0.41728,0.119817,0.100608
1694787716343750,-8.4059,5.749499,0.449024,0.39928,0.122417,0.83308
1694787716351562,-8.5559,5.749499,0.463024,0.49128,0.136617,0.68908
1694787716359375,-8.8259,5.759499,0.474024,0.56528,0.149317,0.52808
1694787716367187,-8.9659,5.739499,0.476024,0.70328,0.159117,0.54108
1694787716375000,-8.10959,5.746499,0.478024,0.71928,0.175917,0.52208
1694787716382812,-8.4559,5.658499,0.513024,0.75028,0.185317,0.42608
1694787716390625,-8.559,5.588499,0.545024,0.73128,0.193417,0.28208
1694787716398437,-8.6759,5.638499,0.529024,0.74828,0.200117,0.29708
1694787716406250,-8.8859,5.633499,0.492024,0.70228,0.202917,0.45208
1694787716414062,-8.6759,5.620499,0.538024,0.53828,0.208517,0.56308
1694787716421875,-8.1359,5.623499,0.565024,0.49028,0.213817,0.53008
1694787716429687,-7.92759,5.629499,0.570024,0.50728,0.208417,0.51608
1694787716437500,-7.85459,5.626499,0.586024,0.29228,0.198817,0.50308
1694787716445312,-7.79859,5.611499,0.586024,0.25628,0.200217,0.33008
1694787716453125,-7.77359,5.588499,0.577024,0.8728,0.198317,0.20608
1694787716460937,-7.74359,5.571499,0.561024,0.1028,0.177517,0.10208
1694787716468750,-7.72459,5.553499,0.534024,0.14372,0.169417,0.7308
1694787716476562,-7.71359,5.537499,0.536024,0.26772,0.161217,0.2808
1694787716484375,-7.72559,5.579499,0.515024,0.32972,0.142717,0.1708
1694787716492187,-7.75559,5.627499,0.499024,0.49672,0.121617,0.13308
1694787716500000,-7.81759,5.660499,0.520024,0.51272,0.113817,0.22808
1694787716507812,-7.88059,5.704499,0.529024,0.57272,0.90217,0.25008
1694787716515625,-7.89459,5.740499,0.513024,0.56772,0.87517,0.47108
1694787716523437,-7.90659,5.772499,0.492024,0.62972,0.67717,0.52208
1694787716531250,-7.91859,5.798499,0.483024,0.52272,0.64517,0.60008
1694787716539062,-7.96159,5.826499,0.465024,0.39972,0.59017,0.60108
1694787716546875,-7.98259,5.846499,0.446024,0.39972,0.45717,0.65108
1694787716554687,-8.59,5.864499,0.444024,0.23172,0.45817,0.72808
1694787716562500,-8.1859,5.876499,0.426024,0.21672,0.39117,0.74508
1694787716570312,-8.3659,5.897499,0.405024,0.10672,0.37417,0.85508
1694787716578125,-8.5959,5.895499,0.403024,0.228,0.34317,0.99708
1694787716585937,-8.7559,5.888499,0.405024,0.15428,0.29117,0.101208
1694787716593750,-8.6459,5.879499,0.408024,0.35228,0.33917,0.102508
1694787716601562,-8.5759,5.856499,0.403024,0.44528,0.27017,0.107308
1694787716609375,-8.4359,5.822499,0.378024,0.62628,0.21917,0.108808
1694787716617187,-8.859,5.769499,0.360024,0.67628,0.19017,0.126208
1694787716625000,-7.98059,5.699499,0.372024,0.66228,0.11017,0.135808
1694787716632812,-7.96059,5.689499,0.369024,0.56728,0.3083,0.145408
1694787716640625,-7.98759,5.710499,0.397024,0.49828,0.24383,0.171208
1694787716648437,-7.98959,5.668499,0.433024,0.42328,0.38483,0.190308
1694787716656250,-7.95459,5.618499,0.447024,0.25928,0.42383,0.210908
1694787716664062,-7.89159,5.511499,0.399024,0.2028,0.64183,0.246108
1694787716671875,-7.75759,5.457499,0.315024,0.19072,0.79183,0.276408
1694787716679687,-7.75259,5.531499,0.285024,0.53572,0.90283,0.316008
1694787716687500,-7.96459,5.666499,0.347024,0.91372,0.114383,0.335708
1694787716695312,-8.22059,5.738499,0.435024,0.119972,0.94783,0.346508
1694787716703125,-8.34859,5.755499,0.496024,0.142672,0.55183,0.352008
1694787716710937,-8.40459,5.891499,0.437024,0.177472,0.2383,0.349608
1694787716718750,-8.40859,6.15499,0.382024,0.206272,0.56617,0.339108
1694787716726562,-8.32659,5.991499,0.403024,0.235172,0.117017,0.317608
1694787716734375,-8.13759,5.933499,0.337024,0.262772,0.188317,0.280208
1694787716742187,-7.94659,5.855499,0.200024,0.296672,0.251817,0.242908
1694787716750000,-7.79259,5.756499,0.112024,0.335072,0.297817,0.201408
1694787716757812,-7.71859,5.732499,0.44024,0.384172,0.347017,0.175508
1694787716765625,-7.72759,5.757499,0.5024,0.437772,0.371017,0.156508
1694787716773437,-7.82359,5.823499,0.21024,0.478772,0.400217,0.151508
1694787716781250,-7.97659,5.894499,0.66024,0.519772,0.424917,0.157508
1694787716789062,-8.11959,5.947499,0.114024,0.563372,0.454717,0.172908
1694787716796875,-8.25159,5.981499,0.125024,0.585872,0.474017,0.208608
1694787716804687,-8.36759,5.969499,0.157024,0.609472,0.482917,0.252508
1694787716812500,-8.41159,5.928499,0.154024,0.635772,0.512317,0.305508
1694787716820312,-8.38859,5.903499,0.159024,0.655872,0.531717,0.366508
1694787716828125,-8.32059,5.864499,0.168024,0.671572,0.549617,0.427408
1694787716835937,-8.21759,5.772499,0.171024,0.682872,0.565117,0.472708
1694787716843750,-8.8059,5.690499,0.135024,0.715672,0.577217,0.510308
1694787716851562,-7.96359,5.645499,0.115024,0.722372,0.580017,0.544908
1694787716859375,-7.92059,5.589499,0.123024,0.748572,0.586517,0.552708
1694787716867187,-7.92259,5.605499,0.135024,0.763472,0.600417,0.560408
1694787716875000,-7.94559,5.718499,0.148024,0.774472,0.605817,0.554008
1694787716882812,-7.97259,5.813499,0.201024,0.774272,0.613617,0.547608
1694787716890625,-7.95759,5.849499,0.282024,0.768472,0.627817,0.526908
1694787716898437,-7.90659,5.880499,0.321024,0.758372,0.637117,0.501408
1694787716906250,-7.80459,5.913499,0.307024,0.726772,0.641817,0.469708
1694787716914062,-7.74259,5.943499,0.294024,0.702572,0.637617,0.435308
1694787716921875,-7.71859,5.932499,0.287024,0.682272,0.636417,0.397308
1694787716929687,-7.72459,5.883499,0.255024,0.657072,0.618717,0.352108
1694787716937500,-7.71659,5.815499,0.219024,0.640872,0.620117,0.311108
1694787716945312,-7.72759,5.755499,0.155024,0.611172,0.602717,0.270508
1694787716953125,-7.74759,5.688499,0.117024,0.601172,0.583017,0.241008
1694787716960937,-7.73559,5.686499,0.119024,0.604872,0.574817,0.205108
1694787716968750,-7.73059,5.661499,0.140024,0.590172,0.565017,0.177008
1694787716976562,-7.70059,5.655499,0.135024,0.573672,0.563317,0.148708
1694787716984375,-7.65659,5.687499,0.114024,0.559072,0.562517,0.125008
1694787716992187,-7.65059,5.726499,0.112024,0.544472,0.549417,0.96908
1694787717000000,-7.70759,5.752499,0.135024,0.525072,0.548117,0.73208
1694787717007812,-7.73459,5.761499,0.160024,0.508672,0.558717,0.49308
1694787717015625,-7.68659,5.736499,0.146024,0.490372,0.570517,0.27108
1694787717023437,-7.63159,5.702499,0.108024,0.472372,0.576617,0.15808
1694787717031250,-7.59459,5.673499,0.67024,0.458772,0.570617,0.3308
1694787717039062,-7.57959,5.648499,0.46024,0.457572,0.570617,0.4592
1694787717046875,-7.55859,5.641499,0.39024,0.443672,0.567317,0.6308
1694787717054687,-7.50659,5.620499,0.46024,0.437572,0.557317,0.11208
1694787717062500,-7.43159,5.637499,0.76024,0.435472,0.561517,0.36308
1694787717070312,-7.37859,5.719499,0.89024,0.436972,0.556917,0.44208
1694787717078125,-7.36059,5.772499,0.108024,0.418172,0.546817,0.64808
1694787717085937,-7.37359,5.839499,0.119024,0.412172,0.551017,0.77108
1694787717093750,-7.44259,5.902499,0.146024,0.410472,0.547617,0.80308
1694787717101562,-7.49959,5.911499,0.150024,0.395372,0.545917,0.81808
1694787717109375,-7.51059,5.903499,0.107024,0.378272,0.550717,0.91008
1694787717117187,-7.55759,5.944499,0.55024,0.362572,0.552817,0.112908
1694787717125000,-7.68059,5.997499,0.41024,0.357772,0.553217,0.127008
1694787717132812,-7.88759,6.57499,0.88024,0.339072,0.550517,0.152008
1694787717140625,-8.6359,6.7499,0.164024,0.318572,0.556017,0.181708
1694787717148437,-8.13259,5.923499,0.148024,0.299472,0.575617,0.221908
1694787717156250,-8.18859,5.846499,0.105024,0.271272,0.586717,0.262308
1694787717164062,-8.28359,5.691499,0.123024,0.259572,0.594017,0.323308
1694787717171875,-8.36459,5.475499,0.160024,0.243372,0.609317,0.379408
1694787717179687,-8.40059,5.263499,0.167024,0.234972,0.616117,0.424708
1694787717187500,-8.46159,5.86499,0.156024,0.235672,0.619117,0.465508
1694787717195312,-8.49059,4.881499,0.212024,0.248872,0.617217,0.495408
1694787717203125,-8.49159,4.794499,0.289024,0.265372,0.604817,0.514608
1694787717210937,-8.53559,4.814499,0.389024,0.288472,0.598717,0.513308
1694787717218750,-8.58359,4.830499,0.480024,0.302672,0.576617,0.495008
1694787717226562,-8.67859,4.828499,0.587024,0.306772,0.554117,0.462408
1694787717234375,-8.84859,4.817499,0.630024,0.305772,0.535717,0.428308
1694787717242187,-9.8159,4.818499,0.673024,0.304772,0.516117,0.405208
1694787717250000,-9.28359,4.772499,0.726024,0.294072,0.503017,0.389808
1694787717257812,-9.43159,4.627499,0.799024,0.280372,0.494617,0.394608
1694787717265625,-9.50759,4.389499,0.825024,0.264872,0.480017,0.416808
1694787717273437,-9.64059,4.174499,0.795024,0.259672,0.454817,0.462808
1694787717281250,-9.79859,3.920499,0.789024,0.249572,0.426817,0.527708
1694787717289062,-9.89959,3.656499,0.803024,0.256272,0.398017,0.602108
1694787717296875,-9.92559,3.424499,0.797024,0.248972,0.371717,0.671708
1694787717304687,-9.86259,3.267499,0.775024,0.264972,0.344417,0.736808
1694787717312500,-9.77259,3.175499,0.777024,0.274772,0.319317,0.787608
1694787717320312,-9.78559,3.142499,0.827024,0.280672,0.297017,0.813308
1694787717328125,-9.90659,3.194499,0.918024,0.289772,0.286017,0.822908
1694787717335937,-10.13759,3.235499,1.48024,0.273172,0.289317,0.799308
1694787717343750,-10.40659,3.183499,1.185024,0.252272,0.308017,0.768908
1694787717351562,-10.65859,3.79499,1.271024,0.229372,0.335617,0.755608
1694787717359375,-10.83859,2.943499,1.294024,0.197272,0.358417,0.753308
1694787717367187,-10.98259,2.749499,1.313024,0.158372,0.383517,0.777708
1694787717375000,-11.9159,2.553499,1.329024,0.113572,0.386317,0.822808
1694787717382812,-11.12959,2.342499,1.384024,0.93172,0.384017,0.862008
1694787717390625,-11.14259,2.180499,1.480024,0.67972,0.367517,0.895208
1694787717398437,-11.19159,2.89499,1.601024,0.49772,0.362217,0.896708
1694787717406250,-11.34859,2.35499,1.754024,0.21072,0.354017,0.874808
1694787717414062,-11.50159,1.947499,1.907024,0.572,0.357117,0.832108
1694787717421875,-11.57759,1.850499,2.9024,0.21628,0.361517,0.786408
1694787717429687,-11.64459,1.795499,2.84024,0.43628,0.379517,0.737208
1694787717437500,-11.73359,1.713499,2.110024,0.79628,0.375317,0.696208
1694787717445312,-11.85059,1.634499,2.194024,0.95828,0.382317,0.663008
1694787717453125,-11.98059,1.504499,2.262024,0.128828,0.384217,0.639108
1694787717460937,-12.10759,1.367499,2.327024,0.136228,0.381617,0.621908
1694787717468750,-12.17859,1.235499,2.402024,0.146728,0.388917,0.602908
1694787717476562,-12.21859,1.102499,2.473024,0.167428,0.385117,0.587008
1694787717484375,-12.21359,0.958499,2.546024,0.182528,0.381817,0.565108
1694787717492187,-12.20059,0.810499,2.592024,0.178828,0.355517,0.534308
1694787717500000,-12.15159,0.715499,2.640024,0.158028,0.353017,0.493608
1694787717507812,-12.8759,0.660499,2.629024,0.140828,0.334717,0.458108
1694787717515625,-12.1859,0.616499,2.606024,0.126028,0.301317,0.411808
1694787717523437,-11.93159,0.630499,2.576024,0.97228,0.266517,0.356108
1694787717531250,-11.89059,0.690499,2.558024,0.72128,0.255117,0.312608
1694787717539062,-11.88059,0.766499,2.512024,0.39228,0.226817,0.264808
1694787717546875,-11.91759,0.858499,2.480024,0.15428,0.197017,0.221608
1694787717554687,-11.99659,0.960499,2.450024,0.928,0.172317,0.183008
1694787717562500,-12.7759,1.74499,2.427024,0.19672,0.151317,0.147508
1694787717570312,-12.16659,1.208499,2.395024,0.26172,0.126617,0.123008
1694787717578125,-12.20959,1.335499,2.356024,0.35872,0.124117,0.94808
1694787717585937,-12.20159,1.438499,2.299024,0.24272,0.117817,0.66608
1694787717593750,-12.11159,1.540499,2.240024,0.21272,0.108517,0.52808
1694787717601562,-11.96159,1.586499,2.157024,0.11272,0.108417,0.38408
1694787717609375,-11.75859,1.622499,2.23024,0.3772,0.108917,0.21108
1694787717617187,-11.52759,1.646499,1.898024,0.15728,0.90717,0.492
1694787717625000,-11.31359,1.701499,1.800024,0.24128,0.77017,0.16192
1694787717632812,-11.18059,1.776499,1.768024,0.31628,0.60517,0.36092
1694787717640625,-11.9659,1.863499,1.768024,0.58428,0.51417,0.51992
1694787717648437,-11.4059,1.939499,1.777024,0.70528,0.48417,0.69092
1694787717656250,-10.99159,2.12499,1.779024,0.82628,0.49217,0.83292
1694787717664062,-10.96959,2.67499,1.745024,0.102228,0.50317,0.89792
1694787717671875,-10.96059,2.92499,1.717024,0.125328,0.48317,0.83592
1694787717679687,-10.94959,2.89499,1.681024,0.142128,0.50117,0.74392
1694787717687500,-10.87059,2.76499,1.658024,0.160528,0.49217,0.54192
1694787717695312,-10.75459,2.80499,1.631024,0.170428,0.58317,0.22992
1694787717703125,-10.67059,2.105499,1.576024,0.182128,0.58917,0.13208
1694787717710937,-10.66859,2.126499,1.537024,0.196228,0.61917,0.45908
1694787717718750,-10.68059,2.110499,1.515024,0.195128,0.65017,0.77208
1694787717726562,-10.60659,2.57499,1.497024,0.197928,0.85217,0.133408
1694787717734375,-10.47159,1.979499,1.454024,0.195928,0.99517,0.194308
1694787717742187,-10.34959,1.933499,1.386024,0.183428,0.105817,0.263308
1694787717750000,-10.23759,1.896499,1.352024,0.177128,0.118517,0.332208
1694787717757812,-10.9059,1.871499,1.333024,0.167528,0.126917,0.404208
1694787717765625,-9.92759,1.883499,1.340024,0.148828,0.137917,0.463808
1694787717773437,-9.75059,1.868499,1.320024,0.135028,0.159117,0.532508
1694787717781250,-9.55559,1.872499,1.297024,0.130228,0.166517,0.593708
1694787717789062,-9.37259,1.873499,1.238024,0.109528,0.176717,0.657808
1694787717796875,-9.21159,1.867499,1.193024,0.84828,0.194217,0.714208
1694787717804687,-9.5559,1.861499,1.152024,0.67628,0.195517,0.778608
1694787717812500,-8.88459,1.799499,1.122024,0.51828,0.202917,0.833508
1694787717820312,-8.71159,1.765499,1.52024,0.25528,0.225517,0.885008
1694787717828125,-8.62659,1.771499,0.951024,0.6328,0.236317,0.930408
1694787717835937,-8.58859,1.779499,0.890024,0.8272,0.239917,0.969708
1694787717843750,-8.56959,1.775499,0.867024,0.18472,0.247417,0.988408
1694787717851562,-8.50559,1.765499,0.840024,0.32072,0.261217,0.991408
1694787717859375,-8.40059,1.754499,0.769024,0.30872,0.274917,0.984808
1694787717867187,-8.36059,1.760499,0.726024,0.32172,0.272017,0.970808
1694787717875000,-8.41759,1.726499,0.731024,0.22272,0.271217,0.942408
1694787717882812,-8.52459,1.641499,0.781024,0.11572,0.284517,0.912308
1694787717890625,-8.62959,1.548499,0.861024,0.1472,0.300517,0.891408
1694787717898437,-8.69359,1.449499,0.948024,0.17128,0.326317,0.878208
1694787717906250,-8.71159,1.294499,1.14024,0.34828,0.353317,0.871208
1694787717914062,-8.68159,1.131499,1.76024,0.68728,0.366317,0.881708
1694787717921875,-8.55259,0.985499,1.163024,0.87328,0.387317,0.878008
1694787717929687,-8.38459,0.815499,1.184024,0.110128,0.393517,0.876208
1694787717937500,-8.18559,0.647499,1.180024,0.122228,0.393317,0.874508
1694787717945312,-7.94859,0.493499,1.150024,0.135528,0.387017,0.847908
1694787717953125,-7.77459,0.375499,1.107024,0.138328,0.376417,0.837108
1694787717960937,-7.72459,0.311499,1.105024,0.137628,0.345317,0.814208
1694787717968750,-7.81859,0.286499,1.155024,0.127928,0.317417,0.785008
1694787717976562,-8.259,0.315499,1.244024,0.116928,0.295017,0.769908
1694787717984375,-8.22459,0.358499,1.349024,0.110328,0.274417,0.753108
1694787717992187,-8.43859,0.389499,1.424024,0.104228,0.260117,0.764408
1694787718000000,-8.60159,0.416499,1.503024,0.110628,0.250317,0.780308
1694787718007812,-8.71359,0.441499,1.533024,0.111028,0.240017,0.816608
1694787718015625,-8.73459,0.461499,1.594024,0.125328,0.243517,0.860308
1694787718023437,-8.64259,0.400499,1.615024,0.138628,0.239817,0.913708
1694787718031250,-8.49759,0.278499,1.601024,0.155128,0.250317,0.977808
1694787718039062,-8.36959,0.141499,1.540024,0.185328,0.258817,-1.44908
1694787718046875,-8.26959,0.113499,1.468024,0.221928,0.267717,-1.123008
1694787718054687,-8.19359,0.158499,1.449024,0.259128,0.265817,-1.173008
1694787718062500,-8.14759,0.131499,1.470024,0.312828,0.257117,-1.194808
1694787718070312,-8.7159,0.45499,1.491024,0.355528,0.258917,-1.185108
1694787718078125,-7.96759,0.60501,1.468024,0.402428,0.261817,-1.158008
1694787718085937,-7.84459,0.197501,1.423024,0.439628,0.261317,-1.113808
1694787718093750,-7.73459,0.292501,1.366024,0.461428,0.253317,-1.51008
1694787718101562,-7.64659,0.385501,1.339024,0.483228,0.233617,0.991708
1694787718109375,-7.65059,0.413501,1.326024,0.494428,0.225817,0.927408
1694787718117187,-7.81659,0.403501,1.337024,0.516028,0.218317,0.867708
1694787718125000,-8.8859,0.388501,1.387024,0.533628,0.216217,0.825308
1694787718132812,-8.26659,0.422501,1.494024,0.551328,0.226017,0.784208
1694787718140625,-8.34159,0.472501,1.578024,0.561728,0.248717,0.764708
1694787718148437,-8.32359,0.560501,1.651024,0.575728,0.262017,0.770708
1694787718156250,-8.26559,0.688501,1.770024,0.596128,0.291117,0.795008
1694787718164062,-8.21059,0.840501,1.866024,0.618328,0.313017,0.818008
1694787718171875,-8.21559,0.980501,1.916024,0.644628,0.327017,0.844208
1694787718179687,-8.25359,-1.94501,1.930024,0.651028,0.322717,0.864708
1694787718187500,-8.24659,-1.196501,1.956024,0.651328,0.327817,0.869308
1694787718195312,-8.23159,-1.292501,1.961024,0.647128,0.322917,0.874108
1694787718203125,-8.26759,-1.370501,1.954024,0.624828,0.301117,0.855908
1694787718210937,-8.34159,-1.457501,1.986024,0.601328,0.289617,0.840508
1694787718218750,-8.46459,-1.582501,2.52024,0.579628,0.280917,0.822008
1694787718226562,-8.62759,-1.725501,2.123024,0.556428,0.273317,0.794108
1694787718234375,-8.74359,-1.871501,2.132024,0.525428,0.254717,0.774308
1694787718242187,-8.77859,-1.960501,2.182024,0.498828,0.248617,0.733808
1694787718250000,-8.76059,-1.969501,2.239024,0.474828,0.246417,0.665008
1694787718257812,-8.76059,-1.919501,2.283024,0.450528,0.250117,0.575608
1694787718265625,-8.80959,-1.859501,2.321024,0.446728,0.251217,0.460908
1694787718273437,-8.91659,-1.797501,2.376024,0.440428,0.277917,0.330208
1694787718281250,-9.5359,-1.713501,2.432024,0.444528,0.283317,0.210708
1694787718289062,-9.28959,-1.595501,2.466024,0.440828,0.300317,0.105008
1694787718296875,-9.52359,-1.489501,2.495024,0.449028,0.316917,0.29408
1694787718304687,-9.69859,-1.402501,2.534024,0.463428,0.336217,0.30792
1694787718312500,-9.73959,-1.359501,2.563024,0.464528,0.351617,0.64092
1694787718320312,-9.70159,-1.283501,2.616024,0.472228,0.381017,0.77192
1694787718328125,-9.69759,-1.237501,2.700024,0.497028,0.401417,0.60592
1694787718335937,-9.68659,-1.228501,2.775024,0.517728,0.414917,0.43592
1694787718343750,-9.59059,-1.260501,2.839024,0.548728,0.432517,0.8092
1694787718351562,-9.44359,-1.263501,2.868024,0.561528,0.437817,0.43408
1694787718359375,-9.29659,-1.278501,2.894024,0.571628,0.434617,0.99908
1694787718367187,-9.18059,-1.316501,2.948024,0.592328,0.431317,0.153208
1694787718375000,-9.6559,-1.340501,3.30024,0.609728,0.418117,0.205108
1694787718382812,-8.96759,-1.317501,3.133024,0.633528,0.417417,0.252108
1694787718390625,-8.90259,-1.323501,3.212024,0.665928,0.416617,0.286408
1694787718398437,-8.79259,-1.396501,3.299024,0.703028,0.417117,0.315908
1694787718406250,-8.67359,-1.475501,3.359024,0.743228,0.413417,0.336208
1694787718414062,-8.54359,-1.593501,3.357024,0.782728,0.419417,0.334208
1694787718421875,-8.38559,-1.715501,3.352024,0.822228,0.399617,0.326508
1694787718429687,-8.24559,-1.848501,3.337024,0.851028,0.384817,0.312608
1694787718437500,-8.20459,-1.965501,3.324024,0.876228,0.357817,0.281608
1694787718445312,-8.24259,-2.63501,3.305024,0.887328,0.325617,0.235108
1694787718453125,-8.30259,-2.149501,3.322024,0.900228,0.289117,0.207508
1694787718460937,-8.39259,-2.205501,3.335024,0.910328,0.263517,0.167208
1694787718468750,-8.50259,-2.238501,3.347024,0.904928,0.235517,0.134808
1694787718476562,-8.62759,-2.254501,3.351024,0.910228,0.212517,0.102308
1694787718484375,-8.72659,-2.241501,3.347024,0.923628,0.207117,0.67908
1694787718492187,-8.74659,-2.243501,3.329024,0.926428,0.204617,0.50708
1694787718500000,-8.74259,-2.247501,3.267024,0.929228,0.202617,0.42808
1694787718507812,-8.82459,-2.208501,3.208024,0.928928,0.200317,0.25608
1694787718515625,-8.94759,-2.174501,3.169024,0.928428,0.187917,0.3808
1694787718523437,-9.1559,-2.140501,3.112024,0.928628,0.188917,0.5492
1694787718531250,-9.1659,-2.103501,3.50024,0.931028,0.184717,0.27392
1694787718539062,-8.96459,-2.79501,2.966024,0.923428,0.194617,0.35392
1694787718546875,-8.86259,-2.60501,2.907024,0.911028,0.207717,0.52892
1694787718554687,-8.83059,-1.994501,2.861024,0.925328,0.212117,0.57592
1694787718562500,-8.99559,-1.908501,2.866024,0.924528,0.214817,0.78192
1694787718570312,-9.21459,-1.815501,2.943024,0.940928,0.242917,0.88392
1694787718578125,-9.43759,-1.718501,2.992024,0.950128,0.275717,0.101692
1694787718585937,-9.60159,-1.658501,3.20024,0.962828,0.311217,0.89992
1694787718593750,-9.67559,-1.670501,3.70024,-1.3328,0.361217,0.78692
1694787718601562,-9.70059,-1.744501,3.113024,-1.30628,0.389917,0.68592
1694787718609375,-9.64959,-1.813501,3.143024,-1.53028,0.423917,0.42692
1694787718617187,-9.51159,-1.884501,3.189024,-1.49328,0.456617,0.22892
1694787718625000,-9.36159,-1.910501,3.223024,-1.61828,0.470017,0.18492
1694787718632812,-9.19559,-1.934501,3.271024,-1.79128,0.493117,0.17492
1694787718640625,-9.4559,-1.911501,3.314024,-1.75328,0.506617,0.22592
1694787718648437,-8.95259,-1.870501,3.339024,-1.94828,0.509217,0.32192
1694787718656250,-8.85159,-1.802501,3.373024,-1.100928,0.516917,0.48092
1694787718664062,-8.73359,-1.755501,3.405024,-1.112228,0.529317,0.75292
1694787718671875,-8.60259,-1.673501,3.391024,-1.135328,0.532917,0.94192
1694787718679687,-8.51059,-1.608501,3.387024,-1.148528,0.523217,0.120792
1694787718687500,-8.47759,-1.484501,3.409024,-1.166428,0.535617,0.139992
1694787718695312,-8.50559,-1.334501,3.415024,-1.207028,0.540817,0.160892
1694787718703125,-8.56659,-1.200501,3.479024,-1.237328,0.553517,0.167692
1694787718710937,-8.65759,-1.56501,3.520024,-1.289628,0.567117,0.171292
1694787718718750,-8.69559,0.943501,3.579024,-1.344828,0.602717,0.177092
1694787718726562,-8.65659,0.860501,3.629024,-1.414828,0.635017,0.176792
1694787718734375,-8.53259,0.828501,3.658024,-1.491228,0.668817,0.176492
1694787718742187,-8.38859,0.825501,3.661024,-1.568328,0.711117,0.169992
1694787718750000,-8.29159,0.849501,3.667024,-1.644228,0.739817,0.174292
1694787718757812,-8.20659,0.901501,3.679024,-1.725728,0.774917,0.173892
1694787718765625,-8.17159,0.968501,3.663024,-1.802228,0.812017,0.173692
1694787718773437,-8.24359,-1.43501,3.688024,-1.875628,0.830817,0.169792
1694787718781250,-8.39359,-1.160501,3.702024,-1.953828,0.870217,0.155492
1694787718789062,-8.57259,-1.322501,3.739024,-2.28028,0.903217,0.129892
1694787718796875,-8.63959,-1.542501,3.758024,-2.97328,0.927217,0.80792
1694787718804687,-8.61259,-1.773501,3.765024,-2.155928,0.943317,0.26592
1694787718812500,-8.63659,-1.984501,3.731024,-2.208528,0.948817,0.13708
1694787718820312,-8.74359,-2.164501,3.700024,-2.254628,0.934417,0.52908
1694787718828125,-8.95159,-2.317501,3.679024,-2.284328,0.904817,0.92608
1694787718835937,-9.14459,-2.496501,3.661024,-2.317628,0.878117,0.107008
1694787718843750,-9.21059,-2.666501,3.648024,-2.345228,0.855717,0.115208
1694787718851562,-9.21059,-2.829501,3.571024,-2.358728,0.837117,0.113908
1694787718859375,-9.15159,-3.15501,3.432024,-2.384428,0.816217,0.109408
1694787718867187,-8.95159,-3.259501,3.269024,-2.413228,0.798117,0.97108
1694787718875000,-8.78559,-3.482501,3.56024,-2.434528,0.776917,0.88108
1694787718882812,-8.83659,-3.715501,2.792024,-2.452628,0.760117,0.94508
1694787718890625,-9.3559,-3.973501,2.519024,-2.484428,0.740117,0.105608
1694787718898437,-9.36259,-4.203501,2.262024,-2.514428,0.714417,0.128208
1694787718906250,-9.72459,-4.406501,1.999024,-2.531528,0.687717,0.183508
1694787718914062,-10.559,-4.607501,1.723024,-2.539928,0.667317,0.231008
1694787718921875,-10.13959,-4.803501,1.439024,-2.546628,0.649717,0.289308
1694787718929687,-10.10059,-4.975501,1.168024,-2.547428,0.638217,0.341408
1694787718937500,-9.91459,-5.175501,0.889024,-2.541628,0.623817,0.360608
1694787718945312,-9.64759,-5.359501,0.616024,-2.524728,0.612017,0.354708
1694787718953125,-9.41859,-5.557501,0.339024,-2.498428,0.611317,0.323508
1694787718960937,-9.16759,-5.739501,0.77024,-2.463728,0.595517,0.280008
1694787718968750,-8.97459,-5.912501,0.153976,-2.428128,0.587117,0.228808
1694787718976562,-8.78659,-6.63501,0.365976,-2.366228,0.580417,0.190008
1694787718984375,-8.59559,-6.175501,0.538976,-2.302928,0.558617,0.156408
1694787718992187,-8.43759,-6.275501,0.704976,-2.232628,0.544917,0.152408
1694787719000000,-8.25759,-6.404501,0.874976,-2.163728,0.502717,0.156908
1694787719007812,-8.11259,-6.532501,0.990976,-2.87828,0.459717,0.185008
1694787719015625,-8.8259,-6.640501,-1.101976,-2.8828,0.419317,0.222508
1694787719023437,-8.8159,-6.716501,-1.169976,-1.920428,0.358617,0.255708
1694787719031250,-8.7859,-6.726501,-1.196976,-1.827928,0.302317,0.284408
1694787719039062,-8.14959,-6.670501,-1.194976,-1.743828,0.242817,0.306508
1694787719046875,-8.22259,-6.617501,-1.195976,-1.670528,0.205317,0.303208
1694787719054687,-8.20559,-6.560501,-1.197976,-1.585628,0.181217,0.274308
1694787719062500,-8.10959,-6.481501,-1.220976,-1.515128,0.176217,0.243508
1694787719070312,-7.97559,-6.331501,-1.270976,-1.438028,0.169417,0.198708
1694787719078125,-7.91459,-6.111501,-1.275976,-1.378828,0.166217,0.128508
1694787719085937,-7.99559,-5.869501,-1.235976,-1.336328,0.151417,0.64708
1694787719093750,-8.15859,-5.622501,-1.210976,-1.286628,0.163117,0.2692
1694787719101562,-8.27759,-5.384501,-1.150976,-1.255028,0.186517,0.72092
1694787719109375,-8.35059,-5.146501,-1.86976,-1.220828,0.211917,0.125692
1694787719117187,-8.44659,-4.902501,-1.48976,-1.191328,0.226217,0.161892
1694787719125000,-8.56059,-4.702501,0.996976,-1.172828,0.246117,0.180992
1694787719132812,-8.54059,-4.588501,0.955976,-1.170528,0.257817,0.179592
1694787719140625,-8.40459,-4.526501,0.915976,-1.165628,0.271017,0.154892
1694787719148437,-8.21459,-4.492501,0.919976,-1.146228,0.283217,0.120592
1694787719156250,-8.6959,-4.468501,0.944976,-1.147528,0.289217,0.78192
1694787719164062,-7.95859,-4.464501,0.935976,-1.145228,0.277017,0.46392
1694787719171875,-7.85959,-4.442501,0.912976,-1.137628,0.268317,0.17992
1694787719179687,-7.76859,-4.412501,0.892976,-1.127228,0.260617,0.2092
1694787719187500,-7.75959,-4.348501,0.885976,-1.122328,0.263117,0.2408
1694787719195312,-7.85959,-4.266501,0.901976,-1.107328,0.261317,0.1108
1694787719203125,-8.1859,-4.233501,0.915976,-1.101328,0.253517,0.12308
1694787719210937,-8.7059,-4.241501,0.895976,-1.101628,0.247217,0.26608
1694787719218750,-8.2459,-4.263501,0.924976,-1.95828,0.248017,0.45508
1694787719226562,-7.95259,-4.299501,0.987976,-1.77028,0.245417,0.61508
1694787719234375,-7.88759,-4.363501,-1.17976,-1.73828,0.260517,0.94008
1694787719242187,-7.84559,-4.430501,0.992976,-1.48628,0.258917,0.130308
1694787719250000,-7.86559,-4.451501,0.951976,-1.29228,0.253917,0.160408
1694787719257812,-7.94059,-4.461501,0.919976,-1.26828,0.257317,0.201108
1694787719265625,-7.98759,-4.503501,0.853976,-1.1728,0.254317,0.245308
1694787719273437,-7.96159,-4.593501,0.814976,0.976328,0.263117,0.281408
1694787719281250,-7.85859,-4.660501,0.811976,0.949728,0.241317,0.318208
1694787719289062,-7.72459,-4.718501,0.855976,0.911828,0.228017,0.345408
1694787719296875,-7.55359,-4.789501,0.909976,0.873528,0.202517,0.355608
1694787719304687,-7.42959,-4.823501,0.943976,0.819728,0.173617,0.353308
1694787719312500,-7.34959,-4.828501,0.975976,0.755628,0.159317,0.347808
1694787719320312,-7.33859,-4.772501,-1.9976,0.698728,0.144417,0.325008
1694787719328125,-7.39459,-4.667501,-1.14976,0.652428,0.136317,0.301908
1694787719335937,-7.52659,-4.505501,0.974976,0.601828,0.136817,0.286508
1694787719343750,-7.73459,-4.335501,0.885976,0.568428,0.170717,0.278208
1694787719351562,-7.99359,-4.213501,0.772976,0.564428,0.212817,0.285208
1694787719359375,-8.12759,-4.185501,0.676976,0.542028,0.259917,0.309408
1694787719367187,-8.5059,-4.229501,0.587976,0.553528,0.326417,0.336208
1694787719375000,-7.78259,-4.363501,0.550976,0.547028,0.377717,0.361908
1694787719382812,-7.44359,-4.517501,0.561976,0.556428,0.433817,0.373108
1694787719390625,-7.14059,-4.664501,0.581976,0.553928,0.464317,0.383508
1694787719398437,-6.94459,-4.803501,0.586976,0.546228,0.486617,0.384608
1694787719406250,-6.85459,-4.926501,0.572976,0.535528,0.475217,0.388108
1694787719414062,-6.81459,-5.27501,0.555976,0.512828,0.466017,0.399408
1694787719421875,-6.74159,-5.73501,0.494976,0.499228,0.446517,0.412508
1694787719429687,-6.73059,-5.83501,0.400976,0.490128,0.435917,0.431608
1694787719437500,-6.82059,-5.117501,0.341976,0.490528,0.416317,0.452408
1694787719445312,-6.90259,-5.174501,0.261976,0.498828,0.405317,0.482508
1694787719453125,-6.86759,-5.271501,0.170976,0.503628,0.396817,0.517108
1694787719460937,-6.74359,-5.426501,0.108976,0.522328,0.387417,0.543808
1694787719468750,-6.56659,-5.602501,0.74976,0.533528,0.389417,0.567308
1694787719476562,-6.40159,-5.786501,0.69976,0.551728,0.386217,0.573508
1694787719484375,-6.24759,-5.963501,0.84976,0.568528,0.373717,0.569008
1694787719492187,-6.9059,-6.130501,0.118976,0.572828,0.360817,0.547308
1694787719500000,-5.99859,-6.252501,0.138976,0.572128,0.339917,0.524208
1694787719507812,-6.5959,-6.323501,0.145976,0.568328,0.320517,0.493208
1694787719515625,-6.24959,-6.358501,0.113976,0.561628,0.302917,0.468508
1694787719523437,-6.47759,-6.362501,0.70976,0.544728,0.289117,0.457908
1694787719531250,-6.61559,-6.367501,0.31976,0.531228,0.291217,0.464308
1694787719539062,-6.65559,-6.397501,0.10976,0.534728,0.300217,0.482908
1694787719546875,-6.65759,-6.426501,0.24976,0.553928,0.319617,0.516908
1694787719554687,-6.64259,-6.465501,0.67976,0.572128,0.332417,0.540008
1694787719562500,-6.53659,-6.499501,0.97976,0.571628,0.351817,0.574208
1694787719570312,-6.34859,-6.548501,0.131976,0.579528,0.364217,0.591108
1694787719578125,-6.18659,-6.604501,0.176976,0.592128,0.378017,0.608008
1694787719585937,-6.15859,-6.658501,0.210976,0.596728,0.369917,0.616008
1694787719593750,-6.29359,-6.680501,0.219976,0.597528,0.369817,0.623908
1694787719601562,-6.44359,-6.705501,0.192976,0.580328,0.357817,0.643008
1694787719609375,-6.45859,-6.745501,0.173976,0.576728,0.350317,0.673108
1694787719617187,-6.35659,-6.780501,0.160976,0.575228,0.343817,0.710808
1694787719625000,-6.29759,-6.805501,0.146976,0.572928,0.345017,0.747008
1694787719632812,-6.30159,-6.843501,0.116976,0.575128,0.349417,0.776708
1694787719640625,-6.30459,-6.915501,0.75976,0.577128,0.342317,0.811408
1694787719648437,-6.32659,-7.26501,0.27976,0.579128,0.370117,0.834308
1694787719656250,-6.32159,-7.135501,0.11024,0.593428,0.391817,0.840108
1694787719664062,-6.31259,-7.245501,0.43024,0.591428,0.412017,0.830208
1694787719671875,-6.32659,-7.334501,0.96024,0.589828,0.436117,0.806208
1694787719679687,-6.35259,-7.429501,0.148024,0.586228,0.462717,0.753808
1694787719687500,-6.35959,-7.566501,0.173024,0.577128,0.455317,0.683408
1694787719695312,-6.34959,-7.682501,0.208024,0.568628,0.466817,0.629808
1694787719703125,-6.31859,-7.791501,0.229024,0.544928,0.461817,0.575208
1694787719710937,-6.29259,-7.884501,0.283024,0.528828,0.442617,0.542708
1694787719718750,-6.31359,-7.949501,0.318024,0.516828,0.413117,0.521508
1694787719726562,-6.33759,-8.39501,0.348024,0.496028,0.396717,0.514008
1694787719734375,-6.31359,-8.111501,0.398024,0.479328,0.378317,0.514608
1694787719742187,-6.29259,-8.160501,0.428024,0.473128,0.356617,0.515108
1694787719750000,-6.24159,-8.188501,0.432024,0.454128,0.347017,0.502808
1694787719757812,-6.15959,-8.173501,0.421024,0.435728,0.315717,0.481708
1694787719765625,-6.4659,-8.128501,0.412024,0.421328,0.284717,0.455808
1694787719773437,-5.90759,-8.65501,0.377024,0.403428,0.258817,0.417108
1694787719781250,-5.75859,-7.998501,0.364024,0.382928,0.252217,0.371908
1694787719789062,-5.63359,-7.899501,0.336024,0.363428,0.225517,0.317608
1694787719796875,-5.57259,-7.797501,0.288024,0.338428,0.198317,0.266708
1694787719804687,-5.56259,-7.716501,0.229024,0.320828,0.171917,0.226508
1694787719812500,-5.60959,-7.633501,0.194024,0.292528,0.144817,0.202108
1694787719820312,-5.67859,-7.538501,0.153024,0.269328,0.123917,0.174508
1694787719828125,-5.73859,-7.437501,0.149024,0.252528,0.115517,0.168608
1694787719835937,-5.78059,-7.346501,0.148024,0.227728,0.97617,0.169108
1694787719843750,-5.79259,-7.278501,0.164024,0.218728,0.82817,0.174208
1694787719851562,-5.79359,-7.306501,0.155024,0.201528,0.75717,0.183708
1694787719859375,-5.77159,-7.368501,0.116024,0.183728,0.66117,0.198308
1694787719867187,-5.79959,-7.461501,0.82024,0.173328,0.55117,0.214308
1694787719875000,-5.92459,-7.569501,0.46024,0.162828,0.41017,0.233508
1694787719882812,-6.12459,-7.668501,0.44024,0.148128,0.36817,0.252608
1694787719890625,-6.34159,-7.739501,0.85024,0.131628,0.34917,0.280908
1694787719898437,-6.54659,-7.835501,0.133024,0.127628,0.41617,0.316908
1694787719906250,-6.62659,-7.950501,0.154024,0.128128,0.54817,0.349508
1694787719914062,-6.56359,-8.64501,0.156024,0.129028,0.72317,0.375908
1694787719921875,-6.44459,-8.171501,0.132024,0.129228,0.81817,0.400808
1694787719929687,-6.34059,-8.326501,0.107024,0.128428,0.100817,0.417708
1694787719937500,-6.19959,-8.499501,0.103024,0.130028,0.107617,0.419108
1694787719945312,-6.5059,-8.684501,0.78024,0.111828,0.102917,0.419408
1694787719953125,-5.94259,-8.826501,0.8024,0.102128,0.93417,0.421108
1694787719960937,-5.93459,-8.924501,0.77976,0.88528,0.76317,0.413808
1694787719968750,-5.99459,-8.974501,0.141976,0.76228,0.56217,0.411208
1694787719976562,-6.8959,-8.978501,0.168976,0.62228,0.36517,0.413208
1694787719984375,-6.20259,-9.12501,0.189976,0.53028,0.13417,0.421608
1694787719992187,-6.28659,-9.35501,0.205976,0.40928,0.617,0.433008
1694787720000000,-6.34859,-9.49501,0.216976,0.46128,0.583,0.448708
1694787720007812,-6.37359,-9.78501,0.248976,0.64528,0.9083,0.458208
1694787720015625,-6.37259,-9.90501,0.298976,0.76028,0.19417,0.444808
1694787720023437,-6.33759,-9.135501,0.366976,0.94528,0.30217,0.441408
1694787720031250,-6.31059,-9.262501,0.434976,0.118828,0.41117,0.431608
1694787720039062,-6.28259,-9.433501,0.498976,0.138928,0.49717,0.407808
1694787720046875,-6.30359,-9.558501,0.502976,0.150828,0.51917,0.385708
1694787720054687,-6.39159,-9.610501,0.477976,0.153228,0.54317,0.358908
1694787720062500,-6.50759,-9.580501,0.431976,0.157528,0.75117,0.334908
1694787720070312,-6.58559,-9.550501,0.402976,0.170428,0.93817,0.299808
1694787720078125,-6.56059,-9.544501,0.395976,0.176128,0.124817,0.273908
1694787720085937,-6.49059,-9.540501,0.422976,0.192828,0.138317,0.245408
1694787720093750,-6.45559,-9.586501,0.434976,0.210528,0.165517,0.214808
1694787720101562,-6.47559,-9.610501,0.431976,0.224028,0.191317,0.193708
1694787720109375,-6.50059,-9.612501,0.399976,0.228328,0.218917,0.169608
1694787720117187,-6.49259,-9.599501,0.345976,0.241728,0.248517,0.148408
1694787720125000,-6.49259,-9.599501,0.295976,0.255128,0.281017,0.124008
1694787720132812,-6.51459,-9.608501,0.236976,0.271528,0.318917,0.76108
1694787720140625,-6.57859,-9.596501,0.163976,0.284928,0.342817,0.48808
1694787720148437,-6.60559,-9.536501,0.67976,0.296728,0.384917,0.10108
1694787720156250,-6.55459,-9.507501,0.30024,0.329928,0.432817,0.36592
1694787720164062,-6.47959,-9.502501,0.118024,0.347728,0.475017,0.72192
1694787720171875,-6.45259,-9.530501,0.207024,0.368628,0.500417,0.104292
1694787720179687,-6.42159,-9.543501,0.324024,0.391928,0.528917,0.125292
1694787720187500,-6.38259,-9.606501,0.463024,0.409728,0.555117,0.137092
1694787720195312,-6.31559,-9.692501,0.568024,0.435728,0.582817,0.147192
1694787720203125,-6.20159,-9.815501,0.641024,0.450828,0.594717,0.144592
1694787720210937,-6.3859,-9.946501,0.714024,0.466228,0.599217,0.146292
1694787720218750,-5.87459,-10.60501,0.764024,0.466128,0.600517,0.154092
1694787720226562,-5.73059,-10.140501,0.824024,0.462728,0.593217,0.171192
1694787720234375,-5.59959,-10.190501,0.881024,0.455228,0.562417,0.182892
1694787720242187,-5.49159,-10.185501,0.922024,0.434228,0.532917,0.218292
1694787720250000,-5.38159,-10.131501,0.954024,0.417928,0.494917,0.258292
1694787720257812,-5.31259,-10.57501,0.960024,0.401428,0.458317,0.307792
1694787720265625,-5.34259,-9.973501,0.928024,0.383928,0.411117,0.350392
1694787720273437,-5.47659,-9.895501,0.917024,0.383328,0.372017,0.399692
1694787720281250,-5.69959,-9.777501,0.973024,0.375628,0.340517,0.446292
1694787720289062,-6.1459,-9.657501,1.50024,0.384628,0.325917,0.461592
1694787720296875,-6.27959,-9.545501,1.127024,0.384028,0.331017,0.476092
1694787720304687,-6.37859,-9.489501,1.207024,0.403128,0.348317,0.480892
1694787720312500,-6.40559,-9.472501,1.241024,0.425528,0.378617,0.481992
1694787720320312,-6.39159,-9.522501,1.255024,0.464328,0.405117,0.501392
1694787720328125,-6.31859,-9.613501,1.262024,0.483428,0.433017,0.514792
1694787720335937,-6.18659,-9.709501,1.278024,0.496728,0.443717,0.538692
1694787720343750,-5.96759,-9.814501,1.285024,0.507228,0.453617,0.574992
1694787720351562,-5.74659,-9.895501,1.263024,0.502128,0.464217,0.609692
1694787720359375,-5.55159,-9.924501,1.215024,0.495028,0.449117,0.654892
1694787720367187,-5.44559,-9.901501,1.201024,0.478928,0.429317,0.698292
1694787720375000,-5.42559,-9.834501,1.211024,0.478328,0.387017,0.745892
1694787720382812,-5.40459,-9.777501,1.185024,0.463028,0.345517,0.787492
1694787720390625,-5.38759,-9.693501,1.155024,0.449828,0.302517,0.822692
1694787720398437,-5.41959,-9.623501,1.110024,0.423228,0.259517,0.856092
1694787720406250,-5.45759,-9.535501,1.53024,0.404228,0.226817,0.885092
1694787720414062,-5.46159,-9.419501,0.991024,0.391028,0.172017,0.919992
1694787720421875,-5.43759,-9.294501,0.877024,0.367428,0.127717,0.945492
1694787720429687,-5.42659,-9.144501,0.728024,0.345528,0.84717,0.975792
1694787720437500,-5.47159,-8.970501,0.564024,0.323028,0.40217,1.13992
1694787720445312,-5.53159,-8.777501,0.420024,0.286928,0.2383,1.50692
1694787720453125,-5.62459,-8.602501,0.267024,0.269428,0.60083,1.74392
1694787720460937,-5.72659,-8.415501,0.116024,0.255228,0.106183,1.92092
1694787720468750,-5.86959,-8.195501,0.2976,0.237528,0.158483,1.116192
1694787720476562,-6.3059,-7.982501,0.57976,0.222228,0.184083,1.123092
1694787720484375,-6.21659,-7.783501,0.114976,0.217228,0.216183,1.131892
1694787720492187,-6.37559,-7.605501,0.204976,0.215328,0.239783,1.137792
1694787720500000,-6.53559,-7.473501,0.306976,0.224528,0.248683,1.139092
1694787720507812,-6.70059,-7.338501,0.393976,0.222828,0.263583,1.140492
1694787720515625,-6.87259,-7.192501,0.471976,0.239728,0.261983,1.134292
1694787720523437,-7.6259,-7.60501,0.537976,0.245728,0.262683,1.143692
1694787720531250,-7.26359,-6.942501,0.581976,0.254828,0.251083,1.147192
1694787720539062,-7.45459,-6.821501,0.620976,0.272928,0.247183,1.162992
1694787720546875,-7.59159,-6.688501,0.652976,0.278128,0.231483,1.178692
1694787720554687,-7.72059,-6.540501,0.687976,0.292528,0.214183,1.204492
1694787720562500,-7.80559,-6.434501,0.692976,0.293628,0.204983,1.229892
1694787720570312,-7.85359,-6.302501,0.724976,0.297728,0.191183,1.261592
1694787720578125,-7.83659,-6.175501,0.724976,0.305328,0.167083,1.285592
1694787720585937,-7.85059,-6.37501,0.738976,0.293528,0.157583,1.322192
1694787720593750,-7.89159,-5.872501,0.752976,0.293028,0.156683,1.347392
1694787720601562,-7.95059,-5.709501,0.757976,0.292528,0.155883,1.372592
1694787720609375,-8.659,-5.538501,0.767976,0.290828,0.154683,1.385192
1694787720617187,-8.6959,-5.386501,0.790976,0.287828,0.150083,1.391392
1694787720625000,-8.11859,-5.240501,0.822976,0.281828,0.158683,1.394192
1694787720632812,-8.17659,-5.104501,0.856976,0.291228,0.170583,1.384292
1694787720640625,-8.21259,-4.995501,0.884976,0.280528,0.181383,1.373292
1694787720648437,-8.18059,-4.875501,0.907976,0.275828,0.194383,1.366692
1694787720656250,-8.12459,-4.777501,0.953976,0.268528,0.214283,1.353492
1694787720664062,-8.9659,-4.652501,0.989976,0.264228,0.227283,1.342092
1694787720671875,-8.14959,-4.529501,-1.42976,0.262928,0.237083,1.333992
1694787720679687,-8.20459,-4.402501,-1.77976,0.257728,0.248183,1.332592
1694787720687500,-8.24459,-4.274501,-1.118976,0.247328,0.251183,1.322892
1694787720695312,-8.26859,-4.119501,-1.154976,0.255628,0.251583,1.319492
1694787720703125,-8.38059,-3.960501,-1.212976,0.251928,0.259483,1.319592
1694787720710937,-8.46759,-3.867501,-1.253976,0.265528,0.259783,1.321292
1694787720718750,-8.53159,-3.793501,-1.297976,0.268728,0.259783,1.316592
1694787720726562,-8.57859,-3.705501,-1.356976,0.256528,0.262983,1.319492
1694787720734375,-8.67059,-3.581501,-1.395976,0.242928,0.261083,1.317892
1694787720742187,-8.79559,-3.480501,-1.420976,0.245028,0.259483,1.312892
1694787720750000,-8.89859,-3.403501,-1.448976,0.244728,0.261483,1.320792
1694787720757812,-9.459,-3.317501,-1.475976,0.235428,0.257383,1.309992
1694787720765625,-9.5259,-3.196501,-1.510976,0.219228,0.245283,1.306792
1694787720773437,-9.9859,-3.69501,-1.533976,0.220428,0.231483,1.305792
1694787720781250,-9.9259,-2.919501,-1.540976,0.219328,0.216483,1.304292
1694787720789062,-9.4759,-2.802501,-1.552976,0.217528,0.189383,1.306692
1694787720796875,-9.1159,-2.715501,-1.586976,0.219128,0.181683,1.319292
1694787720804687,-9.659,-2.637501,-1.609976,0.212628,0.171283,1.325992
1694787720812500,-9.2859,-2.555501,-1.614976,0.206428,0.161783,1.341792
1694787720820312,-9.2559,-2.477501,-1.637976,0.191028,0.132683,1.347192
1694787720828125,-9.1759,-2.395501,-1.655976,0.189628,0.123883,1.341192
1694787720835937,-9.4459,-2.329501,-1.651976,0.176228,0.108783,1.339592
1694787720843750,-9.12859,-2.258501,-1.631976,0.160728,0.95883,1.333892
1694787720851562,-9.19359,-2.202501,-1.610976,0.147628,0.83983,1.324292
1694787720859375,-9.22659,-2.112501,-1.585976,0.146428,0.77383,1.317892
1694787720867187,-9.22459,-2.46501,-1.578976,0.128228,0.63183,1.311892
1694787720875000,-9.22159,-1.950501,-1.581976,0.129728,0.59483,1.310592
1694787720882812,-9.22959,-1.881501,-1.577976,0.123428,0.51183,1.318592
1694787720890625,-9.21359,-1.813501,-1.554976,0.100028,0.52483,1.334392
1694787720898437,-9.13859,-1.703501,-1.536976,0.100328,0.52083,1.344892
1694787720906250,-9.5259,-1.603501,-1.548976,0.78328,0.68683,1.361892
1694787720914062,-9.6059,-1.486501,-1.550976,0.72028,0.70683,1.372792
1694787720921875,-9.14159,-1.387501,-1.562976,0.57628,0.99983,1.401992
1694787720929687,-9.18559,-1.264501,-1.546976,0.46728,0.114983,1.406392
1694787720937500,-9.20759,-1.126501,-1.530976,0.26828,0.131783,1.410392
1694787720945312,-9.23859,0.991501,-1.538976,0.16128,0.148483,1.409892
1694787720953125,-9.29559,0.854501,-1.567976,0.13128,0.164783,1.398592
1694787720960937,-9.36559,0.716501,-1.573976,0.928,0.180483,1.382692
1694787720976562,-9.57159,0.449501,-1.646976,0.2028,0.199483,1.334792
1694787720984375,-9.69759,0.345501,-1.696976,0.13228,0.199783,1.298892
1694787720992187,-9.81459,0.254501,-1.724976,0.22928,0.201883,1.261292
1694787721000000,-9.83959,0.204501,-1.767976,0.26928,0.199583,1.231192
1694787721007812,-9.77559,0.147501,-1.826976,0.25628,0.177783,1.200492
1694787721015625,-9.66059,0.95501,-1.895976,0.27728,0.172183,1.180092
1694787721023437,-9.56059,0.28501,-1.959976,0.26528,0.168783,1.175392
