time,Acceleration X (m/s^2),Acceleration Y (m/s^2),Acceleration Z (m/s^2),Angular Velocity X (rad/s),Angular Velocity Y (rad/s),Angular Velocity Z (rad/s)
1695052530148437,-9.640004,-0.96735,2.004368,,,
1695052530156250,-9.683004,0.94035,2.49368,0.562149,0.1192,0.160189
1695052530164062,-9.692004,0.93335,2.72368,0.563649,0.7208,0.155489
1695052530171875,-9.626004,0.97135,1.955368,0.557249,0.3892,0.152389
1695052530179687,-9.584004,0.93735,1.862368,0.557649,0.2508,0.141089
1695052530187500,-9.571004,0.89335,1.935368,0.560749,0.20508,0.134789
1695052530203125,-9.671004,0.85335,2.9368,0.537249,0.45108,0.125589
1695052530210937,-9.704004,0.84135,2.11368,0.549449,0.75008,0.119389
1695052530218750,-9.720004,0.86135,2.70368,0.554649,0.97708,0.101689
1695052530226562,-9.742004,0.87035,2.54368,0.551649,0.115508,0.96989
1695052530250000,-9.756004,0.86335,2.137368,0.557949,0.155108,0.73189
1695052530257812,-9.822004,0.83135,2.205368,0.560149,0.159508,0.58489
1695052530265625,-9.887004,0.83035,2.313368,0.547849,0.156208,0.48989
1695052530273437,-9.969004,0.74435,2.311368,0.546149,0.156608,0.44289
1695052530281250,-10.35004,0.69435,2.401368,0.538049,0.181608,0.33489
1695052530289062,-10.108004,0.62635,2.412368,0.547549,0.186608,0.30189
1695052530296875,-10.62004,0.57535,2.448368,0.558949,0.202208,0.29889
1695052530304687,-9.967004,0.56235,2.475368,0.567849,0.178808,0.25189
1695052530312500,-9.889004,0.55335,2.426368,0.600049,0.172808,0.22789
1695052530320312,-9.805004,0.57835,2.356368,0.621849,0.160108,0.19389
1695052530328125,-9.731004,0.60435,2.243368,0.653049,0.168608,0.19189
1695052530335937,-9.672004,0.64535,2.174368,0.691149,0.171108,0.21689
1695052530343750,-9.599004,0.68635,2.110368,0.718849,0.166808,0.29589
1695052530351562,-9.563004,0.75135,2.41368,0.742549,0.179108,0.40389
1695052530359375,-9.498004,0.81435,2.11368,0.769749,0.196308,0.58189
1695052530367187,-9.412004,0.87135,2.22368,0.784949,0.210708,0.85289
1695052530375000,-9.338004,0.90635,2.25368,0.805249,0.225108,0.94689
1695052530382812,-9.279004,0.90635,2.61368,0.809149,0.243708,0.109489
1695052530390625,-9.164004,0.90935,2.171368,0.810049,0.252408,0.120989
1695052530398437,-9.153004,0.89735,2.205368,0.808949,0.251608,0.125489
1695052530406250,-9.154004,0.83735,2.225368,0.810649,0.249508,0.131789
1695052530414062,-9.232004,0.74935,2.266368,0.810249,0.251308,0.144689
1695052530421875,-9.263004,0.66535,2.331368,0.827549,0.247908,0.150889
1695052530429687,-9.254004,0.61735,2.412368,0.811049,0.250708,0.151389
1695052530437500,-9.295004,0.57935,2.378368,0.826949,0.227508,0.155889
1695052530445312,-9.327004,0.57035,2.403368,0.836449,0.225508,0.163589
1695052530453125,-9.305004,0.54035,2.446368,0.844849,0.209908,0.166389
1695052530460937,-9.283004,0.50435,2.475368,0.850849,0.212008,0.164889
1695052530468750,-9.250004,0.47235,2.541368,0.856149,0.188308,0.165989
1695052530476562,-9.259004,0.44035,2.507368,0.858349,0.173708,0.164789
1695052530484375,-9.269004,0.40935,2.511368,0.862149,0.167808,0.162789
1695052530492187,-9.263004,0.38335,2.475368,0.881149,0.151508,0.160889
1695052530500000,-9.290004,0.34235,2.401368,0.885449,0.148808,0.160989
1695052530507812,-9.274004,0.34635,2.372368,0.904249,0.160508,0.154489
1695052530515625,-9.250004,0.33035,2.361368,0.907849,0.156708,0.147789
1695052530523437,-9.213004,0.34535,2.322368,0.909249,0.150508,0.149489
1695052530531250,-9.185004,0.29335,2.358368,0.921849,0.153608,0.149289
1695052530539062,-9.186004,0.21535,2.361368,0.950249,0.138908,0.145689
1695052530546875,-9.246004,0.14635,2.394368,0.958449,0.123808,0.145289
1695052530554687,-9.279004,0.7635,2.322368,0.958749,0.105608,0.145089
1695052530562500,-9.307004,0.735,2.280368,0.977749,0.107108,0.141689
1695052530570312,-9.330004,0.4865,2.320368,0.970949,0.102908,0.143589
1695052530578125,-9.385004,0.10265,2.356368,0.953749,0.99408,0.148489
1695052530585937,-9.430004,0.15665,2.390368,0.958449,0.92908,0.149989
1695052530593750,-9.476004,0.18865,2.426368,0.953649,0.87708,0.162789
1695052530601562,-9.522004,0.25365,2.487368,0.943049,0.76008,0.154689
1695052530609375,-9.568004,0.30865,2.514368,0.926149,0.60908,0.154689
1695052530617187,-9.562004,0.33565,2.579368,0.916849,0.62508,0.146789
1695052530625000,-9.630004,0.39265,2.604368,0.907149,0.45108,0.148489
1695052530632812,-9.670004,0.42465,2.593368,0.913449,0.35508,0.146889
1695052530640625,-9.680004,0.46065,2.649368,0.913549,0.20908,0.140389
1695052530648437,-9.690004,0.49765,2.672368,0.922049,0.6092,0.139789
1695052530656250,-9.692004,0.52465,2.654368,0.920549,0.27092,0.138189
1695052530664062,-9.677004,0.55265,2.622368,0.931749,0.51692,0.134589
1695052530671875,-9.666004,0.59565,2.633368,0.936249,0.59492,0.136289
1695052530679687,-9.636004,0.63265,2.622368,0.934949,0.75992,0.131289
1695052530687500,-9.580004,0.70065,2.618368,0.939849,0.80692,0.118389
1695052530695312,-9.534004,0.77765,2.591368,0.946349,0.82492,0.114989
1695052530703125,-9.477004,0.86265,2.602368,0.937149,0.81092,0.111889
1695052530710937,-9.483004,0.93465,2.589368,0.937049,0.82092,0.95989
1695052530718750,-9.380004,0.97765,2.654368,0.938849,0.92092,0.95789
1695052530726562,-9.383004,1.2865,2.654368,0.955849,0.107792,0.90889
1695052530734375,-9.382004,1.10365,2.645368,0.949949,0.96492,0.78089
1695052530742187,-9.333004,1.9965,2.665368,0.955649,0.96192,0.69589
1695052530750000,-9.295004,1.10665,2.688368,0.966149,0.100292,0.71289
1695052530757812,-9.249004,1.6565,2.665368,0.980349,0.108492,0.69489
1695052530765625,-9.206004,1.1365,2.638368,1.4149,0.107192,0.67489
1695052530773437,-9.171004,0.96465,2.613368,1.12049,0.111892,0.62589
1695052530781250,-9.116004,0.88265,2.586368,1.35249,0.112892,0.56089
1695052530789062,-9.84004,0.83065,2.566368,1.49749,0.106692,0.49389
1695052530796875,-9.51004,0.77465,2.525368,1.68249,0.111392,0.58889
1695052530804687,-9.50004,0.74865,2.489368,1.83549,0.112392,0.57289
1695052530812500,-9.80004,0.73665,2.471368,1.103149,0.114692,0.48789
1695052530820312,-9.107004,0.75565,2.480368,1.115449,0.107992,0.48789
1695052530828125,-9.164004,0.79165,2.469368,1.134449,0.113492,0.62789
1695052530835937,-9.221004,0.84565,2.424368,1.146849,0.119792,0.64189
1695052530843750,-9.269004,0.91265,2.402368,1.163849,0.115192,0.81689
1695052530851562,-9.321004,0.96965,2.384368,1.185149,0.109392,0.88189
1695052530859375,-9.339004,1.4065,2.366368,1.194549,0.100492,0.107189
1695052530867187,-9.344004,1.10965,2.323368,1.211349,0.98392,0.115089
1695052530875000,-9.365004,1.15865,2.332368,1.216849,0.84992,0.136189
1695052530882812,-9.379004,1.21865,2.350368,1.235749,0.88692,0.147089
1695052530890625,-9.382004,1.25665,2.321368,1.235049,0.86492,0.164889
1695052530898437,-9.389004,1.28565,2.283368,1.247449,0.98392,0.188689
1695052530906250,-9.405004,1.29965,2.271368,1.243849,0.82092,0.201689
1695052530914062,-9.390004,1.31865,2.262368,1.246549,0.82192,0.225789
1695052530921875,-9.356004,1.32065,2.274368,1.259049,0.85692,0.236789
1695052530929687,-9.369004,1.32165,2.266368,1.256149,0.92592,0.259689
1695052530937500,-9.457004,1.31865,2.242368,1.248249,0.94492,0.270889
1695052530945312,-9.547004,1.32365,2.222368,1.232949,0.103992,0.291589
1695052530953125,-9.625004,1.32365,2.242368,1.227449,0.102992,0.296689
1695052530960937,-9.696004,1.32365,2.280368,1.221449,0.93992,0.309489
1695052530968750,-9.720004,1.33565,2.283368,1.210349,0.108592,0.312789
1695052530976562,-9.732004,1.35565,2.269368,1.206849,0.113092,0.317689
1695052530984375,-9.705004,1.37465,2.220368,1.207349,0.133392,0.320589
1695052530992187,-9.706004,1.39465,2.222368,1.213949,0.138692,0.318789
1695052531000000,-9.670004,1.40565,2.199368,1.229549,0.156492,0.320089
1695052531007812,-9.654004,1.41165,2.8368,1.234349,0.178992,0.313589
1695052531015625,-9.647004,1.37765,1.787368,1.222249,0.187792,0.311889
1695052531023437,-9.654004,1.38865,1.751368,1.230449,0.170092,0.300589
1695052531031250,-9.634004,1.41265,1.814368,1.231549,0.150092,0.303989
1695052531039062,-9.630004,1.43265,1.835368,1.230249,0.154992,0.294389
1695052531046875,-9.614004,1.41265,1.792368,1.230449,0.161492,0.286289
1695052531054687,-9.580004,1.40565,1.774368,1.214849,0.159592,0.275289
1695052531062500,-9.515004,1.41365,1.747368,1.215149,0.161392,0.267189
1695052531070312,-9.452004,1.40165,1.765368,1.222749,0.164092,0.260789
1695052531078125,-9.391004,1.39165,1.789368,1.220149,0.158092,0.251089
1695052531085937,-9.364004,1.39365,1.807368,1.234449,0.159392,0.233289
1695052531093750,-9.362004,1.41065,1.771368,1.259849,0.169392,0.231289
1695052531101562,-9.394004,1.41165,1.805368,1.261649,0.176392,0.232689
1695052531109375,-9.450004,1.41565,1.857368,1.264449,0.180192,0.220089
1695052531117187,-9.432004,1.38965,1.895368,1.285249,0.179092,0.218089
1695052531125000,-9.473004,1.34265,1.879368,1.308249,0.189792,0.219589
1695052531132812,-9.473004,1.28865,1.828368,1.330449,0.183592,0.217589
1695052531140625,-9.442004,1.20865,1.846368,1.361549,0.170492,0.226989
1695052531148437,-9.444004,1.8865,1.827368,1.389249,0.165092,0.238089
1695052531156250,-9.483004,0.94065,1.785368,1.417749,0.160792,0.244089
1695052531164062,-9.508004,0.81165,1.767368,1.450349,0.154192,0.258189
1695052531171875,-9.517004,0.67265,1.730368,1.487749,0.157292,0.260989
1695052531179687,-9.497004,0.52965,1.710368,1.527249,0.160892,0.258789
1695052531187500,-9.420004,0.38965,1.660368,1.556749,0.161792,0.257089
1695052531195312,-9.304004,0.23165,1.616368,1.598149,0.177292,0.256289
1695052531203125,-9.171004,0.9665,1.570368,1.632449,0.189492,0.243189
1695052531210937,-9.144004,0.2135,1.503368,1.659549,0.212592,0.236189
1695052531218750,-9.219004,0.15635,1.390368,1.688349,0.224292,0.222789
1695052531226562,-9.296004,0.26135,1.352368,1.722549,0.238592,0.228889
1695052531234375,-9.377004,0.35535,1.358368,1.754049,0.237092,0.226889
1695052531242187,-9.480004,0.46035,1.363368,1.780949,0.247592,0.235989
1695052531250000,-9.621004,0.57835,1.385368,1.782249,0.250692,0.243989
1695052531257812,-9.763004,0.69035,1.412368,1.778349,0.254792,0.258689
1695052531265625,-9.870004,0.74935,1.399368,1.772049,0.269792,0.271489
1695052531273437,-9.980004,0.78735,1.394368,1.745549,0.284592,0.271689
1695052531281250,-10.53004,0.72435,1.406368,1.725549,0.303092,0.271589
1695052531289062,-10.121004,0.65035,1.363368,1.701949,0.319292,0.271789
1695052531296875,-10.193004,0.54435,1.253368,1.678649,0.330792,0.265589
1695052531304687,-10.244004,0.42635,1.165368,1.652049,0.338992,0.264189
1695052531312500,-10.277004,0.31535,1.122368,1.649049,0.340892,0.265789
1695052531320312,-10.260004,0.22335,1.90368,1.629749,0.320592,0.264689
1695052531328125,-10.216004,0.16035,1.34368,1.612349,0.296292,0.273089
1695052531335937,-10.123004,0.11335,1.34368,1.598049,0.271792,0.270189
1695052531343750,-10.54004,0.9235,1.39368,1.569749,0.250992,0.280189
1695052531351562,-10.7004,0.6835,1.32368,1.557149,0.227992,0.278889
1695052531359375,-9.935004,0.7835,1.30368,1.539749,0.216592,0.279189
1695052531367187,-9.871004,0.13235,1.52368,1.517349,0.207592,0.273289
1695052531375000,-9.791004,0.18035,1.111368,1.504749,0.189892,0.278289
1695052531382812,-9.744004,0.21135,1.124368,1.501449,0.184992,0.284789
1695052531390625,-9.759004,0.27135,1.183368,1.484449,0.185392,0.283289
1695052531398437,-9.751004,0.32035,1.217368,1.468549,0.186892,0.291589
1695052531406250,-9.761004,0.36835,1.246368,1.443049,0.166692,0.287389
1695052531414062,-9.781004,0.40135,1.261368,1.418049,0.150492,0.284489
1695052531421875,-9.839004,0.41035,1.286368,1.389749,0.122892,0.283289
1695052531429687,-9.896004,0.39635,1.295368,1.360149,0.103492,0.274089
1695052531437500,-9.932004,0.36035,1.329368,1.332049,0.82392,0.266489
1695052531445312,-9.953004,0.32235,1.345368,1.297749,0.57792,0.250989
1695052531453125,-9.936004,0.29435,1.314368,1.271649,0.44092,0.247889
1695052531460937,-9.918004,0.27535,1.320368,1.248749,0.9992,0.240789
1695052531468750,-9.893004,0.26035,1.304368,1.223549,0.1908,0.229989
1695052531476562,-9.877004,0.24235,1.266368,1.197949,0.20208,0.235389
1695052531484375,-9.860004,0.23835,1.264368,1.174849,0.34608,0.222789
1695052531492187,-9.833004,0.24635,1.264368,1.142249,0.42108,0.224589
1695052531500000,-9.799004,0.25735,1.275368,1.122749,0.62308,0.233189
1695052531507812,-9.772004,0.25135,1.277368,1.88349,0.70308,0.230389
1695052531515625,-9.769004,0.26535,1.311368,1.67349,0.94208,0.224689
1695052531523437,-9.792004,0.28435,1.352368,1.25549,0.94708,0.228089
1695052531531250,-9.800004,0.29635,1.360368,1.6549,0.98608,0.218889
1695052531539062,-9.780004,0.33535,1.343368,0.989849,0.102908,0.210889
1695052531546875,-9.738004,0.38235,1.408368,0.978749,0.101708,0.201489
1695052531554687,-9.713004,0.43835,1.466368,0.965149,0.104408,0.194989
1695052531562500,-9.703004,0.46235,1.457368,0.938349,0.115008,0.174789
1695052531570312,-9.718004,0.51335,1.509368,0.932349,0.124708,0.163589
1695052531578125,-9.718004,0.56935,1.541368,0.933449,0.123808,0.139189
1695052531585937,-9.732004,0.63535,1.567368,0.934649,0.121808,0.121889
1695052531593750,-9.739004,0.67335,1.570368,0.935349,0.121008,0.111989
1695052531601562,-9.771004,0.71435,1.572368,0.941349,0.130108,0.99389
1695052531609375,-9.807004,0.75135,1.608368,0.960749,0.129508,0.90889
1695052531617187,-9.807004,0.78535,1.619368,0.962749,0.124508,0.73089
1695052531625000,-9.811004,0.79535,1.612368,0.973449,0.118608,0.73189
1695052531632812,-9.838004,0.80035,1.561368,0.984749,0.121208,0.72889
1695052531640625,-9.856004,0.79735,1.529368,0.986449,0.106708,0.66389
1695052531648437,-9.874004,0.79535,1.518368,0.997649,0.106808,0.56589
1695052531656250,-9.890004,0.76635,1.511368,1.11549,0.108608,0.58089
1695052531664062,-9.854004,0.76135,1.477368,1.9449,0.111108,0.56789
1695052531671875,-9.793004,0.74035,1.444368,1.36349,0.100708,0.70689
1695052531679687,-9.715004,0.74235,1.399368,1.53849,0.88808,0.73489
1695052531687500,-9.670004,0.72735,1.329368,1.70949,0.83908,0.81289
1695052531695312,-9.664004,0.71035,1.223368,1.97749,0.68808,0.91989
1695052531703125,-9.661004,0.73135,1.167368,1.111149,0.81008,0.96989
1695052531710937,-9.719004,0.73135,1.169368,1.126649,0.74508,0.109689
1695052531718750,-9.774004,0.72835,1.95368,1.143849,0.94908,0.130189
1695052531726562,-9.866004,0.70835,1.72368,1.160449,0.103708,0.139889
1695052531734375,-10.42004,0.62635,1.38368,1.186549,0.102208,0.158989
1695052531742187,-10.179004,0.54235,1.18368,1.199049,0.106708,0.173189
1695052531750000,-10.134004,0.50735,1.162368,1.223849,0.113508,0.177789
1695052531757812,-10.45004,0.45535,1.403368,1.268049,0.83608,0.186589
1695052531765625,-10.54004,0.34435,1.354368,1.304249,0.47608,0.193989
1695052531773437,-10.118004,0.29535,1.142368,1.338449,0.36008,0.214389
1695052531781250,-10.130004,0.24135,1.95368,1.358649,0.40608,0.231789
1695052531789062,-10.21004,0.17635,1.142368,1.389649,0.42508,0.242689
1695052531796875,-9.881004,0.15335,1.165368,1.417249,0.57908,0.247489
1695052531804687,-9.702004,0.16835,1.129368,1.442449,0.75308,0.255189
1695052531812500,-9.571004,0.18135,1.52368,1.446549,0.85508,0.266589
1695052531820312,-9.497004,0.20035,1.16368,1.443549,0.94708,0.277789
1695052531828125,-9.492004,0.19635,1.59368,1.434049,0.102608,0.287489
1695052531835937,-9.492004,0.20935,1.43368,1.437349,0.105708,0.282589
1695052531843750,-9.509004,0.21935,0.908368,1.414449,0.105208,0.292889
1695052531851562,-9.557004,0.20835,0.879368,1.394649,0.115408,0.299289
1695052531859375,-9.600004,0.16735,1.32368,1.381249,0.139308,0.299889
1695052531867187,-9.646004,0.16035,1.61368,1.350349,0.133508,0.304789
1695052531875000,-9.709004,0.13435,1.70368,1.329649,0.135508,0.309989
1695052531882812,-9.802004,0.9835,1.136368,1.296849,0.130308,0.308589
1695052531890625,-9.869004,0.10335,1.127368,1.270249,0.135408,0.300989
1695052531898437,-9.948004,0.8035,1.147368,1.240149,0.137008,0.315789
1695052531906250,-9.971004,0.2435,1.131368,1.201349,0.139808,0.306489
1695052531914062,-9.967004,0.2665,1.145368,1.161849,0.145308,0.300689
1695052531921875,-9.979004,0.6965,1.190368,1.132249,0.151608,0.296189
1695052531929687,-9.999004,0.12665,1.239368,1.90349,0.162408,0.290189
1695052531937500,-9.983004,0.16665,1.300368,1.65149,0.154608,0.284089
1695052531945312,-9.926004,0.19165,1.341368,1.37649,0.149108,0.271289
1695052531953125,-9.847004,0.19165,1.395368,1.18649,0.143108,0.262089
1695052531960937,-9.779004,0.18865,1.401368,0.991749,0.139008,0.251289
1695052531968750,-9.727004,0.18865,1.428368,0.980849,0.127708,0.244989
1695052531976562,-9.689004,0.16965,1.453368,0.962749,0.125508,0.230589
1695052531984375,-9.628004,0.14165,1.455368,0.961649,0.97708,0.217489
1695052531992187,-9.546004,0.8865,1.426368,0.946449,0.77708,0.210989
1695052532000000,-9.467004,0.4565,1.395368,0.940749,0.60908,0.199589
1695052532007812,-9.435004,0.2065,1.341368,0.926749,0.41508,0.194789
1695052532015625,-9.397004,0.0,1.293368,0.912949,0.21808,0.186789
1695052532023437,-9.394004,0.465,1.307368,0.898649,0.12408,0.186989
1695052532031250,-9.419004,0.3665,1.316368,0.881249,0.1992,0.188789
1695052532039062,-9.404004,0.9465,1.302368,0.868449,0.21092,0.187389
1695052532046875,-9.349004,0.16365,1.280368,0.854849,0.28692,0.193589
1695052532054687,-9.310004,0.24165,1.336368,0.843449,0.37992,0.198689
1695052532062500,-9.311004,0.33465,1.356368,0.812349,0.48092,0.198889
1695052532070312,-9.282004,0.41765,1.334368,0.794049,0.63592,0.200389
1695052532078125,-9.261004,0.49965,1.368368,0.786449,0.65492,0.195589
1695052532085937,-9.219004,0.59865,1.438368,0.781949,0.75292,0.190689
1695052532093750,-9.243004,0.69465,1.442368,0.766249,0.89592,0.186089
1695052532101562,-9.314004,0.77765,1.424368,0.758349,0.86192,0.181389
1695052532109375,-9.412004,0.85665,1.465368,0.769449,0.81392,0.178089
1695052532117187,-9.567004,0.90665,1.492368,0.783249,0.81992,0.162189
1695052532125000,-9.732004,0.92365,1.503368,0.801249,0.80092,0.166389
1695052532132812,-9.841004,0.86665,1.548368,0.829349,0.64592,0.151889
1695052532140625,-9.881004,0.77565,1.636368,0.846949,0.55392,0.148389
1695052532148437,-9.915004,0.67165,1.674368,0.886049,0.56892,0.152689
1695052532156250,-9.935004,0.53565,1.714368,0.908749,0.53892,0.151289
1695052532164062,-9.955004,0.39265,1.712368,0.937649,0.58092,0.147389
1695052532171875,-9.978004,0.26265,1.755368,0.976749,0.59392,0.148689
1695052532179687,-10.33004,0.16065,1.746368,1.12949,0.66392,0.156089
1695052532187500,-10.25004,0.8065,1.751368,1.48849,0.61192,0.154189
1695052532195312,-9.959004,0.3365,1.820368,1.67749,0.58092,0.153889
1695052532203125,-9.873004,0.3465,1.899368,1.94149,0.57592,0.153789
1695052532210937,-9.813004,0.3865,1.852368,1.111249,0.53892,0.147289
1695052532218750,-9.782004,0.9265,1.881368,1.119349,0.47692,0.147089
1695052532226562,-9.723004,0.19165,1.829368,1.153949,0.37992,0.143489
1695052532234375,-9.722004,0.26965,1.782368,1.177549,0.44292,0.136889
1695052532242187,-9.719004,0.34065,1.780368,1.185249,0.34492,0.138489
1695052532250000,-9.711004,0.40965,1.706368,1.199549,0.27792,0.127089
1695052532257812,-9.694004,0.47365,1.649368,1.204249,0.31392,0.138189
1695052532265625,-9.651004,0.49865,1.589368,1.215049,0.24792,0.141289
1695052532273437,-9.565004,0.56165,1.643368,1.235649,0.26992,0.148889
1695052532281250,-9.518004,0.56765,1.631368,1.236549,0.28092,0.165189
1695052532289062,-9.502004,0.57665,1.575368,1.259749,0.31192,0.177789
1695052532296875,-9.475004,0.59865,1.530368,1.264449,0.34692,0.185689
1695052532304687,-9.453004,0.61165,1.471368,1.283049,0.41292,0.198289
1695052532312500,-9.446004,0.60265,1.462368,1.285749,0.52392,0.207889
1695052532320312,-9.475004,0.58765,1.426368,1.287149,0.51192,0.231889
1695052532328125,-9.522004,0.55465,1.399368,1.301249,0.53292,0.242889
1695052532335937,-9.591004,0.54065,1.408368,1.295849,0.65892,0.263889
1695052532343750,-9.614004,0.53565,1.424368,1.283449,0.81292,0.281389
1695052532351562,-9.616004,0.54765,1.422368,1.279849,0.88892,0.286389
1695052532359375,-9.681004,0.55965,1.390368,1.278149,0.109992,0.291089
1695052532367187,-9.767004,0.58065,1.341368,1.269249,0.123992,0.297289
1695052532375000,-9.838004,0.62065,1.285368,1.258749,0.138892,0.287589
1695052532382812,-9.798004,0.65165,1.231368,1.260349,0.143392,0.273189
1695052532390625,-9.771004,0.68765,1.181368,1.259049,0.152492,0.245989
1695052532398437,-9.767004,0.70465,1.75368,1.261149,0.175792,0.236089
1695052532406250,-9.785004,0.70065,0.942368,1.260249,0.184092,0.215089
1695052532414062,-9.757004,0.67865,0.884368,1.261549,0.189592,0.197689
1695052532421875,-9.697004,0.68565,0.870368,1.259649,0.204292,0.190689
1695052532429687,-9.668004,0.67665,0.866368,1.270449,0.209892,0.177889
1695052532437500,-9.656004,0.66165,0.884368,1.279549,0.196392,0.174789
1695052532445312,-9.647004,0.63165,0.897368,1.280149,0.201892,0.168189
1695052532453125,-9.618004,0.64165,0.895368,1.310149,0.200392,0.159689
1695052532460937,-9.578004,0.65065,0.945368,1.327349,0.182292,0.159689
1695052532468750,-9.586004,0.61065,1.48368,1.365149,0.169592,0.157589
1695052532476562,-9.693004,0.52765,1.96368,1.390149,0.154792,0.155789
1695052532484375,-9.832004,0.35465,1.116368,1.424449,0.135092,0.158789
1695052532492187,-9.950004,0.15465,1.138368,1.451949,0.110092,0.173289
1695052532500000,-10.43004,0.5935,1.172368,1.486049,0.101692,0.185889
1695052532507812,-10.96004,0.26235,1.192368,1.496149,0.84992,0.208489
1695052532515625,-10.67004,0.42535,1.194368,1.505849,0.71692,0.233689
1695052532523437,-9.959004,0.55735,1.208368,1.509849,0.77492,0.248389
1695052532531250,-9.891004,0.62135,1.223368,1.528649,0.94092,0.260789
1695052532539062,-9.865004,0.67035,1.167368,1.533649,0.112292,0.257289
1695052532546875,-9.806004,0.69335,1.66368,1.535149,0.118592,0.255689
1695052532554687,-9.736004,0.68935,1.2368,1.544049,0.124392,0.255789
1695052532562500,-9.710004,0.67035,0.951368,1.552349,0.126192,0.242789
1695052532570312,-9.699004,0.61035,0.876368,1.539849,0.121492,0.242889
1695052532578125,-9.624004,0.56035,0.840368,1.531949,0.116392,0.241489
1695052532585937,-9.555004,0.51035,0.829368,1.505149,0.109892,0.243489
1695052532593750,-9.497004,0.45335,0.800368,1.491049,0.116192,0.241989
1695052532601562,-9.461004,0.44035,0.784368,1.467249,0.124292,0.248689
1695052532609375,-9.443004,0.44235,0.775368,1.445249,0.127392,0.245789
1695052532617187,-9.431004,0.41735,0.813368,1.425449,0.147892,0.252089
1695052532625000,-9.451004,0.41935,0.847368,1.401949,0.157792,0.255489
1695052532632812,-9.455004,0.41635,0.885368,1.386149,0.175592,0.258789
1695052532640625,-9.444004,0.42735,0.910368,1.378349,0.186892,0.253989
1695052532648437,-9.454004,0.45535,0.901368,1.359449,0.204592,0.250989
1695052532656250,-9.471004,0.51735,0.883368,1.345449,0.210892,0.243189
1695052532664062,-9.481004,0.59335,0.840368,1.336349,0.211292,0.239889
1695052532671875,-9.534004,0.66835,0.852368,1.322849,0.208392,0.220689
1695052532679687,-9.592004,0.74135,0.861368,1.303149,0.210792,0.214189
1695052532687500,-9.624004,0.83135,0.802368,1.283949,0.214992,0.208189
1695052532695312,-9.678004,0.86835,0.786368,1.267249,0.205492,0.190689
1695052532703125,-9.751004,0.87035,0.899368,1.260249,0.179692,0.180089
1695052532710937,-9.828004,0.89935,0.939368,1.248949,0.182892,0.170089
1695052532718750,-9.933004,0.90135,0.959368,1.238849,0.165092,0.157889
1695052532726562,-9.983004,0.88735,0.980368,1.230049,0.147792,0.144989
1695052532734375,-10.21004,0.89335,0.969368,1.216049,0.136392,0.135589
1695052532742187,-10.21004,0.89635,0.996368,1.200949,0.125692,0.127589
1695052532750000,-10.23004,0.90535,1.368,1.188549,0.110692,0.111889
1695052532757812,-10.16004,0.92935,1.9368,1.180449,0.108692,0.110489
1695052532765625,-10.25004,0.96735,1.21368,1.162149,0.107892,0.110389
1695052532773437,-10.53004,-1.735,1.21368,1.143149,0.93192,0.113989
1695052532781250,-10.44004,-1.1135,1.29368,1.117149,0.70692,0.116389
1695052532789062,-10.55004,-1.3935,1.63368,1.93349,0.54392,0.121589
1695052532796875,-10.34004,-1.3635,1.54368,1.69049,0.32192,0.125589
1695052532804687,-10.1004,-1.235,1.70368,1.63049,0.23192,0.131889
1695052532812500,-9.988004,0.98535,1.108368,1.52149,0.692,0.133689
1695052532820312,-10.11004,0.94735,1.77368,1.22349,0.20108,0.142089
1695052532828125,-10.16004,0.93835,1.41368,1.12349,0.42008,0.144089
1695052532835937,-9.973004,0.96135,1.86368,1.9349,0.66008,0.147389
1695052532843750,-9.905004,0.97335,1.90368,0.993549,0.74308,0.146089
1695052532851562,-9.828004,0.99835,1.74368,0.977249,0.89808,0.146589
1695052532859375,-9.776004,-1.635,1.61368,0.961749,0.92708,0.148289
1695052532867187,-9.772004,-1.1535,1.61368,0.941449,0.95908,0.143689
1695052532875000,-9.765004,0.98835,1.38368,0.919449,0.91408,0.135989
1695052532882812,-9.750004,0.96635,1.36368,0.907149,0.95908,0.132889
1695052532890625,-9.728004,0.92435,1.68368,0.880149,0.104708,0.126989
1695052532898437,-9.702004,0.87135,1.92368,0.860049,0.106108,0.120689
1695052532906250,-9.676004,0.83935,1.131368,0.843449,0.105308,0.114189
1695052532914062,-9.704004,0.79035,1.169368,0.818849,0.103508,0.98389
1695052532921875,-9.711004,0.75235,1.192368,0.804549,0.112108,0.92289
1695052532929687,-9.677004,0.73035,1.234368,0.785649,0.125408,0.84589
1695052532937500,-9.676004,0.68635,1.307368,0.767549,0.119908,0.70189
1695052532945312,-9.642004,0.68435,1.388368,0.742549,0.128008,0.64089
1695052532953125,-9.624004,0.69935,1.417368,0.727749,0.127408,0.64589
1695052532960937,-9.612004,0.74835,1.464368,0.706149,0.129008,0.48789
1695052532968750,-9.584004,0.79635,1.446368,0.692349,0.130008,0.50289
1695052532976562,-9.585004,0.85035,1.439368,0.668349,0.137408,0.49289
1695052532984375,-9.593004,0.90135,1.450368,0.633749,0.137308,0.51289
1695052532992187,-9.609004,0.91935,1.439368,0.607449,0.128708,0.49789
1695052533000000,-9.622004,0.95635,1.480368,0.597549,0.135808,0.51789
1695052533007812,-9.633004,0.98635,1.478368,0.565449,0.123308,0.50089
1695052533015625,-9.599004,-1.1735,1.486368,0.557549,0.115308,0.50189
1695052533023437,-9.588004,-1.1135,1.475368,0.535749,0.108708,0.45589
1695052533031250,-9.585004,-1.2435,1.437368,0.535449,0.105808,0.45689
1695052533039062,-9.587004,-1.6035,1.401368,0.525149,0.105008,0.40689
1695052533046875,-9.586004,-1.11035,1.369368,0.513849,0.105608,0.37789
1695052533054687,-9.563004,-1.14235,1.383368,0.503149,0.116708,0.33089
1695052533062500,-9.526004,-1.19135,1.371368,0.487049,0.109108,0.33389
1695052533070312,-9.517004,-1.23335,1.387368,0.468349,0.102508,0.31989
1695052533078125,-9.458004,-1.26835,1.459368,0.463949,0.113608,0.25489
1695052533085937,-9.450004,-1.27135,1.416368,0.461749,0.103308,0.22689
1695052533093750,-9.518004,-1.27635,1.432368,0.463949,0.97608,0.19089
1695052533101562,-9.576004,-1.30135,1.450368,0.457649,0.97408,0.23989
1695052533109375,-9.641004,-1.32135,1.459368,0.473749,0.101908,0.18889
1695052533117187,-9.731004,-1.29735,1.484368,0.482849,0.102408,0.18889
1695052533125000,-9.839004,-1.29135,1.464368,0.476449,0.107508,0.17489
1695052533132812,-9.853004,-1.28635,1.484368,0.479949,0.103608,0.17189
1695052533140625,-9.883004,-1.24835,1.509368,0.486049,0.100908,0.12489
1695052533148437,-9.935004,-1.19435,1.412368,0.506749,0.81108,0.8789
1695052533156250,-9.942004,-1.17835,1.374368,0.532049,0.79608,0.1111
1695052533164062,-9.872004,-1.21135,1.482368,0.562249,0.77408,0.4911
1695052533171875,-9.818004,-1.20535,1.527368,0.598349,0.51508,0.5411
1695052533179687,-9.768004,-1.20935,1.479368,0.623049,0.29408,0.4011
1695052533187500,-9.792004,-1.13235,1.317368,0.643349,0.17708,0.10089
1695052533195312,-9.786004,-1.9635,1.281368,0.653949,0.34008,0.22889
1695052533203125,-9.743004,-1.10835,1.376368,0.680649,0.43708,0.24289
1695052533210937,-9.757004,-1.9535,1.396368,0.688349,0.56608,0.33789
1695052533218750,-9.766004,-1.7535,1.455368,0.708549,0.71108,0.43289
1695052533226562,-9.776004,-1.1435,1.453368,0.706449,0.74708,0.57889
1695052533234375,-9.771004,0.93535,1.428368,0.694049,0.100308,0.61289
1695052533242187,-9.770004,0.84135,1.437368,0.666649,0.107608,0.68289
1695052533250000,-9.787004,0.73035,1.455368,0.660149,0.122308,0.78089
1695052533257812,-9.789004,0.63235,1.439368,0.639649,0.125808,0.75189
1695052533265625,-9.813004,0.53635,1.433368,0.644349,0.127408,0.75189
1695052533273437,-9.829004,0.49635,1.428368,0.653649,0.120808,0.81489
1695052533281250,-9.831004,0.48535,1.453368,0.650549,0.111008,0.81389
1695052533289062,-9.838004,0.48235,1.448368,0.657949,0.127608,0.91189
1695052533296875,-9.888004,0.44535,1.399368,0.658449,0.121808,0.95689
1695052533304687,-9.893004,0.40935,1.372368,0.661249,0.128608,0.103789
1695052533312500,-9.869004,0.38135,1.390368,0.665749,0.131608,0.118189
1695052533320312,-9.821004,0.33535,1.431368,0.678449,0.133008,0.119589
1695052533328125,-9.734004,0.29235,1.460368,0.681349,0.126508,0.130689
1695052533335937,-9.631004,0.26035,1.521368,0.682949,0.134208,0.137089
1695052533343750,-9.554004,0.23835,1.541368,0.694549,0.129308,0.138989
1695052533351562,-9.508004,0.22235,1.518368,0.704249,0.133408,0.148289
1695052533359375,-9.480004,0.22435,1.496368,0.705649,0.125408,0.149889
1695052533367187,-9.454004,0.22035,1.498368,0.715149,0.118408,0.159289
1695052533375000,-9.393004,0.20635,1.482368,0.729649,0.111708,0.150989
1695052533382812,-9.330004,0.17335,1.471368,0.730649,0.99608,0.152789
1695052533390625,-9.282004,0.13135,1.415368,0.733749,0.99608,0.151089
1695052533398437,-9.231004,0.10435,1.392368,0.732549,0.76508,0.150889
1695052533406250,-9.193004,0.4435,1.406368,0.734249,0.66708,0.145989
1695052533414062,-9.181004,0.1365,1.388368,0.733649,0.50808,0.139089
1695052533421875,-9.170004,0.6965,1.392368,0.737949,0.35208,0.140789
1695052533429687,-9.219004,0.13665,1.395368,0.743149,0.21708,0.132489
1695052533437500,-9.303004,0.23865,1.417368,0.746049,0.18808,0.134189
1695052533445312,-9.372004,0.31265,1.449368,0.749649,0.7008,0.125889
1695052533453125,-9.407004,0.39165,1.521368,0.758249,0.8208,0.126189
1695052533460937,-9.413004,0.47565,1.564368,0.762049,0.2192,0.116189
1695052533468750,-9.411004,0.49765,1.598368,0.782849,0.18692,0.110989
1695052533476562,-9.438004,0.53665,1.654368,0.803149,0.27992,0.101189
1695052533484375,-9.501004,0.53665,1.631368,0.813149,0.36792,0.95989
1695052533492187,-9.566004,0.51965,1.670368,0.833549,0.39992,0.97289
1695052533500000,-9.640004,0.49865,1.676368,0.838349,0.46592,0.95589
1695052533507812,-9.698004,0.45965,1.737368,0.858549,0.43092,0.95489
1695052533515625,-9.785004,0.44465,1.818368,0.870549,0.42292,0.97189
1695052533523437,-9.856004,0.40765,1.834368,0.888149,0.45892,0.95289
1695052533531250,-9.905004,0.32565,1.778368,0.885149,0.44492,0.93589
1695052533539062,-9.967004,0.28765,1.807368,0.911349,0.32592,0.96789
1695052533546875,-10.12004,0.24965,1.937368,0.919449,0.3592,0.95089
1695052533554687,-10.19004,0.18865,1.967368,0.941049,0.0,0.96589
1695052533562500,-10.14004,0.14165,2.368,0.953649,0.1708,0.94889
1695052533570312,-9.947004,0.13165,1.985368,0.964749,0.1992,0.104189
1695052533578125,-9.908004,0.10865,1.949368,0.958049,0.2992,0.102889
1695052533585937,-9.873004,0.13265,1.937368,0.959749,0.1508,0.107589
1695052533593750,-9.808004,0.16965,1.926368,0.962749,0.1708,0.110789
1695052533601562,-9.757004,0.23765,1.978368,0.960949,0.7492,0.106189
1695052533609375,-9.758004,0.29365,1.994368,0.975349,0.27392,0.105789
1695052533617187,-9.761004,0.34365,1.942368,0.972549,0.32692,0.102389
1695052533625000,-9.758004,0.40065,1.904368,0.977649,0.52892,0.108489
1695052533632812,-9.729004,0.44865,1.843368,0.979749,0.38692,0.115389
1695052533640625,-9.673004,0.48965,1.809368,0.984649,0.52192,0.124689
1695052533648437,-9.600004,0.52065,1.773368,0.986549,0.46192,0.124589
1695052533656250,-9.545004,0.55065,1.728368,0.999749,0.56792,0.119289
1695052533664062,-9.509004,0.56065,1.645368,1.7249,0.54792,0.124089
1695052533671875,-9.461004,0.55265,1.582368,1.9749,0.58892,0.129089
1695052533679687,-9.396004,0.54165,1.512368,1.12149,0.66692,0.130289
1695052533687500,-9.369004,0.52765,1.469368,1.8649,0.66292,0.133689
1695052533695312,-9.348004,0.52365,1.444368,1.5449,0.74292,0.133689
1695052533703125,-9.378004,0.51865,1.411368,0.996349,0.79592,0.133589
1695052533710937,-9.441004,0.54465,1.372368,0.974249,0.77592,0.125989
1695052533718750,-9.459004,0.58665,1.399368,0.963449,0.84092,0.121289
1695052533726562,-9.454004,0.65565,1.404368,0.962349,0.94092,0.109889
1695052533734375,-9.450004,0.71165,1.402368,0.959349,0.110292,0.101789
1695052533742187,-9.481004,0.79165,1.379368,0.954549,0.106792,0.100389
1695052533750000,-9.491004,0.85865,1.375368,0.935949,0.103692,0.94089
1695052533757812,-9.502004,0.90265,1.402368,0.937549,0.108392,0.86089
1695052533765625,-9.510004,0.92265,1.433368,0.936149,0.97092,0.82889
1695052533773437,-9.525004,0.88965,1.424368,0.935949,0.84092,0.87789
1695052533781250,-9.614004,0.81965,1.429368,0.937449,0.76092,0.94189
1695052533789062,-9.747004,0.72065,1.458368,0.930549,0.64092,0.102589
1695052533796875,-9.898004,0.56665,1.481368,0.928949,0.43592,0.120189
1695052533804687,-10.45004,0.38565,1.505368,0.916649,0.27992,0.148089
1695052533812500,-10.161004,0.17865,1.595368,0.911649,0.10492,0.172189
1695052533820312,-10.217004,0.235,1.696368,0.897349,0.1192,0.191589
1695052533828125,-10.225004,0.16635,1.766368,0.873549,0.14192,0.203089
1695052533835937,-10.219004,0.31135,1.829368,0.834449,0.35792,0.212989
1695052533843750,-10.156004,0.43335,1.829368,0.798549,0.79592,0.206689
1695052533851562,-10.52004,0.50635,1.793368,0.767749,0.112792,0.201889
1695052533859375,-9.939004,0.53935,1.696368,0.724049,0.127592,0.194289
1695052533867187,-9.811004,0.54835,1.595368,0.682249,0.127792,0.175389
1695052533875000,-9.698004,0.51435,1.552368,0.631649,0.112292,0.166689
1695052533882812,-9.594004,0.47635,1.523368,0.583749,0.88592,0.147889
1695052533890625,-9.497004,0.43035,1.502368,0.542249,0.78992,0.137589
1695052533898437,-9.408004,0.38535,1.534368,0.492549,0.61892,0.134789
1695052533906250,-9.355004,0.34835,1.543368,0.442449,0.58692,0.130589
1695052533914062,-9.329004,0.31435,1.617368,0.390949,0.37792,0.124789
1695052533921875,-9.289004,0.28535,1.557368,0.358249,0.28192,0.115489
1695052533929687,-9.330004,0.27435,1.581368,0.336449,0.39692,0.112489
1695052533937500,-9.390004,0.24635,1.626368,0.308049,0.36092,0.108089
1695052533945312,-9.480004,0.23335,1.572368,0.276749,0.50692,0.103589
1695052533953125,-9.519004,0.24035,1.541368,0.258349,0.51092,0.98889
1695052533960937,-9.554004,0.27235,1.572368,0.225949,0.52892,0.78289
1695052533968750,-9.594004,0.31335,1.602368,0.194149,0.58692,0.77189
1695052533976562,-9.629004,0.34135,1.577368,0.177349,0.69892,0.53289
1695052533984375,-9.674004,0.36335,1.532368,0.162049,0.75192,0.45289
1695052533992187,-9.709004,0.37335,1.509368,0.138349,0.80692,0.26589
1695052534000000,-9.725004,0.37335,1.493368,0.129549,0.83192,0.21589
1695052534007812,-9.746004,0.37435,1.507368,0.113349,0.80592,0.2611
1695052534015625,-9.753004,0.36735,1.514368,0.110349,0.65592,0.23311
1695052534023437,-9.755004,0.34735,1.494368,0.90549,0.69292,0.36011
1695052534031250,-9.771004,0.32935,1.523368,0.89249,0.56092,0.55211
1695052534039062,-9.776004,0.30135,1.520368,0.85349,0.34992,0.67411
1695052534046875,-9.805004,0.29935,1.521368,0.87649,0.29192,0.82111
1695052534054687,-9.817004,0.30235,1.552368,0.69049,0.14692,0.88311
1695052534062500,-9.814004,0.32435,1.584368,0.66249,0.3592,0.97911
1695052534070312,-9.811004,0.34135,1.626368,0.53249,0.6092,0.100811
1695052534078125,-9.786004,0.36035,1.617368,0.31449,0.4692,0.99011
1695052534085937,-9.779004,0.37335,1.620368,0.17449,0.208,0.106811
1695052534093750,-9.779004,0.38635,1.622368,0.4751,0.992,0.108011
1695052534101562,-9.770004,0.40035,1.635368,0.34451,0.1292,0.102911
1695052534109375,-9.756004,0.43135,1.640368,0.46751,0.1408,0.101411
1695052534117187,-9.738004,0.44235,1.635368,0.73751,0.1908,0.100911
1695052534125000,-9.731004,0.46135,1.638368,0.96951,0.4508,0.99211
1695052534132812,-9.715004,0.46235,1.615368,0.125651,0.1292,0.97011
1695052534140625,-9.704004,0.47235,1.613368,0.147351,0.3092,0.101711
1695052534148437,-9.688004,0.45935,1.577368,0.180451,0.3108,0.93311
1695052534156250,-9.679004,0.46735,1.554368,0.205851,0.11708,0.92811
1695052534164062,-9.650004,0.44335,1.547368,0.232751,0.4108,0.97211
1695052534171875,-9.633004,0.40235,1.565368,0.263751,0.8308,0.95411
1695052534179687,-9.611004,0.34935,1.572368,0.301051,0.4608,0.96711
1695052534187500,-9.583004,0.28735,1.557368,0.332151,0.592,0.101311
1695052534195312,-9.557004,0.21635,1.545368,0.360951,0.5308,0.108611
1695052534203125,-9.551004,0.15935,1.568368,0.385751,0.3292,0.107011
1695052534210937,-9.532004,0.12635,1.575368,0.410351,0.15392,0.108611
1695052534218750,-9.514004,0.9835,1.597368,0.439751,0.32092,0.113311
1695052534226562,-9.506004,0.5835,1.604368,0.477251,0.30392,0.122511
1695052534234375,-9.505004,0.7135,1.606368,0.502651,0.38092,0.122011
1695052534242187,-9.527004,0.8535,1.579368,0.512051,0.58492,0.139511
1695052534250000,-9.554004,0.11735,1.570368,0.531851,0.60992,0.142711
1695052534257812,-9.607004,0.17235,1.568368,0.539251,0.67892,0.149311
1695052534265625,-9.652004,0.21135,1.545368,0.556351,0.71192,0.155511
1695052534273437,-9.687004,0.23935,1.521368,0.578351,0.72692,0.156811
1695052534281250,-9.720004,0.25635,1.505368,0.586351,0.65692,0.167811
1695052534289062,-9.725004,0.26735,1.498368,0.601951,0.62392,0.170811
1695052534296875,-9.734004,0.26035,1.484368,0.616151,0.52592,0.169011
1695052534304687,-9.744004,0.24135,1.453368,0.623351,0.51992,0.170811
1695052534312500,-9.757004,0.21835,1.462368,0.630251,0.41392,0.168811
1695052534320312,-9.780004,0.20035,1.460368,0.655151,0.39992,0.170211
1695052534328125,-9.780004,0.18735,1.444368,0.664451,0.36692,0.176511
1695052534335937,-9.785004,0.16435,1.446368,0.681651,0.36692,0.177911
1695052534343750,-9.787004,0.16935,1.440368,0.711351,0.32092,0.179211
1695052534351562,-9.783004,0.16435,1.460368,0.730451,0.31692,0.177211
1695052534359375,-9.767004,0.15135,1.455368,0.748051,0.37692,0.178511
1695052534367187,-9.767004,0.13635,1.485368,0.763151,0.41592,0.183411
1695052534375000,-9.787004,0.15135,1.476368,0.783451,0.46692,0.183211
1695052534382812,-9.800004,0.15535,1.374368,0.808951,0.55792,0.186011
1695052534390625,-9.809004,0.14835,1.374368,0.818351,0.55592,0.190611
1695052534398437,-9.790004,0.14935,1.449368,0.835151,0.41692,0.193811
1695052534406250,-9.778004,0.14935,1.455368,0.841551,0.33292,0.192011
1695052534414062,-9.779004,0.13335,1.458368,0.861651,0.35392,0.193511
1695052534421875,-9.782004,0.11435,1.471368,0.869051,0.36192,0.192111
1695052534429687,-9.773004,0.7835,1.500368,0.886751,0.36992,0.193211
1695052534437500,-9.740004,0.3235,1.507368,0.891451,0.41992,0.191611
1695052534445312,-9.692004,0.3765,1.505368,0.905351,0.45492,0.193211
1695052534453125,-9.684004,0.10665,1.485368,0.906851,0.53692,0.196411
1695052534460937,-9.677004,0.15365,1.498368,0.908451,0.56492,0.204311
1695052534468750,-9.662004,0.18865,1.528368,0.923951,0.63292,0.204311
1695052534476562,-9.629004,0.22165,1.521368,0.932151,0.75792,0.204111
1695052534484375,-9.585004,0.26965,1.512368,0.950751,0.98792,0.205611
1695052534492187,-9.552004,0.33765,1.496368,0.956751,0.100792,0.204111
1695052534500000,-9.513004,0.39465,1.510368,0.968851,0.103092,0.207411
1695052534507812,-9.510004,0.46565,1.519368,0.967251,0.106292,0.210711
1695052534515625,-9.523004,0.50365,1.494368,0.964051,0.115892,0.215511
1695052534523437,-9.501004,0.51365,1.456368,0.965151,0.126092,0.220511
1695052534531250,-9.512004,0.51865,1.462368,0.962351,0.133692,0.220411
1695052534539062,-9.577004,0.50665,1.440368,0.965551,0.139792,0.229911
1695052534546875,-9.656004,0.51265,1.406368,0.971451,0.146992,0.226911
1695052534554687,-9.707004,0.50965,1.397368,0.967451,0.142492,0.232911
1695052534562500,-9.735004,0.49765,1.343368,0.964951,0.146992,0.239811
1695052534570312,-9.757004,0.51165,1.287368,0.965051,0.143492,0.238111
1695052534578125,-9.778004,0.54065,1.269368,0.964951,0.133892,0.241311
1695052534585937,-9.779004,0.57365,1.233368,0.985151,0.137392,0.244411
1695052534593750,-9.766004,0.64065,1.188368,0.982251,0.130592,0.242711
1695052534601562,-9.788004,0.71765,1.159368,0.977251,0.120892,0.252411
1695052534609375,-9.795004,0.76665,1.147368,0.986651,0.111292,0.249111
1695052534617187,-9.802004,0.79565,1.157368,0.980451,0.91892,0.244311
1695052534625000,-9.806004,0.79865,1.149368,0.987751,0.82492,0.235711
1695052534632812,-9.793004,0.78265,1.179368,0.987451,0.79892,0.232711
1695052534640625,-9.797004,0.76765,1.217368,0.989051,0.79892,0.229411
1695052534648437,-9.804004,0.74765,1.222368,0.987851,0.81392,0.219711
1695052534656250,-9.814004,0.72565,1.215368,0.989651,0.76292,0.213211
1695052534664062,-9.809004,0.70765,1.217368,0.988351,0.71192,0.209911
1695052534671875,-9.782004,0.67765,1.208368,0.984951,0.68692,0.200511
1695052534679687,-9.773004,0.65165,1.192368,0.977451,0.69992,0.195711
1695052534687500,-9.779004,0.63665,1.138368,0.976251,0.68192,0.181211
1695052534695312,-9.771004,0.62465,1.138368,0.982251,0.64292,0.165311
1695052534703125,-9.756004,0.60465,1.145368,0.972051,0.56992,0.155511
1695052534710937,-9.763004,0.60065,1.120368,0.964751,0.45192,0.144111
1695052534718750,-9.759004,0.61565,1.120368,0.963351,0.37192,0.131311
1695052534726562,-9.723004,0.61565,1.129368,0.961851,0.24492,0.120111
1695052534734375,-9.696004,0.63065,1.138368,0.957451,0.32592,0.112111
1695052534742187,-9.682004,0.63565,1.138368,0.963151,0.21792,0.98811
1695052534750000,-9.681004,0.63465,1.138368,0.945151,0.18292,0.88211
1695052534757812,-9.658004,0.63065,1.143368,0.941351,0.27192,0.73511
1695052534765625,-9.675004,0.58265,1.183368,0.948151,0.16992,0.65211
1695052534773437,-9.623004,0.55365,1.206368,0.941451,0.19692,0.51111
1695052534781250,-9.613004,0.52765,1.118368,0.943751,0.13992,0.42811
1695052534789062,-9.642004,0.48665,1.147368,0.933151,0.15192,0.36411
1695052534796875,-9.657004,0.45565,1.183368,0.917251,0.28892,0.25611
1695052534804687,-9.684004,0.42865,1.179368,0.918951,0.32192,0.17611
1695052534812500,-9.681004,0.38165,1.194368,0.913651,0.31192,0.30711
1695052534820312,-9.678004,0.36865,1.183368,0.906151,0.32392,0.22611
1695052534828125,-9.667004,0.35565,1.158368,0.898551,0.28692,0.25711
1695052534835937,-9.662004,0.35565,1.129368,0.896751,0.30692,0.25911
1695052534843750,-9.656004,0.37065,1.109368,0.892051,0.27192,0.32311
1695052534851562,-9.620004,0.39665,1.70368,0.893251,0.29192,0.38811
1695052534859375,-9.609004,0.41965,1.48368,0.879651,0.25092,0.40311
1695052534867187,-9.603004,0.45065,1.55368,0.868751,0.20192,0.37211
1695052534875000,-9.592004,0.47165,1.57368,0.863751,0.17292,0.37411
1695052534882812,-9.571004,0.50865,1.48368,0.860151,0.25892,0.45611
1695052534890625,-9.569004,0.55765,1.64368,0.857151,0.27292,0.44011
1695052534898437,-9.574004,0.59965,1.80368,0.844551,0.15992,0.44111
1695052534906250,-9.599004,0.61865,1.120368,0.841751,0.10692,0.42411
1695052534914062,-9.700004,0.61365,1.91368,0.833951,0.10892,0.37711
1695052534921875,-9.823004,0.58865,1.100368,0.818751,0.18492,0.29711
1695052534929687,-9.921004,0.52565,1.86368,0.805751,0.8092,0.20511
1695052534937500,-10.10004,0.43665,1.129368,0.789351,0.2308,0.4311
1695052534945312,-10.84004,0.36665,1.177368,0.782251,0.892,0.7889
1695052534953125,-10.131004,0.27965,1.161368,0.770251,0.5292,0.17589
1695052534960937,-10.125004,0.19165,1.147368,0.758651,0.7392,0.24189
1695052534968750,-10.84004,0.14165,1.156368,0.748551,0.19592,0.22189
1695052534976562,-10.16004,0.8765,1.172368,0.743851,0.29192,0.15689
1695052534984375,-9.995004,0.3365,1.154368,0.743551,0.45492,0.5889
1695052534992187,-9.985004,0.1235,1.99368,0.738851,0.54892,0.1089
1695052535000000,-9.941004,0.8335,1.77368,0.725551,0.41092,0.12111
1695052535007812,-9.865004,0.8735,1.102368,0.717051,0.40192,0.18911
1695052535015625,-9.811004,0.8935,1.109368,0.717751,0.32692,0.20111
1695052535023437,-9.736004,0.9635,1.115368,0.708551,0.10992,0.26311
1695052535031250,-9.637004,0.9335,1.126368,0.689951,0.3892,0.31211
1695052535039062,-9.573004,0.7935,1.131368,0.683551,0.5992,0.25011
1695052535046875,-9.510004,0.8335,1.118368,0.667651,0.13192,0.15811
1695052535054687,-9.451004,0.9735,1.109368,0.651851,0.3492,0.15911
1695052535062500,-9.441004,0.12735,1.115368,0.632451,0.4308,0.7711
1695052535070312,-9.441004,0.16835,1.82368,0.616251,0.5192,0.7689
1695052535078125,-9.456004,0.19035,1.66368,0.594851,0.2892,0.14089
1695052535085937,-9.541004,0.24435,1.99368,0.581151,0.13408,0.25289
1695052535093750,-9.617004,0.28035,1.100368,0.552851,0.21508,0.28189
1695052535101562,-9.692004,0.34635,1.61368,0.529251,0.16608,0.26289
1695052535109375,-9.763004,0.42135,1.10368,0.503751,0.14208,0.28989
1695052535117187,-9.795004,0.49435,0.964368,0.489451,0.14608,0.35889
1695052535125000,-9.785004,0.54335,0.948368,0.467351,0.11108,0.33889
1695052535132812,-9.756004,0.59135,0.933368,0.465451,0.12208,0.36889
1695052535140625,-9.731004,0.60235,0.897368,0.446651,0.8908,0.38289
1695052535148437,-9.713004,0.58535,0.863368,0.440551,0.492,0.38289
1695052535156250,-9.733004,0.55835,0.869368,0.440551,0.1892,0.33489
1695052535164062,-9.770004,0.53835,0.872368,0.440151,0.2208,0.34889
1695052535171875,-9.825004,0.49735,0.867368,0.426051,0.808,0.33189
1695052535179687,-9.812004,0.44635,0.854368,0.418551,0.15708,0.34889
1695052535187500,-9.781004,0.40435,0.890368,0.417051,0.19208,0.33389
1695052535195312,-9.755004,0.35835,0.933368,0.418251,0.20308,0.34789
1695052535203125,-9.731004,0.30935,0.928368,0.429551,0.22308,0.33489
1695052535210937,-9.713004,0.31335,0.919368,0.438451,0.24708,0.36489
1695052535218750,-9.715004,0.28135,0.924368,0.440851,0.24108,0.43289
1695052535226562,-9.722004,0.28335,0.926368,0.445551,0.35308,0.46589
1695052535234375,-9.758004,0.27835,0.935368,0.443851,0.33508,0.46489
1695052535242187,-9.805004,0.27535,0.980368,0.442451,0.43508,0.48189
1695052535250000,-9.818004,0.33535,0.946368,0.454751,0.42908,0.51389
1695052535257812,-9.804004,0.38635,0.924368,0.463051,0.40108,0.56489
1695052535265625,-9.703004,0.46735,0.984368,0.460351,0.47508,0.51889
1695052535273437,-9.576004,0.55835,1.23368,0.469251,0.33808,0.50089
1695052535281250,-9.478004,0.64835,1.7368,0.473851,0.30508,0.48589
1695052535289062,-9.425004,0.72535,0.957368,0.490851,0.22108,0.42189
1695052535296875,-9.400004,0.79235,0.926368,0.496551,0.16608,0.33989
1695052535304687,-9.379004,0.85235,0.914368,0.510951,0.9008,0.35889
1695052535312500,-9.358004,0.88235,0.876368,0.527451,0.1408,0.32489
1695052535320312,-9.380004,0.90135,0.809368,0.546451,0.5892,0.18489
1695052535328125,-9.428004,0.96235,0.779368,0.556151,0.3392,0.4389
1695052535335937,-9.536004,0.99035,0.809368,0.584951,0.10992,0.10111
1695052535343750,-9.643004,-1.1235,0.865368,0.608351,0.18792,0.22611
1695052535351562,-9.722004,-1.3335,0.908368,0.637751,0.20392,0.43211
1695052535359375,-9.769004,-1.3935,0.950368,0.662851,0.21592,0.54011
1695052535367187,-9.803004,0.99435,1.4368,0.689151,0.28392,0.65111
1695052535375000,-9.815004,0.98535,1.65368,0.707651,0.25492,0.69811
1695052535382812,-9.842004,0.94235,1.92368,0.732451,0.36792,0.85611
1695052535390625,-9.875004,0.88935,1.108368,0.755551,0.35592,0.93511
1695052535398437,-9.895004,0.86935,1.90368,0.772351,0.30792,0.109411
1695052535406250,-9.895004,0.84835,1.104368,0.792851,0.39792,0.125111
1695052535414062,-9.914004,0.82135,1.119368,0.811851,0.45992,0.128011
1695052535421875,-9.925004,0.79735,1.146368,0.833151,0.43292,0.144011
1695052535429687,-9.975004,0.82035,1.205368,0.863951,0.51692,0.158211
1695052535437500,-9.976004,0.85135,1.282368,0.868651,0.54692,0.164511
1695052535445312,-9.948004,0.90535,1.279368,0.868651,0.73992,0.171011
1695052535453125,-9.952004,0.96535,1.191368,0.871451,0.85592,0.177511
1695052535460937,-9.967004,0.99635,1.88368,0.876051,0.103592,0.177611
1695052535468750,-9.937004,-1.4435,1.13368,0.890651,0.104692,0.174011
1695052535476562,-9.913004,-1.5735,0.964368,0.902351,0.102892,0.169511
1695052535484375,-9.888004,-1.4835,0.957368,0.922951,0.92892,0.165911
1695052535492187,-9.879004,-1.4435,0.991368,0.937151,0.78192,0.167311
1695052535500000,-9.889004,-1.2235,0.991368,0.962251,0.68592,0.165411
1695052535507812,-9.889004,0.98435,0.996368,0.990651,0.61892,0.166611
1695052535515625,-9.883004,0.94635,1.11368,-1.12851,0.48592,0.164511
1695052535523437,-9.872004,0.90435,1.2368,-1.35351,0.36392,0.165511
1695052535531250,-9.859004,0.87735,0.989368,-1.61951,0.23592,0.163611
1695052535539062,-9.799004,0.86335,0.993368,-1.78951,0.15792,0.168311
1695052535546875,-9.727004,0.85835,0.971368,-1.91351,0.19092,0.171411
1695052535554687,-9.650004,0.86335,0.941368,-1.107351,0.12592,0.161511
1695052535562500,-9.596004,0.90635,0.899368,-1.125951,0.6192,0.164611
1695052535570312,-9.568004,0.93335,0.836368,-1.132451,0.15692,0.162811
1695052535578125,-9.564004,0.93535,0.775368,-1.154651,0.15492,0.160911
1695052535585937,-9.579004,0.95835,0.752368,-1.168651,0.2892,0.155911
1695052535593750,-9.574004,0.97535,0.772368,-1.182951,0.5308,0.149311
1695052535601562,-9.527004,0.97435,0.777368,-1.201751,0.15108,0.150611
1695052535609375,-9.523004,0.95935,0.743368,-1.223451,0.17708,0.149011
1695052535617187,-9.512004,0.93835,0.712368,-1.241251,0.22208,0.157911
1695052535625000,-9.463004,0.91135,0.673368,-1.270651,0.24608,0.154711
1695052535632812,-9.459004,0.90235,0.718368,-1.287951,0.31308,0.157611
1695052535640625,-9.480004,0.87335,0.669368,-1.311251,0.37408,0.160611
1695052535648437,-9.500004,0.85535,0.547368,-1.314651,0.44408,0.162011
1695052535656250,-9.518004,0.85235,0.624368,-1.326851,0.55508,0.171511
1695052535664062,-9.561004,0.83935,0.694368,-1.340851,0.66708,0.173011
1695052535671875,-9.644004,0.85535,0.712368,-1.362851,0.73208,0.172711
1695052535679687,-9.704004,0.90335,0.701368,-1.384751,0.88208,0.186711
1695052535687500,-9.768004,0.96135,0.793368,-1.410051,0.98208,0.184711
1695052535695312,-9.862004,-1.1435,0.903368,-1.431751,0.115808,0.189311
1695052535703125,-9.923004,-1.6535,0.982368,-1.466651,0.126608,0.204511
1695052535710937,-9.977004,-1.9635,1.54368,-1.492951,0.124508,0.209211
1695052535718750,-10.30004,-1.13535,1.101368,-1.522551,0.126108,0.216911
1695052535726562,-10.66004,-1.16335,1.128368,-1.547051,0.125808,0.234411
1695052535734375,-10.141004,-1.15435,1.144368,-1.573251,0.123508,0.237611
1695052535742187,-10.201004,-1.12835,1.144368,-1.599951,0.132308,0.254611
1695052535750000,-10.257004,-1.6735,1.165368,-1.615251,0.133508,0.261011
1695052535757812,-10.291004,0.98535,1.216368,-1.632651,0.138608,0.265511
1695052535765625,-10.286004,0.89335,1.243368,-1.649851,0.134108,0.278111
1695052535773437,-10.276004,0.80335,1.275368,-1.665151,0.120808,0.284511
1695052535781250,-10.231004,0.69935,1.268368,-1.664951,0.114108,0.284611
1695052535789062,-10.144004,0.63735,1.241368,-1.667751,0.103908,0.286411
1695052535796875,-10.28004,0.56435,1.255368,-1.663651,0.88508,0.281411
1695052535804687,-9.946004,0.52435,1.232368,-1.655151,0.74408,0.278811
1695052535812500,-9.863004,0.47135,1.158368,-1.651451,0.70608,0.268811
1695052535820312,-9.765004,0.42435,1.113368,-1.654351,0.53608,0.253011
1695052535828125,-9.679004,0.35235,1.90368,-1.665551,0.42308,0.244911
1695052535835937,-9.612004,0.30035,1.18368,-1.667151,0.35508,0.233711
1695052535843750,-9.572004,0.26035,0.966368,-1.677351,0.36208,0.222111
1695052535851562,-9.514004,0.20635,0.949368,-1.673951,0.22708,0.217511
1695052535859375,-9.491004,0.14935,0.915368,-1.673651,0.15708,0.219311
1695052535867187,-9.505004,0.9335,0.841368,-1.683051,0.692,0.212911
1695052535875000,-9.521004,0.6035,0.773368,-1.681451,0.5392,0.217711
1695052535882812,-9.515004,0.3235,0.744368,-1.670051,0.7592,0.218111
1695052535890625,-9.527004,0.665,0.717368,-1.665551,0.12092,0.221211
1695052535898437,-9.534004,0.3065,0.706368,-1.666551,0.24092,0.227911
1695052535906250,-9.523004,0.5065,0.679368,-1.648051,0.31892,0.221611
1695052535914062,-9.530004,0.8465,0.667368,-1.643851,0.35792,0.227811
1695052535921875,-9.544004,0.12265,0.656368,-1.640651,0.39092,0.227811
1695052535929687,-9.563004,0.16865,0.661368,-1.630451,0.54792,0.230011
1695052535937500,-9.575004,0.20465,0.624368,-1.616651,0.51092,0.230011
1695052535945312,-9.582004,0.24265,0.615368,-1.612251,0.47592,0.223611
1695052535953125,-9.594004,0.27365,0.600368,-1.593551,0.55592,0.220511
1695052535960937,-9.610004,0.30965,0.564368,-1.591551,0.53092,0.219211
1695052535968750,-9.644004,0.33265,0.552368,-1.579351,0.57392,0.219211
1695052535976562,-9.683004,0.35265,0.534368,-1.560651,0.49192,0.216111
1695052535984375,-9.735004,0.36265,0.501368,-1.541651,0.51192,0.211711
1695052535992187,-9.782004,0.36565,0.471368,-1.534151,0.42392,0.214711
1695052536000000,-9.840004,0.36865,0.467368,-1.513451,0.34792,0.215111
1695052536007812,-9.919004,0.37265,0.512368,-1.494951,0.29392,0.213511
1695052536015625,-9.972004,0.36465,0.564368,-1.473351,0.19192,0.213511
1695052536023437,-10.33004,0.33865,0.595368,-1.454551,0.10892,0.215311
1695052536031250,-10.76004,0.33865,0.640368,-1.441451,0.3492,0.220511
1695052536039062,-10.94004,0.34565,0.690368,-1.416651,0.3508,0.222211
1695052536046875,-10.99004,0.37965,0.753368,-1.399551,0.16808,0.222211
1695052536054687,-10.86004,0.41165,0.789368,-1.389751,0.35708,0.222511
1695052536062500,-10.48004,0.42565,0.847368,-1.366851,0.41708,0.227111
1695052536070312,-9.996004,0.44265,0.904368,-1.338351,0.44408,0.222811
1695052536078125,-9.943004,0.46865,0.897368,-1.320051,0.54808,0.222711
1695052536085937,-9.903004,0.48265,0.899368,-1.303851,0.71908,0.219911
1695052536093750,-9.842004,0.50165,0.890368,-1.286851,0.72108,0.215211
1695052536101562,-9.753004,0.51265,0.897368,-1.267851,0.94508,0.213911
1695052536109375,-9.672004,0.51065,0.944368,-1.245351,0.113508,0.200811
1695052536117187,-9.629004,0.50065,0.836368,-1.237551,0.102008,0.192911
1695052536125000,-9.622004,0.49365,0.803368,-1.220151,0.119408,0.190011
1695052536132812,-9.609004,0.50965,0.843368,-1.198751,0.129608,0.178811
1695052536140625,-9.618004,0.52065,0.839368,-1.194251,0.142708,0.173911
1695052536148437,-9.622004,0.53165,0.823368,-1.191251,0.147908,0.173911
1695052536156250,-9.612004,0.55165,0.875368,-1.189451,0.166908,0.172311
1695052536164062,-9.648004,0.55665,0.929368,-1.169551,0.172208,0.161111
1695052536171875,-9.679004,0.57065,0.960368,-1.160151,0.167308,0.161311
1695052536179687,-9.691004,0.57665,0.954368,-1.142551,0.169808,0.155311
1695052536187500,-9.708004,0.57965,0.938368,-1.118351,0.166108,0.145611
1695052536195312,-9.695004,0.55965,0.969368,-1.115151,0.155808,0.133011
1695052536203125,-9.681004,0.53265,1.52368,-1.101351,0.153008,0.131411
1695052536210937,-9.656004,0.51065,1.100368,-1.93651,0.147808,0.115511
1695052536218750,-9.651004,0.48565,1.122368,-1.93651,0.126708,0.112411
1695052536226562,-9.624004,0.46965,1.167368,-1.90051,0.122608,0.112711
1695052536234375,-9.608004,0.47865,1.201368,-1.69951,0.109708,0.100211
1695052536242187,-9.626004,0.47665,1.203368,-1.68851,0.102108,0.92011
1695052536250000,-9.648004,0.47065,1.199368,-1.56751,0.97808,0.87111
1695052536257812,-9.676004,0.47065,1.190368,-1.41751,0.98108,0.87811
1695052536265625,-9.695004,0.45565,1.185368,-1.43651,0.72608,0.86111
1695052536273437,-9.709004,0.44765,1.151368,-1.32751,0.74508,0.90911
1695052536281250,-9.720004,0.45565,1.167368,-1.30951,0.65908,0.86311
1695052536289062,-9.727004,0.46265,1.158368,-1.18051,0.67208,0.94611
1695052536296875,-9.732004,0.47765,1.156368,-1.16451,0.52708,0.94711
1695052536304687,-9.736004,0.49965,1.142368,-1.17151,0.47308,0.95911
1695052536312500,-9.744004,0.51365,1.138368,-1.14651,0.43108,0.112411
1695052536320312,-9.732004,0.52265,1.111368,-1.11351,0.31608,0.114111
1695052536328125,-9.717004,0.54365,1.100368,-1.12451,0.26108,0.115911
1695052536335937,-9.684004,0.56865,1.116368,-1.17651,0.28608,0.117211
1695052536343750,-9.657004,0.60565,1.138368,-1.15751,0.41308,0.126911
1695052536351562,-9.631004,0.65865,1.149368,-1.17451,0.36608,0.125211
1695052536359375,-9.616004,0.71265,1.151368,-1.19551,0.31108,0.131311
1695052536367187,-9.624004,0.77365,1.131368,-1.15551,0.24908,0.130211
1695052536375000,-9.660004,0.79465,1.100368,0.998451,0.28508,0.133511
1695052536382812,-9.672004,0.80265,1.57368,0.991851,0.24608,0.127411
1695052536390625,-9.662004,0.79465,1.66368,0.983451,0.37208,0.120611
1695052536398437,-9.647004,0.78365,1.71368,0.967351,0.41608,0.122611
1695052536406250,-9.673004,0.76965,1.48368,0.965351,0.46008,0.109311
1695052536414062,-9.688004,0.74465,0.987368,0.945051,0.44208,0.96711
1695052536421875,-9.694004,0.68765,0.933368,0.941951,0.49108,0.95111
1695052536429687,-9.689004,0.63165,0.962368,0.918251,0.48708,0.92311
1695052536437500,-9.704004,0.58865,0.956368,0.916751,0.43608,0.82811
1695052536445312,-9.770004,0.54365,0.881368,0.918851,0.40808,0.73011
1695052536453125,-9.871004,0.47165,0.845368,0.902651,0.52708,0.62211
1695052536460937,-9.957004,0.38265,0.825368,0.892751,0.52308,0.49111
1695052536468750,-9.952004,0.30865,0.861368,0.893751,0.49608,0.43011
1695052536476562,-9.915004,0.26365,0.935368,0.892451,0.43408,0.39711
1695052536484375,-9.855004,0.18765,0.903368,0.894451,0.22708,0.34811
1695052536492187,-9.864004,0.11565,0.879368,0.901251,0.22708,0.33711
1695052536500000,-9.856004,0.5165,0.811368,0.912151,0.24408,0.38411
1695052536507812,-9.850004,0.1365,0.678368,0.918951,0.26808,0.36411
1695052536515625,-9.866004,0.1665,0.687368,0.917451,0.35208,0.41111
1695052536523437,-9.891004,0.1465,0.681368,0.923551,0.51408,0.50611
1695052536531250,-9.873004,0.2565,0.717368,0.924951,0.74208,0.60111
1695052536539062,-9.855004,0.4065,0.739368,0.932851,0.90608,0.63211
1695052536546875,-9.840004,0.6565,0.771368,0.939551,0.114108,0.65911
1695052536554687,-9.824004,0.6765,0.843368,0.936451,0.128608,0.64311
1695052536562500,-9.841004,0.1465,0.897368,0.917851,0.146708,0.61211
1695052536570312,-9.845004,0.6635,0.935368,0.917551,0.149608,0.61311
1695052536578125,-9.820004,0.16835,1.5368,0.895751,0.146508,0.63111
1695052536585937,-9.785004,0.30135,1.56368,0.885151,0.163308,0.61311
1695052536593750,-9.751004,0.44535,1.93368,0.865751,0.178708,0.63411
1695052536601562,-9.704004,0.60535,1.149368,0.870751,0.175608,0.55311
1695052536609375,-9.663004,0.75235,1.196368,0.862751,0.177108,0.57011
1695052536617187,-9.655004,0.88835,1.219368,0.850151,0.175508,0.60411
1695052536625000,-9.646004,0.99435,1.207368,0.848451,0.172208,0.63611
1695052536632812,-9.604004,-1.8635,1.239368,0.841951,0.170408,0.70211
1695052536640625,-9.563004,-1.14235,1.288368,0.856151,0.180908,0.87411
1695052536648437,-9.552004,-1.15835,1.302368,0.847851,0.178708,0.89411
1695052536656250,-9.572004,-1.16035,1.304368,0.861851,0.175608,0.98811
1695052536664062,-9.628004,-1.12635,1.281368,0.867951,0.172308,0.105211
1695052536671875,-9.679004,-1.8535,1.275368,0.884751,0.180108,0.117911
1695052536679687,-9.673004,-1.2935,1.333368,0.892951,0.180708,0.122411
1695052536687500,-9.663004,0.95635,1.414368,0.900251,0.180408,0.135311
1695052536695312,-9.661004,0.92335,1.455368,0.937651,0.175208,0.139911
1695052536703125,-9.654004,0.89235,1.502368,0.941151,0.174408,0.142811
1695052536710937,-9.680004,0.86535,1.525368,0.954551,0.162408,0.159011
1695052536718750,-9.727004,0.84935,1.554368,0.966751,0.150708,0.163811
1695052536726562,-9.789004,0.83135,1.606368,0.981751,0.143308,0.168811
1695052536734375,-9.836004,0.80535,1.689368,0.997751,0.132708,0.174811
1695052536742187,-9.856004,0.79735,1.775368,-1.10651,0.120608,0.187311
1695052536750000,-9.879004,0.76735,1.845368,-1.15951,0.111208,0.190911
1695052536757812,-9.904004,0.72835,1.851368,-1.22051,0.97108,0.213211
1695052536765625,-9.895004,0.73535,1.885368,-1.28051,0.87108,0.219711
1695052536773437,-9.868004,0.77135,1.921368,-1.32651,0.76308,0.237211
1695052536781250,-9.874004,0.84035,1.890368,-1.20751,0.54008,0.245911
1695052536789062,-9.855004,0.88935,1.838368,-1.11251,0.40708,0.241411
1695052536796875,-9.812004,0.90935,1.804368,-1.13251,0.35008,0.242711
1695052536804687,-9.782004,0.92835,1.788368,-1.6851,0.28208,0.238111
1695052536812500,-9.726004,0.92935,1.782368,-1.12051,0.39908,0.226611
1695052536820312,-9.659004,0.93035,1.782368,-1.18051,0.47408,0.221911
1695052536828125,-9.596004,0.91435,1.780368,-1.19251,0.46808,0.218911
1695052536835937,-9.513004,0.90635,1.791368,-1.30751,0.42408,0.212111
1695052536843750,-9.459004,0.88635,1.795368,-1.40651,0.29908,0.200711
1695052536851562,-9.415004,0.85635,1.797368,-1.58051,0.21608,0.192511
1695052536859375,-9.379004,0.81235,1.793368,-1.83151,0.15008,0.189011
1695052536867187,-9.364004,0.78635,1.748368,-1.100151,0.1708,0.190611
1695052536875000,-9.347004,0.76235,1.723368,-1.120351,0.6992,0.182611
1695052536882812,-9.342004,0.73335,1.689368,-1.144451,0.8092,0.175711
1695052536890625,-9.357004,0.71135,1.629368,-1.156651,0.10392,0.169311
1695052536898437,-9.399004,0.70135,1.572368,-1.183451,0.3692,0.170511
1695052536906250,-9.446004,0.70035,1.538368,-1.198051,0.3092,0.168511
1695052536914062,-9.451004,0.69335,1.554368,-1.217151,0.1292,0.161811
1695052536921875,-9.464004,0.69135,1.554368,-1.235451,0.4992,0.171411
1695052536929687,-9.503004,0.69735,1.496368,-1.260251,0.15492,0.163411
1695052536937500,-9.551004,0.73635,1.410368,-1.266951,0.17992,0.166311
1695052536945312,-9.562004,0.77235,1.367368,-1.284051,0.16792,0.161411
1695052536953125,-9.613004,0.79535,1.390368,-1.296951,0.17792,0.165911
1695052536960937,-9.624004,0.82235,1.329368,-1.316951,0.31392,0.164311
1695052536968750,-9.662004,0.85835,1.248368,-1.323551,0.32592,0.160811
1695052536976562,-9.709004,0.85835,1.250368,-1.339151,0.13192,0.165411
1695052536984375,-9.708004,0.88035,1.259368,-1.340751,0.9692,0.168511
1695052536992187,-9.722004,0.89835,1.277368,-1.352751,0.7392,0.168711
1695052537000000,-9.742004,0.91735,1.286368,-1.366951,0.1892,0.182811
1695052537007812,-9.745004,0.94835,1.320368,-1.365851,0.12108,0.190411
1695052537015625,-9.770004,0.98135,1.333368,-1.386151,0.31508,0.196511
1695052537023437,-9.788004,-1.1435,1.322368,-1.391851,0.39108,0.204711
1695052537031250,-9.782004,-1.5835,1.324368,-1.396951,0.53008,0.213911
1695052537039062,-9.777004,-1.9635,1.356368,-1.409351,0.61508,0.231311
1695052537046875,-9.752004,-1.13535,1.333368,-1.414951,0.67208,0.241111
1695052537054687,-9.738004,-1.15035,1.313368,-1.433751,0.74208,0.255111
1695052537062500,-9.742004,-1.15035,1.302368,-1.448051,0.97408,0.264411
1695052537070312,-9.743004,-1.12335,1.326368,-1.469851,0.120108,0.270411
1695052537078125,-9.755004,-1.9235,1.435368,-1.489851,0.134708,0.286211
1695052537085937,-9.847004,-1.6435,1.495368,-1.498951,0.147608,0.302211
1695052537093750,-9.922004,-1.1035,1.493368,-1.515651,0.155608,0.322911
1695052537101562,-9.968004,0.96535,1.511368,-1.512451,0.167408,0.337211
1695052537109375,-10.39004,0.89035,1.583368,-1.523551,0.188708,0.340111
1695052537117187,-10.109004,0.86935,1.653368,-1.522051,0.194008,0.349611
1695052537125000,-10.143004,0.83135,1.655368,-1.517451,0.205008,0.335311
1695052537132812,-10.146004,0.81135,1.691368,-1.518851,0.210008,0.343311
1695052537140625,-10.139004,0.80035,1.761368,-1.509251,0.203508,0.351411
1695052537148437,-10.54004,0.79035,1.824368,-1.488851,0.183608,0.342311
1695052537156250,-9.955004,0.78235,1.838368,-1.464351,0.163308,0.337511
1695052537164062,-9.827004,0.78735,1.799368,-1.440651,0.148208,0.326811
1695052537171875,-9.674004,0.77435,1.768368,-1.422051,0.126708,0.306311
1695052537179687,-9.575004,0.76935,1.682368,-1.411151,0.123208,0.293711
1695052537187500,-9.477004,0.78735,1.620368,-1.387551,0.117408,0.270211
1695052537195312,-9.377004,0.78035,1.628368,-1.365051,0.111808,0.249311
1695052537203125,-9.297004,0.77135,1.606368,-1.343551,0.100308,0.223911
1695052537210937,-9.259004,0.76035,1.583368,-1.337651,0.90408,0.203111
1695052537218750,-9.250004,0.72735,1.583368,-1.333251,0.80508,0.185611
1695052537226562,-9.247004,0.67935,1.624368,-1.319151,0.76808,0.169911
1695052537234375,-9.245004,0.61835,1.622368,-1.313251,0.55608,0.152411
1695052537242187,-9.259004,0.57135,1.619368,-1.294951,0.43108,0.138011
1695052537250000,-9.271004,0.50235,1.637368,-1.293951,0.38808,0.128211
1695052537257812,-9.277004,0.43835,1.656368,-1.283951,0.16508,0.122411
1695052537265625,-9.289004,0.39635,1.692368,-1.278951,0.2908,0.117911
1695052537273437,-9.277004,0.33235,1.728368,-1.269451,0.17192,0.103811
1695052537281250,-9.323004,0.27235,1.728368,-1.266051,0.36992,0.102411
1695052537289062,-9.366004,0.22035,1.699368,-1.269251,0.53392,0.92911
1695052537296875,-9.385004,0.16235,1.674368,-1.260151,0.57692,0.96011
1695052537304687,-9.431004,0.11435,1.645368,-1.250751,0.67492,0.94611
1695052537312500,-9.476004,0.8135,1.640368,-1.245551,0.74692,0.96511
1695052537320312,-9.504004,0.4535,1.640368,-1.240851,0.85892,0.98211
1695052537328125,-9.551004,0.2835,1.586368,-1.239551,0.109892,0.98211
1695052537335937,-9.587004,0.2935,1.633368,-1.234951,0.114192,0.110911
1695052537343750,-9.585004,0.1665,1.602368,-1.217351,0.109592,0.117611
1695052537351562,-9.638004,0.5265,1.514368,-1.215351,0.116492,0.121111
1695052537359375,-9.613004,0.7965,1.500368,-1.195151,0.125692,0.129211
1695052537367187,-9.634004,0.8165,1.496368,-1.189651,0.137892,0.137611
1695052537375000,-9.641004,0.11265,1.469368,-1.189251,0.136392,0.150511
1695052537382812,-9.646004,0.14765,1.453368,-1.181251,0.136592,0.153911
1695052537390625,-9.667004,0.21065,1.435368,-1.168951,0.138992,0.168311
1695052537398437,-9.681004,0.26465,1.438368,-1.163951,0.137492,0.176411
1695052537406250,-9.716004,0.31365,1.411368,-1.161951,0.135992,0.192611
1695052537414062,-9.809004,0.40365,1.359368,-1.141651,0.137192,0.197511
1695052537421875,-9.869004,0.49865,1.332368,-1.121351,0.135292,0.202411
1695052537429687,-9.922004,0.56965,1.352368,-1.106951,0.115792,0.217011
1695052537437500,-9.972004,0.61965,1.339368,-1.88451,0.98992,0.218511
1695052537445312,-10.8004,0.62665,1.327368,-1.64651,0.81492,0.222111
1695052537453125,-10.22004,0.63365,1.359368,-1.46051,0.69592,0.226911
1695052537460937,-10.24004,0.62265,1.384368,-1.22151,0.64792,0.241711
1695052537468750,-10.2004,0.61965,1.384368,0.999951,0.55092,0.249911
1695052537476562,-9.963004,0.60065,1.375368,0.972951,0.47192,0.258411
1695052537484375,-9.913004,0.56565,1.375368,0.953051,0.38092,0.261411
1695052537492187,-9.876004,0.52565,1.374368,0.921851,0.31092,0.269611
1695052537500000,-9.847004,0.49765,1.354368,0.896451,0.23492,0.268511
1695052537507812,-9.850004,0.44465,1.352368,0.871551,0.31192,0.268711
1695052537515625,-9.861004,0.36365,1.357368,0.836551,0.19292,0.261411
1695052537523437,-9.888004,0.29065,1.386368,0.815651,0.8292,0.249811
1695052537531250,-9.885004,0.20365,1.433368,0.781551,0.5108,0.240411
1695052537539062,-9.862004,0.13865,1.485368,0.762551,0.17408,0.226411
1695052537546875,-9.811004,0.9565,1.534368,0.736351,0.37008,0.210511
1695052537554687,-9.764004,0.9065,1.534368,0.711851,0.45608,0.199311
1695052537562500,-9.747004,0.12765,1.539368,0.697751,0.47008,0.191511
1695052537570312,-9.716004,0.15865,1.534368,0.690351,0.66608,0.175411
1695052537578125,-9.698004,0.20265,1.505368,0.663851,0.74908,0.170811
1695052537585937,-9.699004,0.25065,1.555368,0.660751,0.90608,0.154811
1695052537593750,-9.672004,0.26865,1.584368,0.641251,0.102808,0.141811
1695052537601562,-9.632004,0.27265,1.600368,0.613051,0.101008,0.135811
1695052537609375,-9.610004,0.26265,1.643368,0.591151,0.103908,0.123311
1695052537617187,-9.628004,0.29865,1.638368,0.566151,0.103708,0.109211
1695052537625000,-9.595004,0.31565,1.672368,0.541051,0.117808,0.98411
1695052537632812,-9.576004,0.30765,1.683368,0.518651,0.127208,0.80511
1695052537640625,-9.554004,0.30665,1.719368,0.491951,0.126808,0.71311
1695052537648437,-9.524004,0.29065,1.746368,0.465651,0.128908,0.68211
1695052537656250,-9.523004,0.28565,1.794368,0.446451,0.118208,0.59111
1695052537664062,-9.534004,0.26565,1.787368,0.419951,0.112908,0.38711
1695052537671875,-9.515004,0.22165,1.791368,0.392151,0.102008,0.30911
1695052537679687,-9.537004,0.21065,1.769368,0.359051,0.90708,0.34511
1695052537687500,-9.530004,0.18365,1.802368,0.326051,0.82308,0.28611
1695052537695312,-9.504004,0.16865,1.843368,0.317651,0.86808,0.20311
1695052537703125,-9.501004,0.16765,1.820368,0.280851,0.70908,0.13211
1695052537710937,-9.514004,0.18765,1.829368,0.241751,0.56108,0.5711
1695052537718750,-9.544004,0.23065,1.821368,0.213251,0.47608,0.1411
1695052537726562,-9.567004,0.26465,1.814368,0.193651,0.43508,0.9889
1695052537734375,-9.585004,0.28765,1.845368,0.165851,0.37308,0.24089
1695052537742187,-9.582004,0.32665,1.852368,0.141951,0.25308,0.25189
1695052537750000,-9.598004,0.39165,1.872368,0.131251,0.20808,0.28389
1695052537757812,-9.603004,0.44565,1.870368,0.106351,0.22608,0.31389
1695052537765625,-9.642004,0.47465,1.802368,0.93651,0.20808,0.29489
1695052537773437,-9.662004,0.47265,1.721368,0.76251,0.14108,0.30789
1695052537781250,-9.658004,0.47165,1.710368,0.63251,0.10308,0.28889
1695052537789062,-9.696004,0.48665,1.694368,0.43751,0.13108,0.32289
1695052537796875,-9.837004,0.43565,1.595368,0.43451,0.14408,0.30489
1695052537804687,-10.13004,0.31565,1.503368,0.29551,0.11108,0.43189
1695052537812500,-10.63004,0.20365,1.532368,0.15251,0.4092,0.49189
1695052537820312,-9.983004,0.11765,1.620368,0.23351,0.18492,0.55789
1695052537828125,-9.885004,0.4565,1.604368,0.41651,0.51392,0.47589
1695052537835937,-9.860004,0.2435,1.460368,0.42451,0.70192,0.39189
1695052537843750,-9.793004,0.7335,1.388368,0.47351,0.75692,0.18689
1695052537851562,-9.681004,0.7535,1.426368,0.48351,0.79092,0.889
1695052537859375,-9.553004,0.6135,1.410368,0.62351,0.98092,0.19711
1695052537867187,-9.445004,0.3935,1.341368,0.63051,0.105192,0.37711
1695052537875000,-9.385004,0.435,1.318368,0.61551,0.103092,0.48811
1695052537882812,-9.419004,0.1965,1.352368,0.64151,0.97092,0.56911
1695052537890625,-9.482004,0.3435,1.361368,0.68751,0.89092,0.60111
1695052537898437,-9.528004,0.11335,1.305368,0.64051,0.92392,0.60211
1695052537906250,-9.587004,0.18135,1.232368,0.64451,0.79092,0.52011
1695052537914062,-9.654004,0.24535,1.219368,0.66251,0.66092,0.45411
1695052537921875,-9.720004,0.30135,1.239368,0.60351,0.44592,0.38811
1695052537929687,-9.739004,0.36235,1.216368,0.65551,0.30892,0.36911
1695052537937500,-9.761004,0.39535,1.185368,0.61051,0.10792,0.44711
1695052537945312,-9.814004,0.44335,1.203368,0.40551,0.2992,0.43411
1695052537953125,-9.840004,0.51635,1.117368,0.35651,0.4592,0.49911
1695052537960937,-9.880004,0.57835,1.104368,0.13251,0.6108,0.50311
1695052537968750,-9.885004,0.65735,1.126368,0.10751,0.8608,0.46811
1695052537976562,-9.880004,0.72935,1.144368,0.8749,0.12508,0.49011
1695052537984375,-9.877004,0.77835,1.176368,0.24349,0.14208,0.45911
1695052537992187,-9.844004,0.84735,1.198368,0.31549,0.18308,0.42511
1695052538000000,-9.787004,0.88535,1.219368,0.40949,0.19908,0.44211
1695052538007812,-9.771004,0.91535,1.237368,0.62149,0.17308,0.48011
1695052538015625,-9.735004,0.91835,1.239368,0.80849,0.22308,0.46611
1695052538023437,-9.706004,0.90535,1.246368,0.89849,0.14708,0.43311
1695052538031250,-9.688004,0.88535,1.246368,0.106949,0.19808,0.41811
1695052538039062,-9.689004,0.86535,1.279368,0.111149,0.33108,0.30411
1695052538046875,-9.689004,0.84535,1.318368,0.109749,0.50508,0.25711
1695052538054687,-9.716004,0.81635,1.306368,0.110749,0.69108,0.22111
1695052538062500,-9.773004,0.80735,1.325368,0.122149,0.84508,0.16111
1695052538070312,-9.802004,0.79035,1.399368,0.127449,0.100408,0.9211
1695052538078125,-9.848004,0.76835,1.446368,0.134449,0.123408,0.6411
1695052538085937,-9.877004,0.75435,1.460368,0.133849,0.140608,0.6011
1695052538093750,-9.913004,0.71935,1.466368,0.134649,0.147908,0.5489
1695052538101562,-9.925004,0.68235,1.491368,0.133249,0.155408,0.15089
1695052538109375,-9.951004,0.65335,1.521368,0.135049,0.158108,0.19689
1695052538117187,-9.967004,0.61235,1.572368,0.120249,0.177108,0.15489
1695052538125000,-9.924004,0.57735,1.606368,0.111949,0.177408,0.25389
1695052538132812,-9.876004,0.55435,1.665368,0.107749,0.179908,0.25189
1695052538140625,-9.826004,0.55635,1.698368,0.109149,0.182008,0.22089
1695052538148437,-9.745004,0.54635,1.689368,0.91449,0.188608,0.31989
1695052538156250,-9.651004,0.55035,1.714368,0.85449,0.190108,0.28789
1695052538164062,-9.550004,0.54535,1.707368,0.71149,0.178808,0.32189
1695052538171875,-9.476004,0.55835,1.685368,0.49549,0.176508,0.33789
1695052538179687,-9.381004,0.57235,1.755368,0.36749,0.193308,0.30989
1695052538187500,-9.261004,0.58235,1.748368,0.31649,0.197108,0.29689
1695052538195312,-9.214004,0.60735,1.799368,0.15849,0.185808,0.34689
1695052538203125,-9.169004,0.64235,1.777368,0.8451,0.179708,0.34489
1695052538210937,-9.116004,0.69335,1.734368,0.35451,0.181908,0.30189
1695052538218750,-9.93004,0.71635,1.750368,0.66651,0.191208,0.32089
1695052538226562,-9.127004,0.72735,1.784368,0.107551,0.196308,0.31089
1695052538234375,-9.196004,0.75235,1.804368,0.137151,0.196308,0.23389
1695052538242187,-9.279004,0.77335,1.820368,0.157351,0.203108,0.4389
1695052538250000,-9.330004,0.79435,1.842368,0.183851,0.196508,0.1811
1695052538257812,-9.384004,0.81835,1.836368,0.206951,0.194908,0.20811
1695052538265625,-9.426004,0.85635,1.858368,0.226651,0.179508,0.28911
1695052538273437,-9.510004,0.89835,1.885368,0.255051,0.178708,0.46011
1695052538281250,-9.603004,0.92235,1.896368,0.269951,0.176308,0.55711
1695052538289062,-9.683004,0.92835,1.898368,0.269351,0.172508,0.49011
1695052538296875,-9.737004,0.92835,1.946368,0.285851,0.167008,0.61911
1695052538304687,-9.816004,0.91435,2.34368,0.285351,0.156608,0.63711
1695052538312500,-9.898004,0.87235,2.74368,0.287051,0.148808,0.70111
1695052538320312,-9.968004,0.80235,2.61368,0.288851,0.139408,0.66811
1695052538328125,-10.29004,0.75035,2.119368,0.274851,0.142908,0.68411
1695052538335937,-10.26004,0.71035,2.216368,0.263451,0.126208,0.70411
1695052538343750,-9.975004,0.63535,2.232368,0.243251,0.103708,0.69111
1695052538351562,-9.871004,0.53835,2.234368,0.229951,0.94508,0.71311
1695052538359375,-9.756004,0.46035,2.216368,0.201551,0.81208,0.70111
1695052538367187,-9.667004,0.36335,2.162368,0.178451,0.73908,0.71811
1695052538375000,-9.585004,0.28535,2.122368,0.162651,0.73708,0.70411
1695052538382812,-9.530004,0.22935,2.95368,0.136351,0.79308,0.72111
1695052538390625,-9.472004,0.19735,2.104368,0.114251,0.80508,0.69211
1695052538398437,-9.431004,0.19635,2.88368,0.93851,0.79008,0.71111
1695052538406250,-9.394004,0.19735,2.86368,0.71351,0.78208,0.73211
1695052538414062,-9.384004,0.20835,2.66368,0.60651,0.77008,0.70011
1695052538421875,-9.386004,0.22935,2.25368,0.47151,0.67908,0.60311
1695052538429687,-9.404004,0.24535,2.12368,0.34251,0.64108,0.59111
1695052538437500,-9.437004,0.25335,1.991368,0.15651,0.56508,0.64011
1695052538445312,-9.451004,0.26435,1.980368,0.14251,0.56308,0.52811
1695052538453125,-9.489004,0.26435,1.971368,0.10751,0.54308,0.53011
1695052538460937,-9.527004,0.24835,1.937368,0.6249,0.54508,0.51511
1695052538468750,-9.595004,0.21835,1.935368,0.9349,0.62408,0.43511
1695052538476562,-9.649004,0.21235,1.939368,0.16749,0.65908,0.32311
1695052538484375,-9.674004,0.21035,1.926368,0.26149,0.59608,0.32411
1695052538492187,-9.669004,0.21435,1.917368,0.32449,0.57708,0.27711
1695052538500000,-9.669004,0.22035,1.921368,0.36649,0.58308,0.24311
1695052538507812,-9.660004,0.22435,1.899368,0.35549,0.47608,0.16611
1695052538515625,-9.644004,0.24835,1.894368,0.38749,0.49108,0.11911
1695052538523437,-9.630004,0.27035,1.921368,0.28849,0.46408,0.6811
1695052538531250,-9.610004,0.28835,1.930368,0.30249,0.41408,0.1189
1695052538539062,-9.585004,0.29335,1.930368,0.30349,0.37908,0.4289
1695052538546875,-9.567004,0.30535,1.951368,0.22249,0.39708,0.12489
1695052538554687,-9.563004,0.31035,2.7368,0.8449,0.35608,0.23589
1695052538562500,-9.594004,0.32035,2.50368,0.15949,0.29408,0.29989
1695052538570312,-9.610004,0.31135,2.77368,0.8049,0.39008,0.34989
1695052538578125,-9.634004,0.30635,2.108368,0.10649,0.49408,0.39989
1695052538585937,-9.643004,0.30935,2.158368,0.851,0.51608,0.45189
1695052538593750,-9.637004,0.30335,2.194368,0.23851,0.54108,0.41989
1695052538601562,-9.612004,0.28835,2.223368,0.44451,0.49508,0.42289
1695052538609375,-9.581004,0.27635,2.250368,0.61451,0.57108,0.47189
1695052538617187,-9.546004,0.24535,2.232368,0.76951,0.51908,0.45589
1695052538625000,-9.523004,0.21835,2.214368,0.91451,0.53008,0.31689
1695052538632812,-9.513004,0.17035,2.257368,0.105051,0.50708,0.29989
1695052538640625,-9.507004,0.13335,2.257368,0.117151,0.42108,0.23489
1695052538648437,-9.529004,0.11435,2.142368,0.134651,0.42908,0.9489
1695052538656250,-9.571004,0.9535,2.156368,0.141451,0.46508,0.1189
1695052538664062,-9.631004,0.7535,2.174368,0.151151,0.45408,0.5011
1695052538671875,-9.679004,0.4335,2.126368,0.167051,0.43008,0.17411
1695052538679687,-9.717004,0.1535,2.115368,0.168951,0.38908,0.23611
1695052538687500,-9.695004,0.1465,2.201368,0.193151,0.39508,0.36511
1695052538695312,-9.639004,0.1765,2.235368,0.212951,0.40808,0.52411
1695052538703125,-9.563004,0.3665,2.217368,0.217551,0.36108,0.63611
1695052538710937,-9.502004,0.4765,2.187368,0.233751,0.25608,0.68011
1695052538718750,-9.476004,0.5865,2.174368,0.247251,0.20308,0.80811
1695052538726562,-9.467004,0.3665,2.151368,0.263251,0.15508,0.92511
1695052538734375,-9.439004,0.2165,2.158368,0.281151,0.5792,0.101511
1695052538742187,-9.442004,0.2365,2.160368,0.307051,0.6592,0.112811
1695052538750000,-9.478004,0.4665,2.196368,0.323951,0.11792,0.120711
1695052538757812,-9.558004,0.8965,2.228368,0.339251,0.15392,0.125511
1695052538765625,-9.598004,0.9065,2.241368,0.342551,0.27892,0.133411
1695052538773437,-9.602004,0.8365,2.230368,0.359751,0.26092,0.141111
1695052538781250,-9.584004,0.8665,2.178368,0.363251,0.33492,0.147311
1695052538789062,-9.554004,0.5965,2.142368,0.365951,0.40392,0.155511
1695052538796875,-9.514004,0.3965,2.124368,0.371651,0.39792,0.151011
1695052538804687,-9.489004,0.3365,2.50368,0.383051,0.38992,0.155411
1695052538812500,-9.446004,0.1965,2.12368,0.389351,0.42292,0.153711
1695052538820312,-9.437004,0.165,2.9368,0.406451,0.53792,0.156811
1695052538828125,-9.425004,0.3435,1.982368,0.415951,0.45792,0.148711
1695052538835937,-9.451004,0.6635,1.978368,0.413151,0.48692,0.145411
1695052538843750,-9.487004,0.6635,2.27368,0.415951,0.43992,0.153411
1695052538851562,-9.551004,0.3535,2.12368,0.415251,0.56392,0.152311
1695052538859375,-9.603004,0.1635,1.973368,0.425251,0.54192,0.147111
1695052538867187,-9.659004,0.2635,1.962368,0.432951,0.46292,0.145411
1695052538875000,-9.695004,0.3235,2.5368,0.445851,0.41392,0.134011
1695052538882812,-9.688004,0.4335,2.30368,0.459951,0.46392,0.130711
1695052538890625,-9.695004,0.4535,2.34368,0.479051,0.37992,0.125511
1695052538898437,-9.683004,0.4635,2.34368,0.491651,0.44592,0.119011
1695052538906250,-9.654004,0.6035,2.28368,0.503651,0.56692,0.124011
1695052538914062,-9.616004,0.6235,2.36368,0.527751,0.54292,0.121811
1695052538921875,-9.575004,0.8135,2.39368,0.544851,0.56192,0.121711
1695052538929687,-9.555004,0.6835,2.12368,0.568251,0.58092,0.119911
1695052538937500,-9.535004,0.5035,1.994368,0.590351,0.56292,0.121211
1695052538945312,-9.503004,0.4335,1.971368,0.614251,0.60592,0.120711
1695052538953125,-9.470004,0.2735,1.971368,0.647851,0.67992,0.133511
1695052538960937,-9.437004,0.1035,1.989368,0.669851,0.67992,0.133311
1695052538968750,-9.405004,0.565,2.368,0.707751,0.73792,0.142311
1695052538976562,-9.406004,0.2065,1.994368,0.729151,0.81192,0.142311
1695052538984375,-9.390004,0.3565,1.980368,0.755551,0.92492,0.156511
1695052538992187,-9.390004,0.6065,1.951368,0.779351,0.96992,0.154511
1695052539000000,-9.414004,0.10565,1.917368,0.812051,0.101992,0.162211
1695052539007812,-9.434004,0.11665,1.861368,0.847851,0.111992,0.168411
1695052539015625,-9.445004,0.13465,1.901368,0.874651,0.103692,0.168011
1695052539023437,-9.444004,0.15865,1.807368,0.891251,0.112492,0.177711
1695052539031250,-9.509004,0.17565,1.768368,0.915451,0.111492,0.175511
1695052539039062,-9.540004,0.16265,1.791368,0.950751,0.112292,0.188211
1695052539046875,-9.590004,0.18165,1.757368,0.975851,0.115392,0.195911
1695052539054687,-9.611004,0.20965,1.708368,-1.1951,0.117692,0.200611
1695052539062500,-9.634004,0.23065,1.712368,-1.21051,0.110792,0.203511
1695052539070312,-9.649004,0.20865,1.710368,-1.44251,0.107492,0.217611
1695052539078125,-9.678004,0.22965,1.676368,-1.56951,0.100492,0.225311
1695052539085937,-9.684004,0.19665,1.595368,-1.80251,0.106792,0.241111
1695052539093750,-9.729004,0.18565,1.539368,-1.108451,0.93792,0.247111
1695052539101562,-9.774004,0.16665,1.521368,-1.131551,0.79392,0.259711
1695052539109375,-9.794004,0.12165,1.505368,-1.143551,0.68292,0.275711
1695052539117187,-9.827004,0.6865,1.494368,-1.160451,0.63792,0.280511
1695052539125000,-9.874004,0.5865,1.509368,-1.159151,0.56592,0.289811
1695052539132812,-9.914004,0.3765,1.557368,-1.160551,0.56392,0.302611
1695052539140625,-9.902004,0.1835,1.575368,-1.156851,0.43792,0.317211
1695052539148437,-9.865004,0.9835,1.577368,-1.129851,0.44892,0.347911
1695052539156250,-9.806004,0.20835,1.525368,-1.92351,0.53992,0.357811
1695052539164062,-9.766004,0.36235,1.496368,-1.60551,0.46092,0.367911
1695052539171875,-9.678004,0.51835,1.480368,-1.22951,0.60592,0.368411
1695052539179687,-9.583004,0.71535,1.504368,0.988351,0.65392,0.370411
1695052539187500,-9.487004,0.91835,1.527368,0.951051,0.74792,0.364311
1695052539195312,-9.388004,-1.13135,1.502368,0.906951,0.95092,0.352311
1695052539203125,-9.306004,-1.33035,1.457368,0.881651,0.108592,0.343211
1695052539210937,-9.271004,-1.51235,1.414368,0.854651,0.107192,0.328511
1695052539218750,-9.339004,-1.67835,1.326368,0.838951,0.111292,0.305011
1695052539226562,-9.444004,-1.81835,1.213368,0.833251,0.117292,0.290411
1695052539234375,-9.575004,-1.92035,1.173368,0.833451,0.109592,0.272811
1695052539242187,-9.701004,-1.95635,1.283368,0.840151,0.99792,0.251811
1695052539250000,-9.749004,-1.92335,1.486368,0.835251,0.87492,0.244011
1695052539257812,-9.752004,-1.85635,1.666368,0.845951,0.106192,0.229811
1695052539265625,-9.777004,-1.70935,1.759368,0.847951,0.128592,0.221711
1695052539273437,-9.791004,-1.56135,1.806368,0.845851,0.150492,0.220511
1695052539281250,-9.767004,-1.45835,1.851368,0.843251,0.166092,0.217111
1695052539289062,-9.678004,-1.37735,1.846368,0.822951,0.190192,0.215811
1695052539296875,-9.541004,-1.39335,1.779368,0.805451,0.212192,0.201911
1695052539304687,-9.368004,-1.41535,1.678368,0.783851,0.237692,0.197311
1695052539312500,-9.244004,-1.42035,1.565368,0.758651,0.272592,0.177111
1695052539320312,-9.191004,-1.36535,1.439368,0.738651,0.314592,0.162911
1695052539328125,-9.194004,-1.28935,1.304368,0.749751,0.318092,0.148511
1695052539335937,-9.245004,-1.18435,1.182368,0.749951,0.316792,0.132511
1695052539343750,-9.335004,-1.7735,1.101368,0.762251,0.301192,0.124411
1695052539351562,-9.501004,0.95435,1.34368,0.772551,0.280792,0.114311
1695052539359375,-9.617004,0.85535,1.29368,0.786851,0.264292,0.115511
1695052539367187,-9.708004,0.80235,1.23368,0.796151,0.246692,0.113811
1695052539375000,-9.787004,0.74135,1.77368,0.804351,0.232992,0.119811
1695052539382812,-9.860004,0.72135,1.205368,0.816051,0.242092,0.126611
1695052539390625,-9.947004,0.69935,1.264368,0.839751,0.240292,0.126211
1695052539398437,-10.43004,0.61735,1.198368,0.864951,0.243292,0.129011
1695052539406250,-10.60004,0.52635,1.149368,0.885551,0.231592,0.130211
1695052539414062,-10.37004,0.40835,1.180368,0.921851,0.223092,0.136011
1695052539421875,-10.31004,0.24735,1.165368,0.954251,0.221792,0.147111
1695052539429687,-10.71004,0.8835,1.52368,0.995351,0.193892,0.146311
1695052539437500,-10.138004,0.5665,0.978368,-1.37551,0.184092,0.158611
1695052539445312,-10.210004,0.20165,0.910368,-1.70151,0.162992,0.171011
1695052539453125,-10.202004,0.32765,0.915368,-1.94851,0.142492,0.174111
1695052539460937,-10.154004,0.46065,0.938368,-1.116951,0.135592,0.183311
1695052539468750,-10.85004,0.52165,1.12368,-1.126651,0.113692,0.190811
1695052539476562,-10.37004,0.63165,0.965368,-1.115251,0.138392,0.200811
1695052539484375,-9.989004,0.67965,0.868368,-1.115151,0.133692,0.199311
1695052539492187,-9.917004,0.64665,0.814368,-1.94551,0.129092,0.198011
1695052539500000,-9.832004,0.57965,0.697368,-1.92151,0.156192,0.178711
1695052539507812,-9.825004,0.54165,0.643368,-1.90751,0.162992,0.164411
1695052539515625,-9.802004,0.51665,0.663368,-1.108051,0.142392,0.148211
1695052539523437,-9.772004,0.48565,0.611368,-1.134151,0.113692,0.140911
1695052539531250,-9.810004,0.44365,0.659368,-1.155651,0.88692,0.129611
1695052539539062,-9.836004,0.41365,0.811368,-1.168951,0.61792,0.129011
1695052539546875,-9.827004,0.40665,0.935368,-1.183251,0.42392,0.117511
1695052539554687,-9.852004,0.40965,1.14368,-1.193151,0.33592,0.117111
1695052539562500,-9.883004,0.38465,1.66368,-1.197451,0.26192,0.114111
1695052539570312,-9.826004,0.35065,1.46368,-1.195851,0.27892,0.114111
1695052539578125,-9.794004,0.29965,0.955368,-1.197951,0.15792,0.112211
1695052539585937,-9.820004,0.24665,0.911368,-1.200551,0.13292,0.110811
1695052539593750,-9.876004,0.21665,0.980368,-1.207251,0.1808,0.108911
1695052539601562,-9.933004,0.15765,1.41368,-1.207751,0.12008,0.99011
1695052539609375,-9.924004,0.12265,1.63368,-1.195551,0.13808,0.91111
1695052539617187,-9.876004,0.7365,1.77368,-1.193451,0.14408,0.83411
1695052539625000,-9.796004,0.1965,1.142368,-1.192651,0.34608,0.73411
1695052539632812,-9.724004,0.1635,1.183368,-1.192851,0.39508,0.67011
1695052539640625,-9.683004,0.4635,1.138368,-1.194751,0.44408,0.49211
1695052539648437,-9.671004,0.8235,1.100368,-1.189851,0.55508,0.52511
1695052539656250,-9.701004,0.6635,1.115368,-1.186651,0.68408,0.54211
1695052539664062,-9.753004,0.4935,1.158368,-1.187051,0.73708,0.46011
1695052539671875,-9.755004,0.1735,1.201368,-1.182951,0.77808,0.45711
1695052539679687,-9.720004,0.1665,1.259368,-1.174651,0.90108,0.42811
1695052539687500,-9.691004,0.2065,1.354368,-1.165151,0.90108,0.49311
1695052539695312,-9.658004,0.4165,1.449368,-1.152151,0.93008,0.60811
1695052539703125,-9.676004,0.6865,1.473368,-1.128651,0.76908,0.61111
1695052539710937,-9.683004,0.8465,1.496368,-1.103451,0.75508,0.71011
1695052539718750,-9.697004,0.12365,1.557368,-1.72351,0.79508,0.79111
1695052539726562,-9.711004,0.15265,1.631368,-1.55151,0.86308,0.84011
1695052539734375,-9.727004,0.19165,1.667368,-1.16851,0.98508,0.91111
1695052539742187,-9.696004,0.20965,1.687368,0.997951,0.102108,0.105711
1695052539750000,-9.688004,0.20465,1.692368,0.964351,0.104608,0.111211
1695052539757812,-9.684004,0.17865,1.660368,0.919651,0.97708,0.111311
1695052539765625,-9.738004,0.12365,1.609368,0.888051,0.99008,0.111811
1695052539773437,-9.779004,0.6765,1.586368,0.860351,0.105008,0.116511
1695052539781250,-9.793004,0.5365,1.595368,0.838151,0.120608,0.108911
1695052539789062,-9.815004,0.3865,1.615368,0.803751,0.125808,0.112411
1695052539796875,-9.844004,0.4765,1.597368,0.789651,0.138908,0.115711
1695052539804687,-9.916004,0.6065,1.566368,0.769451,0.140808,0.114211
1695052539812500,-9.907004,0.9165,1.566368,0.758551,0.144108,0.114311
1695052539820312,-9.881004,0.11365,1.588368,0.757451,0.169308,0.115511
1695052539828125,-9.829004,0.12065,1.647368,0.742851,0.160308,0.111211
1695052539835937,-9.776004,0.13365,1.654368,0.737851,0.151908,0.116211
1695052539843750,-9.715004,0.13465,1.602368,0.727351,0.152308,0.109811
1695052539851562,-9.659004,0.13565,1.618368,0.722151,0.141408,0.99011
1695052539859375,-9.668004,0.12865,1.647368,0.719051,0.140008,0.99011
1695052539867187,-9.690004,0.12265,1.730368,0.733551,0.145308,0.93811
1695052539875000,-9.632004,0.15065,1.703368,0.725751,0.141608,0.81211
1695052539882812,-9.610004,0.17265,1.669368,0.727451,0.144808,0.74811
1695052539890625,-9.582004,0.20265,1.764368,0.719651,0.144808,0.74911
1695052539898437,-9.555004,0.20465,1.807368,0.716751,0.151608,0.70011
1695052539906250,-9.509004,0.19165,1.811368,0.719051,0.142708,0.63211
1695052539914062,-9.493004,0.18665,1.863368,0.707651,0.142108,0.62011
1695052539921875,-9.538004,0.17165,1.978368,0.698151,0.133508,0.55811
1695052539929687,-9.627004,0.14465,2.23368,0.693851,0.129208,0.50911
1695052539937500,-9.677004,0.10265,2.25368,0.685851,0.131908,0.41511
1695052539945312,-9.675004,0.6365,2.59368,0.672651,0.124608,0.27011
1695052539953125,-9.657004,0.2965,2.113368,0.668951,0.126908,0.22511
1695052539960937,-9.596004,0.3165,2.124368,0.670851,0.127508,0.23911
1695052539968750,-9.541004,0.4965,2.124368,0.667351,0.117308,0.27311
1695052539976562,-9.525004,0.9065,2.144368,0.664451,0.104808,0.32111
1695052539984375,-9.515004,0.12665,2.138368,0.649651,0.95908,0.37411
1695052539992187,-9.509004,0.18665,2.95368,0.643351,0.96108,0.43811
1695052540000000,-9.469004,0.23165,2.68368,0.639151,0.100608,0.57911
1695052540007812,-9.382004,0.26265,2.48368,0.632151,0.95008,0.66311
1695052540015625,-9.338004,0.29565,1.998368,0.619351,0.86608,0.69811
1695052540023437,-9.347004,0.33165,1.919368,0.613651,0.95608,0.72711
1695052540031250,-9.408004,0.33865,1.818368,0.591351,0.101608,0.71511
1695052540039062,-9.525004,0.30865,1.719368,0.589551,0.101208,0.68511
1695052540046875,-9.679004,0.26265,1.629368,0.571151,0.117308,0.47811
1695052540054687,-9.750004,0.18365,1.559368,0.568351,0.130408,0.38111
1695052540062500,-9.708004,0.14365,1.568368,0.564551,0.133008,0.26511
1695052540070312,-9.715004,0.15765,1.606368,0.564651,0.127908,0.13811
1695052540078125,-9.748004,0.18765,1.609368,0.574951,0.121908,0.12411
1695052540085937,-9.772004,0.18865,1.593368,0.571551,0.104208,0.25411
1695052540093750,-9.804004,0.19065,1.566368,0.572951,0.104008,0.28611
1695052540101562,-9.835004,0.18365,1.575368,0.578151,0.105008,0.31411
1695052540109375,-9.898004,0.17465,1.611368,0.584051,0.107608,0.33211
1695052540117187,-9.959004,0.18465,1.570368,0.585751,0.117508,0.33111
1695052540125000,-9.969004,0.16265,1.525368,0.571651,0.135508,0.36311
1695052540132812,-9.974004,0.11565,1.555368,0.568251,0.126708,0.25411
1695052540140625,-9.927004,0.3965,1.602368,0.566951,0.141408,0.20511
1695052540148437,-9.850004,0.5035,1.611368,0.568851,0.149808,0.10711
1695052540156250,-9.754004,0.13435,1.633368,0.566851,0.152008,0.3011
1695052540164062,-9.674004,0.19635,1.651368,0.566351,0.151708,0.7089
1695052540171875,-9.653004,0.25235,1.662368,0.549451,0.153608,0.18189
1695052540179687,-9.656004,0.33735,1.671368,0.541251,0.153008,0.17989
1695052540187500,-9.649004,0.42435,1.669368,0.520351,0.150608,0.20689
1695052540195312,-9.645004,0.52235,1.608368,0.513051,0.152808,0.27189
1695052540203125,-9.643004,0.59435,1.556368,0.494751,0.148508,0.33589
1695052540210937,-9.645004,0.67735,1.530368,0.469051,0.144308,0.36189
1695052540218750,-9.688004,0.73435,1.509368,0.456851,0.144908,0.34589
1695052540226562,-9.737004,0.78935,1.460368,0.445651,0.142908,0.34289
1695052540234375,-9.761004,0.82635,1.412368,0.430051,0.136508,0.37389
1695052540242187,-9.806004,0.83935,1.403368,0.420251,0.140908,0.35489
1695052540250000,-9.819004,0.88835,1.421368,0.404551,0.139308,0.33689
1695052540257812,-9.814004,0.91035,1.435368,0.392451,0.133308,0.36989
1695052540265625,-9.805004,0.90135,1.437368,0.386151,0.138208,0.35289
1695052540273437,-9.798004,0.92535,1.457368,0.368951,0.130108,0.41489
1695052540281250,-9.753004,0.94835,1.498368,0.349951,0.125008,0.39589
1695052540289062,-9.696004,0.94935,1.558368,0.320551,0.114208,0.40889
1695052540296875,-9.647004,0.95735,1.622368,0.318551,0.115208,0.37489
1695052540304687,-9.588004,0.98135,1.642368,0.307951,0.107608,0.42389
1695052540312500,-9.542004,0.99735,1.662368,0.276851,0.77208,0.43589
1695052540320312,-9.507004,-1.2435,1.683368,0.252051,0.60708,0.44189
1695052540328125,-9.467004,-1.6335,1.714368,0.232551,0.42608,0.44389
1695052540335937,-9.404004,-1.10935,1.759368,0.212951,0.26708,0.48489
1695052540343750,-9.312004,-1.19935,1.684368,0.185151,0.16492,0.49789
1695052540351562,-9.265004,-1.26935,1.565368,0.157951,0.51692,0.60189
1695052540359375,-9.311004,-1.31935,1.608368,0.142751,0.67492,0.69689
1695052540367187,-9.357004,-1.37535,1.522368,0.142851,0.81992,0.76089
1695052540375000,-9.433004,-1.39735,1.457368,0.141251,0.96992,0.82289
1695052540382812,-9.499004,-1.37435,1.497368,0.142551,0.92192,0.74289
1695052540390625,-9.492004,-1.36935,1.660368,0.140851,0.80992,0.71089
1695052540398437,-9.481004,-1.35135,1.653368,0.153951,0.87992,0.65089
1695052540406250,-9.473004,-1.32135,1.624368,0.163951,0.97092,0.48789
1695052540414062,-9.502004,-1.26235,1.579368,0.168451,0.99892,0.29689
1695052540421875,-9.544004,-1.18435,1.549368,0.183851,0.110192,0.28089
1695052540429687,-9.611004,-1.11535,1.482368,0.200351,0.108692,0.889
1695052540437500,-9.658004,-1.6335,1.426368,0.212951,0.113092,0.10111
1695052540445312,-9.669004,0.99735,1.424368,0.232251,0.106092,0.27911
1695052540453125,-9.656004,0.95735,1.457368,0.259051,0.105492,0.40311
1695052540460937,-9.622004,0.92635,1.486368,0.276351,0.114992,0.46411
1695052540468750,-9.567004,0.92035,1.435368,0.288551,0.110392,0.52811
1695052540476562,-9.481004,0.90135,1.394368,0.307551,0.113092,0.60511
1695052540484375,-9.457004,0.88835,1.358368,0.310351,0.123392,0.62211
1695052540492187,-9.490004,0.86735,1.275368,0.326751,0.125692,0.55311
1695052540500000,-9.544004,0.89635,1.221368,0.340251,0.119692,0.66611
1695052540507812,-9.598004,0.89735,1.234368,0.365551,0.108092,0.66111
1695052540515625,-9.643004,0.90135,1.268368,0.387551,0.109792,0.67511
1695052540523437,-9.674004,0.93835,1.311368,0.405951,0.93992,0.73811
1695052540531250,-9.712004,0.95135,1.309368,0.430951,0.87492,0.78311
1695052540539062,-9.710004,0.95135,1.279368,0.455951,0.90792,0.82811
1695052540546875,-9.716004,0.95335,1.239368,0.481051,0.85692,0.88911
1695052540554687,-9.739004,0.95135,1.200368,0.498351,0.72592,0.91811
1695052540562500,-9.739004,0.95535,1.173368,0.525251,0.59092,0.96111
1695052540570312,-9.735004,0.93135,1.162368,0.542351,0.47892,0.102311
1695052540578125,-9.807004,0.91435,1.183368,0.570151,0.32092,0.108511
1695052540585937,-9.908004,0.89535,1.228368,0.604851,0.8792,0.119011
1695052540593750,-9.987004,0.88735,1.261368,0.609751,0.3692,0.117311
1695052540601562,-10.4,0.93835,1.275368,0.631451,0.10608,0.118711
1695052540609375,-9.956004,-1.1635,1.333368,0.636451,0.14308,0.120111
1695052540617187,-9.895004,-1.8235,1.397368,0.652851,0.11408,0.120311
1695052540625000,-9.808004,-1.13835,1.401368,0.667551,0.4208,0.123111
1695052540632812,-9.738004,-1.17135,1.387368,0.673251,0.4592,0.126511
1695052540640625,-9.699004,-1.18235,1.403368,0.686151,0.3992,0.127711
1695052540648437,-9.646004,-1.19735,1.424368,0.702651,0.1892,0.131211
1695052540656250,-9.594004,-1.19735,1.428368,0.711151,0.8908,0.130611
1695052540664062,-9.549004,-1.20335,1.457368,0.729851,0.15008,0.128911
1695052540671875,-9.510004,-1.20035,1.497368,0.742951,0.24208,0.133211
1695052540679687,-9.456004,-1.19935,1.531368,0.744351,0.23808,0.128511
1695052540687500,-9.403004,-1.18235,1.543368,0.774451,0.24108,0.124811
1695052540695312,-9.376004,-1.16035,1.484368,0.790451,0.22808,0.121311
1695052540703125,-9.372004,-1.16335,1.455368,0.813351,0.26508,0.115011
1695052540710937,-9.340004,-1.14435,1.500368,0.838151,0.57708,0.121911
1695052540718750,-9.329004,-1.12035,1.430368,0.843851,0.42408,0.123711
1695052540726562,-9.388004,-1.11135,1.383368,0.857151,0.38308,0.136711
1695052540734375,-9.503004,-1.9535,1.351368,0.864351,0.34508,0.148111
1695052540742187,-9.643004,-1.8635,1.300368,0.883251,0.34708,0.149511
1695052540750000,-9.778004,-1.6835,1.255368,0.894351,0.44508,0.150911
1695052540757812,-9.850004,-1.4235,1.290368,0.905451,0.48208,0.158611
1695052540765625,-9.908004,-1.1635,1.349368,0.926051,0.63508,0.169311
1695052540773437,-9.947004,0.98535,1.378368,0.936551,0.64608,0.175811
1695052540781250,-9.922004,0.93335,1.394368,0.943451,0.47408,0.189011
1695052540789062,-9.883004,0.91235,1.444368,0.943851,0.48708,0.209411
1695052540796875,-9.842004,0.85335,1.466368,0.938451,0.33608,0.222611
1695052540804687,-9.816004,0.83335,1.455368,0.938751,0.12408,0.229711
1695052540812500,-9.766004,0.80035,1.419368,0.937551,0.1092,0.247111
1695052540820312,-9.721004,0.79135,1.399368,0.913651,0.5892,0.260311
1695052540828125,-9.687004,0.81635,1.387368,0.910551,0.8992,0.265111
1695052540835937,-9.626004,0.83935,1.356368,0.880551,0.25292,0.268711
1695052540843750,-9.577004,0.86535,1.318368,0.861551,0.27292,0.269111
1695052540851562,-9.507004,0.87935,1.248368,0.842551,0.43592,0.272711
1695052540859375,-9.474004,0.89935,1.250368,0.830751,0.43992,0.274011
1695052540867187,-9.461004,0.91135,1.223368,0.811351,0.40092,0.268111
1695052540875000,-9.456004,0.90835,1.189368,0.811851,0.34792,0.259911
1695052540882812,-9.468004,0.89535,1.176368,0.802451,0.33392,0.255211
1695052540890625,-9.479004,0.87535,1.178368,0.790051,0.29892,0.253611
1695052540898437,-9.509004,0.84635,1.194368,0.786951,0.18592,0.248911
1695052540906250,-9.525004,0.81035,1.169368,0.787451,0.21592,0.237511
1695052540914062,-9.550004,0.79235,1.147368,0.768551,0.20292,0.229811
1695052540921875,-9.605004,0.75035,1.144368,0.765951,0.22792,0.226311
1695052540929687,-9.648004,0.69635,1.171368,0.762751,0.31192,0.220111
1695052540937500,-9.671004,0.67035,1.176368,0.754851,0.29792,0.218611
1695052540945312,-9.710004,0.64535,1.189368,0.740451,0.35292,0.211011
1695052540953125,-9.766004,0.62235,1.180368,0.739451,0.37992,0.201211
1695052540960937,-9.818004,0.61935,1.162368,0.734851,0.42892,0.194911
1695052540968750,-9.841004,0.61035,1.153368,0.724951,0.43492,0.198411
1695052540976562,-9.825004,0.59935,1.158368,0.714451,0.46392,0.187211
1695052540984375,-9.839004,0.58335,1.146368,0.714951,0.37792,0.178911
1695052540992187,-9.848004,0.55135,1.108368,0.716751,0.27992,0.174011
1695052541000000,-9.844004,0.52135,1.106368,0.718151,0.21692,0.175611
1695052541007812,-9.843004,0.47635,1.138368,0.732451,0.8392,0.175311
1695052541015625,-9.848004,0.44135,1.171368,0.735251,0.5692,0.177111
1695052541023437,-9.833004,0.41235,1.147368,0.740151,0.2908,0.181611
1695052541031250,-9.813004,0.38835,1.151368,0.732551,0.17808,0.179911
1695052541039062,-9.786004,0.35735,1.203368,0.735251,0.15608,0.181711
1695052541046875,-9.774004,0.32335,1.185368,0.741351,0.23408,0.180111
1695052541054687,-9.758004,0.31135,1.151368,0.733751,0.28908,0.188011
1695052541062500,-9.733004,0.30435,1.178368,0.726451,0.34408,0.184611
1695052541070312,-9.727004,0.29235,1.199368,0.716451,0.36708,0.181811
1695052541078125,-9.684004,0.28035,1.185368,0.711751,0.38208,0.177111
1695052541085937,-9.639004,0.29735,1.237368,0.705951,0.33808,0.169011
1695052541093750,-9.627004,0.30435,1.288368,0.701551,0.36108,0.175211
1695052541101562,-9.627004,0.31535,1.280368,0.688851,0.27508,0.166011
1695052541109375,-9.611004,0.33335,1.273368,0.662051,0.27308,0.169511
1695052541117187,-9.596004,0.31335,1.329368,0.640551,0.31208,0.164711
1695052541125000,-9.603004,0.30935,1.343368,0.626251,0.34108,0.166611
1695052541132812,-9.585004,0.30135,1.291368,0.590151,0.40108,0.151111
1695052541140625,-9.626004,0.30535,1.399368,0.563451,0.59608,0.149711
1695052541148437,-9.767004,0.32035,1.518368,0.540851,0.47308,0.128911
1695052541156250,-9.850004,0.33435,1.509368,0.533251,0.51908,0.111411
1695052541164062,-9.834004,0.32135,1.457368,0.514851,0.57008,0.98611
1695052541171875,-9.798004,0.29735,1.482368,0.493151,0.66908,0.89211
1695052541179687,-9.745004,0.28235,1.613368,0.483851,0.73208,0.78011
1695052541187500,-9.663004,0.27835,1.588368,0.465751,0.46608,0.76411
1695052541195312,-9.632004,0.29035,1.468368,0.465751,0.22008,0.67011
1695052541203125,-9.634004,0.27035,1.520368,0.451451,0.20408,0.73611
1695052541210937,-9.608004,0.24635,1.642368,0.441551,0.14908,0.80411
1695052541218750,-9.624004,0.23335,1.721368,0.438251,0.13108,0.80511
1695052541226562,-9.592004,0.18335,1.739368,0.428151,0.5708,0.84111
1695052541234375,-9.554004,0.14135,1.816368,0.414351,0.22308,0.80911
1695052541242187,-9.570004,0.10735,1.854368,0.414451,0.16008,0.80911
1695052541250000,-9.575004,0.4735,1.764368,0.391251,0.10108,0.84211
1695052541257812,-9.518004,0.965,1.690368,0.386451,0.8208,0.79511
1695052541265625,-9.489004,0.2865,1.757368,0.358051,0.92,0.79911
1695052541273437,-9.579004,0.2565,1.863368,0.359651,0.6208,0.75111
1695052541281250,-9.752004,0.2465,1.849368,0.366351,0.6492,0.62211
1695052541289062,-9.856004,0.5665,1.782368,0.364651,0.8592,0.54311
1695052541296875,-9.829004,0.8265,1.809368,0.341551,0.21292,0.44911
1695052541304687,-9.771004,0.10765,1.870368,0.339351,0.31892,0.48511
1695052541312500,-9.715004,0.12965,1.822368,0.341251,0.32992,0.49911
1695052541320312,-9.648004,0.14765,1.683368,0.338951,0.45192,0.55111
1695052541328125,-9.585004,0.17665,1.539368,0.322251,0.63792,0.55011
1695052541335937,-9.575004,0.19665,1.462368,0.315751,0.72392,0.50511
1695052541343750,-9.550004,0.20465,1.361368,0.314351,0.70792,0.44111
1695052541351562,-9.548004,0.22865,1.253368,0.315851,0.77392,0.44111
1695052541359375,-9.555004,0.25365,1.179368,0.312551,0.64192,0.55311
1695052541367187,-9.604004,0.29365,1.107368,0.324351,0.58692,0.61911
1695052541375000,-9.655004,0.29765,1.127368,0.333351,0.37392,0.62711
1695052541382812,-9.729004,0.32565,1.205368,0.338251,0.9292,0.70411
1695052541390625,-9.740004,0.27365,1.350368,0.340351,0.2292,0.82011
1695052541398437,-9.744004,0.28365,1.437368,0.338951,0.1692,0.94611
1695052541406250,-9.726004,0.27265,1.518368,0.345551,0.10408,0.102311
1695052541414062,-9.695004,0.28665,1.582368,0.359151,0.13108,0.108711
1695052541421875,-9.655004,0.29965,1.627368,0.365251,0.6308,0.107211
1695052541429687,-9.702004,0.29865,1.645368,0.365551,0.992,0.115011
1695052541437500,-9.752004,0.31265,1.656368,0.374551,0.14792,0.113611
1695052541445312,-9.804004,0.33065,1.654368,0.392051,0.9892,0.102111
1695052541453125,-9.846004,0.34265,1.627368,0.387451,0.6392,0.103711
1695052541460937,-9.874004,0.35365,1.602368,0.406151,0.7092,0.92411
1695052541468750,-9.865004,0.36065,1.618368,0.415251,0.7292,0.100411
1695052541476562,-9.840004,0.38665,1.622368,0.417151,0.3392,0.101811
1695052541484375,-9.811004,0.40665,1.579368,0.434651,0.2992,0.104711
1695052541492187,-9.764004,0.40365,1.559368,0.437751,0.1708,0.99811
1695052541500000,-9.749004,0.42065,1.550368,0.437451,0.1992,0.101611
1695052541507812,-9.706004,0.43565,1.516368,0.440651,0.3692,0.100011
1695052541515625,-9.660004,0.45065,1.474368,0.440651,0.1992,0.96811
1695052541523437,-9.619004,0.46265,1.433368,0.452951,0.7192,0.99911
1695052541531250,-9.599004,0.47565,1.438368,0.464051,0.5492,0.96611
1695052541539062,-9.559004,0.50265,1.424368,0.473751,0.3492,0.94711
1695052541546875,-9.535004,0.49765,1.426368,0.487751,0.692,0.91511
1695052541554687,-9.519004,0.51865,1.469368,0.497151,0.5408,0.80211
1695052541562500,-9.515004,0.52365,1.345368,0.503651,0.792,0.76811
1695052541570312,-9.571004,0.53465,1.316368,0.508051,0.0,0.70611
1695052541578125,-9.605004,0.54965,1.323368,0.508551,0.808,0.67111
1695052541585937,-9.656004,0.54365,1.287368,0.516551,0.592,0.65411
1695052541593750,-9.748004,0.50965,1.224368,0.518551,0.4708,0.60411
1695052541601562,-9.931004,0.43965,1.147368,0.532951,0.13008,0.56911
1695052541609375,-10.85004,0.38365,1.131368,0.542551,0.25808,0.45511
1695052541617187,-10.73004,0.33665,1.188368,0.558151,0.15508,0.31111
1695052541625000,-10.19004,0.32965,1.264368,0.580451,0.25508,0.25811
1695052541632812,-10.40004,0.30665,1.215368,0.589051,0.11608,0.34111
1695052541640625,-10.64004,0.28565,1.86368,0.592251,0.15308,0.45211
1695052541648437,-10.54004,0.22565,1.97368,0.590751,0.17408,0.56311
1695052541656250,-10.43004,0.12165,1.221368,0.609251,0.19108,0.70511
1695052541664062,-10.10004,0.2465,1.266368,0.616451,0.33308,0.86611
1695052541671875,-9.962004,0.2035,1.273368,0.613251,0.35208,0.97811
1695052541679687,-9.897004,0.2735,1.325368,0.593051,0.37708,0.113811
1695052541687500,-9.797004,0.8435,1.341368,0.575351,0.35508,0.119111
1695052541695312,-9.692004,0.18335,1.338368,0.558251,0.21208,0.116011
1695052541703125,-9.635004,0.28435,1.259368,0.558451,0.22508,0.100011
1695052541710937,-9.666004,0.41235,1.219368,0.543351,0.21108,0.77611
1695052541718750,-9.694004,0.52535,1.230368,0.540451,0.37008,0.58411
1695052541726562,-9.693004,0.58135,1.214368,0.531151,0.36708,0.47311
1695052541734375,-9.632004,0.59335,1.185368,0.515851,0.40208,0.39411
1695052541742187,-9.601004,0.58235,1.129368,0.514751,0.42008,0.23211
1695052541750000,-9.621004,0.58035,1.56368,0.499251,0.58208,0.13711
1695052541757812,-9.670004,0.59235,1.368,0.488251,0.69708,0.18611
1695052541765625,-9.720004,0.60335,1.11368,0.467951,0.77708,0.9211
1695052541773437,-9.780004,0.60435,1.38368,0.460551,0.91208,0.2611
1695052541781250,-9.798004,0.62335,1.14368,0.443751,0.89908,0.5289
1695052541789062,-9.768004,0.64635,1.43368,0.443851,0.101208,0.11789
1695052541796875,-9.752004,0.65735,1.110368,0.442251,0.97708,0.18089
1695052541804687,-9.743004,0.64635,1.104368,0.440851,0.89708,0.24489
1695052541812500,-9.775004,0.63935,1.41368,0.443851,0.79408,0.30789
1695052541820312,-9.791004,0.62435,1.27368,0.440851,0.72808,0.40289
1695052541828125,-9.781004,0.60735,1.63368,0.442251,0.73808,0.51389
1695052541835937,-9.749004,0.59035,1.77368,0.439951,0.73408,0.56589
1695052541843750,-9.703004,0.58835,1.106368,0.437251,0.75608,0.58389
1695052541851562,-9.659004,0.59735,1.115368,0.445951,0.62908,0.62789
1695052541859375,-9.641004,0.59535,1.111368,0.442551,0.62508,0.62589
1695052541867187,-9.616004,0.62035,1.102368,0.444151,0.64108,0.62689
1695052541875000,-9.584004,0.63835,1.81368,0.442751,0.72508,0.62789
1695052541882812,-9.555004,0.64835,1.54368,0.448751,0.72108,0.62689
1695052541890625,-9.496004,0.67535,1.41368,0.444551,0.74308,0.66089
1695052541898437,-9.476004,0.69435,1.18368,0.451651,0.73308,0.62589
1695052541906250,-9.460004,0.70335,1.32368,0.457651,0.71508,0.59389
1695052541914062,-9.478004,0.70435,1.39368,0.461051,0.62508,0.48389
1695052541921875,-9.534004,0.70135,1.5368,0.478151,0.64208,0.38989
1695052541929687,-9.617004,0.68235,1.5368,0.493851,0.64308,0.34389
1695052541937500,-9.700004,0.67135,1.368,0.492851,0.71908,0.28289
1695052541945312,-9.770004,0.65035,1.5368,0.497151,0.79808,0.17089
1695052541953125,-9.802004,0.66535,1.65368,0.511151,0.96208,0.6089
1695052541960937,-9.854004,0.64735,1.83368,0.510951,0.102708,0.5111
1695052541968750,-9.883004,0.64935,1.115368,0.516551,0.102208,0.18111
1695052541976562,-9.870004,0.63835,1.187368,0.517951,0.104108,0.32511
1695052541984375,-9.809004,0.62835,1.246368,0.519151,0.102508,0.48511
1695052541992187,-9.733004,0.60435,1.270368,0.517551,0.103008,0.62911
1695052542000000,-9.679004,0.59235,1.284368,0.515851,0.106308,0.70911
1695052542007812,-9.660004,0.57735,1.316368,0.513451,0.97108,0.77711
1695052542015625,-9.615004,0.56735,1.255368,0.510151,0.95508,0.85811
1695052542023437,-9.597004,0.57635,1.124368,0.505451,0.76308,0.90711
1695052542031250,-9.596004,0.58735,1.167368,0.492851,0.94108,0.92411
1695052542039062,-9.578004,0.59135,1.185368,0.489951,0.96208,0.97111
1695052542046875,-9.587004,0.58535,1.169368,0.485151,0.92708,0.92411
1695052542054687,-9.693004,0.56535,1.225368,0.472851,0.101308,0.97211
1695052542062500,-9.795004,0.56235,1.304368,0.464351,0.110408,0.105511
1695052542070312,-9.873004,0.57435,1.347368,0.464651,0.122308,0.106911
1695052542078125,-9.942004,0.57735,1.365368,0.442851,0.121108,0.111811
1695052542085937,-9.985004,0.59235,1.358368,0.431351,0.127108,0.123411
1695052542093750,-9.974004,0.60135,1.374368,0.406151,0.122208,0.125311
1695052542101562,-9.892004,0.65535,1.415368,0.389151,0.112808,0.122211
1695052542109375,-9.830004,0.73635,1.491368,0.363551,0.99408,0.130711
1695052542117187,-9.795004,0.84835,1.583368,0.344851,0.71808,0.123111
1695052542125000,-9.710004,0.96935,1.590368,0.328851,0.38608,0.118811
1695052542132812,-9.586004,-1.7635,1.491368,0.314051,0.7208,0.109111
1695052542140625,-9.488004,-1.16735,1.407368,0.298151,0.1392,0.103011
1695052542148437,-9.413004,-1.24035,1.356368,0.276151,0.5292,0.87511
1695052542156250,-9.327004,-1.29235,1.358368,0.261051,0.14492,0.71411
1695052542164062,-9.249004,-1.37735,1.382368,0.241151,0.10792,0.61911
1695052542171875,-9.202004,-1.46135,1.427368,0.240451,0.14992,0.45611
1695052542179687,-9.163004,-1.55635,1.443368,0.247351,0.31192,0.42911
1695052542187500,-9.178004,-1.62935,1.414368,0.263151,0.34492,0.31511
1695052542195312,-9.233004,-1.67935,1.430368,0.264951,0.44192,0.23411
1695052542203125,-9.311004,-1.72035,1.470368,0.302751,0.51992,0.24511
1695052542210937,-9.395004,-1.69535,1.533368,0.320651,0.48492,0.29611
1695052542218750,-9.469004,-1.67635,1.560368,0.338051,0.44892,0.34011
1695052542226562,-9.560004,-1.60135,1.623368,0.369451,0.55992,0.41711
1695052542234375,-9.701004,-1.54135,1.651368,0.397551,0.59292,0.46211
1695052542242187,-9.843004,-1.47035,1.696368,0.414151,0.61292,0.67011
1695052542250000,-9.946004,-1.40735,1.727368,0.434351,0.71092,0.70111
1695052542257812,-9.998004,-1.37235,1.784368,0.440151,0.82292,0.97411
1695052542265625,-10.17004,-1.31235,1.808368,0.444351,0.95292,0.115111
1695052542273437,-10.28004,-1.29835,1.831368,0.445951,0.114592,0.119911
1695052542281250,-10.5004,-1.32135,1.822368,0.453551,0.127892,0.124811
1695052542289062,-9.887004,-1.35335,1.745368,0.455251,0.128892,0.134211
1695052542296875,-9.757004,-1.34735,1.637368,0.445751,0.121092,0.129611
1695052542304687,-9.682004,-1.29835,1.468368,0.443551,0.108992,0.131411
1695052542312500,-9.627004,-1.24835,1.297368,0.456651,0.93892,0.123011
1695052542320312,-9.628004,-1.15935,1.169368,0.481551,0.65092,0.121111
1695052542328125,-9.661004,-1.4735,1.144368,0.504751,0.27892,0.113811
1695052542335937,-9.700004,0.97135,1.148368,0.525651,0.6908,0.109911
1695052542343750,-9.676004,0.90135,1.166368,0.551151,0.27308,0.122111
1695052542351562,-9.725004,0.82435,1.162368,0.559751,0.29608,0.131911
1695052542359375,-9.840004,0.78935,1.65368,0.579851,0.32508,0.130211
1695052542367187,-9.899004,0.76835,1.54368,0.598851,0.49208,0.141011
1695052542375000,-9.913004,0.73935,1.113368,0.625351,0.60508,0.145511
1695052542382812,-9.955004,0.72735,1.277368,0.641551,0.67608,0.143411
1695052542390625,-9.936004,0.72135,1.304368,0.656751,0.75008,0.141911
1695052542398437,-9.916004,0.71035,1.223368,0.672351,0.69808,0.140211
1695052542406250,-9.914004,0.65735,1.241368,0.675751,0.50508,0.130511
1695052542414062,-9.892004,0.60135,1.329368,0.690251,0.64008,0.131711
1695052542421875,-9.871004,0.53535,1.385368,0.706051,0.75408,0.126711
1695052542429687,-9.854004,0.48935,1.306368,0.724851,0.73508,0.123311
1695052542437500,-9.856004,0.42135,1.230368,0.741651,0.81108,0.109911
1695052542445312,-9.846004,0.37135,1.210368,0.759751,0.76908,0.106811
1695052542453125,-9.764004,0.35335,1.203368,0.778551,0.88108,0.104911
1695052542460937,-9.570004,0.36435,1.232368,0.787151,0.87208,0.94911
1695052542468750,-9.405004,0.41835,1.203368,0.793451,0.83708,0.85311
1695052542476562,-9.310004,0.49335,1.74368,0.791551,0.71408,0.74511
1695052542484375,-9.316004,0.53735,1.368,0.805551,0.51708,0.69611
1695052542492187,-9.396004,0.59135,0.968368,0.818651,0.45708,0.59711
1695052542500000,-9.470004,0.61735,1.7368,0.814051,0.37308,0.48611
1695052542507812,-9.537004,0.62835,1.97368,0.819751,0.25008,0.44111
1695052542515625,-9.534004,0.61935,1.191368,0.808351,0.13508,0.37411
1695052542523437,-9.521004,0.59435,1.259368,0.793651,0.9992,0.39511
1695052542531250,-9.536004,0.53835,1.270368,0.790251,0.29892,0.36511
1695052542539062,-9.569004,0.42935,1.239368,0.762151,0.52592,0.32111
1695052542546875,-9.619004,0.32535,1.162368,0.747351,0.53392,0.27311
1695052542554687,-9.646004,0.25235,1.117368,0.726351,0.42792,0.22811
1695052542562500,-9.685004,0.18335,1.140368,0.706051,0.29592,0.24611
1695052542570312,-9.738004,0.13635,1.149368,0.691551,0.28292,0.28111
1695052542578125,-9.751004,0.12735,1.131368,0.685151,0.10292,0.39211
1695052542585937,-9.747004,0.13435,1.174368,0.655151,0.7408,0.46011
1695052542593750,-9.775004,0.17535,1.241368,0.630351,0.13208,0.58811
1695052542601562,-9.788004,0.21735,1.246368,0.606251,0.9208,0.59411
1695052542609375,-9.765004,0.27735,1.219368,0.589051,0.4508,0.61211
1695052542617187,-9.751004,0.33135,1.212368,0.569951,0.3992,0.60011
1695052542625000,-9.739004,0.36435,1.232368,0.549951,0.6892,0.55311
1695052542632812,-9.757004,0.37735,1.232368,0.540551,0.5192,0.55411
1695052542640625,-9.779004,0.37535,1.246368,0.537451,0.12808,0.60111
1695052542648437,-9.807004,0.33535,1.271368,0.517951,0.20308,0.68511
1695052542656250,-9.855004,0.28335,1.343368,0.516951,0.40508,0.66611
1695052542664062,-9.898004,0.20835,1.379368,0.515651,0.49108,0.71211
1695052542671875,-9.904004,0.14235,1.340368,0.515651,0.60808,0.77511
1695052542679687,-9.817004,0.9535,1.350368,0.491451,0.74908,0.90811
1695052542687500,-9.778004,0.5335,1.482368,0.491451,0.79808,0.94011
1695052542695312,-9.764004,0.1835,1.521368,0.482351,0.78508,0.90711
1695052542703125,-9.787004,0.2035,1.451368,0.464851,0.73208,0.87911
1695052542710937,-9.802004,0.3735,1.421368,0.471851,0.77308,0.79511
1695052542718750,-9.793004,0.4435,1.471368,0.471351,0.76708,0.84511
1695052542726562,-9.762004,0.2835,1.539368,0.482951,0.87108,0.76111
1695052542734375,-9.721004,0.3435,1.563368,0.494051,0.101408,0.63111
1695052542742187,-9.699004,0.2535,1.554368,0.494351,0.98208,0.55111
1695052542750000,-9.698004,0.965,1.548368,0.498451,0.90908,0.56911
1695052542757812,-9.662004,0.1965,1.579368,0.501751,0.91108,0.52011
1695052542765625,-9.590004,0.2765,1.597368,0.514451,0.97808,0.55011
1695052542773437,-9.482004,0.2365,1.582368,0.514251,0.94308,0.56711
1695052542781250,-9.408004,0.4565,1.627368,0.516051,0.92908,0.51811
1695052542789062,-9.447004,0.4565,1.633368,0.534551,0.87308,0.47011
1695052542796875,-9.550004,0.4465,1.570368,0.553451,0.82308,0.40411
1695052542804687,-9.629004,0.4365,1.564368,0.580351,0.92308,0.36711
1695052542812500,-9.641004,0.865,1.525368,0.593151,0.89408,0.36511
1695052542820312,-9.650004,0.3335,1.498368,0.609951,0.92108,0.42911
1695052542828125,-9.595004,0.8035,1.579368,0.638651,0.93108,0.50311
1695052542835937,-9.534004,0.12435,1.597368,0.650651,0.71108,0.48911
1695052542843750,-9.590004,0.13335,1.626368,0.685151,0.48608,0.54911
1695052542851562,-9.689004,0.12835,1.645368,0.700151,0.44708,0.66211
1695052542859375,-9.711004,0.13435,1.669368,0.727251,0.42208,0.70511
1695052542867187,-9.704004,0.15235,1.687368,0.756151,0.36308,0.81811
1695052542875000,-9.661004,0.17735,1.662368,0.781551,0.32108,0.89311
1695052542882812,-9.525004,0.23935,1.611368,0.792251,0.15608,0.91011
1695052542890625,-9.430004,0.30935,1.586368,0.802451,0.7492,0.113611
1695052542898437,-9.386004,0.38835,1.570368,0.825451,0.27392,0.126411
1695052542906250,-9.372004,0.43535,1.532368,0.848851,0.48492,0.132711
1695052542914062,-9.387004,0.47935,1.467368,0.876551,0.68792,0.134311
1695052542921875,-9.404004,0.51235,1.460368,0.889251,0.68192,0.143611
1695052542929687,-9.424004,0.56735,1.453368,0.896951,0.78192,0.140411
1695052542937500,-9.456004,0.61735,1.417368,0.908251,0.80892,0.141711
1695052542945312,-9.505004,0.68535,1.403368,0.889451,0.87192,0.146711
1695052542953125,-9.562004,0.76535,1.369368,0.890451,0.92892,0.145411
1695052542960937,-9.646004,0.84135,1.261368,0.871851,0.92492,0.150311
1695052542968750,-9.721004,0.90835,1.178368,0.862651,0.93892,0.145511
1695052542976562,-9.763004,0.96135,1.151368,0.848451,0.85692,0.150511
1695052542984375,-9.769004,-1.1935,1.133368,0.845451,0.70892,0.148811
1695052542992187,-9.791004,-1.5435,1.58368,0.850051,0.69492,0.152011
1695052543000000,-9.744004,-1.5135,0.998368,0.843451,0.71492,0.152211
1695052543007812,-9.717004,-1.8235,1.14368,0.837051,0.63292,0.163511
1695052543015625,-9.699004,-1.9235,1.70368,0.824151,0.63592,0.167011
1695052543023437,-9.719004,-1.6035,1.36368,0.815151,0.79192,0.168511
1695052543031250,-9.689004,0.99135,0.975368,0.812251,0.83692,0.166811
1695052543039062,-9.634004,0.92835,1.32368,0.797751,0.71192,0.170311
1695052543046875,-9.602004,0.81835,1.65368,0.790851,0.79692,0.185111
1695052543054687,-9.579004,0.70935,0.980368,0.795451,0.95892,0.194711
1695052543062500,-9.573004,0.59835,0.964368,0.790851,0.100092,0.202611
1695052543070312,-9.620004,0.51335,1.25368,0.787351,0.108492,0.214011
1695052543078125,-9.706004,0.43435,1.368,0.788451,0.123392,0.223811
1695052543085937,-9.790004,0.39135,0.912368,0.786551,0.129892,0.238411
1695052543093750,-9.865004,0.37835,0.872368,0.778651,0.115092,0.249611
1695052543101562,-9.950004,0.37335,0.892368,0.761151,0.101892,0.265711
1695052543109375,-10.42004,0.37835,0.890368,0.759451,0.97192,0.265811
1695052543117187,-10.153004,0.37035,0.791368,0.742151,0.90792,0.266011
1695052543125000,-10.175004,0.38035,0.696368,0.731851,0.66992,0.262511
1695052543132812,-10.156004,0.39235,0.669368,0.711751,0.44292,0.251411
1695052543140625,-10.107004,0.38635,0.703368,0.693151,0.16892,0.237011
1695052543148437,-9.999004,0.36935,0.707368,0.689151,0.4792,0.227211
1695052543156250,-9.838004,0.32735,0.741368,0.686551,0.15408,0.225211
1695052543164062,-9.751004,0.25735,0.772368,0.670051,0.26008,0.221911
1695052543171875,-9.756004,0.24735,0.816368,0.664451,0.27908,0.219211
1695052543179687,-9.746004,0.31535,0.719368,0.655751,0.38508,0.210911
1695052543187500,-9.796004,0.42335,0.631368,0.632551,0.40408,0.203011
1695052543195312,-9.790004,0.53035,0.561368,0.599651,0.44908,0.192311
1695052543203125,-9.769004,0.58535,0.662368,0.554651,0.58308,0.178111
1695052543210937,-9.837004,0.57635,0.982368,0.527451,0.55608,0.172411
1695052543218750,-9.957004,0.49935,1.160368,0.506151,0.45708,0.135811
1695052543226562,-10.83004,0.44235,1.261368,0.479351,0.30508,0.102011
1695052543234375,-10.124004,0.41835,1.345368,0.465251,0.18108,0.68811
1695052543242187,-10.70004,0.42535,1.385368,0.458151,0.2008,0.40011
1695052543250000,-10.19004,0.43835,1.394368,0.464351,0.292,0.25711
1695052543257812,-9.983004,0.43435,1.342368,0.471251,0.17808,0.4511
1695052543265625,-9.963004,0.42335,1.376368,0.482251,0.22708,0.6011
1695052543273437,-9.935004,0.41535,1.484368,0.487851,0.25608,0.15211
1695052543281250,-9.926004,0.41235,1.480368,0.493451,0.38108,0.21611
1695052543289062,-9.956004,0.38535,1.392368,0.488251,0.51108,0.44111
1695052543296875,-9.966004,0.32535,1.309368,0.465951,0.62708,0.61911
1695052543304687,-9.974004,0.24935,1.264368,0.440551,0.92108,0.81311
1695052543312500,-9.998004,0.15935,1.266368,0.403851,0.129308,0.105811
1695052543320312,-9.991004,0.5835,1.129368,0.364951,0.142908,0.107611
1695052543328125,-9.885004,0.6035,1.59368,0.303751,0.149608,0.116311
1695052543335937,-9.975004,0.3035,1.151368,0.263251,0.154808,0.111811
1695052543343750,-10.22004,0.6335,1.158368,0.224451,0.165808,0.81811
1695052543351562,-9.945004,0.10035,1.241368,0.214951,0.193108,0.57211
1695052543359375,-9.898004,0.6135,1.403368,0.194851,0.197808,0.36611
1695052543367187,-9.857004,0.3065,1.536368,0.191951,0.174108,0.3189
1695052543375000,-9.779004,0.11465,1.514368,0.195151,0.152208,0.32189
1695052543382812,-9.486004,0.1535,1.530368,0.178351,0.148808,0.52389
1695052543390625,-9.336004,0.1565,1.615368,0.169051,0.145908,0.45989
1695052543398437,-9.317004,0.13265,1.638368,0.167451,0.115008,0.47489
1695052543406250,-9.505004,0.20965,1.714368,0.161251,0.102108,0.52189
1695052543414062,-9.697004,0.29865,1.530368,0.170751,0.96908,0.63389
1695052543421875,-9.633004,0.26465,1.444368,0.143251,0.92608,0.84089
1695052543429687,-9.711004,0.31465,1.564368,0.119451,0.86708,0.99589
1695052543437500,-9.739004,0.24665,1.602368,0.114151,0.97008,0.128689
1695052543445312,-9.424004,0.3065,1.662368,0.87351,0.101508,0.131489
1695052543453125,-9.422004,0.5635,1.590368,0.80751,0.119208,0.120189
1695052543460937,-9.624004,0.4135,1.518368,0.90651,0.143208,0.104689
1695052543468750,-9.762004,0.3935,1.500368,0.80951,0.169008,0.98289
1695052543476562,-9.717004,0.15635,1.586368,0.70251,0.185208,0.111089
1695052543484375,-9.733004,0.15635,1.476368,0.66551,0.181108,0.107489
1695052543492187,-9.568004,0.23035,1.507368,0.66751,0.194408,0.109289
1695052543500000,-9.565004,0.25435,1.606368,0.98351,0.207708,0.108189
1695052543507812,-9.565004,0.31735,1.737368,0.129351,0.223208,0.109989
1695052543515625,-9.626004,0.27035,1.876368,0.183351,0.256908,0.103189
1695052543523437,-9.689004,0.24935,1.906368,0.205251,0.245408,0.103289
1695052543531250,-9.658004,0.22135,1.908368,0.193951,0.219008,0.104489
1695052543539062,-9.562004,0.21235,1.933368,0.195151,0.179508,0.105789
1695052543546875,-9.520004,0.17235,1.930368,0.192051,0.149908,0.118389
1695052543554687,-9.464004,0.12835,1.858368,0.208451,0.145808,0.130089
1695052543562500,-9.427004,0.16435,2.18368,0.223151,0.174208,0.127389
1695052543570312,-9.300004,0.11935,2.252368,0.236851,0.180308,0.121089
1695052543578125,-9.225004,0.3135,2.167368,0.243451,0.148108,0.106089
1695052543585937,-9.226004,0.7935,2.27368,0.245051,0.147108,0.88589
1695052543593750,-9.313004,0.13835,2.23368,0.239851,0.137308,0.70789
1695052543601562,-9.444004,0.12435,1.935368,0.233551,0.134308,0.61089
