time,Acceleration X (m/s^2),Acceleration Y (m/s^2),Acceleration Z (m/s^2),Angular Velocity X (rad/s),Angular Velocity Y (rad/s),Angular Velocity Z (rad/s)
1694787263140625,-8.584591,4.914109,-0.018262,,,
1694787263148437,-8.573591,0.407966,4.907109,0.21462,0.47262,0.51471
1694787263156250,-8.548591,0.413966,4.910109,0.22862,0.44162,0.48371
1694787263164062,-8.537591,0.425966,4.903109,0.16762,0.37962,0.53071
1694787263171875,-8.547591,0.433966,4.901109,0.24362,0.36162,0.48371
1694787263179687,-8.542591,0.451966,4.892109,0.26362,0.45762,0.53071
1694787263195312,-8.556591,0.471966,4.905109,0.20062,0.39562,0.54671
1694787263203125,-8.565591,0.471966,4.896109,0.25762,0.45462,0.53271
1694787263210937,-8.590591,0.473966,4.896109,0.25762,0.43762,0.62871
1694787263218750,-8.605591,0.485966,4.903109,0.24662,0.45662,0.57971
1694787263242187,-8.624591,0.505966,4.930109,0.24362,0.54762,0.65971
1694787263250000,-8.617591,0.496966,4.928109,0.25862,0.49962,0.70871
1694787263257812,-8.608591,0.496966,4.939109,0.24762,0.59662,0.65871
1694787263265625,-8.582591,0.504966,4.953109,0.29062,0.70362,0.66071
1694787263273437,-8.581591,0.500966,4.953109,0.30762,0.71862,0.70771
1694787263281250,-8.562591,0.506966,4.964109,0.35362,0.68762,0.64471
1694787263289062,-8.559591,0.501966,4.982109,0.36962,0.70262,0.64471
1694787263296875,-8.548591,0.499966,4.975109,0.38962,0.70462,0.64371
1694787263304687,-8.541591,0.506966,4.984109,0.48762,0.68962,0.65971
1694787263312500,-8.539591,0.506966,4.991109,0.42062,0.73562,0.62771
1694787263320312,-8.539591,0.495966,4.995109,0.50262,0.75162,0.69171
1694787263328125,-8.539591,0.500966,5.13109,0.45562,0.75162,0.67571
1694787263335937,-8.554591,0.506966,5.18109,0.43762,0.87562,0.69171
1694787263343750,-8.570591,0.506966,5.18109,0.48662,0.79762,0.69171
1694787263351562,-8.581591,0.509966,5.7109,0.52062,0.90862,0.67571
1694787263359375,-8.575591,0.511966,5.45109,0.45362,0.101662,0.70771
1694787263367187,-8.586591,0.507966,5.70109,0.40362,0.93862,0.64371
1694787263375000,-8.579591,0.503966,5.77109,0.53762,0.95562,0.67471
1694787263382812,-8.574591,0.502966,5.77109,0.50462,0.93962,0.69171
1694787263390625,-8.568591,0.489966,5.79109,0.51762,0.101662,0.70771
1694787263398437,-8.552591,0.480966,5.84109,0.50262,0.100162,0.70771
1694787263406250,-8.548591,0.492966,5.90109,0.51462,0.103062,0.69271
1694787263414062,-8.530591,0.517966,5.99109,0.50262,0.95462,0.67571
1694787263421875,-8.514591,0.515966,5.113109,0.53562,0.104862,0.70771
1694787263429687,-8.507591,0.522966,5.131109,0.62162,0.106662,0.68971
1694787263437500,-8.507591,0.515966,5.117109,0.56862,0.101762,0.69171
1694787263445312,-8.503591,0.501966,5.104109,0.61662,0.100162,0.70771
1694787263453125,-8.485591,0.492966,5.115109,0.57962,0.107862,0.66071
1694787263460937,-8.476591,0.496966,5.124109,0.48462,0.100062,0.64371
1694787263468750,-8.474591,0.503966,5.167109,0.51762,0.106362,0.67571
1694787263476562,-8.441591,0.509966,5.210109,0.49862,0.107862,0.59671
1694787263484375,-8.431591,0.511966,5.153109,0.51862,0.90962,0.56371
1694787263492187,-8.442591,0.521966,5.183109,0.48862,0.87862,0.57871
1694787263500000,-8.428591,0.524966,5.208109,0.44962,0.87562,0.58071
1694787263507812,-8.407591,0.495966,5.176109,0.37262,0.89262,0.54771
1694787263515625,-8.392591,0.476966,5.108109,0.32762,0.76962,0.56271
1694787263523437,-8.390591,0.464966,5.52109,0.43962,0.69162,0.54771
1694787263531250,-8.413591,0.485966,5.101109,0.29562,0.70662,0.57871
1694787263539062,-8.409591,0.513966,5.262109,0.25862,0.70462,0.58071
1694787263546875,-8.403591,0.517966,5.345109,0.3062,0.51562,0.56471
1694787263554687,-8.416591,0.513966,5.280109,0.1138,0.36262,0.56371
1694787263562500,-8.418591,0.524966,5.196109,0.462,0.23662,0.61171
1694787263570312,-8.422591,0.520966,5.160109,0.838,0.19062,0.64271
1694787263578125,-8.419591,0.515966,5.162109,0.0,0.23462,0.59671
1694787263585937,-8.418591,0.515966,5.187109,0.1962,0.23762,0.53171
1694787263593750,-8.465591,0.514966,5.158109,0.5262,0.19062,0.59571
1694787263601562,-8.519591,0.517966,5.142109,0.8562,0.19162,0.51471
1694787263609375,-8.566591,0.538966,5.133109,0.8762,0.16062,0.57871
1694787263617187,-8.573591,0.566966,5.140109,0.15062,0.14462,0.48271
1694787263625000,-8.547591,0.595966,5.142109,0.26162,0.25362,0.51571
1694787263632812,-8.509591,0.605966,5.149109,0.24062,0.23662,0.38871
1694787263640625,-8.482591,0.592966,5.169109,0.23062,0.22462,0.37071
1694787263648437,-8.467591,0.604966,5.153109,0.25562,0.25262,0.32471
1694787263656250,-8.433591,0.602966,5.124109,0.24362,0.23962,0.32371
1694787263664062,-8.423591,0.591966,5.86109,0.34262,0.19362,0.30671
1694787263671875,-8.401591,0.593966,5.86109,0.34062,0.16162,0.27571
1694787263679687,-8.388591,0.602966,5.81109,0.27862,0.8462,0.29071
1694787263687500,-8.373591,0.610966,5.59109,0.30762,0.8262,0.29171
1694787263695312,-8.359591,0.610966,5.81109,0.24562,0.5738,0.33971
1694787263703125,-8.369591,0.623966,5.83109,0.24162,0.10538,0.29271
1694787263710937,-8.397591,0.621966,5.72109,0.21462,0.11838,0.33871
1694787263718750,-8.424591,0.646966,5.88109,0.13462,0.10338,0.37071
1694787263726562,-8.451591,0.640966,5.86109,0.14862,0.8938,0.40371
1694787263734375,-8.469591,0.629966,5.77109,0.14962,0.7438,0.48371
1694787263742187,-8.505591,0.632966,5.79109,0.6862,0.7438,0.48371
1694787263750000,-8.536591,0.619966,5.77109,0.1962,0.5738,0.37171
1694787263757812,-8.558591,0.609966,5.88109,0.7262,0.4038,0.43471
1694787263765625,-8.583591,0.609966,5.93109,0.9962,0.3662,0.32371
1694787263773437,-8.590591,0.608966,5.86109,0.11362,0.14362,0.42071
1694787263781250,-8.606591,0.631966,5.72109,0.22462,0.20562,0.38871
1694787263789062,-8.611591,0.653966,5.61109,0.25762,0.25362,0.37271
1694787263796875,-8.615591,0.631966,5.109,0.30862,0.22362,0.40371
1694787263804687,-8.601591,0.631966,4.982109,0.42062,0.33262,0.33971
1694787263812500,-8.552591,0.644966,5.90109,0.33962,0.48962,0.30771
1694787263820312,-8.532591,0.648966,5.97109,0.35662,0.33262,0.41971
1694787263828125,-8.516591,0.674966,5.34109,0.32562,0.39662,0.30771
1694787263835937,-8.486591,0.678966,5.9109,0.37062,0.30162,0.27671
1694787263843750,-8.463591,0.684966,5.18109,0.48462,0.20862,0.24371
1694787263851562,-8.463591,0.666966,5.38109,0.46462,0.25362,0.27671
1694787263859375,-8.456591,0.655966,5.61109,0.52962,0.31562,0.27671
1694787263867187,-8.451591,0.635966,5.41109,0.50062,0.33362,0.22771
1694787263875000,-8.469591,0.647966,5.79109,0.54762,0.22462,0.21271
1694787263882812,-8.467591,0.649966,5.63109,0.51462,0.25462,0.24471
1694787263890625,-8.481591,0.647966,5.50109,0.53062,0.37962,0.22871
1694787263898437,-8.499591,0.662966,5.77109,0.54762,0.31762,0.21271
1694787263906250,-8.505591,0.663966,5.77109,0.51862,0.42862,0.25971
1694787263914062,-8.505591,0.672966,5.56109,0.50362,0.44462,0.24371
1694787263921875,-8.508591,0.685966,5.72109,0.51362,0.48962,0.21271
1694787263929687,-8.501591,0.672966,5.72109,0.55062,0.52162,0.30771
1694787263937500,-8.506591,0.676966,5.72109,0.49662,0.55062,0.24471
1694787263945312,-8.504591,0.655966,5.77109,0.54262,0.61162,0.27771
1694787263953125,-8.499591,0.646966,5.72109,0.50862,0.56362,0.27771
1694787263960937,-8.489591,0.636966,5.79109,0.53362,0.52062,0.30771
1694787263968750,-8.473591,0.627966,5.72109,0.51862,0.53662,0.32371
1694787263976562,-8.465591,0.615966,5.77109,0.49762,0.48762,0.35671
1694787263984375,-8.471591,0.607966,5.70109,0.51362,0.48762,0.32471
1694787263992187,-8.464591,0.593966,5.59109,0.52962,0.48762,0.30871
1694787264000000,-8.461591,0.580966,5.45109,0.50162,0.42762,0.30771
1694787264007812,-8.464591,0.587966,5.68109,0.51662,0.41062,0.32371
1694787264015625,-8.480591,0.582966,5.79109,0.49862,0.47262,0.30871
1694787264023437,-8.497591,0.590966,5.86109,0.53362,0.44362,0.24371
1694787264031250,-8.515591,0.581966,5.83109,0.56462,0.39562,0.29171
1694787264039062,-8.529591,0.579966,5.117109,0.49862,0.36462,0.24471
1694787264046875,-8.555591,0.566966,5.133109,0.51862,0.39662,0.27571
1694787264054687,-8.553591,0.562966,5.129109,0.49962,0.39662,0.21271
1694787264062500,-8.544591,0.566966,5.115109,0.50162,0.47562,0.24371
1694787264070312,-8.524591,0.570966,5.97109,0.48162,0.47362,0.19671
1694787264078125,-8.504591,0.576966,5.111109,0.51562,0.47362,0.24471
1694787264085937,-8.511591,0.579966,5.140109,0.50162,0.44262,0.29171
1694787264093750,-8.519591,0.550966,5.151109,0.48562,0.45962,0.25971
1694787264101562,-8.503591,0.546966,5.142109,0.52062,0.45962,0.33871
1694787264109375,-8.477591,0.545966,5.138109,0.49762,0.44162,0.29271
1694787264117187,-8.454591,0.524966,5.124109,0.49962,0.51962,0.37271
1694787264125000,-8.432591,0.546966,5.124109,0.46762,0.41062,0.34071
1694787264132812,-8.432591,0.551966,5.90109,0.48662,0.42762,0.32371
1694787264140625,-8.423591,0.564966,5.108109,0.46662,0.42562,0.32471
1694787264148437,-8.439591,0.576966,5.88109,0.40562,0.34962,0.30771
1694787264156250,-8.442591,0.582966,5.90109,0.49962,0.41062,0.32471
1694787264164062,-8.462591,0.600966,5.106109,0.40162,0.39362,0.35671
1694787264171875,-8.470591,0.590966,5.131109,0.44062,0.45862,0.38671
1694787264179687,-8.478591,0.598966,5.142109,0.38662,0.45662,0.38871
1694787264187500,-8.480591,0.592966,5.131109,0.30762,0.48962,0.32371
1694787264195312,-8.484591,0.590966,5.133109,0.40562,0.48862,0.40371
1694787264203125,-8.472591,0.592966,5.122109,0.35962,0.47562,0.32271
1694787264210937,-8.482591,0.584966,5.122109,0.38262,0.47062,0.34171
1694787264218750,-8.497591,0.568966,5.106109,0.38762,0.47462,0.27571
1694787264226562,-8.502591,0.583966,5.122109,0.27062,0.40962,0.24471
1694787264234375,-8.505591,0.589966,5.138109,0.33162,0.40762,0.29371
1694787264242187,-8.497591,0.599966,5.158109,0.32462,0.45862,0.27571
1694787264250000,-8.473591,0.587966,5.138109,0.45262,0.31762,0.25971
1694787264257812,-8.459591,0.598966,5.86109,0.37462,0.21062,0.22771
1694787264265625,-8.451591,0.591966,5.90109,0.37162,0.20962,0.17971
1694787264273437,-8.455591,0.582966,5.102109,0.25562,0.16062,0.18071
1694787264281250,-8.467591,0.571966,5.77109,0.30162,0.9762,0.11771
1694787264289062,-8.468591,0.565966,5.77109,0.25562,0.17862,0.5271
1694787264296875,-8.471591,0.560966,5.81109,0.26962,0.9862,0.5271
1694787264304687,-8.462591,0.573966,5.79109,0.23862,0.17762,0.6871
1694787264312500,-8.460591,0.582966,5.122109,0.20662,0.17862,0.471
1694787264320312,-8.471591,0.578966,5.149109,0.15662,0.16062,0.6971
1694787264328125,-8.475591,0.569966,5.117109,0.17862,0.762,0.3571
1694787264335937,-8.498591,0.598966,5.90109,0.11162,0.6962,0.3671
1694787264343750,-8.494591,0.616966,5.126109,0.7962,0.16262,0.6871
1694787264351562,-8.464591,0.580966,5.129109,0.1938,0.19362,0.5271
1694787264359375,-8.423591,0.533966,5.22109,0.3162,0.13162,0.6871
1694787264367187,-8.421591,0.557966,5.4109,0.438,0.19262,0.6871
1694787264375000,-8.443591,0.562966,5.79109,0.1638,0.662,0.5171
1694787264382812,-8.461591,0.536966,5.135109,0.1738,0.7238,0.8471
1694787264390625,-8.475591,0.536966,5.120109,0.6338,0.21238,0.16371
1694787264398437,-8.474591,0.539966,5.45109,0.562,0.24138,0.11471
1694787264406250,-8.494591,0.548966,5.2109,0.1138,0.27138,0.3471
1694787264414062,-8.537591,0.549966,5.11109,0.3762,0.19438,0.9871
1694787264421875,-8.571591,0.547966,5.56109,0.9862,0.8638,0.6771
1694787264429687,-8.614591,0.542966,5.41109,0.1838,0.4138,0.6871
1694787264437500,-8.647591,0.545966,5.20109,0.0,0.2438,0.6771
1694787264445312,-8.674591,0.543966,5.41109,0.1838,0.8462,0.2071
1694787264453125,-8.681591,0.546966,5.41109,0.6062,0.17862,0.471
1694787264460937,-8.656591,0.552966,5.47109,0.9562,0.19662,0.10829
1694787264468750,-8.621591,0.560966,5.77109,0.5562,0.25562,0.17029
1694787264476562,-8.571591,0.571966,5.54109,0.12462,0.22662,0.15529
1694787264484375,-8.540591,0.572966,5.65109,0.538,0.30462,0.20329
1694787264492187,-8.511591,0.558966,5.81109,0.4062,0.27262,0.23429
1694787264500000,-8.481591,0.541966,5.65109,0.10962,0.22762,0.21929
1694787264507812,-8.470591,0.543966,5.41109,0.9262,0.19562,0.13929
1694787264515625,-8.461591,0.534966,5.16109,0.17462,0.17962,0.7529
1694787264523437,-8.456591,0.532966,4.989109,0.20962,0.18062,0.2829
1694787264531250,-8.446591,0.533966,4.991109,0.20462,0.8362,0.2171
1694787264539062,-8.441591,0.526966,4.986109,0.20362,0.6762,0.3771
1694787264546875,-8.440591,0.525966,5.109,0.27762,0.8762,0.5171
1694787264554687,-8.434591,0.533966,5.2109,0.19062,0.2162,0.8471
1694787264562500,-8.443591,0.526966,5.2109,0.12562,0.1138,0.14871
1694787264570312,-8.456591,0.521966,5.4109,0.14862,0.2338,0.17871
1694787264578125,-8.483591,0.525966,5.109,0.26062,0.2438,0.19571
1694787264585937,-8.489591,0.533966,5.109,0.21762,0.962,0.20971
1694787264593750,-8.494591,0.541966,5.22109,0.18062,0.6862,0.25971
1694787264601562,-8.514591,0.544966,5.45109,0.26362,0.6962,0.25871
1694787264609375,-8.525591,0.542966,5.20109,0.18362,0.2262,0.27471
1694787264617187,-8.544591,0.544966,4.998109,0.24462,0.9862,0.35571
1694787264625000,-8.541591,0.537966,4.966109,0.26262,0.2262,0.27471
1694787264632812,-8.559591,0.540966,4.831109,0.24662,0.5638,0.33871
1694787264640625,-8.539591,0.549966,5.4109,0.26662,0.16462,0.33771
1694787264648437,-8.535591,0.546966,5.149109,0.21462,0.11662,0.24271
1694787264656250,-8.535591,0.566966,5.32109,0.21462,0.5638,0.30671
1694787264664062,-8.526591,0.578966,4.952109,0.26762,0.2238,0.30571
1694787264671875,-8.526591,0.578966,4.955109,0.34862,0.3962,0.36971
1694787264679687,-8.532591,0.566966,4.980109,0.31562,0.3862,0.38571
1694787264687500,-8.541591,0.551966,4.948109,0.36162,0.2438,0.35471
1694787264695312,-8.555591,0.542966,4.943109,0.28062,0.7138,0.37071
1694787264703125,-8.564591,0.546966,4.948109,0.24362,0.5838,0.40371
1694787264710937,-8.560591,0.559966,4.964109,0.26262,0.8838,0.41971
1694787264718750,-8.546591,0.566966,4.968109,0.26462,0.10238,0.37071
1694787264726562,-8.535591,0.553966,4.986109,0.24762,0.3938,0.27471
1694787264734375,-8.517591,0.557966,4.968109,0.23162,0.5738,0.43471
1694787264742187,-8.528591,0.557966,4.957109,0.29562,0.4238,0.48271
1694787264750000,-8.555591,0.566966,4.971109,0.24762,0.1038,0.46671
1694787264757812,-8.555591,0.560966,4.973109,0.26462,0.562,0.43471
1694787264765625,-8.557591,0.551966,4.975109,0.21962,0.838,0.44971
1694787264773437,-8.564591,0.542966,4.968109,0.29662,0.2638,0.48271
1694787264781250,-8.553591,0.553966,4.946109,0.24862,0.462,0.53071
1694787264789062,-8.537591,0.557966,4.948109,0.34762,0.11462,0.53071
1694787264796875,-8.539591,0.555966,4.930109,0.46162,0.938,0.52971
1694787264804687,-8.537591,0.559966,4.910109,0.42362,0.3462,0.53171
1694787264812500,-8.533591,0.568966,4.878109,0.32962,0.2062,0.54671
1694787264820312,-8.540591,0.586966,4.892109,0.29762,0.9862,0.51471
1694787264828125,-8.549591,0.588966,4.910109,0.39362,0.9862,0.51471
1694787264835937,-8.542591,0.593966,4.925109,0.32862,0.11362,0.49871
1694787264843750,-8.558591,0.611966,4.941109,0.37762,0.6762,0.53071
1694787264851562,-8.561591,0.615966,4.941109,0.32562,0.262,0.56371
1694787264859375,-8.563591,0.624966,4.925109,0.32862,0.362,0.53071
1694787264867187,-8.569591,0.626966,4.887109,0.26462,0.5738,0.51471
1694787264875000,-8.571591,0.598966,4.824109,0.28262,0.2638,0.54671
1694787264882812,-8.558591,0.588966,4.792109,0.26362,0.1962,0.51471
1694787264890625,-8.556591,0.588966,4.774109,0.24662,0.1962,0.46771
1694787264898437,-8.549591,0.599966,4.770109,0.24262,0.14362,0.45171
1694787264906250,-8.551591,0.606966,4.783109,0.26262,0.20762,0.41971
1694787264914062,-8.560591,0.611966,4.817109,0.18162,0.23862,0.43571
1694787264921875,-8.596591,0.586966,4.862109,0.16162,0.33162,0.37271
1694787264929687,-8.626591,0.556966,4.828109,0.6862,0.34862,0.37171
1694787264937500,-8.650591,0.524966,4.946109,0.838,0.36562,0.40271
1694787264945312,-8.653591,0.515966,4.941109,0.4438,0.8262,0.37171
1694787264953125,-8.597591,0.520966,4.779109,0.4538,0.2062,0.33971
1694787264960937,-8.561591,0.533966,4.806109,0.3038,0.2062,0.27571
1694787264968750,-8.575591,0.549966,4.898109,0.1038,0.7138,0.29071
1694787264976562,-8.611591,0.581966,4.907109,0.1038,0.21138,0.27471
1694787264984375,-8.629591,0.576966,4.894109,0.6038,0.15038,0.25971
1694787264992187,-8.627591,0.578966,4.896109,0.6238,0.10338,0.25971
1694787265000000,-8.636591,0.580966,4.869109,0.8038,0.4238,0.24371
1694787265007812,-8.627591,0.579966,4.873109,0.4138,0.10062,0.30671
1694787265015625,-8.627591,0.581966,4.880109,0.7738,0.11562,0.24371
1694787265023437,-8.614591,0.589966,4.871109,0.4638,0.17762,0.29171
1694787265031250,-8.607591,0.613966,4.887109,0.6438,0.23962,0.24371
1694787265039062,-8.600591,0.616966,4.892109,0.14338,0.28662,0.24371
1694787265046875,-8.601591,0.627966,4.959109,0.3138,0.36462,0.22771
1694787265054687,-8.601591,0.658966,4.977109,0.3238,0.34962,0.17971
1694787265062500,-8.572591,0.660966,4.912109,0.9862,0.36562,0.22771
1694787265070312,-8.541591,0.657966,4.903109,0.22262,0.36462,0.14871
1694787265078125,-8.546591,0.663966,4.934109,0.22362,0.33262,0.21271
1694787265085937,-8.578591,0.681966,4.984109,0.27162,0.26962,0.19671
1694787265093750,-8.597591,0.682966,5.74109,0.24262,0.23962,0.22771
1694787265101562,-8.603591,0.681966,5.7109,0.30062,0.15862,0.22971
1694787265109375,-8.582591,0.663966,4.878109,0.46562,0.562,0.14871
1694787265117187,-8.611591,0.693966,4.919109,0.43662,0.2262,0.14771
1694787265125000,-8.638591,0.720966,4.941109,0.30662,0.6962,0.9971
1694787265132812,-8.632591,0.691966,4.966109,0.26962,0.9762,0.14971
1694787265140625,-8.624591,0.656966,4.973109,0.24062,0.14662,0.11671
1694787265148437,-8.632591,0.663966,4.885109,0.31162,0.5462,0.19471
1694787265156250,-8.655591,0.683966,4.912109,0.24862,0.2462,0.17871
1694787265164062,-8.659591,0.653966,5.18109,0.28162,0.638,0.17871
1694787265171875,-8.643591,0.641966,5.5109,0.29462,0.3938,0.19471
1694787265179687,-8.623591,0.625966,4.941109,0.26562,0.5438,0.25871
1694787265187500,-8.625591,0.616966,4.907109,0.26462,0.762,0.29071
1694787265195312,-8.641591,0.610966,4.905109,0.29362,0.11562,0.27571
1694787265203125,-8.643591,0.608966,4.885109,0.32762,0.16362,0.27471
1694787265210937,-8.667591,0.606966,4.869109,0.50562,0.21062,0.29071
1694787265218750,-8.691591,0.587966,4.849109,0.39662,0.18962,0.27771
1694787265226562,-8.688591,0.581966,4.826109,0.36862,0.28562,0.26071
1694787265234375,-8.681591,0.573966,4.840109,0.42162,0.22462,0.25971
1694787265242187,-8.631591,0.575966,4.844109,0.49162,0.27462,0.27471
1694787265250000,-8.593591,0.572966,4.858109,0.48762,0.42962,0.22771
1694787265257812,-8.562591,0.586966,4.851109,0.46862,0.36562,0.21171
1694787265265625,-8.540591,0.581966,4.858109,0.41762,0.39562,0.24471
1694787265273437,-8.538591,0.588966,4.882109,0.43362,0.44162,0.24471
1694787265281250,-8.543591,0.585966,4.885109,0.38162,0.40862,0.26171
1694787265289062,-8.565591,0.566966,4.907109,0.28662,0.39362,0.26071
1694787265296875,-8.562591,0.564966,4.889109,0.30462,0.39562,0.21271
1694787265304687,-8.582591,0.555966,4.849109,0.23962,0.39462,0.22871
1694787265312500,-8.580591,0.560966,4.889109,0.25562,0.39562,0.21271
1694787265320312,-8.589591,0.571966,4.901109,0.20762,0.37962,0.19671
1694787265328125,-8.609591,0.576966,4.934109,0.22662,0.42762,0.22771
1694787265335937,-8.623591,0.593966,4.928109,0.22362,0.36462,0.18071
1694787265343750,-8.635591,0.613966,4.916109,0.15562,0.37762,0.22971
1694787265351562,-8.637591,0.616966,4.928109,0.24162,0.41162,0.22871
1694787265359375,-8.639591,0.605966,4.919109,0.25762,0.48862,0.27671
1694787265367187,-8.634591,0.605966,4.907109,0.24162,0.45862,0.21171
1694787265375000,-8.634591,0.598966,4.912109,0.27362,0.44262,0.22871
1694787265382812,-8.634591,0.603966,4.907109,0.29262,0.45862,0.29171
1694787265390625,-8.623591,0.612966,4.905109,0.25962,0.48962,0.27571
1694787265398437,-8.612591,0.613966,4.887109,0.24162,0.47362,0.29271
1694787265406250,-8.585591,0.598966,4.822109,0.27662,0.45862,0.27571
1694787265414062,-8.578591,0.595966,4.756109,0.40362,0.44362,0.22771
1694787265421875,-8.549591,0.595966,4.910109,0.32162,0.53562,0.27671
1694787265429687,-8.547591,0.592966,4.934109,0.27262,0.42562,0.29271
1694787265437500,-8.554591,0.634966,4.880109,0.23962,0.34762,0.27671
1694787265445312,-8.548591,0.634966,4.862109,0.23562,0.36162,0.24571
1694787265453125,-8.559591,0.637966,4.846109,0.40162,0.42662,0.26071
1694787265460937,-8.563591,0.637966,4.867109,0.43462,0.45762,0.26071
1694787265468750,-8.572591,0.622966,4.876109,0.43362,0.44162,0.27671
1694787265476562,-8.596591,0.607966,4.878109,0.51662,0.45762,0.30771
1694787265484375,-8.625591,0.610966,4.885109,0.43862,0.48962,0.33971
1694787265492187,-8.623591,0.606966,4.912109,0.47962,0.48762,0.30871
1694787265500000,-8.614591,0.616966,4.932109,0.51562,0.47262,0.32471
1694787265507812,-8.590591,0.597966,4.923109,0.49362,0.53262,0.32571
1694787265515625,-8.565591,0.597966,4.903109,0.43562,0.55062,0.35571
1694787265523437,-8.569591,0.602966,4.903109,0.42062,0.50662,0.24371
1694787265531250,-8.578591,0.606966,4.905109,0.29062,0.45862,0.22771
1694787265539062,-8.598591,0.611966,4.919109,0.28962,0.50562,0.21171
1694787265546875,-8.598591,0.603966,4.959109,0.24362,0.56862,0.21171
1694787265554687,-8.600591,0.587966,4.968109,0.25662,0.58262,0.22871
1694787265562500,-8.580591,0.593966,4.984109,0.23962,0.62962,0.24471
1694787265570312,-8.587591,0.587966,4.973109,0.35562,0.52262,0.16371
1694787265578125,-8.585591,0.577966,4.962109,0.30062,0.59862,0.8571
1694787265585937,-8.585591,0.582966,4.948109,0.39762,0.61362,0.14971
1694787265593750,-8.578591,0.584966,4.957109,0.37162,0.55362,0.16371
1694787265601562,-8.574591,0.593966,4.943109,0.48162,0.55262,0.11671
1694787265609375,-8.569591,0.587966,4.934109,0.46862,0.47562,0.16371
1694787265617187,-8.569591,0.584966,4.930109,0.49962,0.55262,0.21171
1694787265625000,-8.563591,0.590966,4.916109,0.52862,0.50562,0.14871
1694787265632812,-8.562591,0.586966,4.932109,0.51462,0.61562,0.10071
1694787265640625,-8.569591,0.577966,4.948109,0.56262,0.53662,0.14871
1694787265648437,-8.558591,0.564966,4.943109,0.54662,0.56762,0.18071
1694787265656250,-8.548591,0.548966,4.943109,0.57962,0.53762,0.10071
1694787265664062,-8.552591,0.542966,4.941109,0.62962,0.44462,0.11571
1694787265671875,-8.557591,0.542966,4.932109,0.59662,0.52162,0.16371
1694787265679687,-8.559591,0.544966,4.948109,0.66062,0.56862,0.16371
1694787265687500,-8.559591,0.547966,4.955109,0.62962,0.53862,0.17971
1694787265695312,-8.562591,0.546966,4.948109,0.48362,0.52162,0.16371
1694787265703125,-8.573591,0.544966,4.941109,0.59662,0.53762,0.19571
1694787265710937,-8.565591,0.536966,4.950109,0.56762,0.53962,0.17871
1694787265718750,-8.564591,0.547966,4.943109,0.63162,0.44462,0.22771
1694787265726562,-8.561591,0.542966,4.953109,0.63262,0.46062,0.27471
1694787265734375,-8.571591,0.544966,4.943109,0.57762,0.44162,0.22871
1694787265742187,-8.572591,0.543966,4.964109,0.62062,0.46262,0.24271
1694787265750000,-8.563591,0.545966,4.968109,0.61962,0.44562,0.25871
1694787265757812,-8.562591,0.550966,4.982109,0.66062,0.44262,0.27671
1694787265765625,-8.564591,0.549966,4.993109,0.58362,0.44462,0.22771
1694787265773437,-8.558591,0.561966,4.986109,0.54662,0.45762,0.22871
1694787265781250,-8.557591,0.564966,4.991109,0.50162,0.50562,0.27571
1694787265789062,-8.556591,0.568966,4.995109,0.52962,0.45662,0.27671
1694787265796875,-8.562591,0.566966,4.993109,0.51662,0.45862,0.24371
1694787265804687,-8.560591,0.564966,4.977109,0.49962,0.44262,0.25971
1694787265812500,-8.566591,0.560966,4.973109,0.53562,0.46062,0.22771
1694787265820312,-8.558591,0.557966,4.993109,0.51462,0.39562,0.26071
1694787265828125,-8.564591,0.555966,4.989109,0.48162,0.23962,0.19671
1694787265835937,-8.555591,0.559966,4.982109,0.58162,0.31762,0.27571
1694787265843750,-8.540591,0.555966,5.109,0.62962,0.30262,0.24371
1694787265851562,-8.542591,0.559966,5.7109,0.54962,0.23962,0.29171
1694787265859375,-8.546591,0.546966,4.998109,0.56362,0.25362,0.34071
1694787265867187,-8.544591,0.535966,4.989109,0.53262,0.28562,0.29271
1694787265875000,-8.555591,0.532966,4.989109,0.52862,0.37762,0.34071
1694787265882812,-8.568591,0.528966,5.109,0.51562,0.36362,0.30871
1694787265890625,-8.562591,0.537966,5.34109,0.49962,0.42562,0.30871
1694787265898437,-8.572591,0.536966,5.68109,0.50662,0.52362,0.30671
1694787265906250,-8.561591,0.526966,5.52109,0.51762,0.41162,0.27571
1694787265914062,-8.565591,0.525966,5.34109,0.45562,0.35162,0.21171
1694787265921875,-8.568591,0.542966,5.41109,0.45362,0.42862,0.25971
1694787265929687,-8.561591,0.520966,5.7109,0.48362,0.45862,0.25971
1694787265937500,-8.545591,0.486966,4.977109,0.41862,0.42762,0.19671
1694787265945312,-8.540591,0.493966,4.901109,0.55162,0.39762,0.22771
1694787265953125,-8.552591,0.515966,4.962109,0.40162,0.42662,0.26071
1694787265960937,-8.558591,0.543966,5.99109,0.23862,0.33162,0.27671
1694787265968750,-8.564591,0.556966,5.163109,0.26262,0.22562,0.29071
1694787265976562,-8.566591,0.554966,5.108109,0.24862,0.16362,0.27471
1694787265984375,-8.557591,0.546966,5.27109,0.26262,0.562,0.35471
1694787265992187,-8.539591,0.544966,4.995109,0.42362,0.11562,0.33971
1694787266000000,-8.534591,0.535966,5.13109,0.52362,0.19562,0.32271
1694787266007812,-8.545591,0.511966,5.18109,0.47162,0.20862,0.38771
1694787266015625,-8.566591,0.504966,5.11109,0.51562,0.23662,0.42071
1694787266023437,-8.603591,0.499966,4.989109,0.52162,0.19462,0.27471
1694787266031250,-8.613591,0.510966,4.966109,0.56762,0.20962,0.29171
1694787266039062,-8.599591,0.507966,4.977109,0.48362,0.22362,0.27571
1694787266046875,-8.557591,0.513966,4.989109,0.54762,0.30262,0.21271
1694787266054687,-8.525591,0.509966,5.2109,0.60062,0.35162,0.17971
1694787266062500,-8.499591,0.503966,5.2109,0.53062,0.33362,0.18071
1694787266070312,-8.485591,0.490966,4.989109,0.56562,0.30362,0.19571
1694787266078125,-8.483591,0.501966,4.973109,0.56662,0.22562,0.25971
1694787266085937,-8.478591,0.498966,4.955109,0.58162,0.25562,0.21171
1694787266093750,-8.484591,0.486966,4.930109,0.71362,0.13262,0.19571
1694787266101562,-8.495591,0.479966,4.934109,0.69762,0.11762,0.22671
1694787266109375,-8.511591,0.466966,4.941109,0.67862,0.938,0.21171
1694787266117187,-8.520591,0.473966,4.952109,0.65362,0.538,0.14671
1694787266125000,-8.538591,0.478966,4.957109,0.65162,0.3838,0.19471
1694787266132812,-8.547591,0.475966,4.953109,0.64962,0.762,0.21071
1694787266140625,-8.578591,0.467966,4.959109,0.55362,0.638,0.17871
1694787266148437,-8.603591,0.472966,4.977109,0.66762,0.3738,0.19471
1694787266156250,-8.630591,0.463966,4.982109,0.52062,0.5462,0.21071
1694787266164062,-8.636591,0.457966,4.975109,0.50862,0.4062,0.24171
1694787266171875,-8.632591,0.441966,4.964109,0.51962,0.6962,0.24371
1694787266179687,-8.636591,0.439966,4.973109,0.50562,0.11762,0.24271
1694787266187500,-8.647591,0.435966,4.975109,0.52062,0.17862,0.27471
1694787266195312,-8.649591,0.431966,4.944109,0.50662,0.19562,0.25871
1694787266203125,-8.635591,0.431966,4.937109,0.49062,0.28862,0.29071
1694787266210937,-8.622591,0.435966,4.932109,0.52562,0.40062,0.27371
1694787266218750,-8.611591,0.422966,4.941109,0.50662,0.47662,0.27471
1694787266226562,-8.609591,0.407966,4.898109,0.51462,0.34862,0.18071
1694787266234375,-8.602591,0.396966,4.819109,0.56462,0.44262,0.30771
1694787266242187,-8.568591,0.408966,4.955109,0.52262,0.47662,0.29071
1694787266250000,-8.553591,0.422966,4.953109,0.50362,0.27262,0.25971
1694787266257812,-8.558591,0.438966,4.928109,0.30862,0.28662,0.25971
1694787266265625,-8.546591,0.447966,4.916109,0.26462,0.19562,0.25871
1694787266273437,-8.551591,0.458966,4.925109,0.29762,0.13362,0.24271
1694787266281250,-8.546591,0.467966,4.980109,0.37962,0.22762,0.24171
1694787266289062,-8.549591,0.469966,4.995109,0.43762,0.16262,0.21171
1694787266296875,-8.572591,0.451966,4.993109,0.53062,0.19262,0.22871
1694787266304687,-8.585591,0.436966,4.980109,0.45262,0.19362,0.21171
1694787266312500,-8.598591,0.438966,4.975109,0.42162,0.22462,0.25971
1694787266320312,-8.592591,0.431966,4.977109,0.32162,0.22262,0.29271
1694787266328125,-8.596591,0.427966,4.973109,0.42162,0.27162,0.27571
1694787266335937,-8.594591,0.438966,4.986109,0.33662,0.37962,0.16471
1694787266343750,-8.578591,0.436966,4.995109,0.32362,0.38062,0.21171
1694787266351562,-8.573591,0.438966,4.989109,0.37062,0.45862,0.19571
1694787266359375,-8.573591,0.427966,5.2109,0.24362,0.39662,0.22771
1694787266367187,-8.583591,0.442966,5.16109,0.33762,0.44262,0.18071
1694787266375000,-8.573591,0.443966,5.7109,0.26062,0.42762,0.25971
1694787266382812,-8.572591,0.453966,5.16109,0.24162,0.44162,0.29171
1694787266390625,-8.581591,0.469966,5.23109,0.25662,0.42562,0.29271
1694787266398437,-8.570591,0.471966,5.27109,0.24062,0.31662,0.27671
1694787266406250,-8.563591,0.471966,5.23109,0.26062,0.36562,0.30771
1694787266414062,-8.558591,0.465966,5.14109,0.34462,0.42962,0.29071
1694787266421875,-8.542591,0.471966,5.7109,0.27862,0.39662,0.32271
1694787266429687,-8.525591,0.466966,5.7109,0.23962,0.39362,0.30871
1694787266437500,-8.508591,0.469966,4.998109,0.28162,0.28862,0.32271
1694787266445312,-8.510591,0.467966,4.986109,0.28362,0.30562,0.30571
1694787266453125,-8.524591,0.469966,4.986109,0.29462,0.33462,0.32271
1694787266460937,-8.537591,0.461966,4.984109,0.29962,0.24262,0.32171
1694787266468750,-8.540591,0.453966,4.989109,0.27762,0.28762,0.32371
1694787266476562,-8.542591,0.447966,4.986109,0.24862,0.24162,0.32271
1694787266484375,-8.555591,0.438966,4.993109,0.24762,0.24162,0.27471
1694787266492187,-8.569591,0.434966,4.998109,0.27962,0.19462,0.29071
1694787266500000,-8.594591,0.427966,4.993109,0.27562,0.19262,0.30771
1694787266507812,-8.594591,0.445966,4.989109,0.27762,0.20862,0.35571
1694787266515625,-8.578591,0.457966,4.991109,0.36362,0.16462,0.30571
1694787266523437,-8.577591,0.457966,4.989109,0.43062,0.22762,0.35371
1694787266531250,-8.569591,0.453966,4.998109,0.32362,0.23862,0.37171
1694787266539062,-8.560591,0.453966,5.109,0.45762,0.17762,0.40271
1694787266546875,-8.565591,0.460966,4.986109,0.37562,0.24062,0.32271
1694787266554687,-8.560591,0.460966,4.986109,0.42762,0.24162,0.41871
1694787266562500,-8.556591,0.469966,4.977109,0.35962,0.22462,0.33871
1694787266570312,-8.547591,0.473966,4.977109,0.35962,0.22462,0.38671
1694787266578125,-8.537591,0.472966,4.982109,0.31862,0.19662,0.41771
1694787266585937,-8.534591,0.477966,4.977109,0.25962,0.20562,0.48371
1694787266593750,-8.536591,0.487966,4.980109,0.24862,0.17762,0.43471
1694787266601562,-8.538591,0.484966,4.946109,0.26462,0.19262,0.48271
1694787266609375,-8.551591,0.489966,4.925109,0.25162,0.19462,0.43371
1694787266617187,-8.554591,0.503966,4.914109,0.26662,0.16262,0.44971
1694787266625000,-8.558591,0.505966,4.930109,0.25062,0.11662,0.43371
1694787266632812,-8.567591,0.500966,4.934109,0.28362,0.11662,0.44971
1694787266640625,-8.576591,0.510966,4.930109,0.26762,0.11662,0.41771
1694787266648437,-8.581591,0.517966,4.928109,0.26962,0.3962,0.43371
1694787266656250,-8.585591,0.517966,4.928109,0.39762,0.11762,0.38571
1694787266664062,-8.612591,0.526966,4.930109,0.39962,0.3838,0.41771
1694787266671875,-8.632591,0.511966,4.925109,0.34862,0.10162,0.38571
1694787266679687,-8.668591,0.506966,4.914109,0.32762,0.11462,0.41871
1694787266687500,-8.673591,0.511966,4.930109,0.29862,0.17862,0.38671
1694787266695312,-8.686591,0.511966,4.948109,0.31462,0.28862,0.38571
1694787266703125,-8.693591,0.500966,5.5109,0.21262,0.33262,0.40371
1694787266710937,-8.667591,0.467966,4.941109,0.34562,0.30462,0.30671
1694787266718750,-8.666591,0.486966,4.914109,0.34262,0.30262,0.32371
1694787266726562,-8.654591,0.496966,4.905109,0.29862,0.38362,0.28971
1694787266734375,-8.643591,0.470966,4.903109,0.25962,0.48862,0.37171
1694787266742187,-8.605591,0.447966,4.934109,0.37162,0.48962,0.30771
1694787266750000,-8.575591,0.434966,4.853109,0.47462,0.39762,0.40271
1694787266757812,-8.574591,0.458966,4.819109,0.42262,0.37962,0.40371
1694787266765625,-8.568591,0.507966,4.946109,0.24462,0.47262,0.43571
1694787266773437,-8.543591,0.522966,5.16109,0.10462,0.33462,0.43371
1694787266781250,-8.538591,0.513966,5.109,0.5462,0.23962,0.46671
1694787266789062,-8.534591,0.510966,4.923109,0.11762,0.17462,0.57971
1694787266796875,-8.523591,0.513966,4.878109,0.13862,0.19262,0.56171
1694787266804687,-8.530591,0.524966,4.896109,0.32862,0.23862,0.57871
1694787266812500,-8.545591,0.515966,4.914109,0.24962,0.22262,0.62671
1694787266820312,-8.571591,0.501966,4.910109,0.26862,0.22462,0.57771
1694787266828125,-8.596591,0.496966,4.903109,0.26462,0.25462,0.54671
1694787266835937,-8.621591,0.514966,4.883109,0.31462,0.19362,0.49871
1694787266843750,-8.606591,0.525966,4.876109,0.28362,0.11562,0.48171
1694787266851562,-8.594591,0.530966,4.894109,0.37862,0.20962,0.41871
1694787266859375,-8.590591,0.545966,4.905109,0.40862,0.19362,0.37071
1694787266867187,-8.591591,0.537966,4.921109,0.27062,0.20562,0.34071
1694787266875000,-8.582591,0.544966,4.910109,0.30962,0.19362,0.30771
1694787266882812,-8.593591,0.522966,4.898109,0.43662,0.19262,0.27571
1694787266890625,-8.604591,0.520966,4.901109,0.48562,0.20862,0.29171
1694787266898437,-8.610591,0.524966,4.896109,0.36362,0.18062,0.27371
1694787266906250,-8.619591,0.517966,4.903109,0.42662,0.11762,0.29071
1694787266914062,-8.610591,0.518966,4.910109,0.45462,0.14662,0.25971
1694787266921875,-8.612591,0.532966,4.907109,0.44362,0.19662,0.27471
1694787266929687,-8.620591,0.534966,4.916109,0.37362,0.19362,0.25971
1694787266937500,-8.628591,0.546966,4.928109,0.36262,0.14862,0.32271
1694787266945312,-8.606591,0.538966,4.932109,0.44062,0.14662,0.37071
1694787266953125,-8.604591,0.529966,4.928109,0.38962,0.23862,0.41971
1694787266960937,-8.615591,0.514966,4.923109,0.45662,0.25662,0.30671
1694787266968750,-8.610591,0.507966,4.905109,0.34262,0.31862,0.33971
1694787266976562,-8.615591,0.507966,4.901109,0.29362,0.25362,0.45171
1694787266984375,-8.623591,0.504966,4.892109,0.26462,0.33462,0.40271
1694787266992187,-8.632591,0.504966,4.896109,0.29762,0.34962,0.43471
1694787267000000,-8.633591,0.510966,4.883109,0.24662,0.31662,0.51571
1694787267007812,-8.637591,0.519966,4.887109,0.29362,0.44162,0.48371
1694787267015625,-8.650591,0.509966,4.883109,0.33162,0.39662,0.49771
1694787267023437,-8.651591,0.501966,4.876109,0.35462,0.31562,0.45271
1694787267031250,-8.652591,0.508966,4.799109,0.52362,0.35062,0.43471
1694787267039062,-8.608591,0.509966,4.905109,0.43662,0.37962,0.32371
1694787267046875,-8.601591,0.516966,4.914109,0.43962,0.27062,0.41971
1694787267054687,-8.604591,0.536966,4.894109,0.37662,0.20962,0.32271
1694787267062500,-8.579591,0.538966,4.894109,0.32562,0.25562,0.33971
1694787267070312,-8.580591,0.531966,4.896109,0.45262,0.23862,0.40371
1694787267078125,-8.553591,0.544966,4.903109,0.45462,0.20862,0.32371
1694787267085937,-8.551591,0.546966,4.925109,0.43762,0.22362,0.35571
1694787267093750,-8.568591,0.545966,4.916109,0.50562,0.27262,0.35471
1694787267101562,-8.577591,0.542966,4.885109,0.43862,0.22462,0.32371
1694787267109375,-8.577591,0.540966,4.878109,0.48662,0.28662,0.32371
1694787267117187,-8.579591,0.536966,4.869109,0.51062,0.22762,0.36971
1694787267125000,-8.593591,0.547966,4.867109,0.36062,0.27262,0.33871
1694787267132812,-8.619591,0.570966,4.853109,0.46162,0.21962,0.35771
1694787267140625,-8.633591,0.576966,4.883109,0.48862,0.27162,0.37071
1694787267148437,-8.647591,0.583966,4.894109,0.48562,0.27062,0.37171
1694787267156250,-8.669591,0.579966,4.905109,0.52162,0.28662,0.46671
1694787267164062,-8.679591,0.571966,4.919109,0.46362,0.37562,0.42171
1694787267171875,-8.670591,0.578966,4.914109,0.43362,0.39262,0.40471
1694787267179687,-8.665591,0.575966,4.921109,0.42462,0.48962,0.41871
1694787267187500,-8.647591,0.581966,4.928109,0.39162,0.47462,0.40271
1694787267195312,-8.625591,0.580966,4.930109,0.43562,0.47162,0.43571
1694787267203125,-8.616591,0.589966,4.928109,0.49962,0.51962,0.37271
1694787267210937,-8.589591,0.588966,4.928109,0.48262,0.45562,0.42071
1694787267218750,-8.594591,0.584966,4.919109,0.48362,0.32962,0.48471
1694787267226562,-8.587591,0.584966,4.914109,0.46762,0.40862,0.46871
1694787267234375,-8.587591,0.579966,4.914109,0.51362,0.42462,0.40471
1694787267242187,-8.589591,0.584966,4.903109,0.47062,0.36462,0.40371
1694787267250000,-8.587591,0.582966,4.898109,0.35562,0.36362,0.35571
1694787267257812,-8.578591,0.567966,4.882109,0.30862,0.33362,0.30771
1694787267265625,-8.575591,0.558966,4.873109,0.27462,0.41062,0.35571
1694787267273437,-8.577591,0.556966,4.855109,0.24462,0.39662,0.27571
1694787267281250,-8.586591,0.551966,4.855109,0.40562,0.34962,0.29171
1694787267289062,-8.582591,0.537966,4.864109,0.25662,0.39462,0.26071
1694787267296875,-8.573591,0.542966,4.892109,0.23962,0.36262,0.27671
1694787267304687,-8.582591,0.535966,4.887109,0.39962,0.36262,0.27671
1694787267312500,-8.575591,0.544966,4.885109,0.40362,0.39662,0.22771
1694787267320312,-8.580591,0.542966,4.898109,0.44762,0.37862,0.26071
1694787267328125,-8.578591,0.539966,4.887109,0.40062,0.37862,0.22871
1694787267335937,-8.573591,0.540966,4.876109,0.45262,0.27262,0.19571
1694787267343750,-8.597591,0.547966,4.885109,0.51862,0.30362,0.21171
1694787267351562,-8.624591,0.543966,4.885109,0.45162,0.27162,0.17971
1694787267359375,-8.638591,0.538966,4.896109,0.30462,0.27062,0.18071
1694787267367187,-8.649591,0.540966,4.898109,0.28562,0.31662,0.19671
1694787267375000,-8.649591,0.536966,4.912109,0.38462,0.30162,0.19671
1694787267382812,-8.647591,0.532966,4.916109,0.31962,0.34862,0.18071
1694787267390625,-8.644591,0.521966,4.903109,0.33462,0.47262,0.19671
1694787267398437,-8.630591,0.523966,4.896109,0.34062,0.39762,0.19571
1694787267406250,-8.622591,0.520966,4.889109,0.43362,0.41162,0.19671
1694787267414062,-8.606591,0.518966,4.871109,0.31662,0.44162,0.14971
1694787267421875,-8.592591,0.521966,4.878109,0.30962,0.46062,0.16271
1694787267429687,-8.597591,0.522966,4.873109,0.40162,0.44162,0.24471
1694787267437500,-8.595591,0.515966,4.860109,0.39862,0.45662,0.24471
1694787267445312,-8.601591,0.512966,4.840109,0.42262,0.42962,0.21171
1694787267453125,-8.606591,0.523966,4.853109,0.46762,0.38062,0.19671
1694787267460937,-8.598591,0.526966,4.862109,0.39962,0.33162,0.24471
1694787267468750,-8.598591,0.533966,4.849109,0.33662,0.22362,0.21271
1694787267476562,-8.607591,0.542966,4.851109,0.27162,0.23862,0.18071
1694787267484375,-8.597591,0.540966,4.860109,0.33862,0.24062,0.16371
1694787267492187,-8.609591,0.560966,4.889109,0.27362,0.24062,0.17971
1694787267500000,-8.607591,0.551966,4.883109,0.35362,0.22462,0.16471
1694787267507812,-8.622591,0.543966,4.885109,0.32062,0.25562,0.14871
1694787267515625,-8.633591,0.543966,4.896109,0.27162,0.36462,0.16471
1694787267523437,-8.633591,0.550966,4.932109,0.29062,0.34962,0.16371
1694787267531250,-8.636591,0.558966,4.948109,0.24062,0.38062,0.14871
1694787267539062,-8.629591,0.543966,4.971109,0.29162,0.39762,0.16371
1694787267546875,-8.633591,0.532966,4.905109,0.26062,0.35162,0.13171
1694787267554687,-8.618591,0.549966,4.934109,0.22562,0.42762,0.16371
1694787267562500,-8.620591,0.554966,4.894109,0.12962,0.39762,0.13171
1694787267570312,-8.601591,0.523966,4.894109,0.20762,0.49062,0.10071
1694787267578125,-8.560591,0.492966,4.892109,0.23062,0.47662,0.21071
1694787267585937,-8.570591,0.500966,4.799109,0.30462,0.36562,0.13271
1694787267593750,-8.581591,0.516966,4.810109,0.27262,0.38062,0.18071
1694787267601562,-8.575591,0.542966,4.982109,0.20662,0.37862,0.19671
1694787267609375,-8.572591,0.552966,5.41109,0.18462,0.24262,0.24271
1694787267617187,-8.543591,0.540966,4.973109,0.3662,0.16362,0.22671
1694787267625000,-8.550591,0.551966,4.887109,0.20062,0.2362,0.27471
1694787267632812,-8.559591,0.551966,4.871109,0.26262,0.14662,0.30671
1694787267640625,-8.563591,0.552966,4.896109,0.25462,0.18162,0.38471
1694787267648437,-8.601591,0.546966,4.914109,0.41462,0.19662,0.32171
1694787267656250,-8.639591,0.535966,4.903109,0.37962,0.21262,0.27371
1694787267664062,-8.669591,0.526966,4.878109,0.42362,0.19462,0.29071
1694787267671875,-8.675591,0.526966,4.869109,0.42462,0.17962,0.24271
1694787267679687,-8.675591,0.529966,4.853109,0.37562,0.13262,0.21071
1694787267687500,-8.664591,0.517966,4.880109,0.34162,0.19462,0.21171
1694787267695312,-8.646591,0.507966,4.883109,0.40162,0.17662,0.18071
1694787267703125,-8.641591,0.510966,4.876109,0.47262,0.21262,0.13071
1694787267710937,-8.634591,0.497966,4.869109,0.51962,0.21162,0.11571
1694787267718750,-8.619591,0.483966,4.855109,0.49862,0.24062,0.13271
1694787267726562,-8.619591,0.479966,4.835109,0.51862,0.17962,0.11571
1694787267734375,-8.623591,0.473966,4.815109,0.50562,0.11862,0.13071
1694787267742187,-8.616591,0.459966,4.808109,0.46862,0.14862,0.8371
1694787267750000,-8.605591,0.467966,4.806109,0.48762,0.7062,0.16371
1694787267757812,-8.612591,0.467966,4.806109,0.46962,0.17862,0.16371
1694787267765625,-8.614591,0.467966,4.808109,0.46962,0.19462,0.19571
1694787267773437,-8.610591,0.467966,4.817109,0.41662,0.20662,0.26071
1694787267781250,-8.609591,0.473966,4.808109,0.34662,0.16462,0.24271
1694787267789062,-8.621591,0.472966,4.803109,0.30862,0.22462,0.29171
1694787267796875,-8.641591,0.468966,4.808109,0.32462,0.24062,0.27571
1694787267804687,-8.645591,0.470966,4.815109,0.35762,0.23962,0.32371
1694787267812500,-8.648591,0.475966,4.817109,0.27662,0.34862,0.32371
1694787267820312,-8.655591,0.490966,4.819109,0.21262,0.34962,0.27571
1694787267828125,-8.653591,0.501966,4.837109,0.24162,0.39562,0.29171
1694787267835937,-8.669591,0.508966,4.833109,0.25762,0.45762,0.27671
1694787267843750,-8.666591,0.508966,4.837109,0.27262,0.41062,0.29271
1694787267851562,-8.685591,0.498966,4.776109,0.36462,0.33062,0.26171
1694787267859375,-8.658591,0.512966,4.822109,0.43362,0.44162,0.27671
1694787267867187,-8.640591,0.521966,4.919109,0.41962,0.42762,0.21171
1694787267875000,-8.651591,0.530966,4.892109,0.25962,0.24162,0.14771
1694787267882812,-8.647591,0.525966,4.896109,0.25562,0.19162,0.19671
1694787267890625,-8.633591,0.541966,4.874109,0.29362,0.21162,0.11571
1694787267898437,-8.635591,0.523966,4.878109,0.35262,0.19362,0.10071
1694787267906250,-8.633591,0.523966,4.894109,0.30762,0.19562,0.8371
1694787267914062,-8.639591,0.517966,4.907109,0.42462,0.21162,0.14671
1694787267921875,-8.653591,0.517966,4.907109,0.29162,0.27362,0.9971
1694787267929687,-8.650591,0.497966,4.894109,0.32062,0.31862,0.10071
1694787267937500,-8.664591,0.488966,4.887109,0.32162,0.28762,0.11671
1694787267945312,-8.644591,0.481966,4.889109,0.33762,0.38062,0.18071
1694787267953125,-8.645591,0.466966,4.867109,0.29062,0.39662,0.19571
1694787267960937,-8.625591,0.474966,4.864109,0.25962,0.41262,0.17971
1694787267968750,-8.612591,0.479966,4.842109,0.27662,0.42762,0.25971
1694787267976562,-8.612591,0.467966,4.837109,0.25762,0.42662,0.22871
1694787267984375,-8.603591,0.465966,4.833109,0.24162,0.41262,0.16371
1694787267992187,-8.600591,0.450966,4.810109,0.25962,0.35062,0.21171
1694787268000000,-8.603591,0.449966,4.810109,0.20662,0.33262,0.19671
1694787268007812,-8.605591,0.467966,4.813109,0.20962,0.37962,0.29171
1694787268015625,-8.603591,0.469966,4.822109,0.25962,0.31862,0.22771
1694787268023437,-8.609591,0.472966,4.824109,0.19662,0.27162,0.27571
1694787268031250,-8.612591,0.476966,4.813109,0.11162,0.22262,0.29271
1694787268039062,-8.630591,0.481966,4.813109,0.18062,0.20962,0.25971
1694787268046875,-8.641591,0.476966,4.824109,0.19262,0.23862,0.24471
1694787268054687,-8.675591,0.479966,4.819109,0.20962,0.23862,0.27671
1694787268062500,-8.691591,0.479966,4.826109,0.12462,0.25362,0.21271
1694787268070312,-8.706591,0.475966,4.828109,0.11162,0.28562,0.24471
1694787268078125,-8.702591,0.473966,4.824109,0.14562,0.22362,0.22771
1694787268085937,-8.711591,0.475966,4.826109,0.15862,0.39462,0.24471
1694787268093750,-8.709591,0.473966,4.815109,0.12362,0.40962,0.18171
1694787268101562,-8.704591,0.457966,4.799109,0.10762,0.37962,0.8471
1694787268109375,-8.687591,0.449966,4.808109,0.11462,0.42862,0.16371
1694787268117187,-8.676591,0.433966,4.804109,0.3062,0.48862,0.19671
1694787268125000,-8.654591,0.444966,4.792109,0.11162,0.45862,0.13271
1694787268132812,-8.651591,0.440966,4.788109,0.19762,0.47762,0.11471
1694787268140625,-8.640591,0.444966,4.794109,0.20962,0.52162,0.14771
1694787268148437,-8.625591,0.452966,4.788109,0.17862,0.50662,0.16371
1694787268156250,-8.634591,0.457966,4.781109,0.22462,0.45962,0.14771
1694787268164062,-8.634591,0.458966,4.792109,0.14062,0.50362,0.18071
1694787268171875,-8.632591,0.468966,4.799109,0.22662,0.45962,0.19571
1694787268179687,-8.632591,0.472966,4.801109,0.22562,0.41262,0.17971
1694787268187500,-8.646591,0.479966,4.803109,0.25862,0.41262,0.19571
1694787268195312,-8.650591,0.484966,4.835109,0.24462,0.47562,0.22771
1694787268203125,-8.641591,0.493966,4.842109,0.26062,0.47562,0.21171
1694787268210937,-8.639591,0.484966,4.864109,0.24362,0.47462,0.22771
1694787268218750,-8.627591,0.486966,4.869109,0.24462,0.50662,0.22771
1694787268226562,-8.630591,0.488966,4.874109,0.21362,0.46062,0.21071
1694787268234375,-8.614591,0.472966,4.894109,0.22362,0.47262,0.22871
1694787268242187,-8.610591,0.470966,4.896109,0.22562,0.50562,0.25971
1694787268250000,-8.587591,0.476966,4.901109,0.27662,0.50662,0.19571
1694787268257812,-8.596591,0.476966,4.896109,0.24462,0.42862,0.22771
1694787268265625,-8.610591,0.478966,4.896109,0.25662,0.45662,0.27671
1694787268273437,-8.623591,0.478966,4.903109,0.24062,0.44262,0.22871
1694787268281250,-8.645591,0.482966,4.907109,0.26062,0.46062,0.17971
1694787268289062,-8.653591,0.483966,4.898109,0.23962,0.40962,0.30871
1694787268296875,-8.670591,0.468966,4.894109,0.25762,0.47362,0.29171
1694787268304687,-8.668591,0.464966,4.883109,0.24162,0.48962,0.22771
1694787268312500,-8.655591,0.472966,4.885109,0.25362,0.48562,0.37371
1694787268320312,-8.645591,0.473966,4.869109,0.24562,0.47462,0.30771
1694787268328125,-8.637591,0.481966,4.878109,0.25662,0.45662,0.27671
1694787268335937,-8.618591,0.492966,4.883109,0.29462,0.38262,0.24271
1694787268343750,-8.599591,0.491966,4.871109,0.22362,0.47262,0.22871
1694787268351562,-8.599591,0.480966,4.878109,0.31962,0.42562,0.24471
1694787268359375,-8.599591,0.471966,4.883109,0.28762,0.39462,0.24471
1694787268367187,-8.594591,0.470966,4.858109,0.35762,0.47562,0.25971
1694787268375000,-8.599591,0.480966,4.880109,0.32162,0.47362,0.19671
1694787268382812,-8.588591,0.491966,4.907109,0.20762,0.47262,0.29271
1694787268390625,-8.579591,0.482966,4.903109,0.25262,0.47062,0.27771
1694787268398437,-8.578591,0.458966,4.898109,0.27362,0.47362,0.29171
1694787268406250,-8.590591,0.460966,4.844109,0.25462,0.45662,0.26071
1694787268414062,-8.586591,0.504966,4.894109,0.25462,0.42562,0.21271
1694787268421875,-8.599591,0.474966,4.855109,0.12862,0.44162,0.26071
1694787268429687,-8.582591,0.445966,4.864109,0.13062,0.41162,0.25971
1694787268437500,-8.572591,0.431966,4.815109,0.23862,0.23762,0.22871
1694787268445312,-8.601591,0.460966,4.767109,0.22662,0.20862,0.27571
1694787268453125,-8.610591,0.481966,4.876109,0.19662,0.33462,0.27571
1694787268460937,-8.599591,0.494966,5.14109,0.18062,0.27062,0.37171
1694787268468750,-8.588591,0.500966,4.995109,0.5062,0.11362,0.35571
1694787268476562,-8.595591,0.498966,4.912109,0.11662,0.462,0.41971
1694787268484375,-8.615591,0.505966,4.849109,0.24362,0.362,0.38771
1694787268492187,-8.613591,0.514966,4.837109,0.27762,0.8262,0.40371
1694787268500000,-8.624591,0.514966,4.873109,0.30962,0.16062,0.43571
1694787268507812,-8.666591,0.506966,4.898109,0.32762,0.27062,0.41871
1694787268515625,-8.690591,0.498966,4.880109,0.37662,0.27262,0.35471
1694787268523437,-8.722591,0.492966,4.842109,0.36062,0.22562,0.33871
1694787268531250,-8.731591,0.496966,4.824109,0.47062,0.14562,0.32371
1694787268539062,-8.716591,0.501966,4.831109,0.51262,0.23762,0.26071
1694787268546875,-8.687591,0.506966,4.837109,0.48262,0.31762,0.21271
1694787268554687,-8.653591,0.503966,4.853109,0.49862,0.36462,0.21271
1694787268562500,-8.635591,0.499966,4.844109,0.51662,0.35062,0.17971
1694787268570312,-8.626591,0.487966,4.835109,0.51362,0.38062,0.13271
1694787268578125,-8.617591,0.471966,4.831109,0.49562,0.26962,0.16471
1694787268585937,-8.610591,0.474966,4.831109,0.52862,0.36462,0.14871
1694787268593750,-8.601591,0.472966,4.833109,0.51562,0.28762,0.17971
1694787268601562,-8.597591,0.473966,4.828109,0.52662,0.25262,0.19771
1694787268609375,-8.599591,0.475966,4.840109,0.51062,0.33062,0.27771
1694787268617187,-8.606591,0.487966,4.840109,0.49862,0.23862,0.29271
1694787268625000,-8.623591,0.481966,4.842109,0.51562,0.23962,0.24471
1694787268632812,-8.611591,0.491966,4.864109,0.49362,0.31462,0.24571
1694787268640625,-8.628591,0.476966,4.876109,0.44862,0.33162,0.29271
1694787268648437,-8.621591,0.472966,4.878109,0.43562,0.25462,0.29271
1694787268656250,-8.628591,0.474966,4.883109,0.46662,0.34762,0.35671
1694787268664062,-8.626591,0.471966,4.876109,0.46362,0.36162,0.30971
1694787268671875,-8.619591,0.469966,4.880109,0.30462,0.36262,0.32471
1694787268679687,-8.632591,0.465966,4.880109,0.28762,0.48762,0.30871
1694787268687500,-8.628591,0.467966,4.880109,0.33262,0.46962,0.32571
1694787268695312,-8.637591,0.454966,4.837109,0.45162,0.33262,0.30871
1694787268703125,-8.648591,0.459966,4.785109,0.38562,0.34762,0.34071
1694787268710937,-8.614591,0.463966,4.921109,0.38862,0.41162,0.29171
1694787268718750,-8.597591,0.476966,4.896109,0.41962,0.25462,0.27671
1694787268726562,-8.597591,0.482966,4.867109,0.41862,0.25562,0.19671
1694787268734375,-8.586591,0.482966,4.860109,0.26862,0.22262,0.16571
1694787268742187,-8.581591,0.484966,4.855109,0.30362,0.25462,0.18071
1694787268750000,-8.603591,0.478966,4.871109,0.42062,0.19462,0.17971
1694787268757812,-8.624591,0.487966,4.896109,0.40062,0.19162,0.21271
1694787268765625,-8.646591,0.471966,4.912109,0.30162,0.25362,0.18171
1694787268773437,-8.672591,0.459966,4.905109,0.30462,0.22462,0.16471
1694787268781250,-8.686591,0.443966,4.903109,0.26762,0.33062,0.19771
1694787268789062,-8.684591,0.439966,4.887109,0.31662,0.36362,0.8571
1694787268796875,-8.679591,0.425966,4.876109,0.25062,0.34662,0.14971
1694787268804687,-8.676591,0.426966,4.869109,0.28862,0.42762,0.18071
1694787268812500,-8.670591,0.439966,4.865109,0.28562,0.45762,0.16471
1694787268820312,-8.661591,0.437966,4.878109,0.33662,0.44362,0.11671
1694787268828125,-8.655591,0.436966,4.887109,0.23262,0.45562,0.10171
1694787268835937,-8.648591,0.450966,4.878109,0.25362,0.44262,0.6871
1694787268843750,-8.655591,0.465966,4.878109,0.23662,0.45762,0.5371
1694787268851562,-8.659591,0.468966,4.880109,0.25662,0.41362,0.5271
1694787268859375,-8.657591,0.470966,4.894109,0.23762,0.47362,0.8471
1694787268867187,-8.643591,0.466966,4.898109,0.27762,0.46262,0.3471
1694787268875000,-8.634591,0.468966,4.880109,0.25862,0.41362,0.13171
1694787268882812,-8.616591,0.470966,4.878109,0.24062,0.39662,0.13271
1694787268890625,-8.614591,0.468966,4.878109,0.25962,0.46062,0.14771
1694787268898437,-8.619591,0.470966,4.855109,0.23962,0.45862,0.10071
1694787268906250,-8.612591,0.468966,4.846109,0.25862,0.41362,0.8371
1694787268914062,-8.609591,0.461966,4.840109,0.24062,0.35062,0.5271
1694787268921875,-8.609591,0.456966,4.837109,0.25762,0.39862,0.3571
1694787268929687,-8.611591,0.452966,4.824109,0.24062,0.47662,0.1971
1694787268937500,-8.616591,0.440966,4.815109,0.25262,0.41162,0.5371
1694787268945312,-8.616591,0.436966,4.815109,0.15662,0.41162,0.3671
1694787268953125,-8.629591,0.439966,4.806109,0.18962,0.45962,0.2071
1694787268960937,-8.634591,0.436966,4.826109,0.20462,0.44262,0.3671
1694787268968750,-8.630591,0.438966,4.819109,0.16862,0.44162,0.2171
1694787268976562,-8.625591,0.431966,4.824109,0.26662,0.45762,0.3771
1694787268984375,-8.614591,0.431966,4.808109,0.15662,0.41062,0.8571
1694787268992187,-8.620591,0.430966,4.797109,0.19162,0.45962,0.6871
1694787269000000,-8.630591,0.432966,4.801109,0.25362,0.41062,0.16471
1694787269007812,-8.632591,0.436966,4.808109,0.20562,0.38062,0.6871
1694787269015625,-8.643591,0.435966,4.815109,0.27162,0.46062,0.471
1694787269023437,-8.645591,0.426966,4.831109,0.19262,0.42862,0.10071
1694787269031250,-8.649591,0.417966,4.833109,0.17762,0.36662,0.6771
1694787269039062,-8.648591,0.418966,4.840109,0.18662,0.37862,0.10171
1694787269046875,-8.661591,0.408966,4.833109,0.12362,0.39462,0.13371
1694787269054687,-8.668591,0.414966,4.833109,0.13862,0.50362,0.11771
1694787269062500,-8.674591,0.404966,4.844109,0.14062,0.50362,0.18071
1694787269070312,-8.696591,0.406966,4.860109,0.25662,0.45862,0.18071
1694787269078125,-8.694591,0.411966,4.867109,0.12862,0.42762,0.19571
1694787269085937,-8.699591,0.410966,4.862109,0.23362,0.50962,0.17771
1694787269093750,-8.681591,0.421966,4.855109,0.22162,0.48862,0.19671
1694787269101562,-8.686591,0.427966,4.862109,0.28162,0.53162,0.29371
1694787269109375,-8.670591,0.435966,4.865109,0.22162,0.59662,0.27671
1694787269117187,-8.643591,0.435966,4.846109,0.30562,0.72362,0.29171
1694787269125000,-8.632591,0.423966,4.851109,0.28562,0.64362,0.27671
1694787269132812,-8.632591,0.425966,4.855109,0.25462,0.67562,0.29271
1694787269140625,-8.622591,0.406966,4.840109,0.30662,0.73862,0.33971
1694787269148437,-8.613591,0.409966,4.840109,0.27162,0.62862,0.29271
1694787269156250,-8.607591,0.414966,4.851109,0.30562,0.72362,0.27671
1694787269164062,-8.582591,0.415966,4.844109,0.33362,0.67362,0.35771
1694787269171875,-8.585591,0.427966,4.851109,0.32062,0.51962,0.26071
1694787269179687,-8.573591,0.438966,4.869109,0.30562,0.50462,0.29271
1694787269187500,-8.578591,0.435966,4.887109,0.31962,0.45662,0.24471
1694787269195312,-8.578591,0.447966,4.894109,0.44962,0.44162,0.24471
1694787269203125,-8.591591,0.441966,4.889109,0.48562,0.45862,0.29171
1694787269210937,-8.612591,0.440966,4.878109,0.45062,0.44162,0.27671
1694787269218750,-8.614591,0.474966,4.921109,0.48562,0.50662,0.22771
1694787269226562,-8.622591,0.500966,4.966109,0.31962,0.62862,0.27671
1694787269234375,-8.639591,0.483966,4.962109,0.33462,0.73662,0.29271
1694787269242187,-8.652591,0.452966,4.980109,0.38562,0.70762,0.29271
1694787269250000,-8.668591,0.430966,4.925109,0.47862,0.61062,0.34171
1694787269257812,-8.652591,0.470966,4.975109,0.40262,0.75462,0.29171
1694787269265625,-8.643591,0.454966,4.935109,0.31962,0.70662,0.32471
1694787269273437,-8.620591,0.421966,4.910109,0.28662,0.81562,0.29271
1694787269281250,-8.604591,0.408966,4.855109,0.29162,0.72362,0.32371
1694787269289062,-8.634591,0.428966,4.846109,0.25662,0.72362,0.26071
1694787269296875,-8.641591,0.439966,4.948109,0.25562,0.86262,0.32471
1694787269304687,-8.613591,0.425966,5.50109,0.24262,0.76962,0.35571
1694787269312500,-8.591591,0.434966,5.34109,0.22762,0.62962,0.37171
1694787269320312,-8.569591,0.438966,4.946109,0.25762,0.47162,0.43671
1694787269328125,-8.547591,0.435966,4.869109,0.24262,0.44062,0.45171
1694787269335937,-8.524591,0.446966,4.858109,0.32662,0.45762,0.43571
1694787269343750,-8.511591,0.448966,4.887109,0.32462,0.44062,0.45171
1694787269351562,-8.522591,0.461966,4.896109,0.42062,0.45562,0.48371
1694787269359375,-8.556591,0.455966,4.898109,0.49862,0.47162,0.42071
1694787269367187,-8.600591,0.431966,4.873109,0.50062,0.42462,0.46771
1694787269375000,-8.616591,0.445966,4.840109,0.51662,0.42562,0.40371
1694787269382812,-8.610591,0.451966,4.858109,0.49662,0.33062,0.37271
1694787269390625,-8.576591,0.449966,4.864109,0.50362,0.38062,0.32371
1694787269398437,-8.575591,0.441966,4.903109,0.52162,0.38262,0.30671
1694787269406250,-8.584591,0.436966,4.912109,0.50262,0.45962,0.25971
1694787269414062,-8.595591,0.436966,4.923109,0.51962,0.41362,0.24271
1694787269421875,-8.602591,0.430966,4.925109,0.50562,0.38262,0.29071
1694787269429687,-8.580591,0.405966,4.914109,0.54662,0.53562,0.30871
1694787269437500,-8.575591,0.396966,4.919109,0.53762,0.47562,0.32271
1694787269445312,-8.566591,0.393966,4.921109,0.53262,0.41162,0.30771
1694787269453125,-8.566591,0.387966,4.919109,0.52062,0.36662,0.30671
1694787269460937,-8.575591,0.387966,4.925109,0.49862,0.34762,0.34071
1694787269468750,-8.586591,0.405966,4.941109,0.51962,0.36562,0.29171
1694787269476562,-8.604591,0.403966,4.946109,0.48262,0.42662,0.29271
1694787269484375,-8.615591,0.399966,4.973109,0.45862,0.46062,0.35471
1694787269492187,-8.617591,0.397966,4.986109,0.52262,0.39762,0.40271
1694787269500000,-8.631591,0.396966,4.986109,0.49762,0.50362,0.34071
1694787269507812,-8.645591,0.401966,4.971109,0.45062,0.45662,0.34071
1694787269515625,-8.620591,0.399966,4.959109,0.45162,0.55162,0.30871
1694787269523437,-8.604591,0.401966,4.946109,0.45162,0.53562,0.32371
1694787269531250,-8.588591,0.398966,4.928109,0.48562,0.45862,0.35571
1694787269539062,-8.602591,0.378966,4.867109,0.51562,0.55162,0.29271
1694787269546875,-8.570591,0.382966,4.968109,0.49862,0.70662,0.34071
1694787269554687,-8.540591,0.404966,5.27109,0.52862,0.59662,0.29271
1694787269562500,-8.556591,0.433966,4.977109,0.41662,0.48762,0.27671
1694787269570312,-8.556591,0.435966,4.975109,0.38762,0.41062,0.29171
1694787269578125,-8.556591,0.457966,4.943109,0.39862,0.44062,0.24471
1694787269585937,-8.568591,0.459966,4.939109,0.42862,0.45462,0.24571
1694787269593750,-8.590591,0.471966,4.975109,0.45262,0.44262,0.29171
1694787269601562,-8.619591,0.472966,4.989109,0.38562,0.45762,0.26071
1694787269609375,-8.633591,0.467966,4.984109,0.44662,0.48662,0.29371
1694787269617187,-8.625591,0.457966,4.971109,0.48762,0.47562,0.30671
1694787269625000,-8.612591,0.458966,4.959109,0.48362,0.47362,0.29171
1694787269632812,-8.595591,0.466966,4.971109,0.43062,0.48762,0.24571
1694787269640625,-8.581591,0.465966,4.962109,0.51562,0.48962,0.26071
1694787269648437,-8.576591,0.471966,4.959109,0.49762,0.55062,0.27671
1694787269656250,-8.556591,0.477966,4.946109,0.51262,0.47362,0.18071
1694787269664062,-8.547591,0.488966,4.948109,0.49862,0.62962,0.24471
1694787269671875,-8.538591,0.484966,4.943109,0.54862,0.64562,0.25971
1694787269679687,-8.539591,0.479966,4.943109,0.49462,0.48662,0.24571
1694787269687500,-8.539591,0.486966,4.952109,0.54562,0.55162,0.22871
1694787269695312,-8.539591,0.483966,4.946109,0.49362,0.56462,0.27771
1694787269703125,-8.541591,0.486966,4.948109,0.49762,0.47262,0.27671
1694787269710937,-8.559591,0.475966,4.968109,0.51162,0.45562,0.30971
1694787269718750,-8.563591,0.471966,4.964109,0.46762,0.47362,0.29171
1694787269726562,-8.556591,0.480966,4.955109,0.51862,0.47462,0.30771
1694787269734375,-8.565591,0.474966,4.964109,0.50362,0.47562,0.29071
1694787269742187,-8.580591,0.472966,4.959109,0.50362,0.49162,0.27571
1694787269750000,-8.594591,0.471966,4.953109,0.51562,0.48962,0.29171
1694787269757812,-8.599591,0.471966,4.964109,0.46262,0.45562,0.29371
1694787269765625,-8.588591,0.464966,4.964109,0.43362,0.50462,0.26071
1694787269773437,-8.574591,0.460966,4.977109,0.53062,0.44262,0.22871
1694787269781250,-8.572591,0.449966,4.968109,0.46562,0.48862,0.24471
1694787269789062,-8.567591,0.436966,4.950109,0.40262,0.44262,0.22871
1694787269796875,-8.546591,0.433966,4.964109,0.37162,0.55362,0.17971
1694787269804687,-8.549591,0.426966,4.971109,0.44862,0.55162,0.16471
1694787269812500,-8.555591,0.424966,4.991109,0.49762,0.58362,0.11671
1694787269820312,-8.562591,0.415966,4.991109,0.47962,0.55062,0.18071
1694787269828125,-8.575591,0.404966,5.4109,0.49662,0.48962,0.16471
1694787269835937,-8.582591,0.403966,5.7109,0.43362,0.48962,0.16471
1694787269843750,-8.573591,0.409966,5.4109,0.48162,0.55262,0.14871
1694787269851562,-8.565591,0.402966,5.4109,0.50862,0.53462,0.16571
1694787269859375,-8.557591,0.395966,4.984109,0.49662,0.55162,0.16471
1694787269867187,-8.564591,0.384966,4.993109,0.54362,0.58262,0.13371
1694787269875000,-8.560591,0.384966,4.991109,0.49462,0.56662,0.13371
1694787269882812,-8.559591,0.379966,5.2109,0.56662,0.58662,0.9971
1694787269890625,-8.553591,0.369966,5.7109,0.54462,0.55262,0.8471
1694787269898437,-8.554591,0.370966,5.7109,0.56762,0.58562,0.19471
1694787269906250,-8.548591,0.366966,5.14109,0.54362,0.61362,0.18071
1694787269914062,-8.541591,0.366966,5.25109,0.52862,0.64562,0.16471
1694787269921875,-8.537591,0.373966,5.20109,0.53062,0.50562,0.19671
1694787269929687,-8.533591,0.370966,5.20109,0.49662,0.55062,0.22871
1694787269937500,-8.524591,0.372966,5.18109,0.51162,0.56662,0.21271
1694787269945312,-8.532591,0.380966,5.25109,0.49862,0.52062,0.19671
1694787269953125,-8.530591,0.377966,5.13109,0.51162,0.59762,0.22871
1694787269960937,-8.524591,0.379966,5.4109,0.51262,0.51962,0.27671
1694787269968750,-8.525591,0.378966,5.7109,0.50362,0.49062,0.29071
1694787269976562,-8.521591,0.380966,4.993109,0.51662,0.48962,0.25971
1694787269984375,-8.519591,0.377966,5.109,0.50162,0.45862,0.27571
1694787269992187,-8.526591,0.384966,5.2109,0.48562,0.45862,0.35571
1694787270000000,-8.528591,0.382966,5.7109,0.35762,0.38062,0.32371
1694787270007812,-8.525591,0.384966,5.29109,0.42362,0.33562,0.27471
1694787270015625,-8.546591,0.393966,5.45109,0.47062,0.34962,0.29171
1694787270023437,-8.563591,0.379966,5.52109,0.40862,0.35162,0.29071
1694787270031250,-8.575591,0.369966,5.34109,0.45262,0.39662,0.27571
1694787270039062,-8.582591,0.394966,5.77109,0.37162,0.42762,0.25971
1694787270046875,-8.568591,0.412966,5.117109,0.38962,0.49162,0.24371
1694787270054687,-8.553591,0.411966,5.104109,0.29262,0.53762,0.21171
1694787270062500,-8.553591,0.382966,5.120109,0.25662,0.56762,0.22871
1694787270070312,-8.550591,0.355966,5.14109,0.30462,0.45762,0.22871
1694787270078125,-8.531591,0.399966,5.68109,0.27162,0.50462,0.22871
1694787270085937,-8.526591,0.406966,5.36109,0.24162,0.44362,0.21171
1694787270093750,-8.521591,0.372966,4.973109,0.23762,0.48862,0.19671
1694787270101562,-8.519591,0.363966,4.957109,0.25262,0.48762,0.18171
1694787270109375,-8.534591,0.380966,4.989109,0.19362,0.44262,0.22771
1694787270117187,-8.552591,0.378966,5.81109,0.16262,0.53662,0.29171
1694787270125000,-8.530591,0.369966,5.140109,0.21062,0.44262,0.27571
1694787270132812,-8.523591,0.393966,5.131109,0.26162,0.25562,0.32371
1694787270140625,-8.526591,0.382966,5.68109,0.13062,0.12962,0.32371
1694787270148437,-8.508591,0.375966,5.16109,0.19562,0.8362,0.27571
1694787270156250,-8.492591,0.390966,4.995109,0.23062,0.13062,0.37071
1694787270164062,-8.487591,0.393966,5.25109,0.21662,0.16362,0.33871
1694787270171875,-8.505591,0.398966,5.47109,0.29662,0.13362,0.24271
1694787270179687,-8.546591,0.375966,5.29109,0.38962,0.19262,0.35571
1694787270187500,-8.583591,0.363966,4.991109,0.42462,0.16262,0.32271
1694787270195312,-8.601591,0.359966,4.973109,0.45662,0.16262,0.32271
1694787270203125,-8.601591,0.366966,4.966109,0.52062,0.16362,0.27471
1694787270210937,-8.586591,0.358966,4.991109,0.32362,0.25662,0.19571
1694787270218750,-8.572591,0.365966,4.993109,0.40462,0.20962,0.21171
1694787270226562,-8.563591,0.344966,5.109,0.48262,0.31762,0.21271
1694787270234375,-8.549591,0.331966,4.984109,0.46962,0.25662,0.19571
1694787270242187,-8.552591,0.326966,4.962109,0.46262,0.23862,0.16571
1694787270250000,-8.534591,0.317966,4.950109,0.51462,0.25562,0.16471
1694787270257812,-8.534591,0.309966,4.946109,0.50062,0.22462,0.21171
1694787270265625,-8.529591,0.309966,4.950109,0.50362,0.27362,0.19471
1694787270273437,-8.527591,0.302966,4.957109,0.51762,0.23962,0.29171
1694787270281250,-8.531591,0.304966,4.977109,0.45362,0.19362,0.24371
1694787270289062,-8.542591,0.314966,5.4109,0.40662,0.24062,0.27571
1694787270296875,-8.554591,0.311966,5.7109,0.36762,0.22162,0.29271
1694787270304687,-8.575591,0.328966,5.11109,0.34962,0.22062,0.30971
1694787270312500,-8.583591,0.334966,5.11109,0.41962,0.23762,0.42071
1694787270320312,-8.597591,0.341966,5.20109,0.37462,0.31762,0.41971
1694787270328125,-8.606591,0.351966,5.11109,0.27162,0.36162,0.40471
1694787270335937,-8.611591,0.362966,5.11109,0.31962,0.37562,0.46871
1694787270343750,-8.611591,0.370966,5.9109,0.27462,0.40862,0.46771
1694787270351562,-8.602591,0.365966,4.984109,0.43462,0.43962,0.43671
1694787270359375,-8.616591,0.356966,4.928109,0.43162,0.42262,0.45371
1694787270367187,-8.575591,0.365966,5.38109,0.35462,0.62762,0.45271
1694787270375000,-8.553591,0.386966,5.74109,0.35362,0.50262,0.40471
1694787270382812,-8.564591,0.389966,5.38109,0.35462,0.47162,0.42071
1694787270390625,-8.548591,0.407966,5.32109,0.29362,0.48962,0.35571
1694787270398437,-8.533591,0.424966,5.2109,0.43962,0.42762,0.40371
1694787270406250,-8.531591,0.437966,5.9109,0.51362,0.40862,0.40471
1694787270414062,-8.549591,0.424966,5.11109,0.42062,0.42762,0.29171
1694787270421875,-8.564591,0.425966,5.25109,0.38962,0.41262,0.29171
1694787270429687,-8.571591,0.414966,5.14109,0.46962,0.44262,0.30771
1694787270437500,-8.550591,0.391966,5.2109,0.56662,0.39562,0.33971
1694787270445312,-8.541591,0.382966,5.2109,0.53462,0.36562,0.29171
1694787270453125,-8.539591,0.380966,5.4109,0.50162,0.44262,0.29171
1694787270460937,-8.539591,0.382966,4.993109,0.51862,0.47462,0.25971
1694787270468750,-8.535591,0.386966,4.984109,0.51562,0.45862,0.27571
1694787270476562,-8.546591,0.380966,4.995109,0.49962,0.50462,0.30771
1694787270484375,-8.542591,0.370966,5.109,0.52862,0.44062,0.29271
1694787270492187,-8.561591,0.374966,5.9109,0.51862,0.48962,0.33971
1694787270500000,-8.563591,0.363966,5.23109,0.50462,0.44362,0.35471
1694787270507812,-8.568591,0.361966,5.25109,0.43862,0.58362,0.38771
1694787270515625,-8.566591,0.360966,5.29109,0.45262,0.64362,0.45171
1694787270523437,-8.543591,0.371966,5.34109,0.51962,0.64562,0.43571
1694787270531250,-8.554591,0.381966,5.32109,0.50562,0.70862,0.48271
1694787270539062,-8.550591,0.380966,5.18109,0.48462,0.70562,0.46771
1694787270546875,-8.557591,0.382966,5.27109,0.51662,0.73762,0.48371
1694787270554687,-8.544591,0.380966,5.32109,0.50162,0.75162,0.57971
1694787270562500,-8.541591,0.384966,5.32109,0.53262,0.69062,0.46771
1694787270570312,-8.543591,0.378966,5.32109,0.52362,0.70862,0.51471
1694787270578125,-8.535591,0.380966,5.38109,0.51662,0.73762,0.46771
1694787270585937,-8.526591,0.379966,5.32109,0.49562,0.67262,0.43771
1694787270593750,-8.532591,0.389966,5.20109,0.53362,0.67562,0.45171
1694787270601562,-8.521591,0.383966,5.27109,0.52262,0.64762,0.43471
1694787270609375,-8.526591,0.391966,5.34109,0.50162,0.58262,0.38771
1694787270617187,-8.524591,0.377966,5.50109,0.49662,0.48762,0.27671
1694787270625000,-8.523591,0.366966,5.54109,0.53262,0.50462,0.33971
1694787270632812,-8.523591,0.364966,5.56109,0.51662,0.48862,0.35571
1694787270640625,-8.525591,0.362966,5.50109,0.50262,0.45962,0.27571
1694787270648437,-8.523591,0.346966,5.54109,0.53362,0.50562,0.27571
1694787270656250,-8.529591,0.342966,5.52109,0.51762,0.48962,0.30771
1694787270664062,-8.530591,0.346966,5.54109,0.51162,0.56562,0.30871
1694787270671875,-8.527591,0.355966,5.68109,0.50062,0.55262,0.24371
1694787270679687,-8.527591,0.369966,5.56109,0.49062,0.60062,0.37071
1694787270687500,-8.532591,0.364966,5.65109,0.46862,0.66062,0.33971
1694787270695312,-8.539591,0.367966,5.77109,0.43762,0.67662,0.35571
1694787270703125,-8.534591,0.365966,5.81109,0.47162,0.67762,0.40371
1694787270710937,-8.532591,0.367966,5.86109,0.48962,0.69462,0.35471
1694787270718750,-8.528591,0.364966,5.86109,0.48062,0.76862,0.29271
1694787270726562,-8.519591,0.366966,5.81109,0.50062,0.83262,0.32371
1694787270734375,-8.503591,0.380966,5.99109,0.42162,0.87962,0.37171
1694787270742187,-8.510591,0.372966,5.97109,0.49762,0.83062,0.38871
1694787270750000,-8.492591,0.359966,5.97109,0.40362,0.75362,0.38771
1694787270757812,-8.477591,0.378966,5.95109,0.47662,0.70362,0.37371
1694787270765625,-8.470591,0.372966,5.95109,0.51362,0.70562,0.42071
1694787270773437,-8.452591,0.379966,5.104109,0.50162,0.69162,0.41971
1694787270781250,-8.459591,0.396966,5.102109,0.51662,0.44262,0.30771
1694787270789062,-8.448591,0.402966,5.129109,0.49762,0.50362,0.30871
1694787270796875,-8.454591,0.401966,5.138109,0.48362,0.45762,0.30771
1694787270804687,-8.461591,0.410966,5.131109,0.51862,0.38062,0.35571
1694787270812500,-8.457591,0.405966,5.149109,0.49762,0.39462,0.27671
1694787270820312,-8.460591,0.395966,5.142109,0.52162,0.42962,0.29071
1694787270828125,-8.466591,0.385966,5.135109,0.49962,0.39462,0.34071
1694787270835937,-8.463591,0.405966,5.183109,0.49962,0.48962,0.29171
1694787270843750,-8.457591,0.410966,5.190109,0.51762,0.48962,0.29171
1694787270851562,-8.458591,0.386966,5.196109,0.50462,0.50762,0.27471
1694787270859375,-8.465591,0.361966,5.138109,0.51662,0.39562,0.27571
1694787270867187,-8.463591,0.379966,5.86109,0.46962,0.36462,0.30771
1694787270875000,-8.447591,0.401966,5.102109,0.47162,0.38062,0.33971
1694787270882812,-8.445591,0.376966,5.79109,0.42062,0.34862,0.30771
1694787270890625,-8.443591,0.349966,5.83109,0.46762,0.33262,0.30871
1694787270898437,-8.461591,0.358966,5.25109,0.46862,0.23862,0.35571
1694787270906250,-8.494591,0.379966,5.32109,0.48762,0.27062,0.37171
1694787270914062,-8.497591,0.372966,5.165109,0.38862,0.37962,0.38771
1694787270921875,-8.489591,0.373966,5.244109,0.34762,0.27162,0.52971
1694787270929687,-8.492591,0.390966,5.190109,0.26362,0.11462,0.46671
1694787270937500,-8.472591,0.383966,5.120109,0.33062,0.5162,0.54671
1694787270945312,-8.470591,0.385966,5.61109,0.40962,0.8262,0.51471
1694787270953125,-8.456591,0.394966,5.72109,0.49062,0.14462,0.59471
1694787270960937,-8.466591,0.396966,5.93109,0.50362,0.25262,0.54771
1694787270968750,-8.497591,0.381966,5.113109,0.51762,0.17462,0.48371
1694787270976562,-8.532591,0.378966,5.106109,0.50862,0.21062,0.43471
1694787270984375,-8.566591,0.380966,5.90109,0.53762,0.16162,0.46671
1694787270992187,-8.573591,0.378966,5.70109,0.56862,0.19362,0.35571
1694787271000000,-8.552591,0.380966,5.86109,0.58462,0.21062,0.27471
1694787271007812,-8.517591,0.377966,5.95109,0.51962,0.20962,0.29171
1694787271015625,-8.492591,0.375966,5.115109,0.56662,0.25562,0.32371
1694787271023437,-8.468591,0.378966,5.99109,0.55762,0.20562,0.24571
1694787271031250,-8.459591,0.376966,5.97109,0.63062,0.19362,0.29171
1694787271039062,-8.443591,0.378966,5.88109,0.58362,0.20962,0.24371
1694787271046875,-8.429591,0.371966,5.83109,0.64662,0.19362,0.24371
1694787271054687,-8.432591,0.371966,5.86109,0.56462,0.20862,0.29171
1694787271062500,-8.434591,0.367966,5.81109,0.54662,0.25362,0.30871
1694787271070312,-8.447591,0.368966,5.102109,0.50362,0.24062,0.29171
1694787271078125,-8.463591,0.379966,5.122109,0.51962,0.17762,0.32371
1694787271085937,-8.492591,0.368966,5.126109,0.49962,0.16062,0.30871
1694787271093750,-8.503591,0.379966,5.131109,0.45562,0.20862,0.38771
1694787271101562,-8.514591,0.367966,5.135109,0.42562,0.20962,0.37071
1694787271109375,-8.525591,0.362966,5.154109,0.31362,0.24062,0.46671
1694787271117187,-8.541591,0.365966,5.151109,0.31362,0.30362,0.43471
1694787271125000,-8.548591,0.369966,5.147109,0.27962,0.27262,0.33871
1694787271132812,-8.555591,0.373966,5.140109,0.27762,0.37962,0.43571
1694787271140625,-8.548591,0.385966,5.97109,0.31162,0.50562,0.45071
1694787271148437,-8.546591,0.369966,5.95109,0.30762,0.42562,0.35571
1694787271156250,-8.563591,0.372966,5.14109,0.32662,0.39762,0.29071
1694787271164062,-8.530591,0.380966,5.124109,0.37362,0.52062,0.33971
1694787271171875,-8.512591,0.378966,5.212109,0.29662,0.42962,0.25871
1694787271179687,-8.516591,0.391966,5.151109,0.18162,0.41362,0.24271
1694787271187500,-8.497591,0.406966,5.113109,0.16362,0.38062,0.27571
1694787271195312,-8.474591,0.417966,5.70109,0.24862,0.41362,0.29071
1694787271203125,-8.462591,0.416966,5.90109,0.24062,0.42562,0.26071
1694787271210937,-8.455591,0.427966,5.115109,0.25762,0.45762,0.26071
1694787271218750,-8.477591,0.414966,5.122109,0.24262,0.42762,0.22771
1694787271226562,-8.495591,0.403966,5.113109,0.25662,0.42562,0.26071
1694787271234375,-8.490591,0.395966,5.124109,0.24462,0.39662,0.25971
1694787271242187,-8.474591,0.395966,5.102109,0.22762,0.47462,0.24371
1694787271250000,-8.474591,0.395966,5.95109,0.26162,0.41262,0.29071
1694787271257812,-8.486591,0.399966,5.113109,0.24262,0.44262,0.27571
1694787271265625,-8.488591,0.401966,5.113109,0.25862,0.45862,0.29171
1694787271273437,-8.490591,0.399966,5.120109,0.22362,0.44162,0.27671
1694787271281250,-8.488591,0.403966,5.129109,0.22262,0.48762,0.27671
1694787271289062,-8.485591,0.402966,5.117109,0.19862,0.49062,0.30671
1694787271296875,-8.475591,0.394966,5.133109,0.10862,0.46962,0.38971
1694787271304687,-8.476591,0.386966,5.138109,0.12962,0.55062,0.35571
1694787271312500,-8.470591,0.396966,5.133109,0.24162,0.56662,0.34071
1694787271320312,-8.461591,0.394966,5.135109,0.11462,0.47262,0.38771
1694787271328125,-8.465591,0.394966,5.147109,0.13262,0.47362,0.40371
1694787271335937,-8.443591,0.396966,5.149109,0.20862,0.50162,0.43671
1694787271343750,-8.454591,0.410966,5.133109,0.21162,0.45762,0.35571
1694787271351562,-8.452591,0.407966,5.142109,0.25862,0.44062,0.43571
1694787271359375,-8.484591,0.408966,5.135109,0.24362,0.44062,0.45171
1694787271367187,-8.490591,0.406966,5.135109,0.24762,0.39662,0.41871
1694787271375000,-8.486591,0.395966,5.135109,0.27762,0.34862,0.43571
1694787271382812,-8.497591,0.419966,5.120109,0.25862,0.45562,0.45171
1694787271390625,-8.493591,0.430966,5.126109,0.24662,0.44362,0.35471
1694787271398437,-8.488591,0.423966,5.129109,0.24362,0.34862,0.29171
1694787271406250,-8.497591,0.420966,5.126109,0.29762,0.39762,0.33871
1694787271414062,-8.497591,0.413966,5.126109,0.39262,0.47562,0.33871
1694787271421875,-8.490591,0.410966,5.140109,0.29262,0.39562,0.33971
1694787271429687,-8.488591,0.415966,5.133109,0.32562,0.37962,0.38771
1694787271437500,-8.474591,0.403966,5.135109,0.38962,0.45762,0.40371
1694787271445312,-8.465591,0.404966,5.133109,0.37962,0.44562,0.36971
1694787271453125,-8.452591,0.410966,5.126109,0.38962,0.44162,0.40371
1694787271460937,-8.459591,0.410966,5.126109,0.45562,0.42762,0.38771
1694787271468750,-8.453591,0.414966,5.129109,0.33862,0.45662,0.38871
1694787271476562,-8.451591,0.411966,5.131109,0.43362,0.40862,0.45271
1694787271484375,-8.436591,0.405966,5.133109,0.48762,0.44262,0.38771
1694787271492187,-8.443591,0.399966,5.138109,0.39062,0.45862,0.37171
1694787271500000,-8.448591,0.396966,5.131109,0.32362,0.42562,0.41971
1694787271507812,-8.456591,0.403966,5.131109,0.37462,0.41162,0.35571
1694787271515625,-8.466591,0.412966,5.126109,0.35862,0.34862,0.41971
1694787271523437,-8.470591,0.410966,5.135109,0.36262,0.41262,0.48271
1694787271531250,-8.466591,0.414966,5.129109,0.40862,0.30162,0.48271
1694787271539062,-8.472591,0.415966,5.122109,0.39462,0.31762,0.49871
1694787271546875,-8.482591,0.409966,5.113109,0.46762,0.29862,0.51671
1694787271554687,-8.475591,0.411966,5.120109,0.51462,0.23662,0.45271
1694787271562500,-8.484591,0.426966,5.113109,0.52062,0.25462,0.48271
1694787271570312,-8.484591,0.435966,5.115109,0.47362,0.22462,0.46671
1694787271578125,-8.479591,0.437966,5.124109,0.44062,0.20862,0.40271
1694787271585937,-8.486591,0.435966,5.129109,0.52262,0.22462,0.45071
1694787271593750,-8.486591,0.432966,5.129109,0.50262,0.22362,0.35571
1694787271601562,-8.486591,0.434966,5.133109,0.51862,0.31662,0.38771
1694787271609375,-8.486591,0.408966,5.122109,0.50062,0.23862,0.35571
1694787271617187,-8.504591,0.403966,5.117109,0.51362,0.33162,0.32471
1694787271625000,-8.498591,0.419966,5.178109,0.46662,0.36262,0.32471
1694787271632812,-8.487591,0.434966,5.172109,0.43062,0.37762,0.29371
1694787271640625,-8.487591,0.413966,5.178109,0.38162,0.43862,0.35771
1694787271648437,-8.488591,0.378966,5.140109,0.46462,0.34662,0.32471
1694787271656250,-8.495591,0.403966,5.126109,0.43662,0.25462,0.35571
1694787271664062,-8.475591,0.414966,5.140109,0.32462,0.23962,0.32371
1694787271671875,-8.486591,0.387966,5.63109,0.32062,0.23762,0.30871
1694787271679687,-8.481591,0.361966,5.63109,0.25762,0.28562,0.30871
1694787271687500,-8.485591,0.359966,5.72109,0.27462,0.25362,0.33971
1694787271695312,-8.510591,0.393966,5.102109,0.24862,0.31962,0.35471
1694787271703125,-8.483591,0.385966,5.187109,0.29062,0.30062,0.32471
1694787271710937,-8.472591,0.385966,5.210109,0.25962,0.16062,0.35571
1694787271718750,-8.468591,0.400966,5.138109,0.24262,0.3462,0.38771
1694787271726562,-8.448591,0.392966,5.77109,0.24662,0.5738,0.45171
1694787271734375,-8.432591,0.414966,5.52109,0.28162,0.4038,0.43471
1694787271742187,-8.431591,0.431966,5.68109,0.35462,0.8062,0.43671
1694787271750000,-8.455591,0.432966,5.102109,0.45662,0.12962,0.46671
1694787271757812,-8.490591,0.426966,5.106109,0.44062,0.16262,0.38671
1694787271765625,-8.530591,0.420966,5.77109,0.49162,0.10062,0.38671
1694787271773437,-8.569591,0.420966,5.45109,0.47262,0.14762,0.33871
1694787271781250,-8.575591,0.434966,5.32109,0.47562,0.8562,0.33871
1694787271789062,-8.569591,0.438966,5.45109,0.51962,0.14662,0.27571
1694787271796875,-8.547591,0.439966,5.72109,0.46562,0.19162,0.29271
1694787271804687,-8.538591,0.436966,5.79109,0.51062,0.23662,0.26171
1694787271812500,-8.525591,0.434966,5.65109,0.49762,0.23762,0.27671
1694787271820312,-8.531591,0.437966,5.54109,0.49762,0.22362,0.16471
1694787271828125,-8.511591,0.432966,5.47109,0.53262,0.22462,0.17971
1694787271835937,-8.502591,0.425966,5.22109,0.57462,0.19062,0.14971
1694787271843750,-8.508591,0.422966,5.23109,0.56762,0.21062,0.17971
1694787271851562,-8.499591,0.408966,5.25109,0.56362,0.16262,0.13271
1694787271859375,-8.506591,0.408966,5.38109,0.54962,0.24162,0.17971
1694787271867187,-8.515591,0.399966,5.56109,0.51562,0.27062,0.22871
1694787271875000,-8.524591,0.393966,5.77109,0.50062,0.30262,0.22771
1694787271882812,-8.530591,0.395966,5.72109,0.50162,0.25662,0.19571
1694787271890625,-8.528591,0.380966,5.68109,0.51962,0.20862,0.32371
1694787271898437,-8.533591,0.379966,5.70109,0.49962,0.34862,0.27671
1694787271906250,-8.530591,0.378966,5.72109,0.51962,0.30362,0.29171
1694787271914062,-8.528591,0.379966,5.77109,0.49762,0.31662,0.24471
1694787271921875,-8.523591,0.377966,5.63109,0.46762,0.39662,0.21271
1694787271929687,-8.528591,0.380966,5.45109,0.47162,0.44462,0.27471
1694787271937500,-8.530591,0.385966,5.54109,0.48762,0.39762,0.22771
1694787271945312,-8.528591,0.372966,4.984109,0.51062,0.40862,0.24571
1694787271953125,-8.533591,0.364966,4.966109,0.49562,0.37862,0.18171
1694787271960937,-8.494591,0.368966,5.126109,0.49862,0.47262,0.29271
1694787271968750,-8.519591,0.390966,5.74109,0.51662,0.27162,0.21171
1694787271976562,-8.513591,0.397966,5.79109,0.43462,0.31762,0.26071
1694787271984375,-8.501591,0.404966,5.45109,0.47062,0.38162,0.25971
1694787271992187,-8.501591,0.406966,5.32109,0.45462,0.35162,0.19571
1694787272000000,-8.497591,0.414966,5.65109,0.51462,0.34862,0.19671
1694787272007812,-8.529591,0.419966,5.81109,0.46362,0.33162,0.22871
1694787272015625,-8.540591,0.417966,5.93109,0.39862,0.34762,0.21271
1694787272023437,-8.538591,0.404966,5.81109,0.44862,0.28562,0.18071
1694787272031250,-8.540591,0.399966,5.93109,0.44462,0.34662,0.19771
1694787272039062,-8.533591,0.392966,5.86109,0.41262,0.29962,0.18171
1694787272046875,-8.524591,0.381966,5.77109,0.37962,0.33062,0.14971
1694787272054687,-8.531591,0.390966,5.77109,0.38262,0.39362,0.24471
1694787272062500,-8.537591,0.391966,5.84109,0.40062,0.45762,0.21271
1694787272070312,-8.546591,0.380966,5.102109,0.43362,0.44262,0.19671
1694787272078125,-8.543591,0.378966,5.95109,0.45062,0.50662,0.11671
1694787272085937,-8.539591,0.380966,5.99109,0.43562,0.50562,0.21171
1694787272093750,-8.523591,0.377966,5.93109,0.30562,0.45762,0.22871
1694787272101562,-8.526591,0.384966,5.88109,0.40062,0.45762,0.21271
1694787272109375,-8.514591,0.380966,5.90109,0.45362,0.49062,0.24371
1694787272117187,-8.510591,0.381966,5.93109,0.46462,0.51962,0.26071
1694787272125000,-8.490591,0.379966,5.88109,0.43162,0.51962,0.26071
1694787272132812,-8.472591,0.378966,5.93109,0.35162,0.50362,0.26071
1694787272140625,-8.471591,0.377966,5.93109,0.39262,0.49162,0.32271
1694787272148437,-8.465591,0.387966,5.86109,0.38762,0.42662,0.29171
1694787272156250,-8.465591,0.378966,5.77109,0.41862,0.36362,0.29271
1694787272164062,-8.465591,0.386966,5.79109,0.47262,0.39762,0.33871
1694787272171875,-8.470591,0.378966,5.77109,0.36862,0.34762,0.29271
1694787272179687,-8.465591,0.381966,5.77109,0.30562,0.36362,0.27671
1694787272187500,-8.492591,0.380966,5.79109,0.47262,0.24162,0.29071
1694787272195312,-8.501591,0.377966,5.79109,0.43662,0.30262,0.27571
1694787272203125,-8.521591,0.382966,5.97109,0.42362,0.21062,0.22671
1694787272210937,-8.524591,0.388966,5.99109,0.40262,0.31662,0.27671
1694787272218750,-8.522591,0.383966,5.93109,0.39962,0.23762,0.29271
1694787272226562,-8.532591,0.382966,5.99109,0.42162,0.30262,0.25971
1694787272234375,-8.530591,0.377966,5.97109,0.40262,0.27062,0.27671
1694787272242187,-8.521591,0.384966,5.95109,0.40662,0.30262,0.35571
1694787272250000,-8.523591,0.380966,5.97109,0.34362,0.28762,0.32271
1694787272257812,-8.521591,0.379966,5.104109,0.24162,0.23862,0.30771
1694787272265625,-8.519591,0.373966,5.95109,0.31062,0.22462,0.30771
1694787272273437,-8.512591,0.364966,5.86109,0.32562,0.25562,0.32371
1694787272281250,-8.506591,0.363966,5.95109,0.40162,0.20662,0.30871
1694787272289062,-8.505591,0.357966,5.84109,0.39162,0.19362,0.30671
1694787272296875,-8.503591,0.359966,5.83109,0.41762,0.20662,0.30871
1694787272304687,-8.501591,0.364966,5.88109,0.40462,0.23962,0.29171
1694787272312500,-8.505591,0.362966,5.77109,0.42562,0.22662,0.27471
1694787272320312,-8.512591,0.355966,5.81109,0.31062,0.20962,0.27571
1694787272328125,-8.514591,0.357966,5.77109,0.29362,0.19262,0.37171
1694787272335937,-8.509591,0.360966,5.74109,0.37562,0.24062,0.37071
1694787272343750,-8.516591,0.351966,5.77109,0.32562,0.25462,0.38771
1694787272351562,-8.519591,0.343966,5.65109,0.35062,0.25162,0.35771
1694787272359375,-8.507591,0.351966,5.47109,0.30962,0.28662,0.37171
1694787272367187,-8.510591,0.355966,5.54109,0.35662,0.20862,0.32371
1694787272375000,-8.510591,0.364966,5.45109,0.27662,0.20862,0.30771
1694787272382812,-8.521591,0.366966,5.56109,0.27662,0.19162,0.40371
1694787272390625,-8.510591,0.379966,5.52109,0.27262,0.20562,0.35671
1694787272398437,-8.510591,0.377966,5.68109,0.27462,0.17662,0.33971
1694787272406250,-8.524591,0.379966,5.79109,0.28962,0.15962,0.34071
1694787272414062,-8.514591,0.377966,5.77109,0.25962,0.19262,0.32371
1694787272421875,-8.516591,0.364966,5.79109,0.24462,0.20862,0.30771
1694787272429687,-8.527591,0.367966,5.77109,0.26462,0.22462,0.38671
1694787272437500,-8.528591,0.388966,5.120109,0.24262,0.33262,0.33971
1694787272445312,-8.522591,0.394966,5.129109,0.14162,0.36162,0.30871
1694787272453125,-8.508591,0.386966,5.149109,0.19162,0.34662,0.34071
1694787272460937,-8.510591,0.357966,5.120109,0.25562,0.26862,0.35671
1694787272468750,-8.519591,0.381966,5.79109,0.20862,0.19162,0.27671
1694787272476562,-8.499591,0.408966,5.77109,0.4862,0.20762,0.30871
1694787272484375,-8.508591,0.381966,5.29109,0.238,0.19062,0.29271
1694787272492187,-8.472591,0.368966,5.54109,0.5062,0.23962,0.27571
1694787272500000,-8.472591,0.365966,5.29109,0.3362,0.23862,0.37171
1694787272507812,-8.517591,0.384966,5.4109,0.6562,0.19162,0.32371
1694787272515625,-8.522591,0.399966,5.106109,0.8062,0.23862,0.33971
1694787272523437,-8.501591,0.393966,5.194109,0.1038,0.16062,0.49871
1694787272531250,-8.501591,0.397966,5.163109,0.862,0.2062,0.54671
1694787272539062,-8.488591,0.399966,5.99109,0.938,0.8938,0.53071
1694787272546875,-8.486591,0.419966,5.36109,0.762,0.11938,0.45071
1694787272554687,-8.488591,0.435966,5.29109,0.8762,0.12038,0.48271
1694787272562500,-8.492591,0.437966,5.56109,0.20462,0.838,0.46571
1694787272570312,-8.522591,0.432966,5.77109,0.19562,0.362,0.43571
1694787272578125,-8.555591,0.425966,5.52109,0.24962,0.3762,0.45071
1694787272585937,-8.586591,0.412966,5.14109,0.26462,0.2538,0.40271
1694787272593750,-8.598591,0.421966,5.109,0.24562,0.13062,0.30771
1694787272601562,-8.571591,0.431966,5.4109,0.26162,0.9962,0.32371
1694787272609375,-8.546591,0.434966,5.27109,0.26362,0.14762,0.32271
1694787272617187,-8.542591,0.431966,5.27109,0.33962,0.11462,0.30771
1694787272625000,-8.543591,0.432966,5.27109,0.37962,0.17262,0.27771
1694787272632812,-8.544591,0.418966,5.16109,0.37562,0.22462,0.32271
1694787272640625,-8.542591,0.424966,4.995109,0.34362,0.11562,0.32271
1694787272648437,-8.542591,0.420966,4.986109,0.34162,0.16262,0.27571
1694787272656250,-8.540591,0.399966,4.973109,0.35562,0.9862,0.29171
1694787272664062,-8.537591,0.411966,4.973109,0.32462,0.9962,0.27571
1694787272671875,-8.537591,0.411966,4.986109,0.29462,0.14662,0.32271
1694787272679687,-8.542591,0.415966,4.998109,0.26062,0.19262,0.35571
1694787272687500,-8.560591,0.404966,4.998109,0.33962,0.17562,0.37171
1694787272695312,-8.561591,0.401966,5.11109,0.27062,0.21162,0.44971
1694787272703125,-8.575591,0.401966,5.11109,0.31662,0.17962,0.43371
1694787272710937,-8.573591,0.402966,5.4109,0.29162,0.26962,0.41971
1694787272718750,-8.590591,0.401966,5.5109,0.33062,0.30362,0.45071
1694787272726562,-8.595591,0.408966,5.16109,0.24662,0.30162,0.43471
1694787272734375,-8.586591,0.407966,5.14109,0.26162,0.34862,0.43571
1694787272742187,-8.587591,0.420966,5.4109,0.26162,0.36362,0.45171
1694787272750000,-8.593591,0.425966,4.989109,0.26162,0.42562,0.45171
1694787272757812,-8.569591,0.424966,4.989109,0.24362,0.45662,0.46771
1694787272765625,-8.578591,0.414966,4.930109,0.32462,0.42562,0.43571
1694787272773437,-8.571591,0.411966,4.907109,0.40462,0.44162,0.38771
1694787272781250,-8.537591,0.436966,5.63109,0.32562,0.49062,0.29171
1694787272789062,-8.541591,0.466966,5.29109,0.25762,0.37862,0.34071
1694787272796875,-8.540591,0.459966,5.20109,0.24162,0.36262,0.35671
1694787272804687,-8.524591,0.464966,5.11109,0.21462,0.38162,0.33871
1694787272812500,-8.523591,0.466966,5.4109,0.29062,0.42562,0.38871
1694787272820312,-8.506591,0.459966,5.43109,0.26162,0.41162,0.38771
1694787272828125,-8.516591,0.459966,5.59109,0.27562,0.45762,0.33971
1694787272835937,-8.534591,0.446966,5.63109,0.22462,0.36262,0.35671
1694787272843750,-8.545591,0.433966,5.45109,0.28862,0.39362,0.32471
1694787272851562,-8.546591,0.438966,5.43109,0.34362,0.38162,0.33871
1694787272859375,-8.540591,0.431966,5.45109,0.32262,0.36462,0.29171
1694787272867187,-8.533591,0.431966,5.50109,0.32262,0.45762,0.27571
1694787272875000,-8.531591,0.437966,5.50109,0.33962,0.44162,0.37171
1694787272882812,-8.535591,0.436966,5.47109,0.29562,0.44462,0.32271
1694787272890625,-8.533591,0.438966,5.41109,0.32862,0.46062,0.32271
1694787272898437,-8.529591,0.435966,5.59109,0.27562,0.44162,0.40371
1694787272906250,-8.520591,0.437966,5.63109,0.33962,0.47262,0.40371
1694787272914062,-8.504591,0.435966,5.70109,0.26062,0.39462,0.40371
1694787272921875,-8.504591,0.440966,5.72109,0.29462,0.44362,0.33871
1694787272929687,-8.498591,0.436966,5.77109,0.28962,0.43962,0.42071
1694787272937500,-8.499591,0.437966,5.83109,0.27862,0.45762,0.45171
1694787272945312,-8.490591,0.435966,5.79109,0.27862,0.44362,0.37071
1694787272953125,-8.491591,0.439966,5.59109,0.24562,0.36362,0.45171
1694787272960937,-8.500591,0.446966,5.59109,0.37362,0.34762,0.45171
1694787272968750,-8.524591,0.444966,5.56109,0.31062,0.22362,0.41971
1694787272976562,-8.523591,0.441966,5.41109,0.32162,0.23662,0.43671
1694787272984375,-8.527591,0.437966,5.27109,0.27562,0.25362,0.45171
1694787272992187,-8.540591,0.439966,5.29109,0.32362,0.31562,0.43571
1694787273000000,-8.545591,0.437966,5.27109,0.27362,0.23662,0.45271
1694787273007812,-8.544591,0.440966,5.27109,0.31262,0.31862,0.43471
1694787273015625,-8.558591,0.433966,5.25109,0.35862,0.25562,0.37171
1694787273023437,-8.544591,0.431966,5.16109,0.48762,0.20862,0.38771
1694787273031250,-8.535591,0.446966,5.4109,0.40762,0.30262,0.40271
1694787273039062,-8.526591,0.455966,5.11109,0.26362,0.24062,0.32271
1694787273046875,-8.524591,0.453966,5.9109,0.40862,0.22462,0.37071
1694787273054687,-8.525591,0.468966,5.7109,0.48562,0.23962,0.35571
1694787273062500,-8.531591,0.460966,5.2109,0.32562,0.27062,0.37171
1694787273070312,-8.524591,0.453966,4.998109,0.47262,0.28762,0.37071
1694787273078125,-8.542591,0.471966,4.995109,0.50762,0.22662,0.33871
1694787273085937,-8.547591,0.471966,5.2109,0.42662,0.24162,0.32271
1694787273093750,-8.567591,0.474966,4.998109,0.37662,0.24162,0.32271
1694787273101562,-8.580591,0.472966,5.7109,0.42462,0.21062,0.30671
1694787273109375,-8.589591,0.467966,5.109,0.37662,0.27262,0.32271
1694787273117187,-8.596591,0.456966,5.4109,0.35762,0.23962,0.30771
1694787273125000,-8.598591,0.449966,5.9109,0.47162,0.23962,0.37171
1694787273132812,-8.598591,0.436966,5.14109,0.38762,0.30062,0.33971
1694787273140625,-8.594591,0.427966,5.16109,0.41962,0.36362,0.35671
1694787273148437,-8.595591,0.436966,5.14109,0.34362,0.31862,0.35471
1694787273156250,-8.580591,0.436966,5.9109,0.43762,0.41162,0.35571
1694787273164062,-8.574591,0.433966,5.4109,0.51462,0.47262,0.29271
1694787273171875,-8.571591,0.440966,5.4109,0.33962,0.45762,0.37171
1694787273179687,-8.551591,0.440966,5.16109,0.33862,0.48862,0.35571
1694787273187500,-8.547591,0.447966,5.16109,0.30962,0.48962,0.33971
1694787273195312,-8.542591,0.435966,5.109,0.40562,0.53562,0.40371
1694787273203125,-8.517591,0.433966,4.993109,0.40562,0.48962,0.32371
1694787273210937,-8.515591,0.437966,4.984109,0.36962,0.45662,0.30871
1694787273218750,-8.506591,0.444966,4.971109,0.37362,0.36562,0.29171
1694787273226562,-8.504591,0.464966,4.995109,0.34262,0.39762,0.27471
1694787273234375,-8.509591,0.466966,4.993109,0.34162,0.25562,0.30771
1694787273242187,-8.497591,0.478966,4.998109,0.42862,0.27462,0.28971
1694787273250000,-8.502591,0.477966,5.11109,0.34362,0.19462,0.24271
1694787273257812,-8.520591,0.473966,5.25109,0.42562,0.21062,0.29071
1694787273265625,-8.533591,0.467966,5.18109,0.40962,0.19562,0.27471
1694787273273437,-8.542591,0.478966,5.11109,0.47462,0.25762,0.29071
1694787273281250,-8.540591,0.483966,5.52109,0.31362,0.27362,0.27471
1694787273289062,-8.540591,0.496966,5.74109,0.24762,0.30462,0.27471
1694787273296875,-8.549591,0.491966,5.84109,0.37262,0.41262,0.22771
1694787273304687,-8.542591,0.445966,5.70109,0.39162,0.30362,0.27471
1694787273312500,-8.554591,0.475966,5.18109,0.40562,0.22462,0.27571
1694787273320312,-8.539591,0.506966,5.41109,0.30662,0.28662,0.22771
1694787273328125,-8.544591,0.476966,4.986109,0.28062,0.33662,0.27471
1694787273335937,-8.524591,0.453966,5.109,0.27662,0.42762,0.29171
1694787273343750,-8.517591,0.444966,4.980109,0.31262,0.25762,0.25871
1694787273351562,-8.553591,0.453966,4.941109,0.34062,0.24062,0.27571
1694787273359375,-8.545591,0.464966,5.27109,0.32662,0.28762,0.32371
1694787273367187,-8.540591,0.462966,5.122109,0.26262,0.27262,0.30671
1694787273375000,-8.524591,0.471966,5.102109,0.20062,0.14662,0.40271
1694787273382812,-8.524591,0.460966,5.45109,0.21762,0.6962,0.35471
1694787273390625,-8.516591,0.459966,4.964109,0.27862,0.462,0.40371
1694787273398437,-8.517591,0.471966,4.955109,0.29862,0.3938,0.33771
1694787273406250,-8.540591,0.485966,4.991109,0.41162,0.11762,0.28971
1694787273414062,-8.560591,0.480966,5.7109,0.47462,0.11662,0.33871
1694787273421875,-8.595591,0.462966,4.989109,0.47962,0.9662,0.29371
1694787273429687,-8.633591,0.474966,4.948109,0.49962,0.8262,0.29271
1694787273437500,-8.640591,0.473966,4.919109,0.47762,0.10362,0.27371
1694787273445312,-8.635591,0.483966,4.930109,0.51762,0.11562,0.19571
1694787273453125,-8.605591,0.499966,4.944109,0.50362,0.17862,0.24371
1694787273460937,-8.584591,0.497966,4.948109,0.52962,0.20862,0.16471
1694787273468750,-8.574591,0.493966,4.943109,0.53362,0.19362,0.21171
1694787273476562,-8.570591,0.489966,4.941109,0.54762,0.20962,0.14871
1694787273484375,-8.567591,0.462966,4.937109,0.56562,0.22462,0.21171
1694787273492187,-8.563591,0.469966,4.932109,0.62862,0.19262,0.22871
1694787273500000,-8.574591,0.453966,4.925109,0.51262,0.20762,0.18071
1694787273507812,-8.574591,0.449966,4.923109,0.53062,0.19262,0.19671
1694787273515625,-8.576591,0.440966,4.937109,0.51562,0.20862,0.21271
1694787273523437,-8.574591,0.444966,4.959109,0.49862,0.20762,0.24471
1694787273531250,-8.576591,0.438966,4.953109,0.51562,0.19262,0.22871
1694787273539062,-8.582591,0.436966,4.957109,0.51662,0.20962,0.21171
1694787273546875,-8.587591,0.425966,4.966109,0.50062,0.23962,0.29171
1694787273554687,-8.585591,0.413966,4.955109,0.51262,0.25262,0.30871
1694787273562500,-8.580591,0.419966,4.959109,0.47362,0.28762,0.33871
1694787273570312,-8.577591,0.416966,4.953109,0.48862,0.33462,0.32271
1694787273578125,-8.588591,0.405966,4.950109,0.40862,0.28862,0.30671
1694787273585937,-8.584591,0.410966,4.957109,0.29462,0.35062,0.32271
1694787273593750,-8.587591,0.423966,4.948109,0.46962,0.41162,0.29171
1694787273601562,-8.575591,0.407966,4.944109,0.38962,0.42762,0.32371
1694787273609375,-8.597591,0.401966,4.934109,0.42162,0.42762,0.29171
1694787273617187,-8.598591,0.405966,4.860109,0.51662,0.44262,0.29171
1694787273625000,-8.567591,0.407966,5.109,0.49962,0.42562,0.30871
1694787273632812,-8.566591,0.434966,4.998109,0.32862,0.28862,0.27471
1694787273640625,-8.568591,0.438966,4.986109,0.29662,0.27362,0.29071
1694787273648437,-8.544591,0.460966,4.982109,0.30962,0.19462,0.22771
1694787273656250,-8.542591,0.472966,4.966109,0.46062,0.35362,0.27371
1694787273664062,-8.537591,0.463966,5.9109,0.42962,0.24362,0.28971
1694787273671875,-8.538591,0.476966,5.25109,0.48962,0.28962,0.27471
1694787273679687,-8.565591,0.471966,5.20109,0.37562,0.27262,0.29071
1694787273687500,-8.569591,0.474966,4.984109,0.37662,0.19462,0.27471
1694787273695312,-8.560591,0.467966,4.998109,0.40962,0.21062,0.30671
1694787273703125,-8.565591,0.471966,4.998109,0.42162,0.24062,0.29171
1694787273710937,-8.560591,0.469966,4.993109,0.42162,0.30262,0.29171
1694787273718750,-8.567591,0.471966,5.2109,0.43862,0.30362,0.27571
1694787273726562,-8.559591,0.473966,4.995109,0.48362,0.34762,0.32471
1694787273734375,-8.563591,0.460966,4.991109,0.46862,0.42662,0.32371
1694787273742187,-8.553591,0.440966,4.986109,0.40662,0.36562,0.33971
1694787273750000,-8.553591,0.432966,4.989109,0.32862,0.36662,0.32271
1694787273757812,-8.560591,0.436966,4.986109,0.37462,0.42762,0.37171
1694787273765625,-8.559591,0.432966,4.989109,0.50562,0.44462,0.35471
1694787273773437,-8.560591,0.434966,4.991109,0.39262,0.33462,0.33871
1694787273781250,-8.569591,0.445966,4.984109,0.34462,0.30362,0.35471
1694787273789062,-8.576591,0.445966,4.995109,0.39062,0.25462,0.41971
1694787273796875,-8.564591,0.440966,5.109,0.39062,0.27062,0.40371
1694787273804687,-8.562591,0.438966,4.982109,0.39462,0.25662,0.40271
1694787273812500,-8.573591,0.438966,4.984109,0.45662,0.27162,0.35471
1694787273820312,-8.573591,0.436966,4.977109,0.40962,0.30462,0.32271
1694787273828125,-8.573591,0.442966,4.957109,0.35862,0.25562,0.37171
1694787273835937,-8.573591,0.442966,4.964109,0.35762,0.31762,0.35571
1694787273843750,-8.574591,0.442966,4.946109,0.29162,0.25462,0.33971
1694787273851562,-8.575591,0.441966,4.939109,0.34462,0.24062,0.38671
1694787273859375,-8.571591,0.449966,4.946109,0.30962,0.27062,0.38771
1694787273867187,-8.571591,0.460966,4.939109,0.31162,0.22462,0.41871
1694787273875000,-8.577591,0.457966,4.928109,0.31762,0.28962,0.40171
1694787273882812,-8.578591,0.469966,4.930109,0.26162,0.22362,0.35571
1694787273890625,-8.590591,0.465966,4.928109,0.35662,0.23962,0.33971
1694787273898437,-8.582591,0.457966,4.923109,0.31562,0.32062,0.38571
1694787273906250,-8.591591,0.466966,4.912109,0.29762,0.25762,0.30671
1694787273914062,-8.603591,0.467966,4.928109,0.35662,0.34862,0.32371
1694787273921875,-8.601591,0.469966,4.928109,0.38862,0.41062,0.38771
1694787273929687,-8.592591,0.462966,4.925109,0.29162,0.36362,0.35571
1694787273937500,-8.591591,0.457966,4.925109,0.24862,0.42862,0.37071
1694787273945312,-8.587591,0.454966,4.921109,0.30862,0.33262,0.38771
1694787273953125,-8.578591,0.451966,4.921109,0.27562,0.39462,0.41971
1694787273960937,-8.577591,0.437966,4.914109,0.34862,0.43062,0.38571
1694787273968750,-8.568591,0.441966,4.928109,0.34562,0.36662,0.33871
1694787273976562,-8.590591,0.446966,4.937109,0.23862,0.39362,0.32471
1694787273984375,-8.573591,0.439966,4.939109,0.31162,0.42862,0.33871
1694787273992187,-8.580591,0.443966,4.944109,0.34462,0.34962,0.41871
1694787274000000,-8.580591,0.449966,4.946109,0.30962,0.42662,0.38771
1694787274007812,-8.573591,0.447966,4.955109,0.32762,0.44362,0.38671
1694787274015625,-8.576591,0.462966,4.955109,0.27662,0.39562,0.40371
1694787274023437,-8.574591,0.467966,4.955109,0.24362,0.44062,0.45171
1694787274031250,-8.576591,0.474966,4.953109,0.34162,0.37962,0.38771
1694787274039062,-8.569591,0.472966,4.955109,0.27962,0.42762,0.43471
1694787274046875,-8.570591,0.473966,4.955109,0.30762,0.45662,0.45171
1694787274054687,-8.565591,0.471966,4.943109,0.29362,0.44162,0.43571
1694787274062500,-8.561591,0.464966,4.948109,0.37162,0.39362,0.45171
1694787274070312,-8.558591,0.475966,4.950109,0.27762,0.39462,0.45171
1694787274078125,-8.558591,0.494966,4.948109,0.27962,0.38062,0.37071
1694787274085937,-8.563591,0.502966,4.946109,0.24562,0.31662,0.45171
1694787274093750,-8.550591,0.499966,4.955109,0.27362,0.26862,0.34071
1694787274101562,-8.556591,0.507966,4.955109,0.27862,0.23962,0.38671
1694787274109375,-8.554591,0.502966,4.975109,0.30862,0.30162,0.38771
1694787274117187,-8.554591,0.489966,4.975109,0.32962,0.25762,0.33871
1694787274125000,-8.567591,0.485966,4.966109,0.32962,0.28762,0.38671
1694787274132812,-8.565591,0.494966,4.991109,0.24962,0.38262,0.37071
1694787274140625,-8.557591,0.502966,5.45109,0.25962,0.52062,0.33971
1694787274148437,-8.561591,0.500966,5.20109,0.24762,0.45962,0.33871
1694787274156250,-8.554591,0.480966,5.45109,0.26162,0.42862,0.29071
1694787274164062,-8.554591,0.466966,4.993109,0.33762,0.34662,0.34071
1694787274171875,-8.554591,0.511966,4.995109,0.24662,0.35062,0.29071
1694787274179687,-8.554591,0.516966,4.955109,0.26362,0.38262,0.27471
1694787274187500,-8.558591,0.489966,4.930109,0.21062,0.42662,0.30771
1694787274195312,-8.554591,0.473966,4.941109,0.21262,0.38062,0.32371
1694787274203125,-8.580591,0.472966,4.921109,0.26262,0.35062,0.32271
1694787274210937,-8.612591,0.510966,4.950109,0.26262,0.41262,0.32271
1694787274218750,-8.603591,0.483966,5.56109,0.21362,0.33362,0.33971
1694787274226562,-8.585591,0.485966,5.75109,0.13262,0.23962,0.33871
1694787274234375,-8.570591,0.494966,5.16109,0.15062,0.13062,0.40271
1694787274242187,-8.543591,0.504966,4.946109,0.18062,0.12962,0.41971
1694787274250000,-8.550591,0.513966,4.907109,0.26562,0.2262,0.40271
1694787274257812,-8.550591,0.520966,4.930109,0.24762,0.14662,0.43471
1694787274265625,-8.567591,0.507966,4.971109,0.26362,0.19362,0.35471
1694787274273437,-8.603591,0.508966,4.980109,0.33062,0.21162,0.27471
1694787274281250,-8.644591,0.490966,4.939109,0.38962,0.27162,0.27571
1694787274289062,-8.645591,0.489966,4.914109,0.47562,0.22762,0.29071
1694787274296875,-8.628591,0.481966,4.894109,0.40662,0.24162,0.25971
1694787274304687,-8.616591,0.481966,4.903109,0.47162,0.22662,0.14671
1694787274312500,-8.579591,0.484966,4.930109,0.33762,0.33362,0.14871
1694787274320312,-8.582591,0.475966,4.957109,0.42862,0.37062,0.16171
1694787274328125,-8.569591,0.487966,4.937109,0.47162,0.35162,0.19571
1694787274335937,-8.569591,0.483966,4.934109,0.50662,0.43262,0.11471
1694787274343750,-8.553591,0.476966,4.930109,0.51862,0.32062,0.13171
1694787274351562,-8.560591,0.471966,4.907109,0.50162,0.31962,0.16371
1694787274359375,-8.560591,0.469966,4.930109,0.47162,0.27462,0.9871
1694787274367187,-8.572591,0.474966,4.916109,0.43662,0.35062,0.14771
1694787274375000,-8.565591,0.471966,4.930109,0.48762,0.35162,0.19571
1694787274382812,-8.569591,0.474966,4.943109,0.43662,0.39762,0.17971
1694787274390625,-8.576591,0.471966,4.943109,0.43662,0.39662,0.24371
1694787274398437,-8.574591,0.474966,4.939109,0.45562,0.35062,0.25871
1694787274406250,-8.578591,0.467966,4.932109,0.37562,0.35162,0.22671
1694787274414062,-8.576591,0.463966,4.943109,0.29262,0.39662,0.24371
1694787274421875,-8.574591,0.454966,4.946109,0.35562,0.42762,0.22771
1694787274429687,-8.594591,0.463966,4.934109,0.35662,0.44362,0.21171
1694787274437500,-8.603591,0.474966,4.941109,0.42362,0.46062,0.25871
1694787274445312,-8.614591,0.474966,4.934109,0.32062,0.44162,0.26071
1694787274453125,-8.619591,0.479966,4.930109,0.32362,0.45962,0.19571
1694787274460937,-8.626591,0.480966,4.939109,0.27062,0.42562,0.19671
1694787274468750,-8.634591,0.474966,4.871109,0.41962,0.39662,0.16371
1694787274476562,-8.612591,0.468966,4.916109,0.37162,0.53762,0.17971
1694787274484375,-8.574591,0.482966,5.29109,0.38362,0.47362,0.13271
1694787274492187,-8.583591,0.503966,4.962109,0.24362,0.49162,0.19571
1694787274500000,-8.563591,0.509966,4.962109,0.25862,0.45962,0.14771
1694787274507812,-8.543591,0.511966,4.930109,0.27662,0.38262,0.13171
1694787274515625,-8.529591,0.503966,4.948109,0.36162,0.46362,0.13071
1694787274523437,-8.522591,0.498966,4.975109,0.38962,0.50762,0.14771
1694787274531250,-8.532591,0.504966,4.977109,0.38762,0.41362,0.9971
1694787274539062,-8.545591,0.495966,4.950109,0.32162,0.46062,0.3571
1694787274546875,-8.549591,0.471966,4.959109,0.33662,0.38162,0.8471
1694787274554687,-8.563591,0.469966,4.950109,0.27462,0.35162,0.6771
1694787274562500,-8.560591,0.471966,4.941109,0.33962,0.43062,0.3571
1694787274570312,-8.563591,0.464966,4.943109,0.27262,0.42862,0.2071
1694787274578125,-8.571591,0.465966,4.964109,0.24262,0.44562,0.3571
1694787274585937,-8.591591,0.468966,4.966109,0.27662,0.46262,0.1871
1694787274593750,-8.589591,0.470966,4.975109,0.35562,0.44562,0.3571
1694787274601562,-8.594591,0.461966,4.973109,0.29162,0.46062,0.8371
1694787274609375,-8.599591,0.460966,4.975109,0.23862,0.45962,0.3671
1694787274617187,-8.596591,0.470966,4.984109,0.25762,0.46062,0.8371
1694787274625000,-8.596591,0.463966,4.991109,0.23862,0.50562,0.8471
1694787274632812,-8.598591,0.443966,5.5109,0.29162,0.49262,0.5171
1694787274640625,-8.589591,0.449966,4.998109,0.35262,0.47462,0.16471
1694787274648437,-8.582591,0.443966,5.2109,0.25762,0.47462,0.19571
1694787274656250,-8.567591,0.449966,5.2109,0.27662,0.52262,0.19571
1694787274664062,-8.564591,0.445966,5.9109,0.26162,0.46062,0.21071
1694787274671875,-8.573591,0.430966,5.4109,0.24762,0.49162,0.27471
1694787274679687,-8.552591,0.425966,4.984109,0.26362,0.47662,0.25871
1694787274687500,-8.559591,0.423966,4.977109,0.24562,0.41262,0.24371
1694787274695312,-8.555591,0.427966,4.966109,0.26062,0.44462,0.19571
1694787274703125,-8.564591,0.427966,4.968109,0.21062,0.49062,0.21171
1694787274710937,-8.569591,0.427966,4.973109,0.20962,0.36362,0.27571
1694787274718750,-8.568591,0.438966,4.971109,0.26262,0.36662,0.25871
1694787274726562,-8.564591,0.438966,4.971109,0.24262,0.42862,0.14771
1694787274734375,-8.575591,0.445966,4.962109,0.24462,0.44462,0.17971
1694787274742187,-8.566591,0.443966,4.964109,0.23062,0.46162,0.17871
1694787274750000,-8.562591,0.454966,4.971109,0.27962,0.44562,0.19471
1694787274757812,-8.569591,0.451966,4.968109,0.32362,0.45962,0.14771
1694787274765625,-8.578591,0.454966,4.980109,0.26062,0.44462,0.19571
1694787274773437,-8.574591,0.460966,4.982109,0.27462,0.44362,0.21171
1694787274781250,-8.560591,0.469966,4.984109,0.32562,0.44462,0.19571
1694787274789062,-8.556591,0.462966,4.977109,0.35762,0.44462,0.22771
1694787274804687,-8.555591,0.469966,4.984109,0.37662,0.44562,0.22671
1694787274812500,-8.558591,0.466966,4.982109,0.32162,0.45762,0.26071
1694787274820312,-8.558591,0.469966,4.986109,0.41962,0.44362,0.21171
1694787274828125,-8.562591,0.458966,4.991109,0.47162,0.46162,0.17871
1694787274835937,-8.565591,0.455966,4.989109,0.49862,0.41062,0.26071
1694787274843750,-8.560591,0.447966,4.984109,0.50162,0.41162,0.29171
1694787274851562,-8.571591,0.434966,5.4109,0.43562,0.45862,0.22771
1694787274859375,-8.575591,0.434966,5.11109,0.48862,0.46062,0.29071
1694787274867187,-8.580591,0.427966,5.109,0.51862,0.49062,0.30771
1694787274875000,-8.578591,0.434966,5.7109,0.50262,0.47462,0.33971
1694787274882812,-8.594591,0.434966,5.9109,0.48562,0.50562,0.32371
1694787274890625,-8.596591,0.432966,5.5109,0.47062,0.49062,0.30771
1694787274898437,-8.605591,0.434966,5.109,0.33962,0.47362,0.30771
1694787274906250,-8.602591,0.430966,4.993109,0.48762,0.50662,0.27571
1694787274914062,-8.599591,0.415966,4.980109,0.44062,0.46062,0.30671
1694787274921875,-8.588591,0.412966,5.109,0.44062,0.46062,0.30671
1694787274929687,-8.586591,0.421966,4.982109,0.44062,0.44462,0.30671
