time,Acceleration X (m/s^2),Acceleration Y (m/s^2),Acceleration Z (m/s^2),Angular Velocity X (rad/s),Angular Velocity Y (rad/s),Angular Velocity Z (rad/s)
1700767671750000,-9.669365,-1.379979,1.443924,-0.031609,,
1700767671757812,-9.673365,-1.392979,1.449924,0.28309,0.63215,0.29118
1700767671765625,-9.644365,-1.406979,1.465924,0.24609,0.70815,0.29218
1700767671773437,-9.615365,-1.413979,1.468924,0.26109,0.69115,0.29318
1700767671781250,-9.610365,-1.411979,1.461924,0.27709,0.69115,0.32518
1700767671789062,-9.603365,-1.413979,1.461924,0.25309,0.68015,0.33818
1700767671804687,-9.612365,-1.426979,1.476924,0.26709,0.61715,0.32318
1700767671812500,-9.630365,-1.410979,1.476924,0.25409,0.55515,0.33818
1700767671820312,-9.647365,-1.384979,1.447924,0.31009,0.52015,0.26118
1700767671828125,-9.658365,-1.390979,1.434924,0.29409,0.50415,0.26118
1700767671851562,-9.672365,-1.425979,1.449924,0.25209,0.64915,0.24218
1700767671859375,-9.664365,-1.432979,1.452924,0.28009,0.77215,0.22818
1700767671867187,-9.652365,-1.425979,1.438924,0.36509,0.69615,0.27418
1700767671875000,-9.623365,-1.442979,1.443924,0.26609,0.77215,0.30718
1700767671882812,-9.610365,-1.451979,1.456924,0.27609,0.70715,0.24518
1700767671890625,-9.580365,-1.440979,1.451924,0.27109,0.63515,0.29018
1700767671898437,-9.576365,-1.436979,1.465924,0.24809,0.66315,0.19618
1700767671906250,-9.583365,-1.442979,1.465924,0.22309,0.55715,0.27418
1700767671914062,-9.605365,-1.431979,1.472924,0.21809,0.54015,0.17918
1700767671921875,-9.612365,-1.431979,1.476924,0.23509,0.57015,0.29118
1700767671929687,-9.634365,-1.423979,1.479924,0.27209,0.55915,0.20918
1700767671937500,-9.632365,-1.426979,1.481924,0.25109,0.50815,0.22718
1700767671945312,-9.632365,-1.415979,1.485924,0.18609,0.55515,0.21118
1700767671953125,-9.628365,-1.412979,1.476924,0.17509,0.59015,0.22518
1700767671960937,-9.630365,-1.410979,1.470924,0.16109,0.51315,0.16018
1700767671968750,-9.641365,-1.417979,1.454924,0.13509,0.53815,0.19518
1700767671976562,-9.614365,-1.413979,1.472924,0.18709,0.60315,0.17818
1700767671984375,-9.617365,-1.397979,1.465924,0.21609,0.55415,0.16318
1700767671992187,-9.619365,-1.404979,1.476924,0.2609,0.58715,0.17818
1700767672000000,-9.606365,-1.391979,1.476924,0.8809,0.58615,0.17918
1700767672007812,-9.599365,-1.395979,1.490924,0.12109,0.55515,0.16318
1700767672015625,-9.588365,-1.396979,1.481924,0.11709,0.49015,0.18018
1700767672023437,-9.606365,-1.389979,1.481924,0.16609,0.55215,0.19618
1700767672031250,-9.615365,-1.386979,1.485924,0.5609,0.55515,0.19518
1700767672039062,-9.639365,-1.393979,1.483924,0.7209,0.63315,0.21118
1700767672046875,-9.658365,-1.392979,1.501924,0.3809,0.64715,0.19618
1700767672054687,-9.660365,-1.401979,1.492924,0.13609,0.60015,0.24418
1700767672062500,-9.662365,-1.404979,1.468924,0.9909,0.62915,0.24518
1700767672070312,-9.633365,-1.393979,1.477924,0.14809,0.58215,0.26118
1700767672078125,-9.617365,-1.411979,1.483924,0.18509,0.58615,0.17918
1700767672085937,-9.614365,-1.426979,1.508924,0.15409,0.57215,0.11418
1700767672093750,-9.630365,-1.437979,1.510924,0.9909,0.53615,0.16518
1700767672101562,-9.652365,-1.443979,1.488924,0.10309,0.53815,0.16318
1700767672109375,-9.655365,-1.446979,1.481924,0.13309,0.50615,0.16418
1700767672117187,-9.655365,-1.448979,1.479924,0.8009,0.61215,0.18118
1700767672125000,-9.648365,-1.441979,1.492924,0.20109,0.71115,0.22718
1700767672132812,-9.619365,-1.428979,1.519924,0.19909,0.64715,0.19618
1700767672140625,-9.596365,-1.428979,1.517924,0.15609,0.71315,0.17818
1700767672148437,-9.579365,-1.420979,1.515924,0.15009,0.69415,0.16418
1700767672156250,-9.590365,-1.433979,1.519924,0.7309,0.69615,0.17818
1700767672164062,-9.590365,-1.435979,1.533924,0.709,0.60215,0.11518
1700767672171875,-9.605365,-1.437979,1.540924,0.609,0.66415,0.9918
1700767672179687,-9.626365,-1.428979,1.517924,0.891,0.67915,0.17918
1700767672187500,-9.632365,-1.428979,1.524924,0.2109,0.67815,0.16418
1700767672195312,-9.648365,-1.428979,1.506924,0.0,0.66115,0.11718
1700767672203125,-9.628365,-1.431979,1.499924,0.5109,0.70815,0.16418
1700767672210937,-9.601365,-1.428979,1.517924,0.2391,0.74315,0.17818
1700767672218750,-9.589365,-1.431979,1.533924,0.1109,0.71315,0.19418
1700767672226562,-9.581365,-1.429979,1.522924,0.1291,0.70815,0.19618
1700767672234375,-9.583365,-1.431979,1.519924,0.3991,0.75815,0.22618
1700767672242187,-9.595365,-1.427979,1.522924,0.16091,0.75315,0.19718
1700767672250000,-9.606365,-1.420979,1.515924,0.17391,0.72315,0.24418
1700767672257812,-9.628365,-1.419979,1.485924,0.12191,0.66315,0.19518
1700767672265625,-9.619365,-1.406979,1.490924,0.2791,0.74115,0.13218
1700767672273437,-9.613365,-1.418979,1.486924,0.1491,0.75315,0.18118
1700767672281250,-9.621365,-1.426979,1.492924,0.6991,0.72815,0.17818
1700767672289062,-9.621365,-1.433979,1.508924,0.2591,0.77315,0.21118
1700767672296875,-9.612365,-1.426979,1.499924,0.2109,0.67815,0.14818
1700767672304687,-9.616365,-1.426979,1.519924,0.1009,0.72915,0.13018
1700767672312500,-9.612365,-1.430979,1.535924,0.1109,0.63515,0.16218
1700767672320312,-9.596365,-1.429979,1.535924,0.891,0.58615,0.17918
1700767672328125,-9.581365,-1.442979,1.519924,0.2691,0.63115,0.16418
1700767672335937,-9.579365,-1.433979,1.528924,0.1091,0.66315,0.18018
1700767672343750,-9.583365,-1.429979,1.546924,0.4191,0.67915,0.16318
1700767672351562,-9.594365,-1.431979,1.547924,0.4691,0.67615,0.16518
1700767672359375,-9.610365,-1.431979,1.533924,0.4291,0.66215,0.18018
1700767672367187,-9.603365,-1.437979,1.544924,0.4191,0.66415,0.16318
1700767672375000,-9.609365,-1.446979,1.524924,0.1309,0.62115,0.17718
1700767672382812,-9.608365,-1.447979,1.535924,0.1491,0.61315,0.16518
1700767672390625,-9.596365,-1.448979,1.524924,0.691,0.66515,0.16218
1700767672398437,-9.607365,-1.451979,1.522924,0.5791,0.63315,0.9918
1700767672406250,-9.590365,-1.435979,1.542924,0.891,0.60215,0.16318
1700767672414062,-9.594365,-1.422979,1.556924,0.9391,0.61515,0.14818
1700767672421875,-9.603365,-1.400979,1.546924,0.491,0.66615,0.21018
1700767672429687,-9.632365,-1.399979,1.512924,0.2709,0.68215,0.19418
1700767672437500,-9.655365,-1.403979,1.499924,0.709,0.67915,0.19518
1700767672445312,-9.662365,-1.403979,1.517924,0.791,0.74315,0.17818
1700767672453125,-9.660365,-1.408979,1.528924,0.509,0.72515,0.19618
1700767672460937,-9.643365,-1.417979,1.540924,0.1009,0.76015,0.16218
1700767672468750,-9.617365,-1.431979,1.517924,0.991,0.72615,0.13118
1700767672476562,-9.598365,-1.446979,1.513924,0.509,0.69415,0.16418
1700767672484375,-9.583365,-1.449979,1.490924,0.8609,0.67815,0.18018
1700767672492187,-9.572365,-1.436979,1.522924,0.5609,0.66415,0.22718
1700767672500000,-9.565365,-1.436979,1.524924,0.509,0.66315,0.18018
1700767672507812,-9.568365,-1.423979,1.529924,0.291,0.64215,0.13418
1700767672515625,-9.581365,-1.427979,1.526924,0.3609,0.56815,0.19618
1700767672523437,-9.585365,-1.431979,1.528924,0.2409,0.50815,0.17918
1700767672531250,-9.583365,-1.422979,1.524924,0.10509,0.53915,0.17918
1700767672539062,-9.574365,-1.416979,1.537924,0.12309,0.51015,0.14618
1700767672546875,-9.603365,-1.415979,1.517924,0.7209,0.58615,0.16318
1700767672554687,-9.614365,-1.415979,1.515924,0.5809,0.60315,0.16218
1700767672562500,-9.612365,-1.426979,1.513924,0.10709,0.51015,0.17818
1700767672570312,-9.621365,-1.424979,1.499924,0.19909,0.53915,0.11518
1700767672578125,-9.616365,-1.426979,1.497924,0.19209,0.63815,0.14418
1700767672585937,-9.588365,-1.422979,1.504924,0.15109,0.56915,0.19518
1700767672593750,-9.599365,-1.422979,1.531924,0.12209,0.55715,0.11418
1700767672601562,-9.597365,-1.414979,1.531924,0.6609,0.53615,0.14918
1700767672609375,-9.601365,-1.420979,1.535924,0.15609,0.54015,0.24218
1700767672617187,-9.637365,-1.413979,1.526924,0.11709,0.55215,0.19618
1700767672625000,-9.626365,-1.410979,1.526924,0.9309,0.54115,0.24218
1700767672632812,-9.648365,-1.408979,1.540924,0.5409,0.58515,0.17918
1700767672640625,-9.642365,-1.411979,1.533924,0.10109,0.53715,0.16418
1700767672648437,-9.639365,-1.408979,1.522924,0.23509,0.60315,0.14618
1700767672656250,-9.639365,-1.426979,1.522924,0.15409,0.69715,0.16218
1700767672664062,-9.614365,-1.424979,1.517924,0.10409,0.66415,0.17918
1700767672671875,-9.612365,-1.422979,1.506924,0.16309,0.67615,0.19718
1700767672679687,-9.603365,-1.424979,1.515924,0.28109,0.71115,0.16318
1700767672687500,-9.596365,-1.426979,1.531924,0.21809,0.69715,0.14618
1700767672695312,-9.596365,-1.424979,1.522924,0.21909,0.66515,0.17818
1700767672703125,-9.581365,-1.425979,1.515924,0.26209,0.64615,0.16418
1700767672710937,-9.587365,-1.420979,1.508924,0.22209,0.57315,0.21018
1700767672718750,-9.603365,-1.422979,1.522924,0.15209,0.61815,0.14718
1700767672726562,-9.608365,-1.426979,1.515924,0.16709,0.58515,0.14718
1700767672734375,-9.617365,-1.424979,1.515924,0.23409,0.53915,0.21118
1700767672742187,-9.616365,-1.426979,1.497924,0.23509,0.63415,0.17818
1700767672750000,-9.603365,-1.424979,1.492924,0.21809,0.57115,0.17918
1700767672757812,-9.601365,-1.429979,1.508924,0.22709,0.63015,0.14918
1700767672765625,-9.608365,-1.433979,1.510924,0.22609,0.56615,0.18118
1700767672773437,-9.601365,-1.436979,1.513924,0.25709,0.61115,0.21418
1700767672781250,-9.610365,-1.449979,1.515924,0.20009,0.66215,0.24418
1700767672789062,-9.609365,-1.441979,1.526924,0.23909,0.69915,0.20918
1700767672796875,-9.616365,-1.455979,1.519924,0.21709,0.61715,0.19518
1700767672804687,-9.632365,-1.466979,1.515924,0.21709,0.52215,0.22718
1700767672812500,-9.645365,-1.468979,1.506924,0.26609,0.63315,0.21118
1700767672820312,-9.627365,-1.470979,1.515924,0.13709,0.60215,0.19518
1700767672828125,-9.605365,-1.459979,1.517924,0.10609,0.57215,0.11418
1700767672835937,-9.598365,-1.462979,1.503924,0.18709,0.57215,0.17818
1700767672843750,-9.599365,-1.449979,1.506924,0.24409,0.53615,0.14918
1700767672851562,-9.594365,-1.433979,1.504924,0.16709,0.52315,0.13118
1700767672859375,-9.610365,-1.429979,1.495924,0.20009,0.52315,0.16318
1700767672867187,-9.601365,-1.438979,1.481924,0.22809,0.55115,0.19718
1700767672875000,-9.605365,-1.446979,1.497924,0.19109,0.48115,0.11318
1700767672882812,-9.612365,-1.455979,1.506924,0.23409,0.50815,0.19518
1700767672890625,-9.630365,-1.462979,1.513924,0.13109,0.52015,0.16518
1700767672898437,-9.640365,-1.461979,1.499924,0.14309,0.52815,0.16118
1700767672906250,-9.641365,-1.466979,1.479924,0.15109,0.53815,0.16318
1700767672914062,-9.636365,-1.475979,1.486924,0.19809,0.58415,0.19618
1700767672921875,-9.607365,-1.470979,1.515924,0.23609,0.61915,0.21018
1700767672929687,-9.598365,-1.475979,1.508924,0.25509,0.63715,0.19318
1700767672937500,-9.600365,-1.484979,1.499924,0.23409,0.58615,0.17918
1700767672945312,-9.597365,-1.495979,1.506924,0.12509,0.58815,0.21018
1700767672953125,-9.600365,-1.500979,1.499924,0.18409,0.55315,0.25918
1700767672960937,-9.593365,-1.509979,1.504924,0.21009,0.55015,0.19718
1700767672968750,-9.582365,-1.498979,1.506924,0.5509,0.63115,0.26018
1700767672976562,-9.575365,-1.502979,1.503924,0.391,0.61915,0.22618
1700767672984375,-9.559365,-1.491979,1.503924,0.1309,0.65215,0.19318
1700767672992187,-9.546365,-1.466979,1.501924,0.109,0.57515,0.20718
1700767673000000,-9.567365,-1.462979,1.526924,0.791,0.58615,0.19518
1700767673007812,-9.598365,-1.455979,1.519924,0.709,0.60215,0.17918
1700767673015625,-9.618365,-1.453979,1.504924,0.791,0.50815,0.16318
1700767673023437,-9.670365,-1.452979,1.486924,0.5409,0.56915,0.14718
1700767673031250,-9.674365,-1.467979,1.474924,0.2409,0.50815,0.14718
1700767673039062,-9.686365,-1.476979,1.461924,0.1291,0.53515,0.22918
1700767673046875,-9.674365,-1.478979,1.472924,0.1109,0.63315,0.30618
1700767673054687,-9.656365,-1.485979,1.481924,0.591,0.64915,0.29018
1700767673062500,-9.629365,-1.494979,1.472924,0.1009,0.71115,0.30618
1700767673070312,-9.609365,-1.488979,1.472924,0.691,0.77315,0.29118
1700767673078125,-9.588365,-1.485979,1.488924,0.409,0.74815,0.25418
1700767673085937,-9.573365,-1.471979,1.503924,0.391,0.72815,0.29018
1700767673093750,-9.551365,-1.460979,1.515924,0.1509,0.71515,0.27218
1700767673101562,-9.551365,-1.456979,1.519924,0.591,0.69515,0.29018
1700767673109375,-9.567365,-1.449979,1.508924,0.291,0.65115,0.24118
1700767673117187,-9.574365,-1.453979,1.510924,0.7391,0.69515,0.17918
1700767673125000,-9.605365,-1.464979,1.524924,0.4191,0.60015,0.21218
1700767673132812,-9.612365,-1.455979,1.519924,0.2291,0.60315,0.16218
1700767673140625,-9.614365,-1.457979,1.519924,0.509,0.61615,0.18018
1700767673148437,-9.634365,-1.459979,1.499924,0.0,0.62115,0.22418
1700767673156250,-9.649365,-1.463979,1.497924,0.1409,0.66715,0.25718
1700767673164062,-9.656365,-1.456979,1.488924,0.291,0.68315,0.24118
1700767673171875,-9.638365,-1.443979,1.488924,0.3491,0.72915,0.28918
1700767673179687,-9.616365,-1.439979,1.499924,0.4509,0.80715,0.25718
1700767673187500,-9.592365,-1.428979,1.512924,0.191,0.80815,0.24018
1700767673195312,-9.576365,-1.434979,1.524924,0.2691,0.78715,0.26018
1700767673203125,-9.554365,-1.425979,1.526924,0.291,0.69815,0.24118
1700767673210937,-9.556365,-1.425979,1.546924,0.5491,0.64915,0.21018
1700767673218750,-9.574365,-1.417979,1.549924,0.3109,0.66915,0.17618
1700767673226562,-9.605365,-1.422979,1.546924,0.11009,0.62115,0.16118
1700767673234375,-9.641365,-1.426979,1.553924,0.5809,0.64915,0.25818
1700767673242187,-9.670365,-1.423979,1.551924,0.4709,0.60615,0.19218
1700767673250000,-9.677365,-1.434979,1.560924,0.809,0.71015,0.27518
1700767673257812,-9.664365,-1.419979,1.549924,0.12209,0.75815,0.21018
1700767673265625,-9.630365,-1.410979,1.549924,0.809,0.74115,0.27518
1700767673273437,-9.601365,-1.407979,1.528924,0.11709,0.76915,0.34018
1700767673281250,-9.601365,-1.406979,1.537924,0.7609,0.75915,0.27418
1700767673289062,-9.583365,-1.402979,1.537924,0.4309,0.69515,0.30618
1700767673296875,-9.570365,-1.385979,1.546924,0.7609,0.74315,0.29018
1700767673304687,-9.579365,-1.387979,1.551924,0.10709,0.74215,0.32218
1700767673312500,-9.599365,-1.384979,1.533924,0.10409,0.75715,0.25918
1700767673320312,-9.609365,-1.367979,1.544924,0.10309,0.72415,0.29218
1700767673328125,-9.633365,-1.404979,1.533924,0.8709,0.72415,0.27618
1700767673335937,-9.619365,-1.406979,1.528924,0.11709,0.70715,0.30818
1700767673343750,-9.605365,-1.415979,1.515924,0.5809,0.66515,0.22618
1700767673351562,-9.612365,-1.415979,1.537924,0.6409,0.66815,0.28818
1700767673359375,-9.621365,-1.427979,1.549924,0.8109,0.71615,0.20718
1700767673367187,-9.618365,-1.427979,1.558924,0.13109,0.82515,0.28718
1700767673375000,-9.617365,-1.413979,1.555924,0.12709,0.79115,0.33718
1700767673382812,-9.617365,-1.415979,1.560924,0.15709,0.75915,0.30618
1700767673390625,-9.592365,-1.417979,1.551924,0.7809,0.69615,0.37018
1700767673398437,-9.581365,-1.411979,1.569924,0.21909,0.66315,0.32318
1700767673406250,-9.574365,-1.420979,1.583924,0.15209,0.72415,0.34018
1700767673414062,-9.565365,-1.412979,1.576924,0.16809,0.64615,0.32418
1700767673421875,-9.592365,-1.422979,1.580924,0.17109,0.63215,0.33918
1700767673429687,-9.608365,-1.444979,1.598924,0.10409,0.64615,0.32418
1700767673437500,-9.630365,-1.453979,1.587924,0.17009,0.61715,0.27518
1700767673445312,-9.627365,-1.457979,1.573924,0.7809,0.72915,0.24118
1700767673453125,-9.610365,-1.437979,1.576924,0.18509,0.77315,0.22718
1700767673460937,-9.587365,-1.429979,1.578924,0.13809,0.75915,0.17818
1700767673468750,-9.576365,-1.420979,1.573924,0.23509,0.77415,0.22618
1700767673476562,-9.579365,-1.411979,1.578924,0.24909,0.75815,0.19518
1700767673484375,-9.581365,-1.389979,1.583924,0.26609,0.72615,0.27518
1700767673492187,-9.579365,-1.391979,1.574924,0.18509,0.71015,0.24318
1700767673500000,-9.597365,-1.384979,1.576924,0.20609,0.60415,0.29018
1700767673507812,-9.615365,-1.382979,1.576924,0.25409,0.60415,0.22618
1700767673515625,-9.621365,-1.393979,1.580924,0.19209,0.55815,0.24118
1700767673523437,-9.612365,-1.408979,1.601924,0.26909,0.68215,0.19418
1700767673531250,-9.612365,-1.412979,1.600924,0.25909,0.63815,0.25518
1700767673539062,-9.617365,-1.410979,1.607924,0.25509,0.68315,0.20918
1700767673546875,-9.601365,-1.418979,1.607924,0.8909,0.72515,0.30718
1700767673554687,-9.610365,-1.433979,1.594924,0.18509,0.71015,0.25918
1700767673562500,-9.612365,-1.426979,1.592924,0.23609,0.77415,0.29018
1700767673570312,-9.603365,-1.415979,1.583924,0.18509,0.72615,0.25918
1700767673578125,-9.594365,-1.397979,1.585924,0.23909,0.69915,0.24118
1700767673585937,-9.581365,-1.389979,1.592924,0.22109,0.71315,0.21018
1700767673593750,-9.579365,-1.395979,1.598924,0.12609,0.57415,0.17718
1700767673601562,-9.596365,-1.406979,1.605924,0.27509,0.66915,0.19118
1700767673609375,-9.616365,-1.403979,1.596924,0.14509,0.66915,0.15918
1700767673617187,-9.634365,-1.398979,1.587924,0.23009,0.57715,0.17318
1700767673625000,-9.635365,-1.388979,1.580924,0.22009,0.52515,0.17818
1700767673632812,-9.635365,-1.395979,1.580924,0.15809,0.63715,0.19318
1700767673640625,-9.625365,-1.405979,1.587924,0.27409,0.70115,0.15918
1700767673648437,-9.612365,-1.419979,1.610924,0.21909,0.68115,0.16218
1700767673656250,-9.596365,-1.440979,1.603924,0.13509,0.64715,0.21218
1700767673664062,-9.596365,-1.431979,1.607924,0.15909,0.66715,0.28918
1700767673671875,-9.581365,-1.422979,1.619924,0.13609,0.66215,0.32418
1700767673679687,-9.576365,-1.413979,1.614924,0.4209,0.71115,0.30618
1700767673687500,-9.576365,-1.411979,1.616924,0.6009,0.74315,0.29018
1700767673695312,-9.579365,-1.413979,1.619924,0.4309,0.74415,0.24218
1700767673703125,-9.581365,-1.411979,1.610924,0.11009,0.57215,0.27418
1700767673710937,-9.581365,-1.418979,1.594924,0.6009,0.60415,0.22618
1700767673718750,-9.592365,-1.430979,1.605924,0.0,0.63715,0.24018
1700767673726562,-9.587365,-1.428979,1.605924,0.1509,0.60415,0.30518
1700767673734375,-9.588365,-1.429979,1.601924,0.2309,0.64615,0.30818
1700767673742187,-9.606365,-1.408979,1.585924,0.1209,0.65015,0.22618
1700767673750000,-9.605365,-1.426979,1.578924,0.591,0.58715,0.24218
1700767673757812,-9.607365,-1.433979,1.598924,0.1109,0.54015,0.27418
1700767673765625,-9.605365,-1.433979,1.583924,0.591,0.54015,0.22618
1700767673773437,-9.612365,-1.428979,1.583924,0.591,0.63315,0.25818
1700767673781250,-9.608365,-1.424979,1.589924,0.491,0.63315,0.30618
1700767673789062,-9.599365,-1.424979,1.596924,0.591,0.63315,0.29018
1700767673796875,-9.585365,-1.411979,1.587924,0.691,0.69615,0.21018
1700767673804687,-9.569365,-1.415979,1.596924,0.391,0.73015,0.19318
1700767673812500,-9.572365,-1.411979,1.610924,0.1609,0.71615,0.17518
1700767673820312,-9.570365,-1.414979,1.607924,0.791,0.61715,0.22718
1700767673828125,-9.579365,-1.434979,1.607924,0.309,0.66115,0.18018
1700767673835937,-9.590365,-1.420979,1.596924,0.391,0.55715,0.21018
1700767673843750,-9.601365,-1.422979,1.605924,0.1991,0.51015,0.19418
1700767673851562,-9.606365,-1.422979,1.607924,0.609,0.58515,0.19618
1700767673859375,-9.612365,-1.415979,1.607924,0.1091,0.56915,0.16318
1700767673867187,-9.621365,-1.417979,1.605924,0.809,0.50815,0.17918
1700767673875000,-9.621365,-1.415979,1.596924,0.1091,0.64715,0.13218
1700767673882812,-9.624365,-1.410979,1.601924,0.691,0.69615,0.21018
1700767673890625,-9.612365,-1.411979,1.607924,0.609,0.74215,0.14718
1700767673898437,-9.597365,-1.404979,1.596924,0.691,0.66515,0.16218
1700767673906250,-9.608365,-1.400979,1.598924,0.409,0.61415,0.22818
1700767673914062,-9.617365,-1.393979,1.592924,0.691,0.71215,0.17818
1700767673921875,-9.619365,-1.379979,1.610924,0.3309,0.77915,0.20618
1700767673929687,-9.615365,-1.359979,1.605924,0.4509,0.71415,0.17718
1700767673937500,-9.609365,-1.360979,1.596924,0.7409,0.61815,0.21018
1700767673945312,-9.602365,-1.366979,1.596924,0.15709,0.62015,0.21018
1700767673953125,-9.588365,-1.387979,1.601924,0.18809,0.65115,0.16218
1700767673960937,-9.586365,-1.395979,1.612924,0.20409,0.69815,0.14618
1700767673968750,-9.599365,-1.402979,1.605924,0.28109,0.68015,0.9918
1700767673976562,-9.603365,-1.408979,1.603924,0.19109,0.63715,0.17718
1700767673984375,-9.599365,-1.411979,1.585924,0.20409,0.68215,0.16218
1700767673992187,-9.601365,-1.417979,1.594924,0.23509,0.68115,0.19418
1700767674000000,-9.610365,-1.406979,1.614924,0.22509,0.70015,0.20818
1700767674007812,-9.601365,-1.400979,1.623924,0.10509,0.61715,0.21118
1700767674015625,-9.592365,-1.413979,1.612924,0.12409,0.66615,0.22618
1700767674023437,-9.592365,-1.422979,1.617924,0.11809,0.58315,0.26018
1700767674031250,-9.583365,-1.416979,1.612924,0.16509,0.69215,0.26018
1700767674039062,-9.590365,-1.411979,1.616924,0.15209,0.75715,0.19518
1700767674046875,-9.587365,-1.417979,1.625924,0.14109,0.76115,0.14518
1700767674054687,-9.585365,-1.422979,1.623924,0.10809,0.71315,0.22618
1700767674062500,-9.585365,-1.418979,1.630924,0.12209,0.68115,0.19418
1700767674070312,-9.578365,-1.427979,1.621924,0.15509,0.63415,0.19418
1700767674078125,-9.581365,-1.429979,1.619924,0.12609,0.66815,0.19318
1700767674085937,-9.576365,-1.431979,1.628924,0.10509,0.53915,0.19518
1700767674093750,-9.579365,-1.429979,1.626924,0.11909,0.60015,0.24418
1700767674101562,-9.576365,-1.435979,1.621924,0.11109,0.55815,0.20918
1700767674109375,-9.569365,-1.429979,1.630924,0.7609,0.63515,0.21018
1700767674117187,-9.581365,-1.435979,1.632924,0.4209,0.61815,0.19418
1700767674125000,-9.594365,-1.426979,1.639924,0.6209,0.68315,0.27318
1700767674132812,-9.605365,-1.412979,1.623924,0.14409,0.68415,0.20818
1700767674140625,-9.614365,-1.408979,1.612924,0.22409,0.59015,0.24118
1700767674148437,-9.622365,-1.397979,1.614924,0.21509,0.69415,0.21218
1700767674156250,-9.608365,-1.406979,1.641924,0.20509,0.62015,0.21018
1700767674164062,-9.603365,-1.420979,1.639924,0.17109,0.61815,0.21018
1700767674171875,-9.603365,-1.406979,1.646924,0.22109,0.68215,0.21018
1700767674179687,-9.604365,-1.391979,1.646924,0.17009,0.66515,0.17818
1700767674187500,-9.577365,-1.405979,1.666924,0.23609,0.64915,0.25818
1700767674195312,-9.552365,-1.418979,1.659924,0.11809,0.60115,0.16318
1700767674203125,-9.568365,-1.422979,1.668924,0.12109,0.52415,0.16318
1700767674210937,-9.579365,-1.411979,1.673924,0.20809,0.60515,0.22518
1700767674218750,-9.585365,-1.427979,1.664924,0.25009,0.57115,0.19518
1700767674226562,-9.606365,-1.431979,1.644924,0.19809,0.64615,0.22818
1700767674234375,-9.614365,-1.430979,1.630924,0.22109,0.65115,0.21018
1700767674242187,-9.612365,-1.446979,1.644924,0.23209,0.69415,0.24418
1700767674250000,-9.603365,-1.459979,1.644924,0.17009,0.75915,0.21018
1700767674257812,-9.580365,-1.460979,1.635924,0.23409,0.71015,0.29118
1700767674265625,-9.567365,-1.460979,1.625924,0.17209,0.71315,0.17818
1700767674273437,-9.558365,-1.462979,1.621924,0.28109,0.69615,0.16318
1700767674281250,-9.542365,-1.458979,1.639924,0.17109,0.64915,0.24218
1700767674289062,-9.545365,-1.449979,1.653924,0.12309,0.55615,0.21018
1700767674296875,-9.563365,-1.429979,1.659924,0.10609,0.53915,0.25918
1700767674304687,-9.588365,-1.424979,1.668924,0.8909,0.60115,0.21118
1700767674312500,-9.596365,-1.437979,1.664924,0.9209,0.65115,0.19418
1700767674320312,-9.601365,-1.419979,1.664924,0.17509,0.66815,0.20918
1700767674328125,-9.599365,-1.411979,1.655924,0.22309,0.65215,0.19318
1700767674335937,-9.606365,-1.418979,1.653924,0.3909,0.61515,0.24418
1700767674343750,-9.614365,-1.426979,1.643924,0.12509,0.69715,0.27418
1700767674351562,-9.610365,-1.431979,1.637924,0.8609,0.63115,0.21218
1700767674359375,-9.599365,-1.431979,1.623924,0.9109,0.63315,0.25818
1700767674367187,-9.601365,-1.433979,1.616924,0.14309,0.60515,0.24118
1700767674375000,-9.592365,-1.427979,1.614924,0.15109,0.61615,0.19618
1700767674382812,-9.583365,-1.429979,1.614924,0.17109,0.60315,0.21018
1700767674390625,-9.581365,-1.434979,1.619924,0.14709,0.59815,0.21318
1700767674398437,-9.570365,-1.425979,1.634924,0.20409,0.57215,0.21018
1700767674406250,-9.558365,-1.427979,1.625924,0.20809,0.54315,0.19318
1700767674414062,-9.563365,-1.420979,1.625924,0.10609,0.60315,0.17818
1700767674421875,-9.561365,-1.416979,1.635924,0.13409,0.52115,0.27618
1700767674429687,-9.563365,-1.414979,1.628924,0.21809,0.60215,0.19518
1700767674437500,-9.594365,-1.406979,1.634924,0.18709,0.65015,0.16218
1700767674445312,-9.604365,-1.393979,1.639924,0.20009,0.61615,0.24418
1700767674453125,-9.595365,-1.398979,1.641924,0.21409,0.72415,0.24418
1700767674460937,-9.586365,-1.403979,1.630924,0.14909,0.66115,0.24418
1700767674468750,-9.597365,-1.418979,1.632924,0.3409,0.59815,0.21318
1700767674476562,-9.592365,-1.436979,1.628924,0.13309,0.64615,0.19618
1700767674484375,-9.590365,-1.429979,1.607924,0.7309,0.61715,0.22718
1700767674492187,-9.579365,-1.416979,1.616924,0.16809,0.63115,0.27618
1700767674500000,-9.579365,-1.418979,1.619924,0.23309,0.60015,0.27618
1700767674507812,-9.583365,-1.411979,1.630924,0.12209,0.58615,0.25918
1700767674515625,-9.592365,-1.410979,1.641924,0.17709,0.52915,0.17618
1700767674523437,-9.601365,-1.400979,1.650924,0.8909,0.50815,0.16318
1700767674531250,-9.604365,-1.411979,1.628924,0.15009,0.52115,0.21218
1700767674539062,-9.619365,-1.408979,1.623924,0.17009,0.57015,0.22718
1700767674546875,-9.620365,-1.398979,1.621924,0.8509,0.53715,0.19618
1700767674554687,-9.617365,-1.398979,1.619924,0.13609,0.60015,0.24418
1700767674562500,-9.613365,-1.389979,1.617924,0.13309,0.53715,0.16418
1700767674570312,-9.604365,-1.391979,1.614924,0.5409,0.53815,0.17918
1700767674578125,-9.591365,-1.380979,1.621924,0.6709,0.59815,0.19718
1700767674585937,-9.600365,-1.387979,1.619924,0.16609,0.61415,0.27618
1700767674593750,-9.598365,-1.387979,1.619924,0.9409,0.59415,0.26318
1700767674601562,-9.584365,-1.381979,1.626924,0.16409,0.61315,0.24518
1700767674609375,-9.579365,-1.394979,1.626924,0.13109,0.59815,0.21318
1700767674617187,-9.581365,-1.418979,1.621924,0.2009,0.55015,0.29318
1700767674625000,-9.588365,-1.427979,1.632924,0.13009,0.51915,0.19718
1700767674632812,-9.588365,-1.425979,1.619924,0.11809,0.50615,0.19618
1700767674640625,-9.605365,-1.426979,1.610924,0.15309,0.55515,0.17918
1700767674648437,-9.614365,-1.426979,1.619924,0.22109,0.58915,0.19418
1700767674656250,-9.619365,-1.431979,1.630924,0.23109,0.56815,0.24418
1700767674664062,-9.612365,-1.420979,1.626924,0.16709,0.58315,0.29218
1700767674671875,-9.601365,-1.420979,1.619924,0.18709,0.60115,0.30718
1700767674679687,-9.588365,-1.422979,1.614924,0.12009,0.60015,0.26018
1700767674687500,-9.593365,-1.405979,1.608924,0.14909,0.55015,0.32518
1700767674695312,-9.579365,-1.398979,1.619924,0.16809,0.56915,0.27518
1700767674703125,-9.597365,-1.389979,1.619924,0.24409,0.52015,0.16518
1700767674710937,-9.611365,-1.393979,1.610924,0.21609,0.53815,0.22718
1700767674718750,-9.606365,-1.400979,1.616924,0.11909,0.52315,0.17918
1700767674726562,-9.615365,-1.399979,1.616924,0.15909,0.51215,0.19318
1700767674734375,-9.604365,-1.402979,1.619924,0.10309,0.53815,0.19518
1700767674742187,-9.608365,-1.391979,1.610924,0.15609,0.52515,0.21018
1700767674750000,-9.602365,-1.398979,1.605924,0.10009,0.50415,0.21318
1700767674757812,-9.604365,-1.403979,1.601924,0.1509,0.53315,0.18218
1700767674765625,-9.604365,-1.391979,1.610924,0.3909,0.53815,0.21118
1700767674773437,-9.595365,-1.389979,1.612924,0.3809,0.56915,0.16318
1700767674781250,-9.600365,-1.387979,1.610924,0.4509,0.50115,0.16718
1700767674789062,-9.600365,-1.371979,1.612924,0.16909,0.52415,0.17918
1700767674796875,-9.611365,-1.354979,1.610924,0.19609,0.53615,0.18118
1700767674804687,-9.609365,-1.355979,1.607924,0.21809,0.50815,0.21118
1700767674812500,-9.598365,-1.354979,1.612924,0.26309,0.53715,0.22818
1700767674820312,-9.580365,-1.356979,1.610924,0.24909,0.52215,0.24318
1700767674828125,-9.591365,-1.351979,1.607924,0.24909,0.50715,0.22718
1700767674835937,-9.615365,-1.367979,1.612924,0.23309,0.52215,0.24318
1700767674843750,-9.635365,-1.408979,1.619924,0.24909,0.53815,0.21118
1700767674851562,-9.655365,-1.424979,1.617924,0.21409,0.63015,0.22818
1700767674859375,-9.628365,-1.428979,1.619924,0.28809,0.66815,0.24118
1700767674867187,-9.630365,-1.437979,1.612924,0.31609,0.65015,0.21018
1700767674875000,-9.601365,-1.431979,1.601924,0.26609,0.69515,0.22718
1700767674882812,-9.572365,-1.431979,1.596924,0.24909,0.63315,0.17918
1700767674890625,-9.543365,-1.421979,1.610924,0.24909,0.66415,0.17918
1700767674898437,-9.541365,-1.425979,1.621924,0.26609,0.57115,0.16318
1700767674906250,-9.541365,-1.405979,1.616924,0.25009,0.50915,0.17918
1700767674914062,-9.565365,-1.402979,1.619924,0.26809,0.52515,0.17818
1700767674921875,-9.590365,-1.389979,1.621924,0.10609,0.51015,0.14618
1700767674929687,-9.612365,-1.390979,1.619924,0.11409,0.52915,0.17518
1700767674937500,-9.628365,-1.402979,1.616924,0.13909,0.52515,0.19418
1700767674945312,-9.622365,-1.393979,1.621924,0.16309,0.62915,0.16518
1700767674953125,-9.631365,-1.397979,1.610924,0.13309,0.56815,0.16418
1700767674960937,-9.613365,-1.391979,1.601924,0.22809,0.61415,0.19718
1700767674968750,-9.591365,-1.389979,1.603924,0.26209,0.63115,0.18018
1700767674976562,-9.577365,-1.391979,1.612924,0.24809,0.60115,0.16318
1700767674984375,-9.574365,-1.409979,1.614924,0.26409,0.53815,0.17918
1700767674992187,-9.572365,-1.416979,1.619924,0.24809,0.53915,0.16318
1700767675000000,-9.572365,-1.433979,1.614924,0.23409,0.50915,0.16318
1700767675007812,-9.594365,-1.438979,1.616924,0.20209,0.50815,0.17918
1700767675015625,-9.599365,-1.424979,1.605924,0.22209,0.52715,0.16118
1700767675023437,-9.599365,-1.426979,1.610924,0.25209,0.54115,0.17818
1700767675031250,-9.601365,-1.428979,1.607924,0.22209,0.57315,0.21018
1700767675039062,-9.603365,-1.437979,1.616924,0.27409,0.59115,0.19218
1700767675046875,-9.592365,-1.440979,1.628924,0.25209,0.65015,0.21018
1700767675054687,-9.610365,-1.438979,1.621924,0.21409,0.61415,0.26018
1700767675062500,-9.619365,-1.437979,1.612924,0.17009,0.63215,0.25918
1700767675070312,-9.596365,-1.433979,1.623924,0.27009,0.60415,0.22618
1700767675078125,-9.587365,-1.417979,1.610924,0.24209,0.51315,0.17618
1700767675085937,-9.574365,-1.409979,1.612924,0.10509,0.52415,0.17918
1700767675093750,-9.581365,-1.409979,1.610924,0.19609,0.50515,0.16518
1700767675101562,-9.579365,-1.411979,1.621924,0.22009,0.52515,0.17818
1700767675109375,-9.595365,-1.402979,1.614924,0.18509,0.57115,0.19518
1700767675117187,-9.608365,-1.420979,1.610924,0.16909,0.52415,0.16318
1700767675125000,-9.621365,-1.426979,1.598924,0.21809,0.55515,0.22718
1700767675132812,-9.643365,-1.428979,1.594924,0.26709,0.60115,0.25918
1700767675140625,-9.637365,-1.430979,1.601924,0.25209,0.60315,0.19418
1700767675148437,-9.614365,-1.431979,1.605924,0.26709,0.50815,0.25918
1700767675156250,-9.605365,-1.433979,1.596924,0.17209,0.58715,0.25818
1700767675164062,-9.592365,-1.429979,1.596924,0.18809,0.61815,0.25818
1700767675171875,-9.588365,-1.425979,1.596924,0.20009,0.58515,0.19518
1700767675179687,-9.576365,-1.425979,1.587924,0.20209,0.52415,0.16318
1700767675187500,-9.575365,-1.430979,1.605924,0.19209,0.58015,0.18218
1700767675195312,-9.588365,-1.427979,1.612924,0.16709,0.55415,0.17918
1700767675203125,-9.603365,-1.447979,1.608924,0.3409,0.50515,0.16518
1700767675210937,-9.606365,-1.447979,1.599924,0.7909,0.51815,0.18218
1700767675218750,-9.610365,-1.448979,1.589924,0.13709,0.55515,0.21118
1700767675226562,-9.621365,-1.432979,1.589924,0.2909,0.54115,0.25818
1700767675234375,-9.610365,-1.428979,1.589924,0.7709,0.63515,0.25818
1700767675242187,-9.595365,-1.414979,1.605924,0.5209,0.55115,0.27718
1700767675250000,-9.599365,-1.402979,1.594924,0.13409,0.53615,0.26018
1700767675257812,-9.599365,-1.414979,1.603924,0.8309,0.56615,0.24518
1700767675265625,-9.604365,-1.425979,1.589924,0.19609,0.52015,0.16518
1700767675273437,-9.619365,-1.451979,1.596924,0.15009,0.50515,0.24418
1700767675281250,-9.607365,-1.464979,1.607924,0.18909,0.52715,0.14518
1700767675289062,-9.602365,-1.463979,1.598924,0.24309,0.51415,0.17518
1700767675296875,-9.595365,-1.454979,1.596924,0.13009,0.51315,0.19118
1700767675304687,-9.596365,-1.419979,1.596924,0.11309,0.52815,0.19218
1700767675312500,-9.597365,-1.418979,1.603924,0.15009,0.50615,0.18018
1700767675320312,-9.608365,-1.411979,1.603924,0.6909,0.52115,0.16418
1700767675328125,-9.606365,-1.402979,1.596924,0.9109,0.50915,0.21018
1700767675335937,-9.613365,-1.409979,1.594924,0.20009,0.52315,0.16318
1700767675343750,-9.616365,-1.415979,1.580924,0.21009,0.55915,0.22418
1700767675351562,-9.610365,-1.424979,1.574924,0.21909,0.53915,0.25918
1700767675359375,-9.601365,-1.413979,1.580924,0.18909,0.50915,0.25818
1700767675367187,-9.599365,-1.411979,1.592924,0.10009,0.53515,0.22918
1700767675375000,-9.599365,-1.418979,1.605924,0.5309,0.56815,0.19618
1700767675382812,-9.601365,-1.427979,1.610924,0.19509,0.50315,0.21318
1700767675390625,-9.594365,-1.433979,1.610924,0.13609,0.52215,0.21118
1700767675398437,-9.594365,-1.442979,1.608924,0.14709,0.56715,0.16518
1700767675406250,-9.601365,-1.442979,1.596924,0.10309,0.50715,0.21118
1700767675414062,-9.596365,-1.442979,1.576924,0.13709,0.55515,0.19518
1700767675421875,-9.605365,-1.433979,1.592924,0.16809,0.53815,0.22718
1700767675429687,-9.610365,-1.417979,1.591924,0.24109,0.52715,0.30518
1700767675437500,-9.612365,-1.422979,1.589924,0.5509,0.52215,0.25918
1700767675445312,-9.621365,-1.413979,1.596924,0.4309,0.57115,0.24218
1700767675453125,-9.630365,-1.415979,1.578924,0.7409,0.52315,0.25918
1700767675460937,-9.630365,-1.408979,1.592924,0.3909,0.52215,0.22718
1700767675468750,-9.606365,-1.400979,1.603924,0.17309,0.52515,0.27418
1700767675476562,-9.590365,-1.396979,1.614924,0.15309,0.60115,0.22718
1700767675484375,-9.599365,-1.391979,1.589924,0.19209,0.55815,0.24118
1700767675492187,-9.599365,-1.396979,1.601924,0.23209,0.53815,0.19518
1700767675500000,-9.617365,-1.415979,1.592924,0.24709,0.52115,0.24418
1700767675507812,-9.614365,-1.424979,1.603924,0.21809,0.53915,0.22718
1700767675515625,-9.613365,-1.422979,1.589924,0.21309,0.52015,0.24518
1700767675523437,-9.614365,-1.444979,1.574924,0.16809,0.56915,0.25918
1700767675531250,-9.614365,-1.440979,1.574924,0.12009,0.52215,0.22718
1700767675539062,-9.601365,-1.433979,1.569924,0.18409,0.58515,0.21118
1700767675546875,-9.585365,-1.427979,1.576924,0.26509,0.53815,0.25918
1700767675554687,-9.576365,-1.422979,1.574924,0.21709,0.53815,0.24318
1700767675562500,-9.581365,-1.416979,1.574924,0.15309,0.58415,0.30818
1700767675570312,-9.579365,-1.418979,1.576924,0.12009,0.58415,0.27618
1700767675578125,-9.577365,-1.394979,1.574924,0.12009,0.55315,0.24318
1700767675585937,-9.599365,-1.398979,1.583924,0.10309,0.50515,0.30818
1700767675593750,-9.606365,-1.393979,1.592924,0.10409,0.55315,0.32418
1700767675601562,-9.593365,-1.393979,1.585924,0.12309,0.53815,0.33918
1700767675609375,-9.597365,-1.397979,1.592924,0.6209,0.55615,0.30618
1700767675617187,-9.606365,-1.391979,1.573924,0.12809,0.52715,0.32118
1700767675625000,-9.606365,-1.395979,1.569924,0.709,0.55315,0.29218
1700767675632812,-9.617365,-1.386979,1.558924,0.2509,0.57015,0.25918
1700767675640625,-9.611365,-1.373979,1.555924,0.4509,0.57215,0.25818
1700767675648437,-9.616365,-1.371979,1.556924,0.8409,0.56615,0.26118
1700767675656250,-9.607365,-1.353979,1.556924,0.3909,0.52215,0.19518
1700767675664062,-9.591365,-1.356979,1.553924,0.7309,0.64815,0.29118
1700767675671875,-9.571365,-1.354979,1.569924,0.2609,0.57215,0.19418
1700767675679687,-9.562365,-1.381979,1.598924,0.4591,0.58215,0.19718
1700767675687500,-9.559365,-1.409979,1.594924,0.7109,0.53815,0.24318
1700767675695312,-9.574365,-1.411979,1.585924,0.15709,0.51115,0.19318
1700767675703125,-9.572365,-1.385979,1.558924,0.13809,0.52315,0.24318
1700767675710937,-9.577365,-1.360979,1.524924,0.23509,0.57215,0.16218
1700767675718750,-9.582365,-1.349979,1.524924,0.26409,0.52315,0.17918
1700767675726562,-9.589365,-1.329979,1.537924,0.25009,0.54015,0.17918
1700767675734375,-9.592365,-1.316979,1.549924,0.29409,0.52215,0.6818
1700767675742187,-9.592365,-1.318979,1.526924,0.29209,0.47415,0.10118
1700767675750000,-9.603365,-1.320979,1.506924,0.31109,0.49115,0.18018
1700767675757812,-9.605365,-1.318979,1.508924,0.28109,0.43015,0.16318
1700767675765625,-9.609365,-1.345979,1.508924,0.40309,0.44015,0.19818
1700767675773437,-9.616365,-1.355979,1.515924,0.50709,0.47715,0.17918
1700767675781250,-9.640365,-1.377979,1.506924,0.45609,0.38015,0.24418
1700767675789062,-9.661365,-1.412979,1.517924,0.45109,0.38815,0.19318
1700767675796875,-9.658365,-1.467979,1.519924,0.29209,0.51315,0.23918
1700767675804687,-9.669365,-1.503979,1.517924,0.32909,0.47415,0.27618
1700767675812500,-9.645365,-1.476979,1.535924,0.30609,0.54315,0.30518
1700767675820312,-9.630365,-1.451979,1.517924,0.35609,0.51915,0.22918
1700767675828125,-9.637365,-1.446979,1.479924,0.39409,0.50515,0.32418
1700767675835937,-9.626365,-1.422979,1.479924,0.44109,0.52115,0.26018
1700767675843750,-9.615365,-1.389979,1.483924,0.42709,0.52215,0.27518
1700767675851562,-9.613365,-1.362979,1.488924,0.42809,0.50915,0.19518
1700767675859375,-9.622365,-1.360979,1.472924,0.46109,0.52415,0.22718
1700767675867187,-9.645365,-1.353979,1.467924,0.44509,0.41515,0.19518
1700767675875000,-9.671365,-1.388979,1.483924,0.44209,0.41215,0.27618
1700767675882812,-9.671365,-1.426979,1.499924,0.45609,0.45815,0.29318
1700767675890625,-9.672365,-1.457979,1.517924,0.41009,0.41215,0.30818
1700767675898437,-9.645365,-1.459979,1.542924,0.32109,0.37015,0.32118
1700767675906250,-9.629365,-1.468979,1.576924,0.30309,0.47715,0.35418
1700767675914062,-9.631365,-1.483979,1.560924,0.26909,0.52315,0.38718
1700767675921875,-9.625365,-1.479979,1.558924,0.27209,0.52615,0.32218
1700767675929687,-9.621365,-1.457979,1.556924,0.21409,0.56615,0.34118
1700767675937500,-9.614365,-1.451979,1.565924,0.12109,0.49015,0.33918
1700767675945312,-9.628365,-1.431979,1.553924,0.12709,0.51615,0.31118
1700767675953125,-9.639365,-1.417979,1.560924,0.8309,0.50415,0.19718
1700767675960937,-9.654365,-1.391979,1.581924,0.2709,0.51315,0.31218
1700767675968750,-9.653365,-1.390979,1.585924,0.2509,0.55415,0.29118
1700767675976562,-9.655365,-1.395979,1.569924,0.12009,0.53815,0.22718
1700767675984375,-9.629365,-1.364979,1.583924,0.18609,0.55515,0.25918
1700767675992187,-9.607365,-1.362979,1.589924,0.23109,0.55215,0.26018
1700767676000000,-9.605365,-1.356979,1.585924,0.11409,0.59615,0.26118
1700767676007812,-9.613365,-1.364979,1.603924,0.11909,0.56915,0.19518
1700767676015625,-9.602365,-1.358979,1.585924,0.14709,0.66015,0.24518
1700767676023437,-9.600365,-1.380979,1.558924,0.18309,0.58315,0.27618
1700767676031250,-9.586365,-1.391979,1.567924,0.20009,0.66215,0.27618
1700767676039062,-9.606365,-1.402979,1.567924,0.13409,0.66115,0.29218
1700767676046875,-9.612365,-1.399979,1.573924,0.9209,0.71315,0.24218
1700767676054687,-9.619365,-1.424979,1.587924,0.10809,0.69815,0.17818
1700767676062500,-9.617365,-1.427979,1.594924,0.9809,0.62715,0.29418
1700767676070312,-9.612365,-1.438979,1.585924,0.10109,0.66115,0.24418
1700767676078125,-9.617365,-1.431979,1.565924,0.5109,0.64415,0.26118
1700767676085937,-9.604365,-1.425979,1.540924,0.3409,0.64415,0.21318
1700767676093750,-9.583365,-1.423979,1.533924,0.209,0.69115,0.21318
1700767676101562,-9.577365,-1.407979,1.526924,0.1091,0.61615,0.16418
1700767676109375,-9.579365,-1.400979,1.528924,0.291,0.60515,0.17718
1700767676117187,-9.586365,-1.400979,1.540924,0.609,0.53815,0.14718
1700767676125000,-9.599365,-1.407979,1.537924,0.1191,0.59915,0.19618
1700767676132812,-9.613365,-1.411979,1.535924,0.209,0.56615,0.21318
1700767676140625,-9.601365,-1.413979,1.540924,0.791,0.53915,0.19518
1700767676148437,-9.599365,-1.411979,1.537924,0.1209,0.54115,0.24218
1700767676156250,-9.608365,-1.426979,1.537924,0.5591,0.56915,0.29118
1700767676164062,-9.615365,-1.422979,1.542924,0.4391,0.61415,0.21218
1700767676171875,-9.628365,-1.420979,1.553924,0.5991,0.62915,0.29218
1700767676179687,-9.628365,-1.410979,1.528924,0.809,0.61715,0.21118
1700767676187500,-9.637365,-1.417979,1.533924,0.10291,0.63315,0.25818
1700767676195312,-9.644365,-1.426979,1.526924,0.6191,0.58215,0.24518
1700767676203125,-9.666365,-1.443979,1.533924,0.9491,0.59815,0.19718
1700767676210937,-9.641365,-1.444979,1.526924,0.17191,0.66215,0.18018
1700767676218750,-9.621365,-1.428979,1.519924,0.7591,0.66315,0.16418
1700767676226562,-9.596365,-1.424979,1.517924,0.5691,0.67915,0.24318
1700767676234375,-9.590365,-1.405979,1.522924,0.7591,0.66315,0.14818
1700767676242187,-9.579365,-1.387979,1.515924,0.5591,0.66515,0.11418
1700767676250000,-9.577365,-1.383979,1.526924,0.6091,0.64615,0.16418
1700767676257812,-9.595365,-1.392979,1.520924,0.6491,0.53415,0.14918
1700767676265625,-9.620365,-1.384979,1.515924,0.4591,0.53615,0.16518
1700767676273437,-9.613365,-1.366979,1.526924,0.2291,0.54015,0.17818
1700767676281250,-9.638365,-1.355979,1.524924,0.809,0.52415,0.16318
1700767676289062,-9.638365,-1.362979,1.538924,0.0,0.56515,0.18118
1700767676296875,-9.618365,-1.360979,1.537924,0.791,0.53915,0.21118
1700767676304687,-9.613365,-1.378979,1.540924,0.609,0.55415,0.16318
1700767676312500,-9.593365,-1.385979,1.542924,0.3191,0.62715,0.21318
1700767676320312,-9.586365,-1.407979,1.533924,0.3309,0.55015,0.19718
1700767676328125,-9.599365,-1.405979,1.526924,0.7009,0.52115,0.26018
1700767676335937,-9.601365,-1.415979,1.544924,0.2309,0.50715,0.22718
1700767676343750,-9.595365,-1.405979,1.556924,0.5109,0.55115,0.18118
1700767676351562,-9.600365,-1.398979,1.556924,0.91,0.51715,0.21418
1700767676359375,-9.609365,-1.403979,1.558924,0.6309,0.54815,0.21418
1700767676367187,-9.647365,-1.393979,1.567924,0.11209,0.54815,0.26218
1700767676375000,-9.656365,-1.379979,1.562924,0.5309,0.44315,0.19618
1700767676382812,-9.669365,-1.359979,1.544924,0.2109,0.55215,0.21218
1700767676390625,-9.663365,-1.362979,1.544924,0.8309,0.52015,0.19718
1700767676398437,-9.645365,-1.355979,1.553924,0.7309,0.53915,0.25918
1700767676406250,-9.631365,-1.362979,1.556924,0.13509,0.58515,0.21118
1700767676414062,-9.613365,-1.382979,1.555924,0.2409,0.67915,0.22718
1700767676421875,-9.602365,-1.391979,1.553924,0.7109,0.63115,0.22818
1700767676429687,-9.591365,-1.389979,1.551924,0.3609,0.63015,0.19618
1700767676437500,-9.599365,-1.396979,1.551924,0.15009,0.61415,0.24418
1700767676445312,-9.604365,-1.391979,1.549924,0.15009,0.64515,0.26018
1700767676453125,-9.602365,-1.391979,1.542924,0.13509,0.55215,0.32418
1700767676460937,-9.591365,-1.385979,1.547924,0.14909,0.66115,0.21218
1700767676468750,-9.588365,-1.380979,1.540924,0.7209,0.64815,0.19518
1700767676476562,-9.581365,-1.387979,1.540924,0.13809,0.53915,0.24318
1700767676484375,-9.579365,-1.385979,1.528924,0.16609,0.59915,0.21218
1700767676492187,-9.577365,-1.396979,1.531924,0.8309,0.55115,0.21318
1700767676500000,-9.600365,-1.389979,1.538924,0.6509,0.56515,0.21318
1700767676507812,-9.609365,-1.367979,1.526924,0.6809,0.50415,0.24518
1700767676515625,-9.627365,-1.351979,1.513924,0.21609,0.53615,0.37218
1700767676523437,-9.642365,-1.360979,1.515924,0.13609,0.52015,0.38818
1700767676531250,-9.647365,-1.366979,1.506924,0.10509,0.56815,0.38818
1700767676539062,-9.651365,-1.386979,1.515924,0.8909,0.58315,0.38818
1700767676546875,-9.635365,-1.371979,1.533924,0.7309,0.58315,0.38818
1700767676554687,-9.629365,-1.368979,1.533924,0.15709,0.61715,0.38618
1700767676562500,-9.617365,-1.364979,1.531924,0.18909,0.60215,0.38618
1700767676570312,-9.615365,-1.360979,1.551924,0.25509,0.63415,0.33818
1700767676578125,-9.611365,-1.365979,1.553924,0.21609,0.56715,0.34018
1700767676585937,-9.608365,-1.391979,1.553924,0.8709,0.60015,0.26018
1700767676593750,-9.600365,-1.371979,1.544924,0.19809,0.56815,0.24418
1700767676601562,-9.587365,-1.363979,1.533924,0.18109,0.61315,0.30918
1700767676609375,-9.591365,-1.356979,1.533924,0.18609,0.60115,0.27518
1700767676617187,-9.600365,-1.354979,1.531924,0.18309,0.63015,0.30818
1700767676625000,-9.613365,-1.342979,1.540924,0.7409,0.55415,0.27518
1700767676632812,-9.618365,-1.339979,1.526924,0.19109,0.68315,0.25718
1700767676640625,-9.636365,-1.346979,1.524924,0.15009,0.64515,0.29218
1700767676648437,-9.642365,-1.361979,1.517924,0.17209,0.61815,0.27418
1700767676656250,-9.631365,-1.377979,1.515924,0.26609,0.55315,0.30718
1700767676664062,-9.622365,-1.386979,1.513924,0.18209,0.59915,0.26018
1700767676671875,-9.619365,-1.388979,1.506924,0.20709,0.63415,0.32218
1700767676679687,-9.613365,-1.398979,1.506924,0.25909,0.61215,0.26118
1700767676687500,-9.624365,-1.409979,1.519924,0.24509,0.55115,0.27718
1700767676695312,-9.623365,-1.422979,1.510924,0.25009,0.50615,0.33918
1700767676703125,-9.612365,-1.417979,1.515924,0.26809,0.63215,0.33918
1700767676710937,-9.619365,-1.406979,1.508924,0.20209,0.58415,0.35618
1700767676718750,-9.617365,-1.399979,1.497924,0.10809,0.63315,0.32218
1700767676726562,-9.617365,-1.399979,1.501924,0.12609,0.60315,0.32218
1700767676734375,-9.622365,-1.397979,1.519924,0.8709,0.70815,0.32418
1700767676742187,-9.632365,-1.401979,1.521924,0.14509,0.71515,0.27218
1700767676750000,-9.653365,-1.403979,1.510924,0.7509,0.61815,0.25818
1700767676757812,-9.655365,-1.401979,1.510924,0.3809,0.61615,0.21218
1700767676765625,-9.655365,-1.397979,1.513924,0.10709,0.61815,0.25818
1700767676773437,-9.653365,-1.397979,1.501924,0.2209,0.67815,0.22818
1700767676781250,-9.642365,-1.393979,1.508924,0.7209,0.58615,0.19518
1700767676789062,-9.615365,-1.400979,1.510924,0.409,0.66115,0.26018
1700767676796875,-9.599365,-1.396979,1.513924,0.991,0.55415,0.17918
1700767676804687,-9.588365,-1.364979,1.521924,0.1609,0.54415,0.20818
1700767676812500,-9.579365,-1.357979,1.535924,0.0,0.52915,0.15918
1700767676820312,-9.605365,-1.349979,1.551924,0.2791,0.52115,0.19618
1700767676828125,-9.625365,-1.333979,1.549924,0.1009,0.55615,0.19418
1700767676835937,-9.627365,-1.322979,1.546924,0.691,0.63415,0.21018
1700767676843750,-9.636365,-1.319979,1.519924,0.1009,0.58715,0.24218
1700767676851562,-9.643365,-1.335979,1.519924,0.991,0.63115,0.22818
1700767676859375,-9.649365,-1.340979,1.499924,0.409,0.72315,0.24418
1700767676867187,-9.670365,-1.346979,1.506924,0.3291,0.73715,0.19818
1700767676875000,-9.652365,-1.349979,1.529924,0.8109,0.76915,0.16518
1700767676882812,-9.647365,-1.342979,1.501924,0.5109,0.78615,0.22818
1700767676890625,-9.620365,-1.347979,1.481924,0.6709,0.77015,0.18018
1700767676898437,-9.588365,-1.355979,1.485924,0.12309,0.74515,0.14618
1700767676906250,-9.574365,-1.378979,1.483924,0.191,0.70015,0.17618
1700767676914062,-9.565365,-1.389979,1.469924,0.3209,0.59015,0.25618
1700767676921875,-9.568365,-1.371979,1.465924,0.3009,0.62115,0.20918
1700767676929687,-9.582365,-1.360979,1.479924,0.6009,0.61915,0.22618
1700767676937500,-9.600365,-1.353979,1.497924,0.2809,0.55715,0.19418
1700767676945312,-9.620365,-1.371979,1.517924,0.3791,0.54015,0.19418
1700767676953125,-9.642365,-1.374979,1.515924,0.1409,0.52815,0.16118
1700767676960937,-9.651365,-1.386979,1.504924,0.2609,0.55615,0.17818
1700767676968750,-9.653365,-1.372979,1.506924,0.1109,0.50915,0.22618
1700767676976562,-9.649365,-1.359979,1.497924,0.791,0.52415,0.17918
1700767676984375,-9.636365,-1.353979,1.508924,0.809,0.53915,0.16318
1700767676992187,-9.628365,-1.364979,1.524924,0.1309,0.63615,0.19318
1700767677000000,-9.611365,-1.366979,1.535924,0.491,0.57315,0.17818
1700767677007812,-9.607365,-1.353979,1.549924,0.509,0.63215,0.16418
1700767677015625,-9.595365,-1.369979,1.558924,0.791,0.53915,0.17918
1700767677023437,-9.602365,-1.355979,1.546924,0.6009,0.57315,0.17818
1700767677031250,-9.602365,-1.344979,1.542924,0.1409,0.52815,0.16118
1700767677039062,-9.627365,-1.333979,1.535924,0.591,0.54015,0.17818
1700767677046875,-9.640365,-1.337979,1.535924,0.1091,0.53815,0.14718
1700767677054687,-9.642365,-1.333979,1.522924,0.5909,0.68215,0.16218
1700767677062500,-9.636365,-1.342979,1.531924,0.2609,0.60215,0.24218
1700767677070312,-9.638365,-1.335979,1.551924,0.691,0.58715,0.14618
1700767677078125,-9.642365,-1.339979,1.549924,0.2509,0.60315,0.13018
1700767677085937,-9.647365,-1.344979,1.526924,0.1009,0.57415,0.6618
1700767677093750,-9.647365,-1.340979,1.517924,0.1191,0.53715,0.19618
1700767677101562,-9.667365,-1.346979,1.533924,0.2609,0.55615,0.16218
1700767677109375,-9.672365,-1.335979,1.526924,0.4009,0.60115,0.21118
1700767677117187,-9.658365,-1.339979,1.540924,0.7209,0.69515,0.19518
1700767677125000,-9.643365,-1.337979,1.531924,0.11909,0.61515,0.26018
1700767677132812,-9.620365,-1.333979,1.535924,0.13609,0.74215,0.22718
1700767677140625,-9.602365,-1.338979,1.551924,0.10209,0.61615,0.18018
1700767677148437,-9.613365,-1.340979,1.567924,0.3909,0.66415,0.16318
1700767677156250,-9.613365,-1.346979,1.567924,0.4309,0.68215,0.19418
1700767677164062,-9.622365,-1.353979,1.555924,0.591,0.68015,0.25818
1700767677171875,-9.627365,-1.356979,1.544924,0.3209,0.68915,0.26218
1700767677179687,-9.636365,-1.344979,1.551924,0.991,0.74215,0.17918
1700767677187500,-9.629365,-1.329979,1.556924,0.509,0.74015,0.18018
1700767677195312,-9.611365,-1.320979,1.564924,0.2709,0.72815,0.19418
1700767677203125,-9.607365,-1.335979,1.553924,0.15609,0.69815,0.16218
1700767677210937,-9.602365,-1.342979,1.522924,0.1009,0.66515,0.22618
1700767677218750,-9.588365,-1.355979,1.517924,0.491,0.69715,0.19418
1700767677226562,-9.580365,-1.358979,1.528924,0.991,0.72615,0.16318
1700767677234375,-9.586365,-1.360979,1.537924,0.2091,0.66615,0.17818
1700767677242187,-9.597365,-1.355979,1.544924,0.9109,0.54115,0.17818
1700767677250000,-9.604365,-1.344979,1.535924,0.7209,0.61715,0.16318
1700767677257812,-9.620365,-1.342979,1.535924,0.5609,0.55515,0.17918
1700767677265625,-9.613365,-1.346979,1.537924,0.17509,0.55915,0.16118
1700767677273437,-9.618365,-1.340979,1.535924,0.7609,0.63515,0.17818
1700767677281250,-9.618365,-1.346979,1.526924,0.4609,0.57415,0.20918
1700767677289062,-9.624365,-1.351979,1.537924,0.8809,0.63315,0.19518
1700767677296875,-9.624365,-1.360979,1.537924,0.13609,0.69515,0.19518
1700767677304687,-9.617365,-1.359979,1.544924,0.15609,0.69815,0.14618
1700767677312500,-9.638365,-1.371979,1.555924,0.16809,0.71115,0.19518
1700767677320312,-9.649365,-1.379979,1.533924,0.10509,0.61715,0.21118
1700767677328125,-9.653365,-1.381979,1.515924,0.26809,0.65015,0.21018
1700767677335937,-9.626365,-1.391979,1.528924,0.16709,0.70915,0.21218
1700767677343750,-9.621365,-1.390979,1.540924,0.19509,0.63915,0.15818
1700767677351562,-9.612365,-1.395979,1.549924,0.14109,0.55815,0.17818
1700767677359375,-9.610365,-1.388979,1.549924,0.10809,0.52715,0.14518
1700767677367187,-9.610365,-1.391979,1.544924,0.7409,0.51015,0.14618
1700767677375000,-9.601365,-1.393979,1.549924,0.609,0.54015,0.5118
1700767677382812,-9.606365,-1.389979,1.553924,0.7109,0.52515,0.5118
1700767677390625,-9.611365,-1.389979,1.549924,0.6909,0.50815,0.318
1700767677398437,-9.615365,-1.355979,1.537924,0.22409,0.57615,0.8018
1700767677406250,-9.613365,-1.355979,1.542924,0.13709,0.57315,0.1818
1700767677414062,-9.626365,-1.359979,1.542924,0.15609,0.54515,0.7882
1700767677421875,-9.615365,-1.364979,1.544924,0.26809,0.54315,0.118
1700767677429687,-9.612365,-1.384979,1.540924,0.15809,0.53015,0.1582
1700767677437500,-9.613365,-1.398979,1.526924,0.17709,0.63115,0.1082
1700767677445312,-9.613365,-1.376979,1.513924,0.27409,0.58415,0.518
1700767677453125,-9.617365,-1.355979,1.512924,0.22309,0.60815,0.3218
1700767677460937,-9.618365,-1.351979,1.533924,0.21309,0.63115,0.13218
1700767677468750,-9.638365,-1.362979,1.549924,0.20309,0.61915,0.19418
1700767677476562,-9.658365,-1.375979,1.544924,0.16909,0.61715,0.16318
1700767677484375,-9.667365,-1.390979,1.528924,0.21609,0.56915,0.19518
1700767677492187,-9.673365,-1.410979,1.506924,0.23709,0.64915,0.30618
1700767677500000,-9.655365,-1.439979,1.504924,0.15109,0.60015,0.21118
1700767677507812,-9.623365,-1.444979,1.526924,0.15309,0.61715,0.22718
1700767677515625,-9.603365,-1.442979,1.528924,0.17009,0.74315,0.16218
1700767677523437,-9.583365,-1.438979,1.533924,0.7209,0.64815,0.22718
1700767677531250,-9.592365,-1.447979,1.533924,0.16509,0.67715,0.19618
1700767677539062,-9.592365,-1.442979,1.526924,0.3709,0.69415,0.16418
1700767677546875,-9.581365,-1.424979,1.531924,0.2609,0.66515,0.22618
1700767677554687,-9.579365,-1.420979,1.542924,0.909,0.60315,0.17818
1700767677562500,-9.596365,-1.417979,1.542924,0.491,0.57315,0.17818
1700767677570312,-9.623365,-1.415979,1.549924,0.909,0.55615,0.16218
1700767677578125,-9.630365,-1.388979,1.549924,0.1509,0.54415,0.17618
1700767677585937,-9.640365,-1.395979,1.542924,0.991,0.53815,0.16318
1700767677593750,-9.641365,-1.397979,1.537924,0.1309,0.57415,0.16118
1700767677601562,-9.630365,-1.397979,1.540924,0.291,0.57415,0.16118
1700767677609375,-9.610365,-1.398979,1.537924,0.609,0.55415,0.16318
1700767677617187,-9.612365,-1.404979,1.540924,0.891,0.61715,0.17918
1700767677625000,-9.608365,-1.402979,1.531924,0.5009,0.64515,0.16518
1700767677632812,-9.599365,-1.384979,1.519924,0.1309,0.62115,0.17718
1700767677640625,-9.606365,-1.376979,1.524924,0.2109,0.56815,0.22818
1700767677648437,-9.601365,-1.389979,1.517924,0.23409,0.58615,0.17918
1700767677656250,-9.597365,-1.409979,1.533924,0.25009,0.60215,0.19518
1700767677664062,-9.590365,-1.411979,1.537924,0.18609,0.68115,0.17818
1700767677671875,-9.590365,-1.407979,1.544924,0.20309,0.58815,0.17818
1700767677679687,-9.583365,-1.420979,1.553924,0.16809,0.66415,0.14718
1700767677687500,-9.599365,-1.424979,1.553924,0.19909,0.63215,0.13118
1700767677695312,-9.617365,-1.409979,1.540924,0.8209,0.62915,0.14918
1700767677703125,-9.619365,-1.413979,1.535924,0.791,0.69715,0.13018
1700767677710937,-9.635365,-1.406979,1.542924,0.8709,0.69515,0.13118
1700767677718750,-9.644365,-1.399979,1.540924,0.7509,0.66615,0.17818
1700767677726562,-9.657365,-1.394979,1.549924,0.12409,0.68215,0.17818
1700767677734375,-9.649365,-1.377979,1.526924,0.13909,0.63415,0.22618
1700767677742187,-9.637365,-1.368979,1.519924,0.11009,0.68315,0.20918
1700767677750000,-9.640365,-1.362979,1.515924,0.15009,0.64715,0.16418
1700767677757812,-9.622365,-1.364979,1.537924,0.23609,0.65015,0.22618
1700767677765625,-9.615365,-1.375979,1.551924,0.20509,0.68215,0.19418
1700767677773437,-9.613365,-1.391979,1.544924,0.16609,0.67915,0.16418
1700767677781250,-9.597365,-1.391979,1.537924,0.25309,0.71315,0.17818
1700767677789062,-9.601365,-1.411979,1.555924,0.27109,0.65315,0.16118
1700767677796875,-9.605365,-1.422979,1.553924,0.24909,0.69515,0.19518
1700767677804687,-9.612365,-1.422979,1.535924,0.23409,0.69515,0.24318
1700767677812500,-9.608365,-1.418979,1.542924,0.24609,0.69315,0.22818
1700767677820312,-9.610365,-1.411979,1.533924,0.23209,0.64715,0.21218
1700767677828125,-9.608365,-1.411979,1.522924,0.23509,0.66515,0.21018
1700767677835937,-9.608365,-1.393979,1.524924,0.19709,0.64615,0.16418
1700767677843750,-9.613365,-1.393979,1.528924,0.24909,0.72615,0.21118
1700767677851562,-9.619365,-1.397979,1.542924,0.15509,0.61815,0.19418
1700767677859375,-9.617365,-1.408979,1.537924,0.10909,0.66615,0.24218
1700767677867187,-9.617365,-1.420979,1.544924,0.20009,0.56915,0.19518
1700767677875000,-9.621365,-1.428979,1.540924,0.20009,0.63115,0.24418
1700767677882812,-9.619365,-1.419979,1.537924,0.15409,0.55515,0.24318
1700767677890625,-9.610365,-1.428979,1.540924,0.20209,0.50815,0.22718
1700767677898437,-9.601365,-1.431979,1.542924,0.26909,0.57215,0.24218
1700767677906250,-9.599365,-1.420979,1.542924,0.10609,0.52315,0.25918
1700767677914062,-9.606365,-1.406979,1.555924,0.10909,0.65015,0.27418
1700767677921875,-9.612365,-1.410979,1.546924,0.15909,0.63615,0.27318
1700767677929687,-9.629365,-1.389979,1.540924,0.10109,0.69215,0.30818
1700767677937500,-9.638365,-1.382979,1.553924,0.11509,0.67515,0.26118
1700767677945312,-9.625365,-1.355979,1.549924,0.10209,0.70915,0.22818
1700767677953125,-9.621365,-1.338979,1.540924,0.17509,0.72015,0.23018
1700767677960937,-9.620365,-1.344979,1.553924,0.9309,0.75915,0.32218
1700767677968750,-9.622365,-1.369979,1.546924,0.12009,0.64815,0.17918
1700767677976562,-9.617365,-1.396979,1.538924,0.13209,0.69015,0.32518
1700767677984375,-9.597365,-1.405979,1.519924,0.16409,0.61315,0.24518
1700767677992187,-9.581365,-1.411979,1.504924,0.21409,0.63015,0.26018
1700767678000000,-9.579365,-1.407979,1.522924,0.16009,0.70415,0.29418
1700767678007812,-9.597365,-1.404979,1.556924,0.21609,0.70915,0.26018
1700767678015625,-9.615365,-1.396979,1.567924,0.6709,0.62815,0.26118
1700767678023437,-9.613365,-1.391979,1.547924,0.6909,0.66115,0.24418
1700767678031250,-9.635365,-1.384979,1.535924,0.14009,0.69815,0.17818
1700767678039062,-9.649365,-1.379979,1.519924,0.8809,0.71015,0.21118
1700767678046875,-9.640365,-1.386979,1.526924,0.18309,0.64715,0.19618
1700767678054687,-9.649365,-1.375979,1.535924,0.24809,0.70915,0.27618
1700767678062500,-9.653365,-1.386979,1.533924,0.22009,0.66515,0.25818
1700767678070312,-9.646365,-1.399979,1.546924,0.21909,0.63415,0.17818
1700767678078125,-9.633365,-1.388979,1.562924,0.26909,0.63615,0.16218
1700767678085937,-9.617365,-1.407979,1.569924,0.21209,0.69115,0.22918
1700767678093750,-9.626365,-1.422979,1.549924,0.16309,0.66015,0.22918
1700767678101562,-9.623365,-1.428979,1.558924,0.16909,0.72615,0.27518
1700767678109375,-9.623365,-1.426979,1.542924,0.15109,0.72515,0.26018
1700767678117187,-9.628365,-1.424979,1.517924,0.2709,0.74415,0.25818
1700767678125000,-9.619365,-1.419979,1.531924,0.909,0.80515,0.27518
1700767678132812,-9.619365,-1.419979,1.537924,0.891,0.81915,0.24318
1700767678140625,-9.617365,-1.413979,1.555924,0.809,0.75815,0.17818
1700767678148437,-9.601365,-1.406979,1.546924,0.891,0.71315,0.6618
1700767678156250,-9.601365,-1.402979,1.555924,0.909,0.75815,0.22618
1700767678164062,-9.590365,-1.393979,1.555924,0.991,0.74215,0.17918
1700767678171875,-9.601365,-1.404979,1.546924,0.991,0.71115,0.16318
1700767678179687,-9.590365,-1.402979,1.540924,0.891,0.60215,0.17918
1700767678187500,-9.590365,-1.391979,1.549924,0.791,0.72815,0.14618
1700767678195312,-9.599365,-1.364979,1.537924,0.291,0.62115,0.16118
1700767678203125,-9.604365,-1.351979,1.544924,0.291,0.68315,0.17718
1700767678210937,-9.606365,-1.342979,1.542924,0.1409,0.70015,0.17618
1700767678218750,-9.608365,-1.341979,1.546924,0.0,0.62215,0.20718
1700767678226562,-9.622365,-1.340979,1.528924,0.809,0.60115,0.19518
1700767678234375,-9.624365,-1.346979,1.533924,0.2809,0.62015,0.19418
1700767678242187,-9.624365,-1.361979,1.528924,0.14209,0.73015,0.22518
1700767678250000,-9.627365,-1.366979,1.540924,0.7109,0.61615,0.24418
1700767678257812,-9.622365,-1.362979,1.535924,0.5809,0.61815,0.22618
1700767678265625,-9.622365,-1.346979,1.537924,0.15809,0.65215,0.17718
1700767678273437,-9.638365,-1.339979,1.540924,0.9009,0.57215,0.16218
1700767678281250,-9.642365,-1.350979,1.542924,0.13009,0.54515,0.15918
1700767678289062,-9.626365,-1.359979,1.544924,0.7409,0.55615,0.17818
1700767678296875,-9.622365,-1.366979,1.544924,0.909,0.66515,0.16218
1700767678304687,-9.604365,-1.367979,1.551924,0.5509,0.74215,0.17918
1700767678312500,-9.586365,-1.373979,1.549924,0.4309,0.71315,0.16218
1700767678320312,-9.573365,-1.387979,1.551924,0.6609,0.66015,0.18118
1700767678328125,-9.572365,-1.389979,1.553924,0.24909,0.69615,0.14718
1700767678335937,-9.577365,-1.396979,1.564924,0.18509,0.58615,0.16318
1700767678343750,-9.586365,-1.396979,1.553924,0.16509,0.59915,0.16418
1700767678351562,-9.601365,-1.395979,1.558924,0.18709,0.60315,0.17818
1700767678359375,-9.611365,-1.391979,1.556924,0.16309,0.56715,0.13318
1700767678367187,-9.626365,-1.384979,1.546924,0.20309,0.63415,0.16218
1700767678375000,-9.635365,-1.393979,1.555924,0.8809,0.58615,0.13118
1700767678382812,-9.633365,-1.390979,1.549924,0.18709,0.57215,0.19418
1700767678390625,-9.633365,-1.397979,1.533924,0.8809,0.66415,0.22718
1700767678398437,-9.626365,-1.399979,1.549924,0.13609,0.63315,0.11518
1700767678406250,-9.619365,-1.395979,1.558924,0.15109,0.64715,0.21218
1700767678414062,-9.626365,-1.397979,1.555924,0.12409,0.66615,0.21018
1700767678421875,-9.630365,-1.399979,1.562924,0.7809,0.69815,0.22518
1700767678429687,-9.635365,-1.408979,1.567924,0.2809,0.62015,0.19418
1700767678437500,-9.624365,-1.420979,1.556924,0.3509,0.66215,0.11618
1700767678445312,-9.619365,-1.410979,1.558924,0.7509,0.68215,0.16218
1700767678453125,-9.618365,-1.416979,1.551924,0.17909,0.67015,0.17418
1700767678460937,-9.617365,-1.406979,1.567924,0.23709,0.68215,0.16218
1700767678468750,-9.617365,-1.401979,1.549924,0.23809,0.70015,0.11318
1700767678476562,-9.604365,-1.395979,1.555924,0.26509,0.68015,0.13118
1700767678484375,-9.613365,-1.391979,1.576924,0.21609,0.64915,0.8318
1700767678492187,-9.619365,-1.375979,1.578924,0.20609,0.65315,0.9718
1700767678500000,-9.615365,-1.377979,1.571924,0.23509,0.57215,0.11418
1700767678507812,-9.633365,-1.388979,1.560924,0.21709,0.61815,0.11518
1700767678515625,-9.617365,-1.393979,1.558924,0.27009,0.69715,0.24218
1700767678523437,-9.612365,-1.393979,1.567924,0.22209,0.62215,0.11318
1700767678531250,-9.608365,-1.386979,1.585924,0.26709,0.71215,0.17818
1700767678539062,-9.604365,-1.402979,1.598924,0.24909,0.72715,0.16318
1700767678546875,-9.606365,-1.420979,1.592924,0.26509,0.72715,0.17918
1700767678554687,-9.609365,-1.419979,1.576924,0.19409,0.66915,0.19118
1700767678562500,-9.605365,-1.414979,1.576924,0.16209,0.74815,0.15818
1700767678570312,-9.585365,-1.429979,1.562924,0.23209,0.77315,0.17918
1700767678578125,-9.579365,-1.425979,1.551924,0.26509,0.72715,0.16318
1700767678585937,-9.576365,-1.427979,1.562924,0.21709,0.71115,0.17918
1700767678593750,-9.581365,-1.429979,1.576924,0.17009,0.74315,0.19418
1700767678601562,-9.598365,-1.428979,1.564924,0.27009,0.69815,0.22618
1700767678609375,-9.606365,-1.395979,1.578924,0.25109,0.66615,0.14618
1700767678617187,-9.608365,-1.411979,1.573924,0.25109,0.68115,0.19418
1700767678625000,-9.616365,-1.418979,1.576924,0.24609,0.65515,0.22118
1700767678632812,-9.614365,-1.424979,1.583924,0.26709,0.63315,0.25918
1700767678640625,-9.608365,-1.429979,1.583924,0.24809,0.61615,0.17918
1700767678648437,-9.612365,-1.418979,1.574924,0.11709,0.59915,0.16418
1700767678656250,-9.608365,-1.415979,1.567924,0.18409,0.58515,0.21118
1700767678664062,-9.605365,-1.429979,1.551924,0.15109,0.70915,0.22818
1700767678671875,-9.601365,-1.424979,1.569924,0.13209,0.72415,0.19618
1700767678679687,-9.606365,-1.429979,1.580924,0.14809,0.72415,0.18018
1700767678687500,-9.610365,-1.426979,1.598924,0.14209,0.73015,0.19318
1700767678695312,-9.614365,-1.442979,1.589924,0.13509,0.66315,0.19618
1700767678703125,-9.612365,-1.446979,1.569924,0.4009,0.66415,0.19518
1700767678710937,-9.589365,-1.446979,1.546924,0.8709,0.71115,0.16318
1700767678718750,-9.576365,-1.444979,1.546924,0.14009,0.69815,0.17818
1700767678726562,-9.565365,-1.418979,1.553924,0.16809,0.72615,0.19518
1700767678734375,-9.570365,-1.400979,1.578924,0.10609,0.63415,0.16218
1700767678742187,-9.594365,-1.400979,1.582924,0.15709,0.62015,0.17818
1700767678750000,-9.606365,-1.393979,1.569924,0.18909,0.60415,0.16218
1700767678757812,-9.628365,-1.410979,1.555924,0.11009,0.57415,0.16118
1700767678765625,-9.648365,-1.417979,1.546924,0.10609,0.58715,0.17818
1700767678773437,-9.646365,-1.421979,1.547924,0.5409,0.66215,0.21218
1700767678781250,-9.650365,-1.430979,1.553924,0.15609,0.77515,0.19418
1700767678789062,-9.632365,-1.428979,1.555924,0.9009,0.74315,0.22618
1700767678796875,-9.612365,-1.431979,1.569924,0.15009,0.80215,0.24418
1700767678804687,-9.605365,-1.428979,1.562924,0.12409,0.71315,0.21018
1700767678812500,-9.596365,-1.446979,1.567924,0.7509,0.72815,0.21018
1700767678820312,-9.585365,-1.447979,1.567924,0.2409,0.64815,0.19518
1700767678828125,-9.578365,-1.454979,1.571924,0.10009,0.63015,0.16418
1700767678835937,-9.576365,-1.458979,1.564924,0.7409,0.57215,0.17818
1700767678843750,-9.576365,-1.442979,1.571924,0.4209,0.55615,0.16218
1700767678851562,-9.576365,-1.429979,1.583924,0.609,0.55415,0.17918
1700767678859375,-9.579365,-1.418979,1.583924,0.1009,0.52515,0.17818
1700767678867187,-9.606365,-1.411979,1.576924,0.691,0.57215,0.16218
1700767678875000,-9.624365,-1.390979,1.567924,0.2809,0.54215,0.17818
1700767678882812,-9.628365,-1.388979,1.567924,0.809,0.52415,0.16318
1700767678890625,-9.633365,-1.399979,1.556924,0.609,0.56915,0.17918
1700767678898437,-9.633365,-1.388979,1.551924,0.2209,0.53815,0.13118
1700767678906250,-9.613365,-1.415979,1.569924,0.1191,0.61415,0.19618
1700767678914062,-9.601365,-1.427979,1.558924,0.1691,0.73615,0.23018
1700767678921875,-9.570365,-1.425979,1.555924,0.809,0.52415,0.17918
1700767678929687,-9.563365,-1.427979,1.578924,0.1191,0.56815,0.21218
1700767678937500,-9.558365,-1.425979,1.589924,0.12409,0.57315,0.14618
1700767678945312,-9.567365,-1.425979,1.589924,0.5809,0.55615,0.14618
1700767678953125,-9.579365,-1.424979,1.601924,0.2191,0.54015,0.21018
1700767678960937,-9.588365,-1.425979,1.589924,0.5409,0.52115,0.26018
1700767678968750,-9.601365,-1.426979,1.594924,0.2509,0.55415,0.27518
1700767678976562,-9.617365,-1.431979,1.587924,0.2509,0.58515,0.30718
1700767678984375,-9.617365,-1.417979,1.580924,0.991,0.61615,0.21218
1700767678992187,-9.626365,-1.415979,1.569924,0.5809,0.66515,0.22618
1700767679000000,-9.616365,-1.419979,1.562924,0.1491,0.60715,0.20718
1700767679007812,-9.616365,-1.432979,1.573924,0.2909,0.65215,0.19318
1700767679015625,-9.611365,-1.425979,1.589924,0.2009,0.60815,0.23718
1700767679023437,-9.605365,-1.424979,1.582924,0.3209,0.52815,0.19218
1700767679031250,-9.608365,-1.424979,1.574924,0.7209,0.60215,0.19518
1700767679039062,-9.603365,-1.426979,1.578924,0.9709,0.59015,0.25618
1700767679046875,-9.607365,-1.426979,1.589924,0.12909,0.63715,0.25618
1700767679054687,-9.603365,-1.433979,1.601924,0.1409,0.60515,0.24118
1700767679062500,-9.596365,-1.417979,1.603924,0.11409,0.65315,0.28718
1700767679070312,-9.601365,-1.424979,1.589924,0.4809,0.65215,0.27218
1700767679078125,-9.599365,-1.413979,1.600924,0.1591,0.62115,0.32018
1700767679085937,-9.603365,-1.426979,1.592924,0.7109,0.64615,0.29218
1700767679093750,-9.601365,-1.420979,1.571924,0.13309,0.66115,0.24418
1700767679101562,-9.599365,-1.424979,1.567924,0.7709,0.66615,0.29018
1700767679109375,-9.612365,-1.422979,1.574924,0.15109,0.61615,0.19618
1700767679117187,-9.612365,-1.427979,1.578924,0.8209,0.69115,0.21318
1700767679125000,-9.614365,-1.431979,1.587924,0.3909,0.66215,0.27618
1700767679132812,-9.603365,-1.431979,1.580924,0.15309,0.64815,0.24318
1700767679140625,-9.619365,-1.422979,1.576924,0.13909,0.63415,0.21018
1700767679148437,-9.606365,-1.402979,1.578924,0.11709,0.56815,0.21218
1700767679156250,-9.592365,-1.402979,1.596924,0.7309,0.66315,0.25918
1700767679164062,-9.583365,-1.391979,1.592924,0.12409,0.61815,0.29018
1700767679171875,-9.597365,-1.380979,1.594924,0.5809,0.66515,0.24218
1700767679179687,-9.601365,-1.393979,1.589924,0.20709,0.76115,0.24118
1700767679187500,-9.595365,-1.396979,1.578924,0.26609,0.60215,0.21118
1700767679195312,-9.604365,-1.397979,1.560924,0.25109,0.68115,0.21018
1700767679203125,-9.621365,-1.393979,1.564924,0.25309,0.69815,0.22618
1700767679210937,-9.632365,-1.417979,1.576924,0.26609,0.64915,0.19518
1700767679218750,-9.663365,-1.432979,1.578924,0.24009,0.57415,0.24118
1700767679226562,-9.659365,-1.427979,1.583924,0.25509,0.58815,0.25818
1700767679234375,-9.645365,-1.434979,1.564924,0.27409,0.63715,0.27218
1700767679242187,-9.632365,-1.426979,1.571924,0.27309,0.63615,0.30518
1700767679250000,-9.603365,-1.419979,1.564924,0.25609,0.65215,0.28918
1700767679257812,-9.583365,-1.408979,1.576924,0.24309,0.62115,0.32018
1700767679265625,-9.583365,-1.413979,1.585924,0.27209,0.59015,0.24118
1700767679273437,-9.603365,-1.400979,1.587924,0.25409,0.60415,0.25818
1700767679281250,-9.603365,-1.402979,1.583924,0.26809,0.68015,0.27418
1700767679289062,-9.621365,-1.391979,1.591924,0.26409,0.67115,0.28418
1700767679296875,-9.614365,-1.399979,1.594924,0.24409,0.71515,0.31918
1700767679304687,-9.626365,-1.404979,1.587924,0.22109,0.75915,0.27418
1700767679312500,-9.612365,-1.406979,1.591924,0.17609,0.74515,0.33718
1700767679320312,-9.603365,-1.395979,1.569924,0.25809,0.68415,0.28818
1700767679328125,-9.599365,-1.413979,1.573924,0.21009,0.62115,0.28818
1700767679335937,-9.601365,-1.404979,1.574924,0.12209,0.69415,0.33918
1700767679343750,-9.599365,-1.397979,1.564924,0.11009,0.63415,0.33818
1700767679351562,-9.601365,-1.404979,1.567924,0.10809,0.61815,0.30618
1700767679359375,-9.583365,-1.393979,1.578924,0.20509,0.61815,0.32218
1700767679367187,-9.579365,-1.398979,1.571924,0.15709,0.55515,0.33818
1700767679375000,-9.597365,-1.400979,1.583924,0.12509,0.55515,0.35418
1700767679382812,-9.620365,-1.398979,1.587924,0.5209,0.61215,0.34118
1700767679390625,-9.633365,-1.393979,1.587924,0.12009,0.50615,0.27518
1700767679398437,-9.640365,-1.390979,1.592924,0.7309,0.63215,0.30718
1700767679406250,-9.631365,-1.388979,1.569924,0.7109,0.70815,0.34018
1700767679414062,-9.622365,-1.397979,1.558924,0.12109,0.77215,0.29118
1700767679421875,-9.610365,-1.391979,1.558924,0.10509,0.72515,0.32318
1700767679429687,-9.593365,-1.400979,1.551924,0.24609,0.75515,0.24418
1700767679437500,-9.595365,-1.407979,1.553924,0.14609,0.70515,0.29418
1700767679445312,-9.601365,-1.429979,1.560924,0.25009,0.61515,0.34018
1700767679453125,-9.590365,-1.436979,1.565924,0.15009,0.58315,0.27618
1700767679460937,-9.596365,-1.447979,1.553924,0.18209,0.67715,0.27618
1700767679468750,-9.601365,-1.453979,1.556924,0.21709,0.58415,0.27518
1700767679476562,-9.599365,-1.433979,1.574924,0.5609,0.56815,0.34018
1700767679484375,-9.599365,-1.427979,1.576924,0.4009,0.55315,0.30818
1700767679492187,-9.592365,-1.424979,1.580924,0.4209,0.52315,0.32318
1700767679500000,-9.595365,-1.409979,1.592924,0.1291,0.51915,0.27718
1700767679507812,-9.590365,-1.391979,1.592924,0.709,0.53715,0.30818
1700767679515625,-9.604365,-1.391979,1.587924,0.891,0.56815,0.29218
1700767679523437,-9.613365,-1.389979,1.596924,0.691,0.61615,0.32318
1700767679531250,-9.619365,-1.379979,1.587924,0.5191,0.65015,0.33818
1700767679539062,-9.619365,-1.386979,1.585924,0.3791,0.68015,0.30618
1700767679546875,-9.615365,-1.397979,1.580924,0.3791,0.63315,0.29018
1700767679554687,-9.595365,-1.393979,1.583924,0.909,0.66215,0.37118
1700767679562500,-9.593365,-1.387979,1.598924,0.991,0.61515,0.27618
1700767679570312,-9.579365,-1.389979,1.598924,0.509,0.56715,0.29218
1700767679578125,-9.573365,-1.392979,1.607924,0.1191,0.53715,0.18018
1700767679585937,-9.579365,-1.385979,1.596924,0.509,0.59815,0.27618
1700767679593750,-9.593365,-1.385979,1.583924,0.1091,0.58315,0.27618
1700767679601562,-9.606365,-1.389979,1.578924,0.2991,0.53515,0.22918
1700767679609375,-9.615365,-1.391979,1.569924,0.1491,0.50215,0.27718
1700767679617187,-9.633365,-1.377979,1.578924,0.2591,0.60015,0.21218
1700767679625000,-9.638365,-1.350979,1.567924,0.1509,0.66615,0.33718
1700767679632812,-9.640365,-1.346979,1.558924,0.809,0.61715,0.24318
1700767679640625,-9.636365,-1.344979,1.551924,0.2209,0.67815,0.24418
1700767679648437,-9.644365,-1.348979,1.567924,0.491,0.75915,0.29018
1700767679656250,-9.640365,-1.355979,1.578924,0.709,0.71015,0.19518
1700767679664062,-9.620365,-1.353979,1.583924,0.1491,0.72215,0.19718
1700767679671875,-9.617365,-1.359979,1.589924,0.2909,0.66715,0.20918
1700767679679687,-9.611365,-1.360979,1.592924,0.5609,0.64815,0.19518
1700767679687500,-9.604365,-1.353979,1.603924,0.13509,0.67815,0.22818
1700767679695312,-9.609365,-1.355979,1.607924,0.14109,0.62015,0.19418
1700767679703125,-9.613365,-1.355979,1.605924,0.7209,0.71115,0.19518
1700767679710937,-9.613365,-1.351979,1.605924,0.10409,0.55315,0.24318
1700767679718750,-9.625365,-1.358979,1.601924,0.16309,0.62915,0.18118
1700767679726562,-9.622365,-1.357979,1.594924,0.891,0.67915,0.19518
1700767679734375,-9.611365,-1.362979,1.596924,0.4009,0.67915,0.24318
1700767679742187,-9.611365,-1.359979,1.591924,0.4609,0.66715,0.27318
1700767679750000,-9.617365,-1.357979,1.596924,0.391,0.68115,0.29018
1700767679757812,-9.604365,-1.358979,1.612924,0.5509,0.61515,0.26018
1700767679765625,-9.600365,-1.356979,1.603924,0.17009,0.57015,0.22718
1700767679773437,-9.591365,-1.353979,1.607924,0.12509,0.63515,0.22618
1700767679781250,-9.589365,-1.356979,1.612924,0.5309,0.64515,0.27618
1700767679789062,-9.584365,-1.354979,1.612924,0.18609,0.53915,0.24318
1700767679796875,-9.582365,-1.367979,1.607924,0.17109,0.53815,0.33918
1700767679804687,-9.591365,-1.378979,1.610924,0.10409,0.55315,0.29118
1700767679812500,-9.588365,-1.380979,1.612924,0.11809,0.61415,0.26018
1700767679820312,-9.591365,-1.356979,1.607924,0.11809,0.55215,0.27618
1700767679828125,-9.609365,-1.354979,1.587924,0.3609,0.51915,0.29318
1700767679835937,-9.613365,-1.356979,1.594924,0.8609,0.58315,0.27618
1700767679843750,-9.607365,-1.349979,1.596924,0.5909,0.61815,0.27418
1700767679851562,-9.618365,-1.349979,1.601924,0.2309,0.52215,0.22718
1700767679859375,-9.629365,-1.350979,1.614924,0.9409,0.66515,0.33818
1700767679867187,-9.636365,-1.353979,1.614924,0.10609,0.68015,0.22618
1700767679875000,-9.642365,-1.355979,1.610924,0.10709,0.64915,0.27418
1700767679882812,-9.638365,-1.366979,1.612924,0.14109,0.55515,0.32218
1700767679890625,-9.620365,-1.353979,1.610924,0.16509,0.62815,0.34118
1700767679898437,-9.611365,-1.356979,1.603924,0.15009,0.64515,0.32418
1700767679906250,-9.602365,-1.358979,1.605924,0.23209,0.69315,0.27618
1700767679914062,-9.589365,-1.342979,1.628924,0.27109,0.65015,0.32218
1700767679921875,-9.582365,-1.358979,1.641924,0.12209,0.60115,0.33918
1700767679929687,-9.586365,-1.365979,1.635924,0.5709,0.74115,0.30718
1700767679937500,-9.595365,-1.364979,1.623924,0.10709,0.61815,0.29018
1700767679945312,-9.602365,-1.377979,1.616924,0.10909,0.66515,0.32218
1700767679953125,-9.604365,-1.384979,1.612924,0.19209,0.68215,0.33718
1700767679960937,-9.612365,-1.388979,1.610924,0.15909,0.71415,0.24118
1700767679968750,-9.619365,-1.379979,1.607924,0.12609,0.57215,0.32218
1700767679976562,-9.613365,-1.369979,1.605924,0.14109,0.61715,0.37018
1700767679984375,-9.611365,-1.358979,1.610924,0.21909,0.71015,0.35518
1700767679992187,-9.582365,-1.353979,1.614924,0.1609,0.66715,0.32018
1700767680000000,-9.578365,-1.356979,1.621924,0.891,0.66115,0.34018
1700767680007812,-9.577365,-1.351979,1.623924,0.2509,0.58515,0.30718
1700767680015625,-9.589365,-1.354979,1.610924,0.10309,0.58515,0.22718
1700767680023437,-9.597365,-1.355979,1.612924,0.1309,0.52515,0.27418
1700767680031250,-9.615365,-1.355979,1.616924,0.2709,0.54015,0.29018
1700767680039062,-9.629365,-1.364979,1.605924,0.2409,0.60115,0.22718
1700767680046875,-9.626365,-1.370979,1.607924,0.3091,0.57515,0.23918
1700767680054687,-9.635365,-1.375979,1.610924,0.2691,0.66215,0.22818
1700767680062500,-9.624365,-1.387979,1.599924,0.4591,0.62815,0.24518
1700767680070312,-9.611365,-1.382979,1.594924,0.9291,0.63015,0.22818
1700767680078125,-9.600365,-1.371979,1.589924,0.7591,0.55215,0.27618
1700767680085937,-9.584365,-1.356979,1.598924,0.3791,0.58715,0.25818
1700767680093750,-9.582365,-1.360979,1.594924,0.16791,0.63315,0.24218
1700767680101562,-9.582365,-1.358979,1.607924,0.13291,0.58715,0.29018
1700767680109375,-9.586365,-1.360979,1.605924,0.10691,0.58415,0.24418
1700767680117187,-9.591365,-1.356979,1.614924,0.3991,0.60115,0.24318
1700767680125000,-9.604365,-1.356979,1.621924,0.15291,0.57015,0.24318
1700767680132812,-9.629365,-1.351979,1.610924,0.7091,0.57115,0.22618
1700767680140625,-9.620365,-1.337979,1.612924,0.2809,0.52615,0.17818
1700767680148437,-9.611365,-1.342979,1.594924,0.0,0.51315,0.16018
1700767680156250,-9.618365,-1.348979,1.603924,0.491,0.52615,0.16218
1700767680164062,-9.605365,-1.349979,1.610924,0.4391,0.58315,0.19618
1700767680171875,-9.600365,-1.358979,1.612924,0.4109,0.58515,0.25918
1700767680179687,-9.600365,-1.358979,1.619924,0.809,0.52315,0.21118
1700767680187500,-9.589365,-1.367979,1.619924,0.991,0.52315,0.16318
1700767680195312,-9.581365,-1.375979,1.616924,0.1609,0.51315,0.20818
1700767680203125,-9.577365,-1.362979,1.639924,0.2191,0.52515,0.21018
1700767680210937,-9.577365,-1.356979,1.630924,0.2091,0.51115,0.16118
1700767680218750,-9.593365,-1.349979,1.623924,0.2591,0.52215,0.17918
1700767680226562,-9.605365,-1.336979,1.626924,0.991,0.50715,0.16318
1700767680234375,-9.611365,-1.333979,1.619924,0.3291,0.51315,0.19218
1700767680242187,-9.607365,-1.314979,1.610924,0.609,0.50715,0.17918
1700767680250000,-9.603365,-1.309979,1.621924,0.691,0.54115,0.16218
1700767680257812,-9.611365,-1.299979,1.607924,0.1609,0.56115,0.11118
1700767680265625,-9.616365,-1.304979,1.607924,0.491,0.52615,0.16218
1700767680273437,-9.614365,-1.302979,1.605924,0.809,0.50815,0.17918
1700767680281250,-9.628365,-1.305979,1.610924,0.1191,0.55215,0.21218
1700767680289062,-9.639365,-1.306979,1.610924,0.591,0.55615,0.19418
1700767680296875,-9.632365,-1.304979,1.612924,0.0,0.57515,0.24018
1700767680304687,-9.632365,-1.300979,1.632924,0.109,0.59615,0.27718
1700767680312500,-9.634365,-1.300979,1.632924,0.591,0.55615,0.19418
1700767680320312,-9.632365,-1.311979,1.630924,0.709,0.53815,0.22718
1700767680328125,-9.614365,-1.291979,1.626924,0.2009,0.61515,0.18018
1700767680335937,-9.621365,-1.306979,1.616924,0.791,0.66515,0.14618
1700767680343750,-9.610365,-1.311979,1.628924,0.1909,0.73915,0.18018
1700767680351562,-9.609365,-1.322979,1.630924,0.11809,0.77215,0.21218
1700767680359375,-9.616365,-1.320979,1.619924,0.10909,0.74615,0.14518
1700767680367187,-9.629365,-1.317979,1.614924,0.14309,0.70015,0.14418
1700767680375000,-9.625365,-1.328979,1.612924,0.14009,0.68215,0.14618
1700767680382812,-9.611365,-1.335979,1.610924,0.9209,0.66615,0.17818
1700767680390625,-9.605365,-1.320979,1.617924,0.11409,0.66115,0.11718
1700767680398437,-9.600365,-1.327979,1.628924,0.10609,0.52515,0.14618
1700767680406250,-9.594365,-1.325979,1.632924,0.15209,0.63315,0.13118
1700767680414062,-9.585365,-1.334979,1.612924,0.5409,0.55415,0.16318
1700767680421875,-9.578365,-1.329979,1.612924,0.7109,0.50715,0.21118
1700767680429687,-9.587365,-1.338979,1.605924,0.4309,0.52515,0.21018
1700767680437500,-9.578365,-1.329979,1.610924,0.609,0.53815,0.16318
1700767680445312,-9.583365,-1.332979,1.605924,0.1909,0.50415,0.18118
1700767680453125,-9.582365,-1.330979,1.605924,0.6909,0.50615,0.16418
1700767680460937,-9.596365,-1.319979,1.614924,0.8109,0.51915,0.18118
1700767680468750,-9.620365,-1.340979,1.598924,0.8709,0.56915,0.21118
1700767680476562,-9.634365,-1.346979,1.578924,0.10309,0.61615,0.19618
1700767680484375,-9.629365,-1.362979,1.603924,0.9909,0.61315,0.21318
1700767680492187,-9.636365,-1.355979,1.596924,0.13109,0.62915,0.19718
1700767680500000,-9.667365,-1.359979,1.574924,0.21209,0.56715,0.19718
1700767680507812,-9.665365,-1.353979,1.608924,0.16109,0.58115,0.18118
1700767680515625,-9.663365,-1.333979,1.583924,0.21509,0.52315,0.8318
1700767680523437,-9.645365,-1.322979,1.578924,0.27909,0.52415,0.8318
1700767680531250,-9.632365,-1.322979,1.621924,0.19909,0.50815,0.11518
1700767680539062,-9.614365,-1.340979,1.657924,0.21309,0.50715,0.10018
1700767680546875,-9.616365,-1.356979,1.662924,0.16509,0.52215,0.16418
1700767680554687,-9.618365,-1.362979,1.657924,0.15109,0.55415,0.13118
1700767680562500,-9.631365,-1.373979,1.632924,0.20109,0.57115,0.17918
1700767680570312,-9.642365,-1.346979,1.580924,0.18909,0.60415,0.16218
1700767680578125,-9.623365,-1.313979,1.560924,0.27909,0.74115,0.19618
1700767680585937,-9.617365,-1.283979,1.578924,0.29009,0.75515,0.8518
1700767680593750,-9.617365,-1.292979,1.601924,0.27109,0.67715,0.5882
1700767680601562,-9.616365,-1.313979,1.623924,0.27909,0.74415,0.2882
1700767680609375,-9.616365,-1.338979,1.621924,0.24109,0.58415,0.4282
1700767680617187,-9.606365,-1.396979,1.612924,0.22709,0.66315,0.2018
1700767680625000,-9.603365,-1.433979,1.612924,0.24909,0.54315,0.6182
1700767680632812,-9.617365,-1.433979,1.605924,0.26209,0.52415,0.4482
1700767680640625,-9.630365,-1.415979,1.605924,0.22809,0.50715,0.1182
1700767680648437,-9.617365,-1.386979,1.589924,0.35709,0.68115,0.7682
1700767680656250,-9.609365,-1.367979,1.589924,0.37209,0.75715,0.2782
1700767680664062,-9.609365,-1.367979,1.614924,0.25809,0.69315,0.2118
1700767680671875,-9.597365,-1.387979,1.616924,0.35809,0.85315,0.4482
1700767680679687,-9.606365,-1.400979,1.610924,0.26309,0.74315,0.318
1700767680687500,-9.619365,-1.395979,1.610924,0.24909,0.71315,0.5018
1700767680695312,-9.626365,-1.404979,1.589924,0.15109,0.74215,0.13118
1700767680703125,-9.626365,-1.415979,1.576924,0.18509,0.64915,0.17918
1700767680710937,-9.621365,-1.422979,1.576924,0.16809,0.71115,0.17918
1700767680718750,-9.615365,-1.424979,1.580924,0.19809,0.74115,0.11618
1700767680726562,-9.612365,-1.426979,1.598924,0.16909,0.60215,0.14718
1700767680734375,-9.615365,-1.422979,1.603924,0.24309,0.70715,0.18118
1700767680742187,-9.608365,-1.416979,1.599924,0.11409,0.67615,0.16518
1700767680750000,-9.599365,-1.399979,1.607924,0.11009,0.62115,0.16118
1700767680757812,-9.579365,-1.393979,1.601924,0.7409,0.63415,0.17818
1700767680765625,-9.570365,-1.389979,1.601924,0.7009,0.63215,0.16418
1700767680773437,-9.559365,-1.391979,1.612924,0.5809,0.63415,0.17818
1700767680781250,-9.561365,-1.389979,1.610924,0.5309,0.69415,0.14818
1700767680789062,-9.570365,-1.394979,1.614924,0.6509,0.67615,0.10118
1700767680796875,-9.595365,-1.394979,1.592924,0.6409,0.64615,0.3718
1700767680804687,-9.588365,-1.382979,1.580924,0.20009,0.74415,0.218
1700767680812500,-9.577365,-1.380979,1.578924,0.22809,0.64915,0.6082
1700767680820312,-9.581365,-1.391979,1.589924,0.26409,0.63415,0.1918
1700767680828125,-9.579365,-1.389979,1.596924,0.24909,0.61815,0.14718
1700767680835937,-9.577365,-1.387979,1.580924,0.26709,0.65015,0.14618
1700767680843750,-9.600365,-1.394979,1.569924,0.27409,0.61315,0.16518
1700767680851562,-9.608365,-1.405979,1.562924,0.30609,0.69015,0.21318
1700767680859375,-9.615365,-1.411979,1.576924,0.27909,0.63015,0.22818
1700767680867187,-9.617365,-1.398979,1.583924,0.24709,0.72515,0.21218
1700767680875000,-9.617365,-1.413979,1.594924,0.26209,0.67715,0.21218
1700767680882812,-9.617365,-1.435979,1.592924,0.26309,0.67915,0.16418
1700767680890625,-9.604365,-1.425979,1.576924,0.22309,0.65815,0.16618
1700767680898437,-9.599365,-1.431979,1.571924,0.24909,0.68015,0.17918
1700767680906250,-9.599365,-1.431979,1.574924,0.26309,0.64815,0.16418
1700767680914062,-9.596365,-1.424979,1.587924,0.21909,0.63415,0.16218
1700767680921875,-9.594365,-1.440979,1.605924,0.20509,0.54215,0.12918
1700767680929687,-9.589365,-1.453979,1.610924,0.25109,0.58815,0.14618
1700767680937500,-9.581365,-1.440979,1.601924,0.23109,0.55415,0.11518
1700767680945312,-9.578365,-1.420979,1.592924,0.20509,0.54215,0.16118
1700767680953125,-9.582365,-1.394979,1.587924,0.26209,0.59915,0.18018
1700767680960937,-9.595365,-1.393979,1.601924,0.21609,0.58515,0.17918
1700767680968750,-9.606365,-1.384979,1.610924,0.18709,0.58815,0.16218
1700767680976562,-9.590365,-1.389979,1.612924,0.20109,0.63315,0.14718
1700767680984375,-9.593365,-1.389979,1.605924,0.24409,0.67615,0.19718
1700767680992187,-9.601365,-1.402979,1.607924,0.21909,0.63415,0.21018
1700767681000000,-9.608365,-1.391979,1.592924,0.15709,0.60415,0.21018
1700767681007812,-9.608365,-1.388979,1.601924,0.10809,0.65115,0.17818
1700767681015625,-9.606365,-1.393979,1.612924,0.17209,0.71315,0.21018
1700767681023437,-9.608365,-1.395979,1.610924,0.18609,0.57015,0.24318
1700767681031250,-9.617365,-1.415979,1.607924,0.19209,0.68315,0.28918
1700767681039062,-9.583365,-1.426979,1.610924,0.25409,0.75915,0.27418
1700767681046875,-9.587365,-1.428979,1.612924,0.9409,0.66715,0.20918
1700767681054687,-9.598365,-1.440979,1.610924,0.10609,0.71115,0.25818
1700767681062500,-9.587365,-1.438979,1.621924,0.10509,0.71015,0.25918
1700767681070312,-9.583365,-1.433979,1.616924,0.5609,0.63215,0.24318
1700767681078125,-9.579365,-1.422979,1.610924,0.2309,0.66415,0.14718
1700767681085937,-9.579365,-1.415979,1.605924,0.6009,0.57315,0.16218
1700767681093750,-9.583365,-1.409979,1.603924,0.509,0.63215,0.16418
1700767681101562,-9.584365,-1.405979,1.607924,0.2209,0.55315,0.19518
1700767681109375,-9.608365,-1.395979,1.612924,0.4109,0.58815,0.13018
1700767681117187,-9.624365,-1.395979,1.610924,0.591,0.55615,0.19418
1700767681125000,-9.633365,-1.397979,1.612924,0.809,0.58615,0.19518
1700767681132812,-9.642365,-1.406979,1.616924,0.791,0.60115,0.22718
1700767681140625,-9.630365,-1.415979,1.614924,0.691,0.66515,0.19418
1700767681148437,-9.617365,-1.415979,1.621924,0.1209,0.61915,0.24218
1700767681156250,-9.608365,-1.420979,1.630924,0.691,0.64915,0.17818
1700767681164062,-9.599365,-1.427979,1.632924,0.8309,0.69115,0.24518
1700767681171875,-9.610365,-1.433979,1.628924,0.2109,0.67815,0.18018
1700767681179687,-9.601365,-1.431979,1.614924,0.2709,0.69815,0.16218
1700767681187500,-9.594365,-1.426979,1.603924,0.1509,0.66815,0.17618
1700767681195312,-9.599365,-1.417979,1.605924,0.2709,0.66715,0.14618
1700767681203125,-9.599365,-1.411979,1.610924,0.8909,0.66615,0.13018
1700767681210937,-9.608365,-1.389979,1.616924,0.7009,0.53915,0.9918
1700767681218750,-9.606365,-1.400979,1.617924,0.1909,0.63015,0.16418
1700767681226562,-9.590365,-1.407979,1.619924,0.209,0.53615,0.18118
1700767681234375,-9.597365,-1.414979,1.621924,0.1609,0.65915,0.21418
1700767681242187,-9.601365,-1.436979,1.639924,0.3609,0.59915,0.19618
1700767681250000,-9.603365,-1.426979,1.639924,0.12309,0.60315,0.21018
1700767681257812,-9.608365,-1.402979,1.639924,0.15409,0.63515,0.9818
1700767681265625,-9.599365,-1.391979,1.630924,0.15709,0.66815,0.9718
1700767681273437,-9.604365,-1.386979,1.646924,0.18709,0.65215,0.8218
1700767681281250,-9.608365,-1.389979,1.653924,0.1291,0.72615,0.418
1700767681289062,-9.610365,-1.398979,1.630924,0.409,0.64815,0.5218
1700767681296875,-9.604365,-1.391979,1.619924,0.3909,0.71115,0.16318
1700767681304687,-9.611365,-1.391979,1.614924,0.6709,0.72415,0.18018
1700767681312500,-9.597365,-1.398979,1.610924,0.0,0.59715,0.16518
1700767681320312,-9.577365,-1.392979,1.614924,0.1291,0.67715,0.18018
1700767681328125,-9.579365,-1.401979,1.621924,0.1809,0.55115,0.16518
1700767681335937,-9.586365,-1.385979,1.621924,0.2309,0.60215,0.14718
1700767681343750,-9.593365,-1.376979,1.628924,0.7109,0.52315,0.17918
1700767681351562,-9.604365,-1.391979,1.632924,0.9009,0.57215,0.13018
1700767681359375,-9.597365,-1.397979,1.637924,0.15809,0.59015,0.16118
1700767681367187,-9.581365,-1.405979,1.653924,0.10309,0.58515,0.17918
1700767681375000,-9.579365,-1.414979,1.671924,0.13509,0.55415,0.14718
1700767681382812,-9.577365,-1.416979,1.655924,0.15009,0.66315,0.16418
1700767681390625,-9.579365,-1.438979,1.641924,0.11709,0.58415,0.18018
1700767681398437,-9.580365,-1.444979,1.643924,0.12409,0.66615,0.17818
1700767681406250,-9.590365,-1.449979,1.626924,0.3909,0.55315,0.21118
1700767681414062,-9.583365,-1.444979,1.623924,0.5609,0.63315,0.21118
1700767681421875,-9.581365,-1.433979,1.630924,0.5809,0.54015,0.19418
1700767681429687,-9.579365,-1.420979,1.630924,0.14009,0.63515,0.19418
1700767681437500,-9.570365,-1.400979,1.644924,0.5709,0.60115,0.24318
1700767681445312,-9.577365,-1.412979,1.653924,0.11509,0.59815,0.18118
1700767681453125,-9.592365,-1.420979,1.641924,0.17309,0.60415,0.16218
1700767681460937,-9.599365,-1.429979,1.644924,0.15509,0.58715,0.21018
1700767681468750,-9.606365,-1.427979,1.650924,0.22909,0.60015,0.13218
1700767681476562,-9.594365,-1.429979,1.657924,0.26709,0.57315,0.6618
1700767681484375,-9.597365,-1.409979,1.662924,0.25009,0.57315,0.3418
1700767681492187,-9.603365,-1.418979,1.662924,0.23009,0.58615,0.1918
1700767681500000,-9.612365,-1.437979,1.668924,0.20209,0.58815,0.8218
1700767681507812,-9.599365,-1.431979,1.664924,0.20009,0.58715,0.8318
1700767681515625,-9.592365,-1.435979,1.671924,0.20009,0.60215,0.9918
1700767681523437,-9.594365,-1.441979,1.652924,0.27309,0.57515,0.17618
1700767681531250,-9.583365,-1.433979,1.643924,0.22209,0.66815,0.11318
1700767681539062,-9.588365,-1.424979,1.662924,0.15409,0.63415,0.16218
1700767681546875,-9.597365,-1.427979,1.662924,0.18109,0.72415,0.22818
1700767681554687,-9.610365,-1.427979,1.668924,0.21309,0.72415,0.18018
1700767681562500,-9.603365,-1.438979,1.655924,0.24509,0.69315,0.18018
1700767681570312,-9.585365,-1.424979,1.655924,0.21709,0.75715,0.24318
1700767681578125,-9.576365,-1.427979,1.662924,0.20109,0.68015,0.19518
1700767681585937,-9.576365,-1.427979,1.657924,0.15009,0.66315,0.16418
1700767681593750,-9.581365,-1.431979,1.657924,0.18809,0.69815,0.16218
1700767681601562,-9.590365,-1.438979,1.646924,0.7409,0.69615,0.22618
1700767681609375,-9.587365,-1.438979,1.650924,0.17109,0.69615,0.21018
1700767681617187,-9.599365,-1.433979,1.657924,0.10609,0.66515,0.19418
1700767681625000,-9.612365,-1.437979,1.644924,0.23509,0.66515,0.17818
1700767681632812,-9.601365,-1.442979,1.650924,0.1109,0.60415,0.17818
1700767681640625,-9.583365,-1.440979,1.650924,0.16909,0.63315,0.16318
1700767681648437,-9.578365,-1.446979,1.662924,0.4309,0.68215,0.16218
1700767681656250,-9.581365,-1.449979,1.655924,0.5409,0.67815,0.22818
1700767681664062,-9.582365,-1.462979,1.648924,0.4309,0.69715,0.21018
1700767681671875,-9.585365,-1.455979,1.641924,0.4509,0.69915,0.19318
1700767681679687,-9.585365,-1.434979,1.653924,0.3509,0.78615,0.22818
1700767681687500,-9.581365,-1.431979,1.657924,0.891,0.72615,0.19518
1700767681695312,-9.574365,-1.438979,1.650924,0.7509,0.71315,0.17818
1700767681703125,-9.592365,-1.442979,1.655924,0.10609,0.66515,0.21018
1700767681710937,-9.590365,-1.451979,1.655924,0.10309,0.63115,0.21218
1700767681718750,-9.576365,-1.460979,1.650924,0.11909,0.64715,0.22818
1700767681726562,-9.571365,-1.453979,1.648924,0.16909,0.61715,0.17918
1700767681734375,-9.549365,-1.443979,1.646924,0.7009,0.58515,0.19518
1700767681742187,-9.547365,-1.443979,1.655924,0.15309,0.55515,0.17918
1700767681750000,-9.547365,-1.450979,1.655924,0.18209,0.53715,0.21218
1700767681757812,-9.569365,-1.451979,1.650924,0.14909,0.58415,0.19618
1700767681765625,-9.579365,-1.429979,1.653924,0.8809,0.60215,0.16318
1700767681773437,-9.601365,-1.424979,1.646924,0.17109,0.57215,0.17818
1700767681781250,-9.619365,-1.430979,1.648924,0.13909,0.64915,0.24218
1700767681789062,-9.621365,-1.428979,1.648924,0.5809,0.64915,0.19418
1700767681796875,-9.619365,-1.431979,1.639924,0.12109,0.61715,0.24318
1700767681804687,-9.616365,-1.428979,1.634924,0.9209,0.71315,0.25818
1700767681812500,-9.619365,-1.433979,1.635924,0.15409,0.61715,0.25918
1700767681820312,-9.594365,-1.418979,1.630924,0.18609,0.63215,0.25918
1700767681828125,-9.576365,-1.424979,1.652924,0.25509,0.68315,0.19318
1700767681835937,-9.561365,-1.425979,1.662924,0.25109,0.69715,0.17818
1700767681843750,-9.549365,-1.427979,1.661924,0.27409,0.56015,0.22418
1700767681851562,-9.565365,-1.420979,1.666924,0.23409,0.52415,0.21118
1700767681859375,-9.583365,-1.429979,1.664924,0.25009,0.60215,0.21118
1700767681867187,-9.605365,-1.446979,1.666924,0.18809,0.55615,0.22618
1700767681875000,-9.610365,-1.453979,1.662924,0.16809,0.53815,0.21118
1700767681882812,-9.613365,-1.461979,1.650924,0.24109,0.59115,0.19218
1700767681890625,-9.616365,-1.450979,1.664924,0.16009,0.60515,0.27318
1700767681898437,-9.603365,-1.451979,1.655924,0.18709,0.66515,0.21018
1700767681906250,-9.592365,-1.449979,1.650924,0.17109,0.68015,0.24218
1700767681914062,-9.576365,-1.449979,1.653924,0.19909,0.61615,0.19518
1700767681921875,-9.565365,-1.429979,1.659924,0.19909,0.63215,0.19618
1700767681929687,-9.563365,-1.423979,1.659924,0.3909,0.61515,0.24418
1700767681937500,-9.550365,-1.419979,1.682924,0.11509,0.58315,0.16518
1700767681945312,-9.545365,-1.419979,1.689924,0.13509,0.55415,0.17918
1700767681953125,-9.563365,-1.418979,1.687924,0.7009,0.50515,0.27618
1700767681960937,-9.570365,-1.425979,1.686924,0.2409,0.55515,0.17918
1700767681968750,-9.581365,-1.429979,1.680924,0.2509,0.53815,0.29118
1700767681976562,-9.583365,-1.427979,1.675924,0.5609,0.53715,0.29118
1700767681984375,-9.601365,-1.431979,1.664924,0.7309,0.57015,0.25918
1700767681992187,-9.612365,-1.428979,1.677924,0.2509,0.55415,0.27518
1700767682000000,-9.614365,-1.428979,1.666924,0.10809,0.55515,0.29018
1700767682007812,-9.608365,-1.433979,1.655924,0.11909,0.60015,0.24418
1700767682015625,-9.590365,-1.427979,1.650924,0.10209,0.52115,0.26018
1700767682023437,-9.576365,-1.422979,1.655924,0.15509,0.52315,0.30718
1700767682031250,-9.563365,-1.418979,1.662924,0.17009,0.55415,0.27518
1700767682039062,-9.542365,-1.429979,1.673924,0.9709,0.57515,0.24018
1700767682046875,-9.529365,-1.423979,1.679924,0.12909,0.52815,0.24018
1700767682054687,-9.533365,-1.438979,1.702924,0.12509,0.57315,0.21018
1700767682062500,-9.545365,-1.450979,1.698924,0.8509,0.45915,0.16418
1700767682070312,-9.574365,-1.427979,1.689924,0.12209,0.50815,0.22718
1700767682078125,-9.581365,-1.427979,1.686924,0.4209,0.52515,0.19418
1700767682085937,-9.589365,-1.433979,1.671924,0.12709,0.57415,0.20918
1700767682093750,-9.590365,-1.415979,1.673924,0.18809,0.55615,0.21018
1700767682101562,-9.581365,-1.411979,1.684924,0.20009,0.55415,0.22718
1700767682109375,-9.577365,-1.405979,1.659924,0.2609,0.50915,0.17818
1700767682117187,-9.594365,-1.411979,1.648924,0.11009,0.59015,0.17718
1700767682125000,-9.621365,-1.428979,1.646924,0.11909,0.58515,0.19518
1700767682132812,-9.624365,-1.429979,1.659924,0.5209,0.61515,0.16418
1700767682140625,-9.630365,-1.435979,1.664924,0.12109,0.54015,0.14718
1700767682148437,-9.621365,-1.437979,1.657924,0.15309,0.50815,0.16318
1700767682156250,-9.612365,-1.428979,1.666924,0.15709,0.55715,0.22618
1700767682164062,-9.598365,-1.433979,1.664924,0.27109,0.54215,0.24218
1700767682171875,-9.603365,-1.431979,1.682924,0.14009,0.60215,0.27418
1700767682179687,-9.601365,-1.427979,1.696924,0.6909,0.55215,0.21218
1700767682187500,-9.596365,-1.433979,1.680924,0.809,0.55515,0.19518
1700767682195312,-9.605365,-1.442979,1.673924,0.9109,0.54015,0.22618
1700767682203125,-9.599365,-1.431979,1.662924,0.691,0.58715,0.17818
1700767682210937,-9.590365,-1.426979,1.657924,0.9209,0.60415,0.16218
1700767682218750,-9.581365,-1.418979,1.675924,0.14709,0.55115,0.18118
1700767682226562,-9.579365,-1.418979,1.662924,0.13109,0.50515,0.16518
1700767682234375,-9.581365,-1.420979,1.650924,0.18209,0.52115,0.19618
1700767682242187,-9.581365,-1.413979,1.655924,0.17209,0.51015,0.19418
1700767682250000,-9.579365,-1.420979,1.659924,0.7309,0.53915,0.19518
1700767682257812,-9.576365,-1.416979,1.634924,0.17009,0.63415,0.16218
1700767682265625,-9.581365,-1.411979,1.641924,0.23909,0.62115,0.17718
1700767682273437,-9.595365,-1.409979,1.641924,0.19909,0.63215,0.16318
1700767682281250,-9.601365,-1.425979,1.630924,0.19509,0.67615,0.21318
1700767682289062,-9.608365,-1.429979,1.635924,0.11609,0.61515,0.14818
1700767682296875,-9.599365,-1.436979,1.637924,0.11709,0.58415,0.16418
1700767682304687,-9.601365,-1.449979,1.632924,0.13409,0.64715,0.18018
1700767682312500,-9.590365,-1.442979,1.644924,0.13409,0.67815,0.16418
1700767682320312,-9.597365,-1.447979,1.653924,0.11509,0.61415,0.16518
1700767682328125,-9.592365,-1.445979,1.646924,0.11309,0.61215,0.19718
1700767682335937,-9.599365,-1.431979,1.648924,0.9709,0.61215,0.21318
1700767682343750,-9.588365,-1.431979,1.637924,0.18609,0.53915,0.21118
1700767682351562,-9.597365,-1.422979,1.657924,0.809,0.55515,0.21118
1700767682359375,-9.597365,-1.427979,1.655924,0.3809,0.53815,0.19518
1700767682367187,-9.606365,-1.422979,1.646924,0.16609,0.59915,0.22818
1700767682375000,-9.590365,-1.420979,1.646924,0.20409,0.60315,0.21018
1700767682382812,-9.598365,-1.426979,1.639924,0.15909,0.60515,0.22518
1700767682390625,-9.605365,-1.413979,1.634924,0.22109,0.63615,0.17818
1700767682398437,-9.594365,-1.426979,1.632924,0.23509,0.60315,0.16218
1700767682406250,-9.592365,-1.427979,1.639924,0.7209,0.63315,0.16318
1700767682414062,-9.598365,-1.442979,1.628924,0.14109,0.60415,0.19418
1700767682421875,-9.601365,-1.426979,1.619924,0.2709,0.50915,0.21018
1700767682429687,-9.594365,-1.422979,1.625924,0.14109,0.55715,0.21018
1700767682437500,-9.599365,-1.420979,1.637924,0.16509,0.55315,0.16418
1700767682445312,-9.599365,-1.413979,1.634924,0.23609,0.51015,0.17818
1700767682453125,-9.605365,-1.417979,1.641924,0.27409,0.52915,0.16018
1700767682460937,-9.597365,-1.427979,1.646924,0.26509,0.50715,0.17918
1700767682468750,-9.605365,-1.424979,1.630924,0.18809,0.52515,0.17818
1700767682476562,-9.610365,-1.438979,1.630924,0.18109,0.55315,0.16418
1700767682484375,-9.609365,-1.441979,1.619924,0.25709,0.57515,0.17618
1700767682492187,-9.594365,-1.440979,1.616924,0.23809,0.54215,0.22618
1700767682500000,-9.585365,-1.442979,1.625924,0.13709,0.61715,0.25918
1700767682507812,-9.574365,-1.449979,1.639924,0.18909,0.58915,0.17818
1700767682515625,-9.569365,-1.447979,1.655924,0.16809,0.50715,0.22718
1700767682523437,-9.580365,-1.453979,1.646924,0.10409,0.58615,0.17918
1700767682531250,-9.567365,-1.454979,1.635924,0.7109,0.53815,0.24318
1700767682539062,-9.580365,-1.444979,1.637924,0.7909,0.55815,0.28918
1700767682546875,-9.576365,-1.424979,1.630924,0.9609,0.52715,0.27318
1700767682554687,-9.590365,-1.413979,1.628924,0.18709,0.50815,0.27518
1700767682562500,-9.594365,-1.426979,1.646924,0.14209,0.55715,0.25818
1700767682570312,-9.590365,-1.409979,1.648924,0.13309,0.53715,0.19618
1700767682578125,-9.590365,-1.395979,1.628924,0.12309,0.47815,0.19418
1700767682585937,-9.597365,-1.409979,1.623924,0.12209,0.50815,0.21118
1700767682593750,-9.588365,-1.414979,1.626924,0.5209,0.50415,0.24518
1700767682601562,-9.590365,-1.424979,1.643924,0.17509,0.57415,0.22518
1700767682609375,-9.588365,-1.427979,1.648924,0.23309,0.56915,0.25918
1700767682617187,-9.594365,-1.424979,1.641924,0.14509,0.51315,0.24018
1700767682625000,-9.591365,-1.445979,1.643924,0.10009,0.51415,0.22218
1700767682632812,-9.585365,-1.453979,1.630924,0.16309,0.49615,0.32018
1700767682640625,-9.571365,-1.460979,1.637924,0.17309,0.46215,0.30618
1700767682648437,-9.551365,-1.460979,1.655924,0.1309,0.49415,0.25818
1700767682656250,-9.547365,-1.458979,1.664924,0.19109,0.47915,0.27318
1700767682664062,-9.538365,-1.456979,1.659924,0.15409,0.46115,0.22718
1700767682671875,-9.538365,-1.447979,1.650924,0.20809,0.51215,0.20918
1700767682679687,-9.574365,-1.436979,1.650924,0.15209,0.49115,0.22718
1700767682687500,-9.572365,-1.442979,1.653924,0.12309,0.49415,0.17818
1700767682695312,-9.583365,-1.438979,1.657924,0.5509,0.47615,0.21118
1700767682703125,-9.605365,-1.426979,1.648924,0.2909,0.47915,0.24118
1700767682710937,-9.623365,-1.423979,1.632924,0.9509,0.49615,0.17718
1700767682718750,-9.612365,-1.426979,1.632924,0.15809,0.55715,0.25818
1700767682726562,-9.630365,-1.433979,1.630924,0.10609,0.50815,0.24318
1700767682734375,-9.619365,-1.428979,1.643924,0.9509,0.60515,0.27318
1700767682742187,-9.601365,-1.430979,1.630924,0.11109,0.57415,0.27318
1700767682750000,-9.601365,-1.428979,1.632924,0.7709,0.58815,0.22618
1700767682757812,-9.594365,-1.431979,1.634924,0.14309,0.60515,0.20918
1700767682765625,-9.585365,-1.417979,1.646924,0.22809,0.56015,0.28718
1700767682773437,-9.601365,-1.418979,1.657924,0.16809,0.53815,0.22718
1700767682781250,-9.592365,-1.422979,1.657924,0.27309,0.51215,0.20918
1700767682789062,-9.583365,-1.409979,1.650924,0.25409,0.51115,0.20918
1700767682796875,-9.583365,-1.420979,1.641924,0.24909,0.52315,0.22718
1700767682804687,-9.589365,-1.422979,1.646924,0.21009,0.55915,0.24018
1700767682812500,-9.594365,-1.419979,1.634924,0.19709,0.51415,0.20618
1700767682820312,-9.594365,-1.415979,1.630924,0.12709,0.55815,0.25718
1700767682828125,-9.599365,-1.415979,1.630924,0.14309,0.60515,0.19318
1700767682835937,-9.599365,-1.422979,1.623924,0.15909,0.57415,0.22518
1700767682843750,-9.585365,-1.426979,1.625924,0.24009,0.59015,0.24118
1700767682851562,-9.581365,-1.424979,1.623924,0.17209,0.49415,0.22618
1700767682859375,-9.592365,-1.433979,1.623924,0.22409,0.52815,0.17718
1700767682867187,-9.588365,-1.429979,1.625924,0.13709,0.47715,0.17918
1700767682875000,-9.599365,-1.433979,1.621924,0.18409,0.46115,0.16318
1700767682882812,-9.598365,-1.435979,1.623924,0.28609,0.62015,0.17818
1700767682890625,-9.597365,-1.422979,1.626924,0.20109,0.53815,0.29118
1700767682898437,-9.594365,-1.438979,1.621924,0.16909,0.52215,0.25918
1700767682906250,-9.585365,-1.437979,1.628924,0.20909,0.60615,0.20818
1700767682914062,-9.585365,-1.433979,1.630924,0.17409,0.54115,0.29018
1700767682921875,-9.587365,-1.440979,1.625924,0.20509,0.58715,0.32218
1700767682929687,-9.596365,-1.431979,1.630924,0.15909,0.55815,0.22518
1700767682937500,-9.594365,-1.437979,1.630924,0.5909,0.55515,0.29018
1700767682945312,-9.601365,-1.435979,1.630924,0.17609,0.54315,0.24118
1700767682953125,-9.590365,-1.420979,1.625924,0.24009,0.51215,0.19318
1700767682960937,-9.578365,-1.419979,1.628924,0.22909,0.54515,0.25418
1700767682968750,-9.590365,-1.408979,1.623924,0.21209,0.52915,0.27118
1700767682976562,-9.595365,-1.394979,1.626924,0.18209,0.55215,0.21218
1700767682984375,-9.594365,-1.397979,1.619924,0.22409,0.54315,0.25718
1700767682992187,-9.594365,-1.392979,1.610924,0.21109,0.51315,0.22318
1700767683000000,-9.595365,-1.391979,1.612924,0.17209,0.50915,0.22618
1700767683007812,-9.597365,-1.407979,1.607924,0.21909,0.53915,0.25918
1700767683015625,-9.581365,-1.402979,1.601924,0.17009,0.55415,0.27518
1700767683023437,-9.581365,-1.396979,1.607924,0.20109,0.50715,0.27518
1700767683031250,-9.572365,-1.391979,1.612924,0.23709,0.52515,0.24218
1700767683039062,-9.568365,-1.389979,1.607924,0.19209,0.48115,0.19318
1700767683046875,-9.565365,-1.390979,1.609924,0.22909,0.49815,0.23818
1700767683054687,-9.567365,-1.393979,1.607924,0.24209,0.49715,0.24018
1700767683062500,-9.579365,-1.407979,1.587924,0.23409,0.57015,0.22718
1700767683070312,-9.599365,-1.402979,1.605924,0.25409,0.49515,0.17718
1700767683078125,-9.635365,-1.411979,1.587924,0.26509,0.50715,0.17918
1700767683085937,-9.652365,-1.425979,1.580924,0.27109,0.49515,0.20918
1700767683093750,-9.648365,-1.428979,1.594924,0.18609,0.53915,0.25918
1700767683101562,-9.635365,-1.431979,1.594924,0.23109,0.55215,0.22818
1700767683109375,-9.621365,-1.438979,1.580924,0.21409,0.53515,0.32518
1700767683117187,-9.612365,-1.435979,1.596924,0.19109,0.57215,0.33818
1700767683125000,-9.591365,-1.439979,1.600924,0.21209,0.57515,0.33518
1700767683132812,-9.594365,-1.429979,1.605924,0.23809,0.52415,0.32218
1700767683140625,-9.590365,-1.420979,1.592924,0.21809,0.49115,0.33918
1700767683148437,-9.592365,-1.404979,1.601924,0.17509,0.43215,0.28918
1700767683156250,-9.597365,-1.409979,1.607924,0.20109,0.47515,0.27518
1700767683164062,-9.606365,-1.415979,1.612924,0.13909,0.46115,0.27518
1700767683171875,-9.617365,-1.406979,1.614924,0.2809,0.47715,0.29018
1700767683179687,-9.615365,-1.404979,1.610924,0.15909,0.51015,0.29018
1700767683187500,-9.617365,-1.413979,1.612924,0.18809,0.47815,0.19418
1700767683195312,-9.608365,-1.415979,1.610924,0.1309,0.49415,0.25818
1700767683203125,-9.599365,-1.413979,1.591924,0.12709,0.51215,0.20918
1700767683210937,-9.588365,-1.398979,1.596924,0.15309,0.52215,0.30718
1700767683218750,-9.586365,-1.398979,1.592924,0.12609,0.49415,0.29018
1700767683226562,-9.581365,-1.395979,1.598924,0.17509,0.51015,0.29018
1700767683234375,-9.576365,-1.391979,1.587924,0.11409,0.46615,0.25618
1700767683242187,-9.577365,-1.393979,1.603924,0.15809,0.44815,0.24118
1700767683250000,-9.579365,-1.391979,1.610924,0.12909,0.38715,0.28918
1700767683257812,-9.590365,-1.400979,1.598924,0.19409,0.44915,0.32118
1700767683265625,-9.606365,-1.393979,1.594924,0.22609,0.45115,0.19218
1700767683273437,-9.615365,-1.400979,1.580924,0.21709,0.52215,0.25918
1700767683281250,-9.612365,-1.420979,1.596924,0.13609,0.53815,0.22718
1700767683289062,-9.626365,-1.422979,1.603924,0.15309,0.55515,0.21118
1700767683296875,-9.625365,-1.432979,1.612924,0.22209,0.49515,0.19318
1700767683304687,-9.637365,-1.423979,1.596924,0.19209,0.49615,0.22518
1700767683312500,-9.659365,-1.416979,1.573924,0.9709,0.55915,0.25618
1700767683320312,-9.652365,-1.407979,1.578924,0.21009,0.55915,0.24018
1700767683328125,-9.648365,-1.390979,1.576924,0.20809,0.52715,0.22518
1700767683335937,-9.648365,-1.396979,1.582924,0.21209,0.48315,0.15818
1700767683343750,-9.630365,-1.390979,1.587924,0.14609,0.51415,0.15918
1700767683351562,-9.612365,-1.393979,1.589924,0.17309,0.52615,0.17718
1700767683359375,-9.617365,-1.390979,1.587924,0.14109,0.52615,0.17718
1700767683367187,-9.615365,-1.400979,1.605924,0.12309,0.51015,0.16218
1700767683375000,-9.613365,-1.400979,1.594924,0.10509,0.55515,0.21118
1700767683382812,-9.617365,-1.402979,1.571924,0.12509,0.55715,0.22618
1700767683390625,-9.597365,-1.400979,1.580924,0.5409,0.50715,0.16318
1700767683398437,-9.608365,-1.402979,1.580924,0.7109,0.63315,0.13118
1700767683406250,-9.601365,-1.411979,1.578924,0.4209,0.52515,0.13018
1700767683414062,-9.594365,-1.395979,1.569924,0.15909,0.54315,0.16118
1700767683421875,-9.594365,-1.399979,1.553924,0.17609,0.59115,0.14418
1700767683429687,-9.601365,-1.391979,1.569924,0.23709,0.58915,0.13018
1700767683437500,-9.612365,-1.397979,1.569924,0.14109,0.52715,0.14518
1700767683445312,-9.620365,-1.391979,1.574924,0.14709,0.53615,0.13318
1700767683453125,-9.633365,-1.397979,1.556924,0.16709,0.50715,0.16318
1700767683460937,-9.637365,-1.410979,1.546924,0.15409,0.52415,0.21118
1700767683468750,-9.628365,-1.406979,1.542924,0.10509,0.58615,0.21118
1700767683476562,-9.628365,-1.417979,1.573924,0.15809,0.60415,0.25818
1700767683484375,-9.599365,-1.411979,1.576924,0.18709,0.63415,0.19418
1700767683492187,-9.590365,-1.402979,1.585924,0.25809,0.56015,0.22418
1700767683500000,-9.597365,-1.402979,1.598924,0.14109,0.57315,0.21018
1700767683507812,-9.612365,-1.417979,1.605924,0.14109,0.57315,0.22618
1700767683515625,-9.623365,-1.430979,1.598924,0.15709,0.54215,0.17718
1700767683523437,-9.614365,-1.417979,1.582924,0.12709,0.52715,0.19318
1700767683531250,-9.605365,-1.424979,1.573924,0.17109,0.49415,0.16218
1700767683539062,-9.601365,-1.426979,1.580924,0.15909,0.48115,0.16118
1700767683546875,-9.600365,-1.414979,1.600924,0.26309,0.51515,0.17318
1700767683554687,-9.594365,-1.394979,1.596924,0.16409,0.51415,0.20618
1700767683562500,-9.592365,-1.384979,1.580924,0.21009,0.54315,0.28818
1700767683570312,-9.604365,-1.360979,1.587924,0.26909,0.55615,0.24218
1700767683578125,-9.586365,-1.356979,1.583924,0.26609,0.60215,0.17918
1700767683585937,-9.600365,-1.353979,1.560924,0.22009,0.52515,0.17818
1700767683593750,-9.606365,-1.357979,1.558924,0.17309,0.57315,0.16218
1700767683601562,-9.613365,-1.355979,1.553924,0.17309,0.55815,0.16218
1700767683609375,-9.606365,-1.355979,1.569924,0.24009,0.52815,0.17718
1700767683617187,-9.612365,-1.381979,1.555924,0.27409,0.51315,0.22418
1700767683625000,-9.615365,-1.397979,1.544924,0.25509,0.51115,0.24118
1700767683632812,-9.612365,-1.417979,1.551924,0.25609,0.52715,0.22518
1700767683640625,-9.590365,-1.424979,1.578924,0.27009,0.51115,0.17718
1700767683648437,-9.581365,-1.433979,1.589924,0.25209,0.55615,0.21018
1700767683656250,-9.589365,-1.444979,1.592924,0.27009,0.55815,0.21018
1700767683664062,-9.607365,-1.446979,1.598924,0.25809,0.54415,0.19218
1700767683671875,-9.630365,-1.432979,1.605924,0.23809,0.55715,0.22618
1700767683679687,-9.634365,-1.433979,1.594924,0.20209,0.57015,0.22718
1700767683687500,-9.638365,-1.431979,1.569924,0.21309,0.62315,0.23818
1700767683695312,-9.650365,-1.425979,1.567924,0.20709,0.63715,0.20918
1700767683703125,-9.616365,-1.421979,1.564924,0.29209,0.60715,0.22318
1700767683710937,-9.610365,-1.426979,1.564924,0.20709,0.59015,0.17718
1700767683718750,-9.576365,-1.429979,1.578924,0.18609,0.68115,0.16218
1700767683726562,-9.563365,-1.431979,1.564924,0.23509,0.57215,0.16218
1700767683734375,-9.549365,-1.447979,1.569924,0.28009,0.64715,0.18018
1700767683742187,-9.552365,-1.445979,1.567924,0.16509,0.55315,0.16418
1700767683750000,-9.563365,-1.443979,1.569924,0.10309,0.50715,0.17918
1700767683757812,-9.587365,-1.435979,1.576924,0.15309,0.47715,0.14718
1700767683765625,-9.605365,-1.424979,1.580924,0.9609,0.54415,0.16018
1700767683773437,-9.615365,-1.411979,1.578924,0.21809,0.55515,0.17918
1700767683781250,-9.619365,-1.413979,1.574924,0.12109,0.50815,0.17918
1700767683789062,-9.615365,-1.422979,1.571924,0.8609,0.60115,0.14718
1700767683796875,-9.608365,-1.426979,1.551924,0.15509,0.55615,0.16218
1700767683804687,-9.612365,-1.424979,1.553924,0.24009,0.54315,0.17718
1700767683812500,-9.605365,-1.422979,1.555924,0.24909,0.63315,0.14718
1700767683820312,-9.612365,-1.426979,1.553924,0.21909,0.61915,0.16218
1700767683828125,-9.610365,-1.424979,1.558924,0.13909,0.55615,0.17818
1700767683835937,-9.601365,-1.426979,1.549924,0.17009,0.52415,0.21118
1700767683843750,-9.596365,-1.442979,1.562924,0.19109,0.55915,0.19318
1700767683851562,-9.585365,-1.440979,1.576924,0.17109,0.54115,0.16218
1700767683859375,-9.579365,-1.429979,1.574924,0.25109,0.55515,0.24318
1700767683867187,-9.598365,-1.430979,1.560924,0.25809,0.54415,0.20818
1700767683875000,-9.609365,-1.428979,1.562924,0.22709,0.59215,0.19118
1700767683882812,-9.621365,-1.432979,1.558924,0.24109,0.54415,0.17618
1700767683890625,-9.612365,-1.424979,1.558924,0.26709,0.57315,0.11418
1700767683898437,-9.612365,-1.421979,1.553924,0.25609,0.62315,0.11218
1700767683906250,-9.612365,-1.404979,1.544924,0.18509,0.52415,0.16318
1700767683914062,-9.614365,-1.408979,1.535924,0.22209,0.57515,0.8118
1700767683921875,-9.608365,-1.418979,1.542924,0.15109,0.53915,0.13118
1700767683929687,-9.617365,-1.426979,1.522924,0.18509,0.55515,0.16318
1700767683937500,-9.619365,-1.424979,1.528924,0.25309,0.63615,0.17818
1700767683945312,-9.614365,-1.423979,1.537924,0.24109,0.57515,0.17618
1700767683953125,-9.614365,-1.425979,1.519924,0.13109,0.59215,0.15818
1700767683960937,-9.608365,-1.422979,1.533924,0.17009,0.61915,0.14618
1700767683968750,-9.598365,-1.424979,1.537924,0.16009,0.62215,0.17618
1700767683976562,-9.605365,-1.422979,1.540924,0.7309,0.63415,0.14618
1700767683984375,-9.601365,-1.416979,1.537924,0.3609,0.64615,0.19618
1700767683992187,-9.605365,-1.410979,1.540924,0.9609,0.59115,0.17618
1700767684000000,-9.612365,-1.417979,1.540924,0.15409,0.58815,0.14618
1700767684007812,-9.628365,-1.426979,1.546924,0.14009,0.62015,0.16218
1700767684015625,-9.614365,-1.424979,1.553924,0.25409,0.52715,0.17718
1700767684023437,-9.614365,-1.426979,1.555924,0.12409,0.60415,0.17818
1700767684031250,-9.614365,-1.428979,1.555924,0.19109,0.62115,0.20918
1700767684039062,-9.616365,-1.435979,1.567924,0.25609,0.60615,0.19318
1700767684046875,-9.603365,-1.438979,1.576924,0.18309,0.61615,0.21218
1700767684054687,-9.598365,-1.446979,1.569924,0.20209,0.60115,0.25918
1700767684062500,-9.598365,-1.444979,1.571924,0.12509,0.61915,0.25818
1700767684070312,-9.598365,-1.446979,1.562924,0.10809,0.58915,0.16218
1700767684078125,-9.598365,-1.449979,1.567924,0.16909,0.55515,0.17918
1700767684085937,-9.607365,-1.446979,1.564924,0.15509,0.55615,0.16218
1700767684093750,-9.605365,-1.444979,1.551924,0.9209,0.65115,0.17818
1700767684101562,-9.599365,-1.429979,1.537924,0.12009,0.66415,0.16318
1700767684109375,-9.597365,-1.420979,1.549924,0.10409,0.69515,0.17918
1700767684117187,-9.592365,-1.428979,1.549924,0.19309,0.57515,0.20818
1700767684125000,-9.594365,-1.431979,1.562924,0.12509,0.54215,0.22618
1700767684132812,-9.598365,-1.432979,1.576924,0.5009,0.57515,0.23918
1700767684140625,-9.607365,-1.426979,1.573924,0.6009,0.52615,0.14518
1700767684148437,-9.614365,-1.426979,1.578924,0.18509,0.54015,0.11518
1700767684156250,-9.620365,-1.434979,1.585924,0.9909,0.54515,0.15818
1700767684164062,-9.614365,-1.428979,1.587924,0.7809,0.57415,0.19318
1700767684171875,-9.603365,-1.433979,1.585924,0.13909,0.52515,0.19418
1700767684179687,-9.598365,-1.428979,1.573924,0.3109,0.56015,0.16018
1700767684187500,-9.601365,-1.430979,1.562924,0.6309,0.55815,0.24118
1700767684195312,-9.603365,-1.432979,1.553924,0.8009,0.54415,0.19218
1700767684203125,-9.611365,-1.425979,1.558924,0.9909,0.60715,0.19018
1700767684210937,-9.614365,-1.424979,1.551924,0.13809,0.55715,0.14618
1700767684218750,-9.592365,-1.424979,1.546924,0.17309,0.55815,0.16218
1700767684226562,-9.596365,-1.415979,1.546924,0.9309,0.54215,0.21018
1700767684234375,-9.585365,-1.422979,1.556924,0.15109,0.56915,0.19518
1700767684242187,-9.583365,-1.442979,1.569924,0.9209,0.55715,0.17818
1700767684250000,-9.580365,-1.446979,1.567924,0.6209,0.54315,0.19318
1700767684257812,-9.593365,-1.466979,1.571924,0.4909,0.57615,0.19118
1700767684265625,-9.598365,-1.457979,1.569924,0.15709,0.52615,0.17718
1700767684273437,-9.607365,-1.450979,1.562924,0.8009,0.51315,0.16018
1700767684281250,-9.618365,-1.440979,1.573924,0.6909,0.54615,0.17318
1700767684289062,-9.634365,-1.427979,1.569924,0.8609,0.60915,0.15618
1700767684296875,-9.649365,-1.447979,1.576924,0.1709,0.56015,0.17518
1700767684304687,-9.663365,-1.461979,1.571924,0.11009,0.63715,0.16118
1700767684312500,-9.640365,-1.467979,1.560924,0.22209,0.71515,0.17718
1700767684320312,-9.618365,-1.460979,1.553924,0.24409,0.67015,0.20618
1700767684328125,-9.609365,-1.467979,1.542924,0.3409,0.65415,0.14218
1700767684335937,-9.584365,-1.459979,1.558924,0.4709,0.57515,0.16018
1700767684343750,-9.580365,-1.446979,1.578924,0.6109,0.63615,0.17718
1700767684351562,-9.573365,-1.449979,1.573924,0.7809,0.54315,0.17718
1700767684359375,-9.580365,-1.435979,1.555924,0.4509,0.65215,0.14518
1700767684367187,-9.598365,-1.426979,1.546924,0.16209,0.59215,0.14318
1700767684375000,-9.598365,-1.433979,1.535924,0.14309,0.51215,0.14518
1700767684382812,-9.596365,-1.426979,1.531924,0.13709,0.53915,0.17918
1700767684390625,-9.594365,-1.416979,1.513924,0.16709,0.53815,0.16318
1700767684398437,-9.610365,-1.411979,1.517924,0.23709,0.58915,0.17818
1700767684406250,-9.628365,-1.424979,1.537924,0.17009,0.53915,0.21118
1700767684414062,-9.632365,-1.430979,1.540924,0.7209,0.63315,0.19518
1700767684421875,-9.634365,-1.437979,1.533924,0.7809,0.63615,0.22518
1700767684429687,-9.627365,-1.459979,1.540924,0.9509,0.65215,0.25718
1700767684437500,-9.625365,-1.464979,1.531924,0.7309,0.61715,0.25918
1700767684445312,-9.614365,-1.475979,1.535924,0.8909,0.60115,0.24318
1700767684453125,-9.587365,-1.471979,1.551924,0.20509,0.63515,0.21018
1700767684460937,-9.573365,-1.462979,1.589924,0.22509,0.62215,0.20818
1700767684468750,-9.571365,-1.460979,1.592924,0.17309,0.63515,0.17818
1700767684476562,-9.583365,-1.453979,1.592924,0.17009,0.66515,0.17818
1700767684484375,-9.589365,-1.446979,1.589924,0.5609,0.61715,0.22718
1700767684492187,-9.612365,-1.444979,1.583924,0.7309,0.57015,0.21118
1700767684500000,-9.632365,-1.457979,1.571924,0.21609,0.63115,0.22818
1700767684507812,-9.636365,-1.452979,1.578924,0.4309,0.68215,0.17818
1700767684515625,-9.639365,-1.450979,1.553924,0.15309,0.64815,0.21118
1700767684523437,-9.609365,-1.457979,1.535924,0.17309,0.65115,0.21018
1700767684531250,-9.598365,-1.454979,1.542924,0.21009,0.71615,0.19118
1700767684539062,-9.575365,-1.450979,1.544924,0.21009,0.66915,0.22318
1700767684546875,-9.575365,-1.462979,1.564924,0.23909,0.68315,0.22518
1700767684554687,-9.576365,-1.460979,1.562924,0.19009,0.65015,0.27418
1700767684562500,-9.578365,-1.458979,1.549924,0.20309,0.66515,0.21018
1700767684570312,-9.576365,-1.455979,1.546924,0.14109,0.63515,0.24218
1700767684578125,-9.598365,-1.437979,1.542924,0.19409,0.65415,0.22318
1700767684585937,-9.603365,-1.442979,1.549924,0.26409,0.63115,0.24418
1700767684593750,-9.600365,-1.451979,1.555924,0.20609,0.65015,0.25818
1700767684601562,-9.611365,-1.457979,1.573924,0.23709,0.69815,0.21018
1700767684609375,-9.598365,-1.459979,1.560924,0.19009,0.60415,0.25818
1700767684617187,-9.598365,-1.455979,1.555924,0.10809,0.64915,0.32218
1700767684625000,-9.598365,-1.470979,1.555924,0.4909,0.60515,0.28818
1700767684632812,-9.607365,-1.464979,1.546924,0.20709,0.66815,0.22518
1700767684640625,-9.600365,-1.446979,1.562924,0.19009,0.60415,0.24218
1700767684648437,-9.603365,-1.446979,1.551924,0.25509,0.65015,0.29018
1700767684656250,-9.598365,-1.428979,1.560924,0.25809,0.60615,0.22418
1700767684664062,-9.605365,-1.442979,1.571924,0.25209,0.63415,0.24218
1700767684671875,-9.589365,-1.462979,1.576924,0.12609,0.54115,0.29018
1700767684679687,-9.593365,-1.462979,1.555924,0.15709,0.66615,0.21018
1700767684687500,-9.602365,-1.466979,1.553924,0.16109,0.60615,0.20818
1700767684695312,-9.593365,-1.464979,1.551924,0.19209,0.57415,0.27318
1700767684703125,-9.578365,-1.455979,1.558924,0.14409,0.68415,0.24018
1700767684710937,-9.576365,-1.458979,1.555924,0.20309,0.63415,0.17818
1700767684718750,-9.576365,-1.457979,1.560924,0.20709,0.57415,0.19318
1700767684726562,-9.589365,-1.449979,1.558924,0.16909,0.66415,0.22718
1700767684734375,-9.600365,-1.434979,1.562924,0.11609,0.59315,0.15718
1700767684742187,-9.612365,-1.433979,1.560924,0.25609,0.59015,0.19318
1700767684750000,-9.616365,-1.446979,1.551924,0.20509,0.58915,0.17818
1700767684757812,-9.623365,-1.448979,1.573924,0.19109,0.57415,0.19318
1700767684765625,-9.632365,-1.450979,1.567924,0.12709,0.65115,0.27318
1700767684773437,-9.628365,-1.448979,1.567924,0.15109,0.67815,0.24418
1700767684781250,-9.619365,-1.444979,1.571924,0.28009,0.67815,0.24418
1700767684789062,-9.605365,-1.429979,1.569924,0.12209,0.57015,0.27518
1700767684796875,-9.605365,-1.433979,1.555924,0.8909,0.64815,0.29118
1700767684804687,-9.619365,-1.444979,1.553924,0.3809,0.70915,0.29218
1700767684812500,-9.614365,-1.441979,1.558924,0.9409,0.65215,0.24118
1700767684820312,-9.606365,-1.440979,1.556924,0.14809,0.67515,0.29318
1700767684828125,-9.587365,-1.448979,1.537924,0.1609,0.66815,0.27218
1700767684835937,-9.591365,-1.444979,1.537924,0.7809,0.68315,0.27318
1700767684843750,-9.603365,-1.435979,1.540924,0.7809,0.66715,0.22518
1700767684851562,-9.614365,-1.426979,1.542924,0.10809,0.62015,0.21018
1700767684859375,-9.612365,-1.446979,1.553924,0.9009,0.71215,0.22618
1700767684867187,-9.619365,-1.430979,1.560924,0.909,0.61815,0.17818
1700767684875000,-9.609365,-1.423979,1.546924,0.1709,0.62215,0.22318
1700767684882812,-9.621365,-1.437979,1.546924,0.3009,0.60515,0.20918
1700767684890625,-9.636365,-1.440979,1.542924,0.2991,0.65415,0.19018
1700767684898437,-9.629365,-1.450979,1.542924,0.1309,0.63615,0.19318
1700767684906250,-9.614365,-1.446979,1.537924,0.291,0.71415,0.27318
1700767684914062,-9.609365,-1.450979,1.537924,0.1409,0.74615,0.20818
1700767684921875,-9.596365,-1.446979,1.544924,0.491,0.66615,0.22618
1700767684929687,-9.589365,-1.444979,1.551924,0.2709,0.69715,0.21018
1700767684937500,-9.587365,-1.433979,1.551924,0.1009,0.56915,0.33918
1700767684945312,-9.590365,-1.424979,1.558924,0.391,0.57215,0.27418
1700767684953125,-9.598365,-1.436979,1.551924,0.509,0.56115,0.23718
1700767684960937,-9.601365,-1.431979,1.553924,0.1009,0.66415,0.30618
1700767684968750,-9.609365,-1.421979,1.542924,0.1291,0.65315,0.27018
1700767684976562,-9.603365,-1.423979,1.542924,0.109,0.65315,0.28718
1700767684984375,-9.614365,-1.420979,1.555924,0.891,0.69415,0.24318
1700767684992187,-9.608365,-1.427979,1.540924,0.409,0.66115,0.26018
1700767685000000,-9.617365,-1.424979,1.537924,0.2709,0.63315,0.33818
1700767685007812,-9.619365,-1.428979,1.540924,0.5509,0.64615,0.27618
1700767685015625,-9.616365,-1.423979,1.533924,0.4709,0.65315,0.22418
1700767685023437,-9.614365,-1.412979,1.542924,0.109,0.65315,0.25518
1700767685031250,-9.612365,-1.421979,1.555924,0.2009,0.57515,0.31818
1700767685039062,-9.596365,-1.417979,1.546924,0.391,0.61915,0.24218
1700767685046875,-9.576365,-1.415979,1.544924,0.1291,0.56015,0.22218
1700767685054687,-9.581365,-1.404979,1.558924,0.1309,0.65215,0.20918
1700767685062500,-9.583365,-1.393979,1.569924,0.391,0.57215,0.24218
1700767685070312,-9.575365,-1.385979,1.576924,0.2391,0.58615,0.22718
1700767685078125,-9.586365,-1.391979,1.573924,0.1209,0.63515,0.25818
1700767685085937,-9.604365,-1.380979,1.553924,0.591,0.61815,0.25818
1700767685093750,-9.615365,-1.380979,1.555924,0.791,0.60115,0.19518
1700767685101562,-9.615365,-1.386979,1.555924,0.11209,0.66815,0.25618
1700767685109375,-9.621365,-1.401979,1.560924,0.9209,0.58915,0.17818
1700767685117187,-9.637365,-1.421979,1.549924,0.1309,0.62115,0.17718
1700767685125000,-9.648365,-1.428979,1.533924,0.11009,0.65215,0.19318
1700767685132812,-9.650365,-1.437979,1.531924,0.20009,0.66215,0.26018
1700767685140625,-9.636365,-1.447979,1.535924,0.11409,0.62215,0.20718
1700767685148437,-9.616365,-1.446979,1.549924,0.9609,0.66815,0.22418
1700767685156250,-9.618365,-1.443979,1.569924,0.291,0.68315,0.24118
1700767685164062,-9.625365,-1.439979,1.569924,0.12409,0.66615,0.22618
1700767685171875,-9.623365,-1.435979,1.576924,0.1409,0.71315,0.30518
1700767685179687,-9.621365,-1.417979,1.571924,0.2809,0.72815,0.29018
1700767685187500,-9.619365,-1.419979,1.562924,0.6209,0.68315,0.25718
1700767685195312,-9.614365,-1.426979,1.573924,0.3109,0.76115,0.24018
1700767685203125,-9.605365,-1.422979,1.576924,0.909,0.71115,0.22618
1700767685210937,-9.601365,-1.422979,1.573924,0.691,0.63415,0.21018
1700767685218750,-9.594365,-1.427979,1.580924,0.3609,0.66115,0.18018
1700767685226562,-9.590365,-1.424979,1.589924,0.5709,0.71215,0.16218
1700767685234375,-9.587365,-1.426979,1.583924,0.5709,0.65015,0.16218
1700767685242187,-9.591365,-1.446979,1.585924,0.2909,0.62115,0.17718
