time,Acceleration X (m/s^2),Acceleration Y (m/s^2),Acceleration Z (m/s^2),Angular Velocity X (rad/s),Angular Velocity Y (rad/s),Angular Velocity Z (rad/s)
1698344323875000,-9.754756,-0.014242,,,,
1698344323882812,-9.763756,0.352584,0.31961,0.89558,0.12442,0.348
1698344323890625,-9.765756,0.357584,0.34961,0.91058,0.14242,0.2048
1698344323898437,-9.767756,0.364584,0.36961,0.87258,0.18742,0.652
1698344323906250,-9.772756,0.366584,0.25961,0.87958,0.9442,0.448
1698344323914062,-9.770756,0.381584,0.47961,0.95658,0.12942,0.1152
1698344323929687,-9.757756,0.406584,0.65961,0.90958,0.13142,0.952
1698344323937500,-9.761756,0.415584,0.58961,0.96958,0.15142,0.648
1698344323945312,-9.780756,0.430584,0.34961,0.87758,0.11442,0.952
1698344323953125,-9.795756,0.440584,0.29961,0.90458,0.13842,0.848
1698344323976562,-9.836756,0.440584,0.10039,0.89558,0.17542,0.4352
1698344323984375,-9.834756,0.453584,0.40039,0.91058,0.25842,0.4252
1698344323992187,-9.816756,0.453584,0.42039,0.93958,0.28042,0.2452
1698344324000000,-9.803756,0.448584,0.22039,0.83358,0.36642,0.1152
1698344324007812,-9.777756,0.455584,0.24039,0.88858,0.31642,0.948
1698344324015625,-9.767756,0.457584,0.13039,0.87658,0.27842,0.852
1698344324023437,-9.758756,0.445584,0.4961,0.79758,0.25842,0.8748
1698344324031250,-9.760756,0.434584,0.20961,0.72158,0.23842,0.3848
1698344324039062,-9.755756,0.432584,0.22961,0.67258,0.29642,0.2152
1698344324046875,-9.752756,0.414584,0.20961,0.75158,0.24542,0.2352
1698344324054687,-9.757756,0.406584,0.27961,0.66958,0.30042,0.1248
1698344324062500,-9.768756,0.399584,0.27961,0.71958,0.27842,0.652
1698344324070312,-9.793756,0.401584,0.16961,0.88058,0.22042,0.348
1698344324078125,-9.793756,0.402584,0.22961,0.83058,0.26042,0.852
1698344324085937,-9.782756,0.399584,0.16961,0.89558,0.20642,0.448
1698344324093750,-9.770756,0.403584,0.22961,0.90858,0.32442,0.648
1698344324101562,-9.773756,0.417584,0.13961,0.89558,0.23942,0.1152
1698344324109375,-9.766756,0.437584,0.10039,0.89258,0.26242,0.748
1698344324117187,-9.771756,0.441584,0.24039,0.89158,0.15142,0.852
1698344324125000,-9.771756,0.439584,0.44039,0.90958,0.14542,0.548
1698344324132812,-9.773756,0.439584,0.44039,0.89558,0.19342,0.4252
1698344324140625,-9.782756,0.433584,0.35039,0.90858,0.21442,0.4052
1698344324148437,-9.789756,0.435584,0.35039,0.89358,0.24342,0.648
1698344324156250,-9.789756,0.428584,0.42039,0.87758,0.16342,0.648
1698344324164062,-9.780756,0.430584,0.44039,0.90858,0.14942,0.952
1698344324171875,-9.776756,0.452584,0.26039,0.89458,0.12542,0.3648
1698344324179687,-9.776756,0.468584,0.10039,0.90958,0.25642,0.3748
1698344324187500,-9.764756,0.459584,0.7961,0.87758,0.24342,0.2248
1698344324195312,-9.769756,0.461584,0.2961,0.82958,0.27842,0.848
1698344324203125,-9.769756,0.448584,0.2961,0.64258,0.22742,0.652
1698344324210937,-9.755756,0.419584,0.7961,0.73858,0.25342,0.548
1698344324218750,-9.748756,0.410584,0.2961,0.75158,0.21242,0.752
1698344324226562,-9.741756,0.394584,0.0,0.75258,0.21042,0.748
1698344324234375,-9.763756,0.374584,0.6039,0.78458,0.16042,0.952
1698344324242187,-9.775756,0.390584,0.15039,0.81658,0.19142,0.548
1698344324250000,-9.792756,0.388584,0.17039,0.87758,0.13142,0.952
1698344324257812,-9.795756,0.397584,0.31039,0.86258,0.14742,0.2552
1698344324265625,-9.800756,0.415584,0.44039,0.89358,0.9842,0.648
1698344324273437,-9.798756,0.424584,0.22039,0.90958,0.12942,0.1052
1698344324281250,-9.794756,0.446584,0.37039,0.88058,0.14042,0.348
1698344324289062,-9.794756,0.448584,0.37039,0.89558,0.12642,0.1152
1698344324296875,-9.794756,0.452584,0.24039,0.91158,0.14042,0.348
1698344324304687,-9.809756,0.442584,0.15039,0.89458,0.12742,0.1152
1698344324312500,-9.796756,0.430584,0.37039,0.89658,0.17342,0.2852
1698344324320312,-9.791756,0.430584,0.37039,0.90858,0.21242,0.952
1698344324328125,-9.778756,0.439584,0.28039,0.89258,0.18042,0.2248
1698344324335937,-9.791756,0.439584,0.22039,0.89258,0.16342,0.648
1698344324343750,-9.804756,0.433584,0.49039,0.84558,0.22942,0.2348
1698344324351562,-9.798756,0.435584,0.42039,0.89358,0.18042,0.2552
1698344324359375,-9.782756,0.430584,0.13039,0.84458,0.27942,0.848
1698344324367187,-9.768756,0.419584,0.4039,0.87758,0.30942,0.852
1698344324375000,-9.748756,0.428584,0.20961,0.89358,0.24542,0.5752
1698344324382812,-9.755756,0.430584,0.13961,0.91058,0.24442,0.5752
1698344324390625,-9.764756,0.439584,0.16961,0.86358,0.23842,0.1152
1698344324398437,-9.778756,0.446584,0.13961,0.84758,0.25542,0.548
1698344324406250,-9.787756,0.455584,0.6039,0.78358,0.21242,0.752
1698344324414062,-9.812756,0.455584,0.1039,0.84858,0.17342,0.448
1698344324421875,-9.825756,0.444584,0.17039,0.75358,0.12942,0.852
1698344324429687,-9.802756,0.431584,0.22039,0.74958,0.27942,0.4148
1698344324437500,-9.789756,0.412584,0.24039,0.76858,0.25542,0.3848
1698344324445312,-9.766756,0.406584,0.1039,0.71758,0.29842,0.552
1698344324453125,-9.755756,0.416584,0.6039,0.72158,0.22342,0.648
1698344324460937,-9.759756,0.415584,0.15039,0.73458,0.16742,0.652
1698344324468750,-9.757756,0.417584,0.17039,0.82958,0.26142,0.848
1698344324476562,-9.762756,0.421584,0.42039,0.84658,0.16242,0.952
1698344324484375,-9.777756,0.415584,0.51039,0.74758,0.17142,0.1048
1698344324492187,-9.761756,0.410584,0.44039,0.75158,0.18142,0.848
1698344324500000,-9.766756,0.412584,0.37039,0.76658,0.26342,0.652
1698344324507812,-9.773756,0.415584,0.19039,0.73558,0.22842,0.848
1698344324515625,-9.770756,0.410584,0.35039,0.79658,0.23242,0.652
1698344324523437,-9.771756,0.408584,0.35039,0.81758,0.14042,0.448
1698344324531250,-9.771756,0.437584,0.31039,0.73758,0.20942,0.852
1698344324539062,-9.791756,0.435584,0.17039,0.82658,0.20242,0.2548
1698344324546875,-9.795756,0.431584,0.17039,0.90558,0.21442,0.10348
1698344324554687,-9.795756,0.433584,0.19039,0.90958,0.19442,0.548
1698344324562500,-9.789756,0.441584,0.6039,0.81558,0.19142,0.2148
1698344324570312,-9.780756,0.448584,0.0,0.83258,0.15642,0.448
1698344324578125,-9.776756,0.468584,0.22039,0.78258,0.19742,0.848
1698344324585937,-9.780756,0.477584,0.22039,0.73658,0.21242,0.752
1698344324593750,-9.794756,0.486584,0.31039,0.72058,0.21042,0.4048
1698344324601562,-9.783756,0.486584,0.44039,0.64058,0.21342,0.4248
1698344324609375,-9.785756,0.475584,0.49039,0.65758,0.28942,0.5648
1698344324617187,-9.785756,0.470584,0.64039,0.61058,0.25842,0.4148
1698344324625000,-9.778756,0.457584,0.64039,0.51358,0.31142,0.6048
1698344324632812,-9.764756,0.448584,0.51039,0.51558,0.27542,0.4348
1698344324640625,-9.762756,0.441584,0.40039,0.48458,0.22842,0.1148
1698344324648437,-9.766756,0.430584,0.37039,0.45258,0.16242,0.5948
1698344324656250,-9.759756,0.422584,0.35039,0.51058,0.25242,0.6248
1698344324664062,-9.773756,0.412584,0.42039,0.47058,0.22342,0.2548
1698344324671875,-9.779756,0.410584,0.53039,0.43758,0.16242,0.2748
1698344324679687,-9.772756,0.411584,0.44039,0.49658,0.23442,0.2948
1698344324687500,-9.773756,0.401584,0.37039,0.50158,0.14542,0.1048
1698344324695312,-9.768756,0.413584,0.47039,0.62258,0.28342,0.352
1698344324703125,-9.784756,0.417584,0.33039,0.60858,0.24642,0.4348
1698344324710937,-9.789756,0.428584,0.62039,0.62758,0.15942,0.848
1698344324718750,-9.791756,0.426584,0.53039,0.62758,0.27142,0.2348
1698344324726562,-9.784756,0.426584,0.42039,0.64158,0.24542,0.2648
1698344324734375,-9.762756,0.445584,0.31039,0.59658,0.27142,0.2448
1698344324742187,-9.762756,0.446584,0.33039,0.53158,0.27742,0.452
1698344324750000,-9.762756,0.457584,0.28039,0.46658,0.26442,0.1348
1698344324757812,-9.778756,0.457584,0.19039,0.51758,0.21042,0.552
1698344324765625,-9.780756,0.448584,0.31039,0.54858,0.25842,0.2548
1698344324773437,-9.796756,0.444584,0.46039,0.56358,0.30842,0.1048
1698344324781250,-9.798756,0.430584,0.42039,0.48558,0.30842,0.452
1698344324789062,-9.793756,0.417584,0.31039,0.42258,0.27542,0.2848
1698344324796875,-9.777756,0.410584,0.19039,0.48358,0.31242,0.1248
1698344324804687,-9.766756,0.410584,0.31039,0.57558,0.28342,0.352
1698344324812500,-9.759756,0.401584,0.35039,0.57758,0.29542,0.1148
1698344324820312,-9.761756,0.410584,0.37039,0.56358,0.32542,0.552
1698344324828125,-9.764756,0.428584,0.40039,0.53258,0.25942,0.1048
1698344324835937,-9.771756,0.432584,0.49039,0.53358,0.14342,0.948
1698344324843750,-9.775756,0.421584,0.44039,0.40458,0.26242,0.7748
1698344324851562,-9.784756,0.415584,0.40039,0.57458,0.18442,0.7648
1698344324859375,-9.773756,0.417584,0.46039,0.60858,0.21242,0.10648
1698344324867187,-9.788756,0.408584,0.42039,0.62558,0.26142,0.4248
1698344324875000,-9.786756,0.415584,0.31039,0.65358,0.31642,0.1248
1698344324882812,-9.782756,0.417584,0.35039,0.64158,0.27642,0.948
1698344324890625,-9.793756,0.427584,0.35039,0.65158,0.25442,0.252
1698344324898437,-9.786756,0.433584,0.24039,0.64158,0.27642,0.4148
1698344324906250,-9.791756,0.437584,0.33039,0.65758,0.16342,0.4148
1698344324914062,-9.796756,0.437584,0.26039,0.64158,0.27442,0.4148
1698344324921875,-9.794756,0.446584,0.31039,0.65958,0.30242,0.2348
1698344324929687,-9.807756,0.450584,0.40039,0.62758,0.36742,0.2348
1698344324937500,-9.818756,0.435584,0.44039,0.54658,0.47442,0.352
1698344324945312,-9.811756,0.424584,0.35039,0.56258,0.44042,0.452
1698344324953125,-9.811756,0.420584,0.28039,0.64158,0.45442,0.2648
1698344324960937,-9.784756,0.421584,0.2961,0.60958,0.34342,0.2748
1698344324968750,-9.764756,0.432584,0.4961,0.62458,0.35942,0.2748
1698344324976562,-9.760756,0.441584,0.2961,0.61258,0.27142,0.2348
1698344324984375,-9.764756,0.445584,0.17039,0.59658,0.30342,0.848
1698344324992187,-9.766756,0.452584,0.22039,0.49858,0.34342,0.6048
1698344325000000,-9.766756,0.446584,0.24039,0.57858,0.32742,0.452
1698344325007812,-9.769756,0.441584,0.28039,0.53258,0.32542,0.3752
1698344325015625,-9.768756,0.417584,0.33039,0.50058,0.29242,0.1148
1698344325023437,-9.770756,0.399584,0.53039,0.61358,0.30242,0.852
1698344325031250,-9.770756,0.368584,0.51039,0.59458,0.32542,0.2648
1698344325039062,-9.768756,0.361584,0.60039,0.61258,0.31842,0.748
1698344325046875,-9.767756,0.354584,0.69039,0.65858,0.27142,0.5548
1698344325054687,-9.758756,0.359584,0.53039,0.67358,0.27442,0.848
1698344325062500,-9.772756,0.353584,0.60039,0.68858,0.16542,0.652
1698344325070312,-9.779756,0.368584,0.64039,0.82858,0.23042,0.2448
1698344325078125,-9.783756,0.372584,0.64039,0.78458,0.22442,0.2248
1698344325085937,-9.773756,0.388584,0.64039,0.72258,0.25342,0.2148
1698344325093750,-9.784756,0.401584,0.55039,0.81858,0.23542,0.1252
1698344325101562,-9.778756,0.434584,0.46039,0.89458,0.25542,0.448
1698344325109375,-9.778756,0.437584,0.35039,0.76858,0.30742,0.852
1698344325117187,-9.775756,0.428584,0.37039,0.84658,0.30442,0.5348
1698344325125000,-9.757756,0.421584,0.26039,0.82958,0.32542,0.2348
1698344325132812,-9.757756,0.414584,0.31039,0.89558,0.27042,0.448
1698344325140625,-9.762756,0.412584,0.17039,0.91058,0.27042,0.1948
1698344325148437,-9.759756,0.404584,0.8039,0.87558,0.20042,0.848
1698344325156250,-9.757756,0.394584,0.0,0.89358,0.20942,0.3748
1698344325164062,-9.768756,0.399584,0.1039,0.90758,0.22742,0.5448
1698344325171875,-9.770756,0.397584,0.10039,0.91258,0.17142,0.1252
1698344325179687,-9.770756,0.399584,0.15039,0.87858,0.15842,0.5248
1698344325187500,-9.766756,0.399584,0.13039,0.86158,0.17842,0.2248
1698344325195312,-9.761756,0.396584,0.15039,0.89758,0.17042,0.1352
1698344325203125,-9.766756,0.399584,0.28039,0.91058,0.20742,0.448
1698344325210937,-9.775756,0.397584,0.37039,0.89558,0.18942,0.1152
1698344325218750,-9.793756,0.413584,0.51039,0.91058,0.28842,0.448
1698344325226562,-9.797756,0.413584,0.42039,0.89258,0.16542,0.748
1698344325234375,-9.793756,0.410584,0.46039,0.87758,0.26042,0.648
1698344325242187,-9.795756,0.410584,0.40039,0.87858,0.14542,0.548
1698344325250000,-9.793756,0.408584,0.35039,0.89358,0.14742,0.952
1698344325257812,-9.800756,0.408584,0.15039,0.87758,0.13042,0.648
1698344325265625,-9.809756,0.402584,0.15039,0.89558,0.15742,0.1252
1698344325273437,-9.806756,0.406584,0.31039,0.90958,0.19442,0.548
1698344325281250,-9.797756,0.404584,0.15039,0.89358,0.27342,0.2148
1698344325289062,-9.791756,0.413584,0.2961,0.90958,0.27342,0.548
1698344325296875,-9.771756,0.410584,0.13961,0.89658,0.23542,0.1948
1698344325304687,-9.777756,0.401584,0.22961,0.90758,0.28042,0.852
1698344325312500,-9.777756,0.390584,0.20961,0.92358,0.29442,0.2348
1698344325320312,-9.792756,0.386584,0.18961,0.89058,0.29642,0.7248
1698344325328125,-9.785756,0.375584,0.22961,0.90758,0.26342,0.748
1698344325335937,-9.775756,0.381584,0.20961,0.89258,0.27342,0.8548
1698344325343750,-9.775756,0.397584,0.22961,0.90858,0.34042,0.648
1698344325351562,-9.775756,0.412584,0.4961,0.89558,0.27042,0.1252
1698344325359375,-9.771756,0.414584,0.1039,0.89458,0.22442,0.548
1698344325367187,-9.786756,0.421584,0.11961,0.89458,0.28942,0.1052
1698344325375000,-9.791756,0.415584,0.9961,0.89158,0.37442,0.2348
1698344325382812,-9.786756,0.417584,0.1039,0.89358,0.37142,0.2248
1698344325390625,-9.773756,0.419584,0.16961,0.88858,0.33142,0.5748
1698344325398437,-9.771756,0.414584,0.11961,0.89558,0.32142,0.2752
1698344325406250,-9.773756,0.417584,0.18961,0.89558,0.28442,0.3548
1698344325414062,-9.775756,0.412584,0.16961,0.89358,0.30442,0.6948
1698344325421875,-9.777756,0.406584,0.13961,0.89158,0.29442,0.5548
1698344325429687,-9.790756,0.397584,0.9961,0.89358,0.29142,0.2248
1698344325437500,-9.795756,0.399584,0.7961,0.90758,0.30442,0.11748
1698344325445312,-9.777756,0.399584,0.9961,0.89258,0.33842,0.7048
1698344325453125,-9.773756,0.397584,0.4961,0.91058,0.33742,0.548
1698344325460937,-9.773756,0.403584,0.13961,0.92658,0.31542,0.5048
1698344325468750,-9.779756,0.410584,0.20961,0.89058,0.36042,0.5648
1698344325476562,-9.787756,0.428584,0.27961,0.92558,0.39942,0.5248
1698344325484375,-9.793756,0.424584,0.29961,0.101758,0.38442,0.11648
1698344325492187,-9.793756,0.399584,0.34961,0.95458,0.40642,0.5448
1698344325500000,-9.786756,0.397584,0.34961,0.97158,0.38842,0.3748
1698344325507812,-9.786756,0.401584,0.49961,0.94158,0.35042,0.5148
1698344325515625,-9.773756,0.412584,0.54961,0.94058,0.33742,0.5248
1698344325523437,-9.789756,0.410584,0.54961,0.95858,0.33342,0.1948
1698344325531250,-9.788756,0.413584,0.36961,0.93958,0.29342,0.648
1698344325539062,-9.784756,0.406584,0.34961,0.98658,0.30642,0.6848
1698344325546875,-9.766756,0.397584,0.47961,0.100158,0.32542,0.3848
1698344325554687,-9.757756,0.403584,0.52961,0.95858,0.35042,0.348
1698344325562500,-9.755756,0.414584,0.61961,0.105158,0.36542,0.4948
1698344325570312,-9.782756,0.415584,0.34961,0.98758,0.33942,0.2048
1698344325578125,-9.805756,0.428584,0.16961,0.90958,0.30442,0.3648
1698344325585937,-9.802756,0.433584,0.0,0.97158,0.33842,0.3748
1698344325593750,-9.804756,0.415584,0.7961,0.97158,0.37142,0.548
1698344325601562,-9.791756,0.424584,0.9961,0.92458,0.35742,0.952
1698344325609375,-9.804756,0.413584,0.4961,0.89358,0.40442,0.952
1698344325617187,-9.795756,0.408584,0.1039,0.89458,0.38442,0.448
1698344325625000,-9.766756,0.399584,0.16961,0.90958,0.40242,0.1052
1698344325632812,-9.757756,0.385584,0.27961,0.89358,0.40442,0.2552
1698344325640625,-9.757756,0.376584,0.43961,0.91158,0.38342,0.1252
1698344325648437,-9.756756,0.365584,0.27961,0.94158,0.40342,0.4352
1698344325656250,-9.756756,0.361584,0.34961,0.89458,0.35142,0.448
1698344325664062,-9.759756,0.365584,0.45961,0.100658,0.28542,0.1352
1698344325671875,-9.768756,0.390584,0.52961,0.109958,0.26642,0.3248
1698344325679687,-9.784756,0.408584,0.40961,0.109858,0.25542,0.248
1698344325687500,-9.782756,0.415584,0.25961,0.108458,0.25442,0.4652
1698344325695312,-9.771756,0.417584,0.20961,0.100258,0.30642,0.5248
1698344325703125,-9.773756,0.419584,0.29961,0.106258,0.28242,0.3948
1698344325710937,-9.780756,0.417584,0.27961,0.109758,0.29142,0.348
1698344325718750,-9.773756,0.421584,0.25961,0.113058,0.27042,0.1748
1698344325726562,-9.771756,0.412584,0.38961,0.114558,0.27242,0.3448
1698344325734375,-9.755756,0.410584,0.49961,0.100458,0.17542,0.348
1698344325742187,-9.764756,0.415584,0.34961,0.92458,0.19642,0.648
1698344325750000,-9.777756,0.417584,0.34961,0.102058,0.14442,0.1252
1698344325757812,-9.791756,0.437584,0.31961,0.95458,0.23042,0.2348
1698344325765625,-9.805756,0.435584,0.27961,0.95658,0.22642,0.548
1698344325773437,-9.802756,0.433584,0.45961,0.100458,0.24242,0.4352
1698344325781250,-9.791756,0.435584,0.47961,0.104658,0.33142,0.748
1698344325789062,-9.780756,0.417584,0.52961,0.102358,0.28342,0.4652
1698344325796875,-9.782756,0.430584,0.65961,0.91058,0.35242,0.448
1698344325804687,-9.780756,0.439584,0.56961,0.108158,0.35942,0.4352
1698344325812500,-9.785756,0.443584,0.65961,0.92658,0.36842,0.2752
1698344325820312,-9.789756,0.448584,0.67961,0.91058,0.25542,0.1152
1698344325828125,-9.791756,0.444584,0.43961,0.89658,0.23742,0.4452
1698344325835937,-9.784756,0.435584,0.52961,0.89158,0.26142,0.5548
1698344325843750,-9.782756,0.426584,0.65961,0.90958,0.27542,0.1052
1698344325851562,-9.775756,0.432584,0.45961,0.94058,0.25642,0.3648
1698344325859375,-9.780756,0.421584,0.63961,0.92258,0.26042,0.7048
1698344325867187,-9.795756,0.415584,0.76961,0.89258,0.33842,0.5448
1698344325875000,-9.789756,0.415584,0.76961,0.91258,0.32842,0.3348
1698344325882812,-9.793756,0.421584,0.76961,0.89358,0.36942,0.3748
1698344325890625,-9.798756,0.417584,0.90961,0.90958,0.37142,0.1052
1698344325898437,-9.804756,0.384584,0.67961,0.94258,0.16942,0.8248
1698344325906250,-9.826756,0.382584,0.31961,0.90858,0.25842,0.2148
1698344325914062,-9.838756,0.402584,0.2961,0.85858,0.27742,0.12048
1698344325921875,-9.874756,0.440584,0.1039,0.90858,0.33842,0.3748
1698344325929687,-9.904756,0.465584,0.92961,0.89258,0.38942,0.648
1698344325937500,-9.947756,0.477584,0.43961,0.90958,0.46842,0.1052
1698344325945312,-10.12756,0.476584,0.2961,0.89258,0.68442,0.10352
1698344325953125,-10.32756,0.487584,0.18961,0.92658,0.81442,0.21652
1698344325960937,-10.20756,0.547584,0.27961,0.83058,0.99842,0.24452
1698344325968750,-9.980756,0.589584,0.9961,0.64258,0.114242,0.24252
1698344325976562,-9.886756,0.632584,0.43961,0.38658,0.125042,0.25152
1698344325984375,-9.779756,0.692584,0.160961,0.26358,0.119542,0.21952
1698344325992187,-9.671756,0.724584,0.191961,0.16458,0.120242,0.20052
1698344326000000,-9.605756,0.749584,0.176961,0.15458,0.114642,0.23552
1698344326007812,-9.549756,0.782584,0.158961,0.3342,0.93442,0.18552
1698344326015625,-9.513756,0.791584,0.185961,0.14842,0.90542,0.8652
1698344326023437,-9.511756,0.790584,0.218961,0.28742,0.80442,0.7052
1698344326031250,-9.517756,0.750584,0.212961,0.34942,0.68742,0.2352
1698344326039062,-9.546756,0.695584,0.167961,0.43742,0.57942,0.7552
1698344326046875,-9.579756,0.662584,0.140961,0.54942,0.45142,0.952
1698344326054687,-9.614756,0.607584,0.137961,0.64442,0.42142,0.2548
1698344326062500,-9.631756,0.583584,0.146961,0.78442,0.29042,0.652
1698344326070312,-9.656756,0.553584,0.162961,0.88042,0.23042,0.3552
1698344326078125,-9.702756,0.545584,0.160961,0.83442,0.3542,0.2748
1698344326085937,-9.759756,0.541584,0.117961,0.95442,0.2642,0.948
1698344326093750,-9.772756,0.517584,0.83961,0.95642,0.7342,0.8948
1698344326101562,-9.795756,0.517584,0.76961,0.102142,0.10742,0.15548
1698344326109375,-9.794756,0.515584,0.63961,0.113042,0.5942,0.14048
1698344326117187,-9.795756,0.517584,0.58961,0.109642,0.858,0.7448
1698344326125000,-9.774756,0.528584,0.43961,0.110042,0.4342,0.18848
1698344326132812,-9.750756,0.516584,0.38961,0.114242,0.3542,0.10548
1698344326140625,-9.727756,0.525584,0.49961,0.134742,0.542,0.10848
1698344326148437,-9.707756,0.542584,0.65961,0.136242,0.12258,0.4448
1698344326156250,-9.721756,0.540584,0.65961,0.135042,0.8458,0.12748
1698344326164062,-9.728756,0.567584,0.45961,0.156742,0.16858,0.6448
1698344326171875,-9.744756,0.567584,0.36961,0.159542,0.16258,0.7648
1698344326179687,-9.743756,0.554584,0.49961,0.178742,0.19958,0.6648
1698344326187500,-9.753756,0.552584,0.65961,0.186342,0.19258,0.12848
1698344326195312,-9.744756,0.545584,0.70961,0.191142,0.12858,0.17748
1698344326203125,-9.750756,0.527584,0.76961,0.194142,0.26158,0.19248
1698344326210937,-9.760756,0.490584,0.70961,0.188242,0.23658,0.19548
1698344326218750,-9.764756,0.452584,0.83961,0.188042,0.19258,0.17748
1698344326226562,-9.773756,0.432584,0.90961,0.186342,0.15958,0.11348
1698344326234375,-9.777756,0.399584,0.99961,0.181742,0.25058,0.5048
1698344326242187,-9.772756,0.370584,0.112961,0.183342,0.18858,0.9748
1698344326250000,-9.790756,0.364584,0.119961,0.180042,0.9358,0.6448
1698344326257812,-9.824756,0.373584,0.110961,0.184742,0.12658,0.6448
1698344326265625,-9.858756,0.392584,0.81961,0.186442,0.8858,0.3548
1698344326273437,-9.888756,0.436584,0.61961,0.186142,0.4758,0.1648
1698344326281250,-9.879756,0.454584,0.43961,0.184642,0.1942,0.1748
1698344326289062,-9.873756,0.469584,0.31961,0.186342,0.11942,0.3448
1698344326296875,-9.852756,0.469584,0.18961,0.184842,0.10442,0.1948
1698344326304687,-9.834756,0.462584,0.18961,0.189542,0.11742,0.5048
1698344326312500,-9.819756,0.468584,0.20961,0.200442,0.11742,0.3548
1698344326320312,-9.801756,0.468584,0.29961,0.202042,0.24642,0.3648
1698344326328125,-9.776756,0.472584,0.54961,0.203542,0.24342,0.5148
1698344326335937,-9.749756,0.478584,0.76961,0.206742,0.18242,0.2048
1698344326343750,-9.733756,0.452584,0.70961,0.195842,0.13542,0.3548
1698344326351562,-9.722756,0.436584,0.94961,0.205042,0.11542,0.1948
1698344326359375,-9.728756,0.427584,0.110961,0.205242,0.13542,0.6948
1698344326367187,-9.757756,0.403584,0.101961,0.207042,0.9142,0.10348
1698344326375000,-9.770756,0.390584,0.92961,0.202242,0.9142,0.3848
1698344326382812,-9.803756,0.371584,0.94961,0.197642,0.14342,0.2348
1698344326390625,-9.798756,0.347584,0.97961,0.188342,0.12942,0.648
1698344326398437,-9.787756,0.331584,0.99961,0.182042,0.12742,0.3748
1698344326406250,-9.794756,0.326584,0.83961,0.186642,0.14242,0.2148
1698344326414062,-9.792756,0.317584,0.65961,0.184742,0.16842,0.1352
1698344326421875,-9.792756,0.331584,0.94961,0.186642,0.20842,0.548
1698344326429687,-9.794756,0.366584,0.76961,0.183442,0.17542,0.2652
1698344326437500,-9.786756,0.390584,0.76961,0.180242,0.19042,0.4352
1698344326445312,-9.776756,0.396584,0.76961,0.177642,0.25042,0.7152
1698344326453125,-9.764756,0.399584,0.99961,0.178642,0.23742,0.2852
1698344326460937,-9.755756,0.401584,0.106961,0.183142,0.20542,0.10852
1698344326468750,-9.763756,0.370584,0.85961,0.176942,0.15742,0.9252
1698344326476562,-9.763756,0.364584,0.81961,0.177042,0.12842,0.9152
1698344326484375,-9.735756,0.332584,0.94961,0.161342,0.14542,0.9352
1698344326492187,-9.753756,0.297584,0.137961,0.161142,0.12342,0.11152
1698344326500000,-9.764756,0.279584,0.133961,0.155142,0.14742,0.15752
1698344326507812,-9.816756,0.269584,0.97961,0.146642,0.13542,0.22752
1698344326515625,-9.865756,0.274584,0.49961,0.137242,0.12142,0.24452
1698344326523437,-9.877756,0.310584,0.20961,0.134442,0.14442,0.22552
1698344326531250,-9.873756,0.367584,0.22961,0.135642,0.12442,0.30752
1698344326539062,-9.836756,0.411584,0.7961,0.134142,0.33642,0.33852
1698344326546875,-9.787756,0.446584,0.43961,0.137442,0.36842,0.25752
1698344326554687,-9.738756,0.501584,0.72961,0.148542,0.32442,0.28652
1698344326562500,-9.707756,0.544584,0.79961,0.165542,0.33342,0.27152
1698344326570312,-9.697756,0.569584,0.119961,0.173442,0.33542,0.27052
1698344326578125,-9.701756,0.593584,0.137961,0.186042,0.33542,0.25252
1698344326585937,-9.720756,0.609584,0.149961,0.189242,0.19042,0.21952
1698344326593750,-9.758756,0.596584,0.137961,0.206442,0.18842,0.23452
1698344326601562,-9.773756,0.572584,0.126961,0.207842,0.13942,0.28252
1698344326609375,-9.791756,0.579584,0.124961,0.222142,0.22342,0.26452
1698344326617187,-9.797756,0.526584,0.108961,0.237942,0.19142,0.21352
1698344326625000,-9.796756,0.457584,0.126961,0.234442,0.28542,0.32752
1698344326632812,-9.830756,0.466584,0.146961,0.235842,0.29842,0.36152
1698344326640625,-9.862756,0.467584,0.135961,0.237142,0.31142,0.39452
1698344326648437,-9.870756,0.478584,0.110961,0.243842,0.32342,0.45352
1698344326656250,-9.866756,0.474584,0.133961,0.246942,0.37042,0.45352
1698344326664062,-9.869756,0.527584,0.128961,0.254842,0.40542,0.46752
1698344326671875,-9.876756,0.569584,0.97961,0.265742,0.45242,0.46652
1698344326679687,-9.888756,0.592584,0.95961,0.281342,0.57942,0.48152
1698344326687500,-9.848756,0.613584,0.126961,0.284742,0.66442,0.43052
1698344326695312,-9.807756,0.610584,0.149961,0.300542,0.73042,0.42852
1698344326703125,-9.757756,0.590584,0.194961,0.312942,0.73042,0.47552
1698344326710937,-9.724756,0.591584,0.203961,0.308342,0.68242,0.45952
1698344326718750,-9.702756,0.609584,0.241961,0.327042,0.71342,0.47352
1698344326726562,-9.704756,0.611584,0.268961,0.336442,0.61342,0.42552
1698344326734375,-9.702756,0.600584,0.241961,0.336442,0.62742,0.39452
1698344326742187,-9.721756,0.578584,0.241961,0.347542,0.56142,0.31352
1698344326750000,-9.760756,0.581584,0.250961,0.358442,0.62342,0.29652
1698344326757812,-9.804756,0.584584,0.223961,0.360242,0.61542,0.34152
1698344326765625,-9.831756,0.553584,0.173961,0.364742,0.61242,0.37452
1698344326773437,-9.833756,0.553584,0.200961,0.381942,0.66542,0.45152
1698344326781250,-9.827756,0.560584,0.209961,0.378742,0.71442,0.49952
1698344326789062,-9.834756,0.573584,0.214961,0.383342,0.65942,0.45252
1698344326796875,-9.795756,0.555584,0.191961,0.388242,0.66342,0.45152
1698344326804687,-9.748756,0.541584,0.189961,0.387942,0.67442,0.46952
1698344326812500,-9.705756,0.551584,0.259961,0.392842,0.71042,0.48352
1698344326820312,-9.687756,0.542584,0.266961,0.403842,0.69542,0.46552
1698344326828125,-9.689756,0.504584,0.268961,0.394242,0.50842,0.40552
1698344326835937,-9.706756,0.476584,0.254961,0.394542,0.49742,0.32352
1698344326843750,-9.717756,0.440584,0.239961,0.387942,0.42542,0.34352
1698344326851562,-9.722756,0.422584,0.223961,0.382942,0.37142,0.37852
1698344326859375,-9.726756,0.414584,0.239961,0.383142,0.31442,0.39152
1698344326867187,-9.757756,0.430584,0.257961,0.373642,0.28142,0.47352
1698344326875000,-9.782756,0.421584,0.218961,0.365842,0.23442,0.45852
1698344326882812,-9.807756,0.413584,0.212961,0.365642,0.14542,0.41352
1698344326890625,-9.836756,0.415584,0.198961,0.357942,0.19442,0.34952
1698344326898437,-9.838756,0.436584,0.180961,0.361342,0.25042,0.32952
1698344326906250,-9.824756,0.409584,0.198961,0.359842,0.31942,0.40852
1698344326914062,-9.804756,0.395584,0.223961,0.359842,0.36842,0.44052
1698344326921875,-9.774756,0.373584,0.248961,0.336342,0.38742,0.44252
1698344326929687,-9.761756,0.361584,0.254961,0.334842,0.40042,0.36352
1698344326937500,-9.781756,0.350584,0.234961,0.314142,0.37942,0.39952
1698344326945312,-9.801756,0.333584,0.241961,0.306242,0.31342,0.41752
1698344326953125,-9.828756,0.331584,0.250961,0.290942,0.35142,0.35252
1698344326960937,-9.838756,0.300584,0.261961,0.283042,0.38242,0.35352
1698344326968750,-9.863756,0.290584,0.245961,0.264342,0.37042,0.33852
1698344326976562,-9.875756,0.307584,0.263961,0.240642,0.34942,0.34352
1698344326984375,-9.872756,0.283584,0.248961,0.232842,0.43142,0.34352
1698344326992187,-9.849756,0.249584,0.238961,0.212342,0.47742,0.36352
1698344327000000,-9.838756,0.220584,0.270961,0.197942,0.54042,0.47852
1698344327007812,-9.837756,0.216584,0.281961,0.181242,0.68542,0.48952
1698344327015625,-9.853756,0.252584,0.290961,0.157942,0.73042,0.36452
1698344327023437,-9.858756,0.258584,0.272961,0.137342,0.66742,0.44752
1698344327031250,-9.847756,0.294584,0.295961,0.134142,0.71342,0.44852
1698344327039062,-9.814756,0.331584,0.333961,0.129342,0.69542,0.46552
1698344327046875,-9.766756,0.403584,0.383961,0.121442,0.71042,0.43552
1698344327054687,-9.733756,0.465584,0.421961,0.113742,0.66442,0.43552
1698344327062500,-9.696756,0.500584,0.428961,0.110742,0.66442,0.38752
1698344327070312,-9.692756,0.544584,0.412961,0.102842,0.61142,0.32552
1698344327078125,-9.712756,0.578584,0.390961,0.88842,0.54942,0.29452
1698344327085937,-9.767756,0.594584,0.365961,0.84242,0.42242,0.26252
1698344327093750,-9.850756,0.616584,0.326961,0.85542,0.38442,0.32852
1698344327101562,-9.916756,0.661584,0.232961,0.82442,0.41542,0.24852
1698344327109375,-9.944756,0.734584,0.205961,0.93442,0.53042,0.29552
1698344327117187,-9.928756,0.752584,0.198961,0.107842,0.62042,0.35352
1698344327125000,-9.864756,0.758584,0.221961,0.112042,0.80542,0.40452
1698344327132812,-9.821756,0.788584,0.302961,0.125142,0.94642,0.38252
1698344327140625,-9.808756,0.781584,0.347961,0.132642,0.90642,0.43252
1698344327148437,-9.756756,0.787584,0.354961,0.136042,0.94442,0.36552
1698344327156250,-9.693756,0.777584,0.374961,0.134442,0.97342,0.35052
1698344327164062,-9.668756,0.788584,0.417961,0.143942,0.91242,0.38052
1698344327171875,-9.691756,0.782584,0.453961,0.158042,0.97442,0.33152
1698344327179687,-9.722756,0.767584,0.453961,0.159642,0.86342,0.36252
1698344327187500,-9.728756,0.747584,0.401961,0.162842,0.80142,0.34552
1698344327195312,-9.724756,0.740584,0.423961,0.170842,0.83542,0.37552
1698344327203125,-9.711756,0.776584,0.437961,0.183342,0.89942,0.35852
1698344327210937,-9.700756,0.784584,0.432961,0.186442,0.99342,0.34252
1698344327218750,-9.709756,0.822584,0.414961,0.188042,0.97942,0.34252
1698344327226562,-9.766756,0.865584,0.408961,0.189842,0.93342,0.30852
1698344327234375,-9.823756,0.875584,0.394961,0.197242,0.94242,0.34252
1698344327242187,-9.874756,0.876584,0.394961,0.189542,0.101342,0.42152
1698344327250000,-9.849756,0.869584,0.383961,0.203442,0.115642,0.46852
1698344327257812,-9.781756,0.837584,0.387961,0.211442,0.119242,0.48252
1698344327265625,-9.676756,0.833584,0.419961,0.231642,0.119042,0.49752
1698344327273437,-9.591756,0.838584,0.421961,0.236142,0.116742,0.48352
1698344327281250,-9.586756,0.858584,0.464961,0.255142,0.110842,0.49452
1698344327289062,-9.620756,0.845584,0.437961,0.250242,0.97342,0.49752
1698344327296875,-9.653756,0.813584,0.387961,0.255242,0.86942,0.54252
1698344327304687,-9.686756,0.771584,0.408961,0.261242,0.84742,0.51152
1698344327312500,-9.724756,0.722584,0.423961,0.254742,0.84242,0.56252
1698344327320312,-9.732756,0.671584,0.369961,0.259442,0.72742,0.53052
1698344327328125,-9.753756,0.619584,0.367961,0.254642,0.74642,0.59452
1698344327335937,-9.755756,0.594584,0.358961,0.249942,0.74642,0.59552
1698344327343750,-9.755756,0.590584,0.347961,0.239142,0.73142,0.53152
1698344327351562,-9.755756,0.608584,0.351961,0.232742,0.69942,0.58052
1698344327359375,-9.763756,0.625584,0.360961,0.213742,0.68942,0.50652
1698344327367187,-9.760756,0.625584,0.367961,0.199942,0.69742,0.48852
1698344327375000,-9.765756,0.632584,0.367961,0.190542,0.74542,0.47452
1698344327382812,-9.742756,0.627584,0.358961,0.185942,0.68342,0.48952
1698344327390625,-9.682756,0.620584,0.381961,0.176542,0.69642,0.42752
1698344327398437,-9.635756,0.643584,0.394961,0.159242,0.56842,0.42952
1698344327406250,-9.597756,0.680584,0.414961,0.160742,0.38342,0.31952
1698344327414062,-9.584756,0.718584,0.401961,0.159542,0.25642,0.22252
1698344327421875,-9.605756,0.756584,0.378961,0.157842,0.12542,0.23952
1698344327429687,-9.641756,0.790584,0.401961,0.160942,0.7642,0.20752
1698344327437500,-9.702756,0.791584,0.410961,0.159642,0.2842,0.11152
1698344327445312,-9.762756,0.752584,0.428961,0.154842,0.2358,0.6552
1698344327453125,-9.829756,0.677584,0.446961,0.148442,0.658,0.14652
1698344327460937,-9.863756,0.616584,0.441961,0.131442,0.9442,0.12952
1698344327468750,-9.845756,0.593584,0.444961,0.121442,0.13442,0.23152
1698344327476562,-9.823756,0.591584,0.446961,0.110742,0.15942,0.24452
1698344327484375,-9.805756,0.584584,0.507961,0.107542,0.26742,0.23152
1698344327492187,-9.792756,0.606584,0.554961,0.109042,0.28542,0.26252
1698344327500000,-9.776756,0.624584,0.570961,0.103142,0.34342,0.29152
1698344327507812,-9.771756,0.701584,0.574961,0.93342,0.37942,0.23352
1698344327515625,-9.751756,0.749584,0.588961,0.90342,0.33542,0.24752
1698344327523437,-9.773756,0.732584,0.615961,0.82542,0.35142,0.24852
1698344327531250,-9.798756,0.735584,0.606961,0.74942,0.40542,0.21452
1698344327539062,-9.762756,0.752584,0.604961,0.66942,0.38242,0.15452
1698344327546875,-9.735756,0.752584,0.633961,0.83042,0.40542,0.11752
1698344327554687,-9.754756,0.765584,0.649961,0.86242,0.43542,0.3752
1698344327562500,-9.767756,0.770584,0.617961,0.84842,0.42142,0.2748
1698344327570312,-9.769756,0.761584,0.619961,0.83242,0.43942,0.5252
1698344327578125,-9.783756,0.752584,0.615961,0.85942,0.41642,0.11952
1698344327585937,-9.746756,0.732584,0.601961,0.86542,0.44342,0.6652
1698344327593750,-9.719756,0.720584,0.642961,0.84842,0.48842,0.5152
1698344327601562,-9.735756,0.745584,0.637961,0.99042,0.52042,0.1752
1698344327609375,-9.771756,0.732584,0.610961,0.99042,0.52242,0.1752
1698344327617187,-9.786756,0.721584,0.604961,0.92642,0.40842,0.6652
1698344327625000,-9.795756,0.721584,0.597961,0.87842,0.48842,0.8352
1698344327632812,-9.796756,0.750584,0.604961,0.84942,0.55542,0.5052
1698344327640625,-9.793756,0.746584,0.642961,0.86542,0.50842,0.6652
1698344327648437,-9.786756,0.720584,0.664961,0.85142,0.49442,0.4952
1698344327656250,-9.766756,0.710584,0.676961,0.81742,0.55242,0.2052
1698344327664062,-9.733756,0.745584,0.694961,0.75342,0.40542,0.2152
1698344327671875,-9.726756,0.747584,0.676961,0.68942,0.51442,0.2352
1698344327679687,-9.763756,0.772584,0.655961,0.62842,0.43742,0.752
1698344327687500,-9.763756,0.785584,0.635961,0.67342,0.56442,0.7152
1698344327695312,-9.740756,0.787584,0.624961,0.66042,0.51742,0.2548
1698344327703125,-9.747756,0.772584,0.615961,0.81442,0.57842,0.3852
1698344327710937,-9.717756,0.756584,0.595961,0.86542,0.62142,0.4952
1698344327718750,-9.702756,0.753584,0.610961,0.84542,0.51242,0.3852
1698344327726562,-9.697756,0.751584,0.597961,0.86342,0.55242,0.8352
1698344327734375,-9.704756,0.771584,0.572961,0.90842,0.58342,0.13252
1698344327742187,-9.695756,0.777584,0.579961,0.87542,0.71342,0.21252
1698344327750000,-9.695756,0.758584,0.599961,0.85942,0.65142,0.27652
1698344327757812,-9.708756,0.742584,0.601961,0.85442,0.51542,0.37552
1698344327765625,-9.713756,0.765584,0.581961,0.95342,0.43842,0.24452
1698344327773437,-9.725756,0.780584,0.597961,0.112142,0.42742,0.24652
1698344327781250,-9.725756,0.789584,0.601961,0.106142,0.38742,0.27652
1698344327789062,-9.702756,0.778584,0.586961,0.105942,0.35342,0.30952
1698344327796875,-9.673756,0.766584,0.615961,0.110542,0.36542,0.29452
1698344327804687,-9.639756,0.754584,0.640961,0.109042,0.28942,0.34152
1698344327812500,-9.656756,0.735584,0.676961,0.110742,0.32142,0.29252
1698344327820312,-9.688756,0.749584,0.682961,0.109342,0.22842,0.25952
1698344327828125,-9.740756,0.738584,0.680961,0.110342,0.13842,0.34352
1698344327835937,-9.795756,0.706584,0.655961,0.109042,0.14142,0.27852
1698344327843750,-9.824756,0.677584,0.642961,0.107242,0.24942,0.32852
1698344327851562,-9.830756,0.655584,0.651961,0.102742,0.19242,0.34252
1698344327859375,-9.822756,0.678584,0.689961,0.101442,0.37242,0.29252
1698344327867187,-9.811756,0.695584,0.716961,0.88542,0.34842,0.28152
1698344327875000,-9.782756,0.715584,0.707961,0.84042,0.35542,0.34352
1698344327882812,-9.765756,0.743584,0.703961,0.85542,0.40042,0.31252
1698344327890625,-9.776756,0.759584,0.743961,0.85742,0.46942,0.31052
1698344327898437,-9.791756,0.735584,0.750961,0.82742,0.51842,0.26252
1698344327906250,-9.803756,0.739584,0.759961,0.71642,0.53742,0.34352
1698344327914062,-9.787756,0.759584,0.770961,0.77842,0.63242,0.32652
1698344327921875,-9.776756,0.766584,0.766961,0.84442,0.66942,0.30752
1698344327929687,-9.762756,0.757584,0.763961,0.86042,0.70042,0.27552
1698344327937500,-9.749756,0.769584,0.772961,0.85842,0.67942,0.27852
1698344327945312,-9.738756,0.769584,0.766961,0.84342,0.69742,0.24552
1698344327953125,-9.720756,0.751584,0.759961,0.68642,0.69942,0.27852
1698344327960937,-9.722756,0.769584,0.743961,0.73542,0.68742,0.29252
1698344327968750,-9.736756,0.783584,0.779961,0.78142,0.68442,0.26052
1698344327976562,-9.776756,0.770584,0.784961,0.60842,0.65542,0.35852
1698344327984375,-9.814756,0.757584,0.786961,0.48242,0.74842,0.32852
1698344327992187,-9.827756,0.755584,0.795961,0.40442,0.79942,0.34452
1698344328000000,-9.817756,0.775584,0.768961,0.41842,0.82942,0.40952
1698344328007812,-9.810756,0.773584,0.768961,0.34042,0.94642,0.42552
1698344328015625,-9.763756,0.770584,0.781961,0.35842,0.93142,0.36052
1698344328023437,-9.720756,0.771584,0.786961,0.34042,0.95842,0.36252
1698344328031250,-9.675756,0.764584,0.822961,0.37642,0.96642,0.29452
1698344328039062,-9.662756,0.766584,0.829961,0.37142,0.87342,0.29952
1698344328046875,-9.655756,0.766584,0.827961,0.35942,0.88342,0.32752
1698344328054687,-9.637756,0.783584,0.824961,0.40542,0.71742,0.29652
1698344328062500,-9.658756,0.819584,0.822961,0.50042,0.75342,0.31052
1698344328070312,-9.683756,0.851584,0.788961,0.40842,0.67342,0.24752
1698344328078125,-9.692756,0.862584,0.786961,0.46942,0.65342,0.24752
1698344328085937,-9.708756,0.867584,0.777961,0.54942,0.61042,0.30952
1698344328093750,-9.710756,0.851584,0.766961,0.60742,0.55342,0.32852
1698344328101562,-9.703756,0.858584,0.777961,0.68442,0.48642,0.31252
1698344328109375,-9.715756,0.860584,0.788961,0.79442,0.51742,0.27952
1698344328117187,-9.708756,0.860584,0.784961,0.84342,0.48542,0.23052
1698344328125000,-9.703756,0.833584,0.788961,0.84342,0.51642,0.21452
1698344328132812,-9.673756,0.813584,0.811961,0.86042,0.43842,0.16552
1698344328140625,-9.648756,0.797584,0.840961,0.87642,0.42542,0.22852
1698344328148437,-9.637756,0.768584,0.872961,0.90642,0.41842,0.16652
1698344328156250,-9.636756,0.726584,0.872961,0.87742,0.32442,0.10052
1698344328164062,-9.651756,0.717584,0.899961,0.98742,0.22742,0.8352
1698344328171875,-9.654756,0.748584,0.881961,0.101842,0.12742,0.3652
1698344328179687,-9.662756,0.777584,0.847961,0.89142,0.5942,0.3952
1698344328187500,-9.711756,0.791584,0.894961,0.81242,0.15442,0.2552
1698344328195312,-9.764756,0.750584,0.865961,0.64342,0.9942,0.3952
1698344328203125,-9.746756,0.685584,0.865961,0.59242,0.12542,0.9052
1698344328210937,-9.680756,0.649584,0.883961,0.59042,0.18642,0.14052
1698344328218750,-9.624756,0.657584,0.939961,0.57742,0.21242,0.18452
1698344328226562,-9.627756,0.690584,0.989961,0.58942,0.16842,0.15752
1698344328234375,-9.640756,0.710584,0.966961,0.39042,0.9842,0.12352
1698344328242187,-9.665756,0.717584,0.932961,0.42142,0.8142,0.12352
1698344328250000,-9.694756,0.698584,0.908961,0.34042,0.658,0.7952
1698344328257812,-9.701756,0.707584,0.912961,0.35842,0.11242,0.9252
1698344328265625,-9.710756,0.698584,0.901961,0.32642,0.4342,0.7852
1698344328273437,-9.739756,0.694584,0.894961,0.23342,0.4542,0.4652
1698344328281250,-9.766756,0.686584,0.872961,0.13842,0.1958,0.6452
1698344328289062,-9.766756,0.677584,0.867961,0.8842,0.642,0.6752
1698344328296875,-9.761756,0.657584,0.869961,0.1558,0.6542,0.1552
1698344328304687,-9.763756,0.617584,0.880961,0.16058,0.3858,0.3652
1698344328312500,-9.791756,0.595584,0.905961,0.13858,0.9642,0.11148
1698344328320312,-9.823756,0.573584,0.932961,0.36258,0.10342,0.8848
1698344328328125,-9.860756,0.518584,0.955961,0.51558,0.12442,0.16948
1698344328335937,-9.891756,0.479584,0.943961,0.71558,0.22642,0.26548
1698344328343750,-9.881756,0.463584,0.932961,0.90658,0.17642,0.18248
1698344328351562,-9.892756,0.455584,0.991961,0.110658,0.34342,0.21448
1698344328359375,-9.911756,0.450584,0.968961,0.139358,0.39942,0.15948
1698344328367187,-9.875756,0.483584,0.968961,0.159358,0.58842,0.16148
1698344328375000,-9.824756,0.549584,0.980961,0.165658,0.73642,0.8148
1698344328382812,-9.736756,0.632584,0.959961,0.163858,0.80342,0.13148
1698344328390625,-9.667756,0.702584,0.966961,0.168458,0.85442,0.16448
1698344328398437,-9.657756,0.757584,0.971961,0.178058,0.75242,0.16148
1698344328406250,-9.655756,0.807584,0.939961,0.188558,0.72942,0.14648
1698344328414062,-9.658756,0.843584,0.921961,0.189458,0.67942,0.12348
1698344328421875,-9.651756,0.837584,0.899961,0.194158,0.61942,0.4448
1698344328429687,-9.656756,0.861584,0.867961,0.198958,0.61542,0.7448
1698344328437500,-9.694756,0.853584,0.887961,0.204858,0.58942,0.12448
1698344328445312,-9.730756,0.834584,0.876961,0.216058,0.42742,0.4248
1698344328453125,-9.786756,0.864584,0.833961,0.215758,0.49442,0.12448
1698344328460937,-9.832756,0.875584,0.840961,0.209458,0.59142,0.12448
1698344328468750,-9.847756,0.869584,0.851961,0.207958,0.66942,0.15648
1698344328476562,-9.831756,0.849584,0.887961,0.212658,0.75042,0.15548
1698344328484375,-9.798756,0.850584,0.908961,0.209558,0.79942,0.14048
1698344328492187,-9.771756,0.865584,0.923961,0.190858,0.81242,0.10948
1698344328500000,-9.740756,0.885584,0.908961,0.189058,0.89842,0.9548
1698344328507812,-9.710756,0.896584,0.881961,0.179558,0.88542,0.9848
1698344328515625,-9.661756,0.913584,0.887961,0.174858,0.90242,0.8248
1698344328523437,-9.632756,0.923584,0.887961,0.164158,0.91542,0.248
1698344328531250,-9.597756,0.925584,0.865961,0.145458,0.78042,0.5048
1698344328539062,-9.531756,0.895584,0.849961,0.135958,0.66842,0.8448
1698344328546875,-9.511756,0.892584,0.876961,0.126958,0.61242,0.1748
1698344328554687,-9.515756,0.866584,0.912961,0.112658,0.58842,0.952
1698344328562500,-9.541756,0.847584,0.923961,0.117158,0.41342,0.648
1698344328570312,-9.602756,0.821584,0.892961,0.111258,0.29142,0.348
1698344328578125,-9.659756,0.786584,0.881961,0.110958,0.26042,0.13248
1698344328585937,-9.715756,0.740584,0.856961,0.116158,0.21742,0.12848
1698344328593750,-9.761756,0.681584,0.858961,0.114158,0.24242,0.16348
1698344328601562,-9.788756,0.646584,0.865961,0.121958,0.14742,0.14748
1698344328609375,-9.796756,0.626584,0.815961,0.120358,0.12942,0.17948
1698344328617187,-9.762756,0.591584,0.788961,0.121458,0.15242,0.22948
1698344328625000,-9.676756,0.571584,0.831961,0.117258,0.12542,0.24248
1698344328632812,-9.662756,0.524584,0.907961,0.139058,0.12742,0.27248
1698344328640625,-9.659756,0.473584,0.889961,0.156358,0.1958,0.28548
1698344328648437,-9.641756,0.431584,0.804961,0.173658,0.21958,0.39348
1698344328656250,-9.669756,0.382584,0.752961,0.189258,0.25058,0.44048
1698344328664062,-9.704756,0.336584,0.788961,0.204758,0.23458,0.50348
1698344328671875,-9.708756,0.303584,0.826961,0.223358,0.31658,0.62948
1698344328679687,-9.716756,0.257584,0.838961,0.253058,0.34658,0.65848
1698344328687500,-9.726756,0.261584,0.853961,0.273558,0.57958,0.73348
1698344328695312,-9.746756,0.264584,0.835961,0.290658,0.54358,0.73348
1698344328703125,-9.822756,0.252584,0.874961,0.314158,0.54258,0.73048
1698344328710937,-9.921756,0.277584,0.887961,0.344058,0.33258,0.67948
1698344328718750,-9.969756,0.294584,0.874961,0.373758,0.13158,0.61448
1698344328726562,-9.930756,0.264584,0.793961,0.405158,0.6442,0.53148
1698344328734375,-9.837756,0.241584,0.754961,0.434958,0.24842,0.41748
1698344328742187,-9.753756,0.259584,0.786961,0.458658,0.35842,0.36548
1698344328750000,-9.692756,0.283584,0.820961,0.477358,0.37842,0.36548
1698344328757812,-9.671756,0.329584,0.847961,0.505858,0.40742,0.31148
1698344328765625,-9.664756,0.373584,0.820961,0.533858,0.36142,0.35748
1698344328773437,-9.662756,0.402584,0.804961,0.552658,0.21742,0.37248
1698344328781250,-9.690756,0.423584,0.797961,0.583958,0.15242,0.41648
1698344328789062,-9.695756,0.434584,0.784961,0.604658,0.9742,0.39448
1698344328796875,-9.699756,0.429584,0.763961,0.632658,0.442,0.45748
1698344328804687,-9.724756,0.450584,0.772961,0.663958,0.3158,0.51648
1698344328812500,-9.750756,0.510584,0.754961,0.689158,0.11458,0.52848
1698344328820312,-9.784756,0.544584,0.741961,0.703058,0.11158,0.56048
1698344328828125,-9.795756,0.582584,0.739961,0.726258,0.2258,0.56148
1698344328835937,-9.794756,0.615584,0.736961,0.741858,0.5458,0.62348
1698344328843750,-9.767756,0.650584,0.723961,0.746558,0.4342,0.60748
1698344328851562,-9.725756,0.652584,0.766961,0.763758,0.5842,0.63748
1698344328859375,-9.698756,0.660584,0.813961,0.763958,0.3342,0.69848
1698344328867187,-9.680756,0.649584,0.820961,0.765358,0.5842,0.65348
1698344328875000,-9.689756,0.640584,0.831961,0.767158,0.1058,0.60248
1698344328882812,-9.745756,0.643584,0.790961,0.781258,0.2442,0.55348
1698344328890625,-9.803756,0.660584,0.727961,0.792058,0.258,0.55448
1698344328898437,-9.822756,0.684584,0.703961,0.789358,0.8742,0.48748
1698344328906250,-9.836756,0.715584,0.698961,0.781158,0.15542,0.55448
1698344328914062,-9.820756,0.717584,0.678961,0.790558,0.13942,0.60248
1698344328921875,-9.793756,0.730584,0.673961,0.790658,0.17542,0.45848
1698344328929687,-9.769756,0.759584,0.664961,0.791958,0.27242,0.57148
1698344328937500,-9.716756,0.782584,0.649961,0.797058,0.31442,0.52048
1698344328945312,-9.682756,0.793584,0.676961,0.790558,0.30542,0.49148
1698344328953125,-9.700756,0.822584,0.655961,0.792058,0.28842,0.53948
1698344328960937,-9.712756,0.860584,0.613961,0.790658,0.18842,0.53848
1698344328968750,-9.713756,0.889584,0.613961,0.791058,0.13142,0.47048
1698344328976562,-9.706756,0.902584,0.610961,0.782958,0.17442,0.42648
1698344328984375,-9.702756,0.916584,0.613961,0.792058,0.7942,0.50648
1698344328992187,-9.691756,0.915584,0.646961,0.773558,0.5942,0.47548
1698344329000000,-9.695756,0.904584,0.658961,0.764258,0.2658,0.50648
1698344329007812,-9.681756,0.871584,0.631961,0.767258,0.12458,0.58548
1698344329015625,-9.672756,0.864584,0.642961,0.760858,0.13958,0.61948
1698344329023437,-9.688756,0.857584,0.646961,0.765758,0.19058,0.60148
1698344329031250,-9.724756,0.860584,0.633961,0.770358,0.10858,0.58548
1698344329039062,-9.770756,0.841584,0.631961,0.760758,0.12358,0.66748
1698344329046875,-9.786756,0.823584,0.599961,0.763958,0.11058,0.68248
1698344329054687,-9.761756,0.814584,0.610961,0.756058,0.7458,0.65248
1698344329062500,-9.738756,0.796584,0.651961,0.752858,0.8958,0.63748
1698344329070312,-9.711756,0.796584,0.685961,0.746958,0.6158,0.55548
1698344329078125,-9.709756,0.811584,0.658961,0.747158,0.8058,0.55448
1698344329085937,-9.720756,0.818584,0.624961,0.745158,0.7058,0.54248
1698344329093750,-9.712756,0.824584,0.606961,0.740658,0.9258,0.55748
1698344329101562,-9.701756,0.829584,0.595961,0.740758,0.11258,0.58748
1698344329109375,-9.705756,0.849584,0.581961,0.739058,0.5958,0.55748
1698344329117187,-9.728756,0.858584,0.565961,0.740458,0.5858,0.59048
1698344329125000,-9.723756,0.836584,0.561961,0.734258,0.5858,0.59048
1698344329132812,-9.728756,0.840584,0.550961,0.728058,0.14358,0.62148
1698344329140625,-9.707756,0.822584,0.549961,0.729358,0.11858,0.59248
1698344329148437,-9.693756,0.806584,0.541961,0.720258,0.12258,0.52848
1698344329156250,-9.691756,0.826584,0.552961,0.722058,0.23858,0.46248
1698344329164062,-9.691756,0.817584,0.534961,0.718858,0.15958,0.52648
1698344329171875,-9.700756,0.822584,0.518961,0.715658,0.24058,0.55848
1698344329179687,-9.712756,0.833584,0.523961,0.717258,0.40258,0.57448
1698344329187500,-9.737756,0.840584,0.565961,0.715758,0.37158,0.55748
1698344329195312,-9.770756,0.837584,0.540961,0.716858,0.41358,0.64048
1698344329203125,-9.820756,0.835584,0.538961,0.720258,0.36958,0.63848
1698344329210937,-9.867756,0.811584,0.514961,0.726758,0.35458,0.55648
1698344329218750,-9.835756,0.775584,0.489961,0.736158,0.17958,0.58748
1698344329226562,-9.771756,0.748584,0.502961,0.736058,0.5142,0.54148
1698344329234375,-9.735756,0.747584,0.552961,0.741858,0.8942,0.62348
1698344329242187,-9.735756,0.749584,0.592961,0.743858,0.3542,0.55648
1698344329250000,-9.764756,0.745584,0.574961,0.742258,0.7258,0.49348
1698344329257812,-9.792756,0.768584,0.568961,0.742458,0.3158,0.49148
1698344329265625,-9.792756,0.799584,0.529961,0.738958,0.2358,0.54248
1698344329273437,-9.797756,0.797584,0.495961,0.734258,0.1258,0.62248
1698344329281250,-9.783756,0.801584,0.477961,0.738758,0.742,0.67148
1698344329289062,-9.772756,0.796584,0.464961,0.732458,0.13242,0.70348
1698344329296875,-9.759756,0.798584,0.446961,0.738858,0.13542,0.62248
1698344329304687,-9.747756,0.789584,0.475961,0.743358,0.31842,0.60848
1698344329312500,-9.785756,0.752584,0.484961,0.731458,0.21242,0.47748
1698344329320312,-9.811756,0.730584,0.430961,0.731358,0.15342,0.43148
1698344329328125,-9.821756,0.737584,0.414961,0.723858,0.24842,0.30248
1698344329335937,-9.825756,0.753584,0.430961,0.719158,0.29942,0.25648
1698344329343750,-9.821756,0.759584,0.439961,0.723858,0.38042,0.25548
1698344329351562,-9.807756,0.768584,0.428961,0.722058,0.41742,0.25848
1698344329359375,-9.776756,0.765584,0.405961,0.740958,0.41642,0.22348
1698344329367187,-9.763756,0.767584,0.450961,0.736458,0.46442,0.17548
1698344329375000,-9.763756,0.765584,0.428961,0.739658,0.49342,0.18948
1698344329382812,-9.765756,0.774584,0.396961,0.741158,0.41342,0.18948
1698344329390625,-9.772756,0.794584,0.383961,0.747658,0.39242,0.17048
1698344329398437,-9.800756,0.823584,0.356961,0.741258,0.47342,0.25248
1698344329406250,-9.817756,0.833584,0.322961,0.742158,0.44842,0.40048
1698344329414062,-9.807756,0.863584,0.340961,0.745458,0.57642,0.36748
1698344329421875,-9.800756,0.861584,0.376961,0.739058,0.54742,0.38548
1698344329429687,-9.814756,0.861584,0.390961,0.737458,0.67442,0.41748
1698344329437500,-9.839756,0.873584,0.396961,0.726758,0.57342,0.36748
1698344329445312,-9.823756,0.882584,0.385961,0.713758,0.61542,0.38948
1698344329453125,-9.785756,0.872584,0.372961,0.717258,0.67242,0.35448
1698344329460937,-9.746756,0.871584,0.394961,0.706058,0.70842,0.37348
1698344329468750,-9.710756,0.866584,0.412961,0.693558,0.75742,0.35848
1698344329476562,-9.710756,0.869584,0.374961,0.685658,0.80642,0.34448
1698344329484375,-9.702756,0.893584,0.369961,0.687558,0.79842,0.34048
1698344329492187,-9.682756,0.899584,0.345961,0.673158,0.83742,0.36148
1698344329500000,-9.652756,0.908584,0.390961,0.670058,0.84142,0.26648
1698344329507812,-9.635756,0.925584,0.387961,0.651558,0.75342,0.26548
1698344329515625,-9.639756,0.930584,0.372961,0.643658,0.66042,0.23548
1698344329523437,-9.657756,0.932584,0.331961,0.626458,0.70442,0.25248
1698344329531250,-9.693756,0.946584,0.315961,0.613958,0.67442,0.20648
1698344329539062,-9.698756,0.962584,0.309961,0.615358,0.67642,0.22348
1698344329546875,-9.702756,0.942584,0.300961,0.602758,0.63242,0.19348
1698344329554687,-9.706756,0.909584,0.309961,0.594858,0.61542,0.21048
1698344329562500,-9.718756,0.909584,0.297961,0.571658,0.56142,0.19448
1698344329570312,-9.738756,0.922584,0.291961,0.566958,0.39842,0.21148
1698344329578125,-9.743756,0.933584,0.266961,0.554458,0.39742,0.19548
1698344329585937,-9.761756,0.954584,0.248961,0.538758,0.30042,0.22948
1698344329593750,-9.763756,0.958584,0.216961,0.535558,0.32942,0.29348
1698344329601562,-9.743756,0.933584,0.246961,0.516858,0.29842,0.24748
1698344329609375,-9.729756,0.929584,0.279961,0.508958,0.23242,0.31248
1698344329617187,-9.727756,0.922584,0.302961,0.497958,0.27942,0.29748
1698344329625000,-9.715756,0.906584,0.291961,0.487058,0.18442,0.26648
1698344329632812,-9.717756,0.886584,0.297961,0.466558,0.26542,0.28548
1698344329640625,-9.701756,0.884584,0.320961,0.453958,0.18342,0.35048
1698344329648437,-9.686756,0.895584,0.358961,0.444558,0.16842,0.32048
1698344329656250,-9.680756,0.924584,0.369961,0.432258,0.17842,0.33548
1698344329664062,-9.666756,0.934584,0.342961,0.421058,0.9942,0.38548
1698344329671875,-9.651756,0.954584,0.336961,0.410358,0.9442,0.35248
1698344329679687,-9.647756,0.965584,0.356961,0.396558,0.15342,0.28748
1698344329687500,-9.660756,0.976584,0.351961,0.375958,0.258,0.30848
1698344329695312,-9.685756,0.970584,0.351961,0.355658,0.1342,0.26248
1698344329703125,-9.709756,0.962584,0.315961,0.343158,0.6858,0.24648
1698344329710937,-9.734756,0.927584,0.273961,0.338458,0.11858,0.29548
1698344329718750,-9.762756,0.881584,0.252961,0.322458,0.7858,0.28348
1698344329726562,-9.788756,0.834584,0.266961,0.313358,0.8258,0.21948
1698344329734375,-9.837756,0.820584,0.248961,0.311658,0.12958,0.25248
1698344329742187,-9.844756,0.806584,0.218961,0.299258,0.11558,0.23648
1698344329750000,-9.809756,0.821584,0.200961,0.290058,0.2358,0.23548
1698344329757812,-9.777756,0.839584,0.261961,0.272258,0.4942,0.28948
1698344329765625,-9.763756,0.781584,0.291961,0.262758,0.8142,0.35548
1698344329773437,-9.762756,0.732584,0.286961,0.259858,0.7058,0.36848
1698344329781250,-9.762756,0.710584,0.313961,0.255358,0.5358,0.24048
1698344329789062,-9.761756,0.696584,0.333961,0.255058,0.4758,0.29148
1698344329796875,-9.766756,0.690584,0.324961,0.250658,0.8558,0.24148
1698344329804687,-9.768756,0.683584,0.288961,0.261558,0.10158,0.27248
1698344329812500,-9.764756,0.669584,0.263961,0.260358,0.9158,0.22248
1698344329820312,-9.763756,0.656584,0.254961,0.261658,0.8658,0.27248
1698344329828125,-9.763756,0.663584,0.270961,0.255058,0.3258,0.30748
1698344329835937,-9.765756,0.668584,0.266961,0.259858,0.8358,0.28948
1698344329843750,-9.768756,0.683584,0.279961,0.258158,0.9858,0.35448
1698344329851562,-9.807756,0.690584,0.288961,0.250558,0.13958,0.40048
1698344329859375,-9.802756,0.719584,0.284961,0.256758,0.13758,0.38448
1698344329867187,-9.823756,0.731584,0.279961,0.250258,0.9858,0.38748
1698344329875000,-9.839756,0.742584,0.277961,0.244058,0.5458,0.40248
1698344329882812,-9.857756,0.753584,0.288961,0.246858,0.1342,0.48448
1698344329890625,-9.857756,0.760584,0.279961,0.240558,0.7942,0.50248
1698344329898437,-9.839756,0.764584,0.304961,0.231058,0.16242,0.48848
1698344329906250,-9.823756,0.753584,0.327961,0.218858,0.15742,0.42348
1698344329914062,-9.830756,0.760584,0.367961,0.215458,0.14642,0.44148
1698344329921875,-9.835756,0.753584,0.351961,0.204858,0.25042,0.43948
1698344329929687,-9.843756,0.746584,0.309961,0.188958,0.14442,0.41148
1698344329937500,-9.875756,0.740584,0.315961,0.171658,0.28942,0.43048
1698344329945312,-9.881756,0.738584,0.318961,0.161858,0.41042,0.46748
1698344329953125,-9.872756,0.718584,0.354961,0.143158,0.55242,0.42048
1698344329960937,-9.833756,0.691584,0.351961,0.138458,0.52142,0.43748
1698344329968750,-9.806756,0.668584,0.363961,0.138458,0.60142,0.42148
1698344329976562,-9.767756,0.654584,0.401961,0.133558,0.68742,0.40748
1698344329984375,-9.768756,0.670584,0.383961,0.123158,0.59542,0.38748
1698344329992187,-9.781756,0.670584,0.381961,0.118058,0.67242,0.32948
1698344330000000,-9.797756,0.666584,0.372961,0.116858,0.68242,0.27848
1698344330007812,-9.801756,0.659584,0.360961,0.113558,0.66742,0.29548
1698344330015625,-9.801756,0.637584,0.333961,0.110358,0.73642,0.26548
1698344330023437,-9.823756,0.642584,0.329961,0.105758,0.70242,0.24948
1698344330031250,-9.815756,0.644584,0.331961,0.103058,0.69242,0.22948
1698344330039062,-9.790756,0.655584,0.313961,0.94958,0.66342,0.26448
1698344330046875,-9.754756,0.667584,0.327961,0.85258,0.71942,0.25248
1698344330054687,-9.716756,0.662584,0.345961,0.83958,0.72942,0.26648
1698344330062500,-9.707756,0.656584,0.347961,0.79158,0.73442,0.22048
1698344330070312,-9.709756,0.678584,0.349961,0.76058,0.71742,0.22048
1698344330078125,-9.725756,0.671584,0.345961,0.73258,0.69642,0.13848
1698344330085937,-9.712756,0.676584,0.324961,0.63658,0.68542,0.15748
1698344330093750,-9.705756,0.680584,0.320961,0.56158,0.70742,0.15448
1698344330101562,-9.685756,0.673584,0.306961,0.54458,0.66342,0.14048
1698344330109375,-9.669756,0.648584,0.320961,0.46958,0.62442,0.12248
1698344330117187,-9.675756,0.644584,0.345961,0.39058,0.51442,0.10848
1698344330125000,-9.689756,0.651584,0.322961,0.40558,0.43442,0.9148
1698344330132812,-9.730756,0.660584,0.286961,0.35858,0.40142,0.10848
1698344330140625,-9.766756,0.658584,0.275961,0.34358,0.38142,0.13948
1698344330148437,-9.772756,0.656584,0.243961,0.35758,0.40142,0.15648
1698344330156250,-9.770756,0.661584,0.243961,0.23258,0.38442,0.17348
1698344330164062,-9.738756,0.658584,0.261961,0.15358,0.40042,0.20748
1698344330171875,-9.731756,0.627584,0.286961,0.17158,0.36142,0.20348
1698344330179687,-9.709756,0.624584,0.286961,0.21658,0.38242,0.20548
1698344330187500,-9.708756,0.576584,0.302961,0.19958,0.43542,0.19148
1698344330195312,-9.719756,0.549584,0.302961,0.35858,0.35242,0.12348
1698344330203125,-9.736756,0.516584,0.293961,0.40358,0.29142,0.15748
1698344330210937,-9.754756,0.474584,0.284961,0.46858,0.26642,0.21748
1698344330218750,-9.776756,0.466584,0.268961,0.49958,0.25442,0.16948
1698344330226562,-9.774756,0.468584,0.275961,0.48358,0.20642,0.15448
1698344330234375,-9.767756,0.490584,0.277961,0.57658,0.24142,0.17048
1698344330242187,-9.730756,0.531584,0.306961,0.61158,0.25042,0.15148
1698344330250000,-9.703756,0.549584,0.358961,0.59458,0.28342,0.16748
1698344330257812,-9.698756,0.542584,0.383961,0.62558,0.17442,0.15248
1698344330265625,-9.736756,0.525584,0.356961,0.65658,0.13942,0.19948
1698344330273437,-9.763756,0.472584,0.322961,0.70358,0.13742,0.23048
1698344330281250,-9.782756,0.412584,0.286961,0.81558,0.12242,0.13248
1698344330289062,-9.804756,0.362584,0.295961,0.84658,0.10242,0.19548
1698344330296875,-9.805756,0.324584,0.306961,0.94058,0.4542,0.6848
1698344330304687,-9.785756,0.324584,0.308961,0.108458,0.5542,0.8048
1698344330312500,-9.749756,0.336584,0.290961,0.117858,0.2242,0.7848
1698344330320312,-9.680756,0.356584,0.284961,0.134858,0.7942,0.4748
1698344330328125,-9.646756,0.362584,0.326961,0.142458,0.7842,0.17548
1698344330335937,-9.711756,0.336584,0.387961,0.162858,0.9542,0.14148
1698344330343750,-9.774756,0.319584,0.333961,0.175758,0.1042,0.7348
1698344330351562,-9.774756,0.326584,0.284961,0.188458,0.6042,0.4052
1698344330359375,-9.756756,0.355584,0.317961,0.197658,0.16242,0.3952
1698344330367187,-9.750756,0.388584,0.342961,0.215058,0.15742,0.1052
1698344330375000,-9.743756,0.414584,0.351961,0.221058,0.21542,0.2352
1698344330382812,-9.757756,0.410584,0.367961,0.241458,0.24642,0.1052
1698344330390625,-9.781756,0.399584,0.344961,0.241558,0.9942,0.2752
1698344330398437,-9.817756,0.376584,0.340961,0.264958,0.6842,0.1848
1698344330406250,-9.849756,0.387584,0.338961,0.266658,0.14142,0.4748
1698344330414062,-9.838756,0.391584,0.324961,0.271458,0.11142,0.1652
1698344330421875,-9.804756,0.375584,0.331961,0.279358,0.6342,0.3352
1698344330429687,-9.775756,0.372584,0.358961,0.279458,0.7642,0.3452
1698344330437500,-9.757756,0.381584,0.403961,0.282558,0.4442,0.1952
1698344330445312,-9.759756,0.381584,0.419961,0.296958,0.4342,0.10252
1698344330453125,-9.763756,0.350584,0.416961,0.312458,0.3558,0.8652
1698344330460937,-9.749756,0.319584,0.416961,0.318658,0.3558,0.2352
1698344330468750,-9.746756,0.270584,0.423961,0.330858,0.6642,0.4148
1698344330476562,-9.756756,0.235584,0.437961,0.338558,0.442,0.7348
1698344330484375,-9.783756,0.191584,0.421961,0.351158,0.8158,0.11848
1698344330492187,-9.800756,0.155584,0.392961,0.373258,0.8458,0.9848
1698344330500000,-9.811756,0.129584,0.385961,0.407758,0.8358,0.11048
1698344330507812,-9.820756,0.134584,0.405961,0.417158,0.0,0.4648
1698344330515625,-9.836756,0.136584,0.380961,0.440558,0.8442,0.6148
1698344330523437,-9.834756,0.158584,0.353961,0.469158,0.1858,0.2452
1698344330531250,-9.828756,0.205584,0.347961,0.489458,0.8042,0.1052
1698344330539062,-9.828756,0.223584,0.383961,0.504758,0.19842,0.7048
1698344330546875,-9.831756,0.254584,0.376961,0.529958,0.24642,0.6748
1698344330554687,-9.838756,0.243584,0.374961,0.549958,0.38042,0.13148
1698344330562500,-9.825756,0.249584,0.380961,0.566258,0.43742,0.252
1698344330570312,-9.807756,0.276584,0.394961,0.567258,0.46542,0.3448
1698344330578125,-9.805756,0.289584,0.378961,0.593958,0.44542,0.7848
1698344330585937,-9.823756,0.307584,0.378961,0.612658,0.49642,0.7748
1698344330593750,-9.837756,0.320584,0.360961,0.617758,0.45742,0.4148
1698344330601562,-9.815756,0.346584,0.333961,0.641158,0.55642,0.3948
1698344330609375,-9.801756,0.377584,0.353961,0.642458,0.67742,0.4348
1698344330617187,-9.786756,0.373584,0.349961,0.641158,0.64042,0.848
1698344330625000,-9.790756,0.393584,0.326961,0.651958,0.65942,0.948
1698344330632812,-9.802756,0.409584,0.347961,0.666058,0.68042,0.5552
1698344330640625,-9.834756,0.462584,0.333961,0.667858,0.67542,0.7352
1698344330648437,-9.844756,0.478584,0.344961,0.666358,0.78642,0.7352
1698344330656250,-9.857756,0.503584,0.344961,0.676858,0.77642,0.2348
1698344330664062,-9.885756,0.509584,0.335961,0.680258,0.73542,0.6848
1698344330671875,-9.873756,0.523584,0.356961,0.687758,0.82742,0.2348
1698344330679687,-9.842756,0.513584,0.378961,0.703358,0.93942,0.6948
1698344330687500,-9.815756,0.520584,0.410961,0.701858,0.93742,0.10148
1698344330695312,-9.793756,0.532584,0.392961,0.716058,0.96742,0.8248
1698344330703125,-9.777756,0.541584,0.383961,0.725558,0.96342,0.12848
1698344330710937,-9.768756,0.566584,0.394961,0.726458,0.112242,0.16648
1698344330718750,-9.753756,0.599584,0.414961,0.737558,0.113542,0.16348
1698344330726562,-9.745756,0.647584,0.421961,0.728358,0.112842,0.19448
1698344330734375,-9.739756,0.685584,0.405961,0.737458,0.110642,0.18048
1698344330742187,-9.748756,0.714584,0.376961,0.728058,0.107142,0.18148
1698344330750000,-9.760756,0.747584,0.392961,0.715758,0.103342,0.19648
1698344330757812,-9.747756,0.774584,0.387961,0.701458,0.103842,0.18348
1698344330765625,-9.754756,0.780584,0.435961,0.689258,0.102942,0.19848
1698344330773437,-9.741756,0.807584,0.471961,0.676558,0.98942,0.13848
1698344330781250,-9.737756,0.838584,0.489961,0.663958,0.97642,0.9248
1698344330789062,-9.755756,0.874584,0.473961,0.665458,0.92442,0.18748
1698344330796875,-9.791756,0.877584,0.448961,0.660858,0.90642,0.15548
1698344330804687,-9.823756,0.890584,0.437961,0.646958,0.80842,0.9148
1698344330812500,-9.839756,0.893584,0.426961,0.643658,0.88642,0.18748
1698344330820312,-9.831756,0.857584,0.421961,0.641858,0.91142,0.15948
1698344330828125,-9.811756,0.826584,0.399961,0.623458,0.91942,0.11048
1698344330835937,-9.796756,0.847584,0.430961,0.614158,0.102542,0.13648
1698344330843750,-9.755756,0.865584,0.450961,0.599658,0.90942,0.13148
1698344330851562,-9.731756,0.898584,0.446961,0.569658,0.103742,0.19948
1698344330859375,-9.729756,0.929584,0.457961,0.566658,0.114742,0.19848
1698344330867187,-9.741756,0.951584,0.462961,0.547558,0.118642,0.21948
1698344330875000,-9.766756,0.965584,0.444961,0.539958,0.119642,0.20148
1698344330882812,-9.804756,0.970584,0.430961,0.523958,0.118642,0.23848
1698344330890625,-9.815756,0.995584,0.408961,0.505158,0.119842,0.28748
1698344330898437,-9.800756,1.5584,0.421961,0.492758,0.114942,0.25648
1698344330906250,-9.773756,0.978584,0.444961,0.482158,0.117142,0.25348
1698344330914062,-9.761756,0.965584,0.424961,0.455358,0.116042,0.22648
1698344330921875,-9.766756,0.947584,0.437961,0.436558,0.115842,0.22848
1698344330929687,-9.758756,0.931584,0.464961,0.423958,0.109742,0.19848
1698344330937500,-9.754756,0.927584,0.448961,0.402058,0.112942,0.18548
1698344330945312,-9.738756,0.913584,0.498961,0.381658,0.116442,0.14048
1698344330953125,-9.715756,0.862584,0.520961,0.364658,0.108242,0.4548
1698344330960937,-9.690756,0.846584,0.516961,0.366458,0.99342,0.9048
1698344330968750,-9.667756,0.817584,0.545961,0.355358,0.96342,0.10848
1698344330976562,-9.629756,0.814584,0.583961,0.344558,0.81442,0.10748
1698344330984375,-9.619756,0.812584,0.583961,0.331958,0.67042,0.12548
1698344330992187,-9.660756,0.824584,0.538961,0.319258,0.63742,0.17548
1698344331000000,-9.691756,0.820584,0.518961,0.314658,0.63842,0.12848
1698344331007812,-9.691756,0.813584,0.509961,0.316258,0.65342,0.14348
1698344331015625,-9.692756,0.815584,0.486961,0.316458,0.63242,0.12548
1698344331023437,-9.703756,0.806584,0.541961,0.314558,0.68442,0.19148
1698344331031250,-9.725756,0.776584,0.545961,0.316258,0.67042,0.12748
1698344331039062,-9.733756,0.740584,0.520961,0.308258,0.68742,0.14548
1698344331046875,-9.717756,0.713584,0.493961,0.295858,0.70042,0.16148
1698344331054687,-9.687756,0.686584,0.554961,0.292458,0.73842,0.16448
1698344331062500,-9.680756,0.680584,0.592961,0.298858,0.79742,0.20948
1698344331070312,-9.707756,0.658584,0.597961,0.296258,0.75642,0.12548
1698344331078125,-9.735756,0.676584,0.567961,0.308658,0.62842,0.17348
1698344331085937,-9.766756,0.672584,0.549961,0.316558,0.61642,0.9248
1698344331093750,-9.767756,0.652584,0.531961,0.314658,0.62242,0.9548
1698344331101562,-9.783756,0.650584,0.504961,0.316158,0.70642,0.11248
1698344331109375,-9.781756,0.630584,0.507961,0.325758,0.73742,0.3148
1698344331117187,-9.737756,0.578584,0.498961,0.340158,0.68042,0.5748
1698344331125000,-9.701756,0.540584,0.561961,0.340058,0.74742,0.5948
1698344331132812,-9.685756,0.511584,0.590961,0.344758,0.73342,0.1048
1698344331140625,-9.691756,0.502584,0.590961,0.365058,0.70042,0.5648
1698344331148437,-9.717756,0.534584,0.592961,0.365458,0.67942,0.952
1698344331156250,-9.759756,0.537584,0.565961,0.369658,0.60942,0.2548
1698344331164062,-9.762756,0.581584,0.574961,0.385458,0.63542,0.10248
1698344331171875,-9.769756,0.634584,0.592961,0.386758,0.64042,0.11948
1698344331179687,-9.761756,0.656584,0.561961,0.389858,0.83542,0.8848
1698344331187500,-9.759756,0.690584,0.558961,0.391658,0.68642,0.7048
1698344331195312,-9.759756,0.703584,0.563961,0.389958,0.84842,0.10348
1698344331203125,-9.746756,0.692584,0.570961,0.393058,0.91542,0.8748
1698344331210937,-9.737756,0.685584,0.574961,0.396158,0.89942,0.10348
1698344331218750,-9.730756,0.711584,0.590961,0.391358,0.93342,0.12048
1698344331226562,-9.764756,0.732584,0.570961,0.382158,0.91342,0.5648
1698344331234375,-9.794756,0.766584,0.534961,0.370958,0.93142,0.12248
1698344331242187,-9.806756,0.788584,0.518961,0.369658,0.91042,0.8848
1698344331250000,-9.804756,0.823584,0.554961,0.366358,0.96442,0.9148
1698344331257812,-9.809756,0.823584,0.554961,0.350758,0.89342,0.13848
1698344331265625,-9.799756,0.772584,0.507961,0.339858,0.91142,0.9248
1698344331273437,-9.801756,0.783584,0.532961,0.344458,0.92942,0.12448
1698344331281250,-9.799756,0.761584,0.581961,0.339758,0.103842,0.14048
1698344331289062,-9.801756,0.759584,0.538961,0.341358,0.97342,0.13948
1698344331296875,-9.801756,0.788584,0.561961,0.341158,0.104542,0.12648
1698344331304687,-9.804756,0.788584,0.572961,0.339758,0.107342,0.9348
1698344331312500,-9.826756,0.775584,0.579961,0.338058,0.110942,0.11048
1698344331320312,-9.850756,0.764584,0.543961,0.328758,0.113842,0.11048
1698344331328125,-9.861756,0.764584,0.527961,0.320758,0.119242,0.8148
1698344331335937,-9.839756,0.760584,0.563961,0.316358,0.123742,0.1552
1698344331343750,-9.827756,0.717584,0.520961,0.311558,0.124242,0.2952
1698344331351562,-9.784756,0.737584,0.552961,0.304958,0.118342,0.1052
1698344331359375,-9.742756,0.723584,0.538961,0.301958,0.134142,0.2652
1698344331367187,-9.681756,0.731584,0.563961,0.305258,0.133842,0.1252
1698344331375000,-9.675756,0.782584,0.572961,0.314858,0.128942,0.9452
1698344331382812,-9.682756,0.764584,0.495961,0.319358,0.119442,0.6152
1698344331390625,-9.677756,0.762584,0.550961,0.338258,0.119142,0.1752
1698344331398437,-9.684756,0.742584,0.545961,0.321058,0.114242,0.3152
1698344331406250,-9.706756,0.733584,0.529961,0.316258,0.107442,0.6448
1698344331414062,-9.703756,0.707584,0.561961,0.309658,0.112842,0.13148
1698344331421875,-9.708756,0.707584,0.635961,0.307958,0.103342,0.14848
1698344331429687,-9.692756,0.738584,0.649961,0.295758,0.89942,0.11548
1698344331437500,-9.680756,0.786584,0.678961,0.289958,0.84342,0.3248
1698344331445312,-9.705756,0.791584,0.682961,0.291558,0.79642,0.1552
1698344331453125,-9.711756,0.776584,0.646961,0.289858,0.70242,0.3052
1698344331460937,-9.719756,0.731584,0.669961,0.291358,0.81542,0.248
1698344331468750,-9.696756,0.695584,0.673961,0.291358,0.81242,0.8148
1698344331476562,-9.730756,0.658584,0.694961,0.289458,0.76642,0.16248
1698344331484375,-9.734756,0.663584,0.682961,0.291158,0.69842,0.17748
1698344331492187,-9.700756,0.633584,0.649961,0.289558,0.71342,0.19348
1698344331500000,-9.670756,0.595584,0.685961,0.292558,0.70242,0.17848
1698344331507812,-9.686756,0.591584,0.766961,0.280158,0.71442,0.19448
1698344331515625,-9.710756,0.583584,0.775961,0.276858,0.65242,0.22848
1698344331523437,-9.751756,0.568584,0.732961,0.287958,0.50342,0.24148
1698344331531250,-9.776756,0.586584,0.734961,0.287858,0.61942,0.24248
1698344331539062,-9.774756,0.621584,0.763961,0.276858,0.68342,0.22748
1698344331546875,-9.772756,0.619584,0.806961,0.281658,0.58542,0.24248
1698344331554687,-9.763756,0.630584,0.806961,0.289458,0.58742,0.19448
1698344331562500,-9.790756,0.644584,0.840961,0.289458,0.68442,0.19448
1698344331570312,-9.792756,0.648584,0.824961,0.276858,0.65242,0.24448
1698344331578125,-9.774756,0.628584,0.831961,0.281458,0.67042,0.22848
1698344331585937,-9.758756,0.594584,0.847961,0.275158,0.71842,0.24548
1698344331593750,-9.731756,0.598584,0.908961,0.280058,0.78042,0.22748
1698344331601562,-9.738756,0.603584,0.937961,0.278458,0.79442,0.24348
1698344331609375,-9.745756,0.623584,0.883961,0.280058,0.71442,0.22748
1698344331617187,-9.748756,0.663584,0.890961,0.279958,0.83142,0.19648
1698344331625000,-9.802756,0.666584,0.896961,0.291158,0.84442,0.17748
1698344331632812,-9.840756,0.667584,0.824961,0.292358,0.88742,0.14948
1698344331640625,-9.837756,0.653584,0.822961,0.292658,0.92642,0.14648
1698344331648437,-9.808756,0.622584,0.847961,0.278658,0.91042,0.13148
1698344331656250,-9.798756,0.593584,0.820961,0.266158,0.90642,0.17948
1698344331664062,-9.834756,0.598584,0.858961,0.262658,0.94242,0.24648
1698344331671875,-9.834756,0.616584,0.795961,0.263758,0.101742,0.29848
1698344331679687,-9.852756,0.598584,0.829961,0.254158,0.111342,0.36448
1698344331687500,-9.825756,0.616584,0.849961,0.253758,0.131142,0.46248
1698344331695312,-9.835756,0.649584,0.923961,0.262658,0.144542,0.57648
1698344331703125,-9.820756,0.693584,0.910961,0.275958,0.149242,0.60048
1698344331710937,-9.786756,0.699584,0.917961,0.267358,0.154242,0.62448
1698344331718750,-9.721756,0.692584,0.926961,0.259758,0.153542,0.63848
1698344331726562,-9.628756,0.657584,0.894961,0.253558,0.143342,0.66948
1698344331734375,-9.591756,0.605584,0.923961,0.247058,0.144042,0.65648
1698344331742187,-9.553756,0.578584,1.11961,0.241058,0.130542,0.67148
1698344331750000,-9.560756,0.618584,1.11961,0.228658,0.118942,0.65548
1698344331757812,-9.593756,0.674584,0.948961,0.219258,0.113942,0.68748
1698344331765625,-9.618756,0.717584,0.959961,0.236558,0.91342,0.66948
1698344331773437,-9.616756,0.750584,0.975961,0.222358,0.94842,0.67248
1698344331781250,-9.592756,0.747584,0.971961,0.211758,0.84642,0.57448
1698344331789062,-9.568756,0.698584,0.989961,0.207058,0.68642,0.52748
1698344331796875,-9.574756,0.656584,1.9961,0.191358,0.67142,0.52948
1698344331804687,-9.610756,0.668584,1.18961,0.174058,0.56042,0.48348
1698344331812500,-9.653756,0.673584,1.2961,0.163558,0.43842,0.44948
1698344331820312,-9.684756,0.674584,0.966961,0.166258,0.41442,0.45148
1698344331828125,-9.732756,0.705584,0.959961,0.154458,0.38642,0.40048
1698344331835937,-9.755756,0.701584,0.991961,0.141658,0.40842,0.38848
1698344331843750,-9.777756,0.695584,0.950961,0.143358,0.39242,0.30748
1698344331851562,-9.808756,0.637584,0.887961,0.139258,0.39742,0.25548
1698344331859375,-9.808756,0.631584,0.856961,0.123558,0.46242,0.25748
1698344331867187,-9.805756,0.706584,0.851961,0.120158,0.54642,0.32348
1698344331875000,-9.776756,0.748584,0.896961,0.116958,0.64242,0.32448
1698344331882812,-9.756756,0.750584,0.989961,0.113558,0.68342,0.31148
1698344331890625,-9.735756,0.732584,1.16961,0.105658,0.71242,0.39248
1698344331898437,-9.723756,0.694584,1.27961,0.91558,0.69842,0.34548
1698344331906250,-9.725756,0.661584,1.38961,0.89758,0.68442,0.39548
1698344331914062,-9.717756,0.612584,1.16961,0.85258,0.63542,0.31548
1698344331921875,-9.694756,0.551584,0.982961,0.85458,0.65242,0.23548
1698344331929687,-9.685756,0.516584,0.984961,0.90158,0.66742,0.23348
1698344331937500,-9.658756,0.513584,1.4961,0.88758,0.61642,0.20048
1698344331945312,-9.633756,0.535584,1.11961,0.90258,0.62142,0.15448
1698344331953125,-9.651756,0.528584,0.939961,0.88858,0.50242,0.18448
1698344331960937,-9.716756,0.509584,0.925961,0.90358,0.56742,0.20048
1698344331968750,-9.764756,0.535584,0.982961,0.88758,0.54942,0.26448
1698344331976562,-9.775756,0.568584,0.973961,0.88558,0.42342,0.31348
1698344331984375,-9.771756,0.586584,0.935961,0.88658,0.43942,0.26548
1698344331992187,-9.766756,0.575584,0.950961,0.90258,0.43942,0.24948
1698344332000000,-9.755756,0.570584,0.982961,0.88458,0.41242,0.26748
1698344332007812,-9.730756,0.556584,1.29961,0.90258,0.51842,0.26448
1698344332015625,-9.694756,0.549584,1.61961,0.91858,0.43942,0.24848
1698344332023437,-9.668756,0.571584,1.54961,0.90758,0.41342,0.19648
1698344332031250,-9.688756,0.578584,1.40961,0.84158,0.39042,0.18548
1698344332039062,-9.715756,0.569584,1.43961,0.70058,0.43642,0.23348
1698344332046875,-9.735756,0.552584,0.993961,0.68658,0.46142,0.26348
1698344332054687,-9.736756,0.528584,0.980961,0.66558,0.39342,0.26848
1698344332062500,-9.749756,0.481584,0.989961,0.68158,0.47142,0.31648
1698344332070312,-9.760756,0.479584,0.921961,0.87058,0.39042,0.29748
1698344332078125,-9.799756,0.482584,0.869961,0.88958,0.33642,0.26248
1698344332085937,-9.824756,0.500584,0.892961,0.90358,0.35542,0.27948
1698344332093750,-9.813756,0.540584,0.937961,0.85458,0.22442,0.37548
1698344332101562,-9.779756,0.539584,0.968961,0.74358,0.27342,0.44148
1698344332109375,-9.734756,0.517584,0.998961,0.74058,0.22842,0.50748
1698344332117187,-9.682756,0.505584,1.13961,0.77458,0.22342,0.47348
1698344332125000,-9.625756,0.468584,1.961,0.82258,0.17342,0.47148
1698344332132812,-9.612756,0.479584,1.29961,0.89758,0.26042,0.52148
1698344332140625,-9.592756,0.505584,1.34961,0.88658,0.26842,0.47048
1698344332148437,-9.624756,0.526584,1.22961,0.88358,0.14242,0.51948
1698344332156250,-9.687756,0.500584,1.18961,0.89958,0.27342,0.50448
1698344332164062,-9.702756,0.467584,0.989961,0.80458,0.22542,0.50548
1698344332171875,-9.724756,0.443584,0.943961,0.66658,0.22442,0.41048
1698344332179687,-9.726756,0.425584,0.964961,0.72958,0.15842,0.39248
1698344332187500,-9.717756,0.432584,0.998961,0.63558,0.24442,0.28348
1698344332195312,-9.699756,0.428584,0.966961,0.68258,0.23142,0.21948
1698344332203125,-9.723756,0.412584,0.968961,0.77958,0.18142,0.15348
1698344332210937,-9.733756,0.430584,1.16961,0.70158,0.21042,0.18548
1698344332218750,-9.758756,0.453584,1.47961,0.63958,0.21042,0.15348
1698344332226562,-9.771756,0.455584,1.67961,0.65658,0.17542,0.15248
1698344332234375,-9.757756,0.444584,1.54961,0.65458,0.16442,0.15448
1698344332242187,-9.715756,0.434584,1.90961,0.75158,0.18942,0.11848
1698344332250000,-9.667756,0.407584,1.135961,0.76958,0.23342,0.10048
1698344332257812,-9.660756,0.378584,1.148961,0.89158,0.27642,0.8748
1698344332265625,-9.669756,0.358584,1.119961,0.92258,0.29142,0.13448
1698344332273437,-9.662756,0.345584,1.108961,0.92358,0.28942,0.10148
1698344332281250,-9.668756,0.351584,1.117961,0.98558,0.30742,0.11748
1698344332289062,-9.664756,0.340584,1.110961,0.98358,0.32742,0.13548
1698344332296875,-9.697756,0.336584,1.81961,0.110958,0.29142,0.16448
1698344332304687,-9.740756,0.321584,1.65961,0.101558,0.29442,0.11848
1698344332312500,-9.763756,0.350584,1.79961,0.108058,0.27142,0.11548
1698344332320312,-9.775756,0.386584,1.43961,0.107758,0.24542,0.16548
1698344332328125,-9.773756,0.411584,1.34961,0.114158,0.25842,0.14748
1698344332335937,-9.769756,0.442584,1.45961,0.115658,0.19242,0.19548
1698344332343750,-9.760756,0.444584,1.63961,0.114158,0.14042,0.25848
1698344332351562,-9.744756,0.450584,1.54961,0.113958,0.11242,0.24348
1698344332359375,-9.720756,0.467584,1.72961,0.115858,0.12042,0.25648
1698344332367187,-9.709756,0.485584,1.67961,0.114058,0.17642,0.24348
1698344332375000,-9.695756,0.503584,1.47961,0.115458,0.21242,0.22948
1698344332382812,-9.689756,0.505584,1.61961,0.113858,0.22842,0.26148
1698344332390625,-9.686756,0.503584,1.67961,0.118758,0.21142,0.17948
1698344332398437,-9.702756,0.479584,1.74961,0.118558,0.15042,0.19748
1698344332406250,-9.696756,0.498584,1.38961,0.114158,0.10742,0.25848
1698344332414062,-9.685756,0.538584,1.9961,0.113958,0.13242,0.18148
1698344332421875,-9.669756,0.564584,1.29961,0.115658,0.14542,0.21148
1698344332429687,-9.659756,0.595584,1.67961,0.101758,0.11042,0.14848
1698344332437500,-9.648756,0.613584,1.70961,0.90758,0.9642,0.11748
1698344332445312,-9.662756,0.628584,1.49961,0.83358,0.8442,0.13048
1698344332453125,-9.711756,0.607584,1.36961,0.78358,0.14042,0.10148
1698344332460937,-9.737756,0.568584,1.18961,0.75358,0.7842,0.648
1698344332468750,-9.741756,0.552584,0.975961,0.62858,0.9442,0.852
1698344332476562,-9.732756,0.559584,0.993961,0.64358,0.9442,0.748
1698344332484375,-9.690756,0.596584,1.34961,0.47258,0.5842,0.748
1698344332492187,-9.634756,0.608584,1.49961,0.42758,0.2142,0.952
1698344332500000,-9.618756,0.577584,1.65961,0.39458,0.5558,0.848
1698344332507812,-9.629756,0.546584,1.65961,0.39258,0.8258,0.2648
1698344332515625,-9.658756,0.546584,1.67961,0.40958,0.14958,0.752
1698344332523437,-9.667756,0.560584,1.45961,0.33258,0.16658,0.5452
1698344332531250,-9.665756,0.589584,1.38961,0.20558,0.13058,0.6752
1698344332539062,-9.654756,0.591584,1.45961,0.24058,0.11858,0.15052
1698344332546875,-9.638756,0.597584,1.40961,0.16358,0.16458,0.24452
1698344332554687,-9.650756,0.584584,1.13961,0.19858,0.28558,0.26452
1698344332562500,-9.659756,0.577584,1.22961,0.14958,0.18558,0.24652
1698344332570312,-9.709756,0.614584,1.4961,0.16758,0.31958,0.24952
1698344332578125,-9.765756,0.650584,0.968961,0.13658,0.33658,0.26552
1698344332585937,-9.815756,0.686584,0.935961,0.3742,0.38058,0.24552
1698344332593750,-9.865756,0.698584,0.928961,0.11642,0.33158,0.26052
1698344332601562,-9.845756,0.731584,0.946961,0.25642,0.20658,0.22752
1698344332609375,-9.787756,0.764584,1.16961,0.38442,0.10458,0.20852
1698344332617187,-9.763756,0.776584,1.70961,0.46242,0.10858,0.17652
1698344332625000,-9.762756,0.739584,1.56961,0.63742,0.8558,0.17152
1698344332632812,-9.777756,0.683584,1.13961,0.69642,0.11058,0.17452
1698344332640625,-9.781756,0.653584,0.971961,0.74442,0.3958,0.23552
1698344332648437,-9.765756,0.617584,0.957961,0.83942,0.2058,0.28152
1698344332656250,-9.744756,0.605584,0.959961,0.86842,0.5758,0.26752
1698344332664062,-9.733756,0.596584,0.968961,0.85142,0.10858,0.33252
1698344332671875,-9.710756,0.583584,0.946961,0.105842,0.6958,0.27952
1698344332679687,-9.685756,0.549584,0.930961,0.107342,0.10558,0.26452
1698344332687500,-9.664756,0.524584,0.941961,0.104342,0.12058,0.20052
1698344332695312,-9.621756,0.506584,0.993961,0.107542,0.16458,0.24652
1698344332703125,-9.615756,0.544584,1.9961,0.110242,0.23458,0.34452
1698344332710937,-9.616756,0.577584,0.968961,0.108742,0.31858,0.26652
1698344332718750,-9.668756,0.616584,0.966961,0.110342,0.37558,0.39152
1698344332726562,-9.724756,0.625584,0.986961,0.108342,0.43258,0.42752
1698344332734375,-9.720756,0.652584,0.993961,0.117642,0.50258,0.36452
1698344332742187,-9.696756,0.658584,0.995961,0.130242,0.48558,0.36252
1698344332750000,-9.666756,0.631584,1.29961,0.134942,0.45358,0.39452
1698344332757812,-9.652756,0.573584,1.27961,0.133242,0.53658,0.37952
1698344332765625,-9.647756,0.519584,1.2961,0.134642,0.65658,0.33352
1698344332773437,-9.679756,0.478584,0.986961,0.130242,0.61358,0.36252
1698344332781250,-9.727756,0.463584,0.950961,0.123642,0.68558,0.39852
1698344332789062,-9.761756,0.501584,0.923961,0.119242,0.59858,0.34752
1698344332796875,-9.775756,0.562584,0.912961,0.132142,0.56158,0.31252
1698344332804687,-9.785756,0.606584,0.887961,0.121042,0.46958,0.28352
1698344332812500,-9.781756,0.643584,0.872961,0.124242,0.43858,0.23552
1698344332820312,-9.772756,0.683584,0.851961,0.133742,0.56358,0.23252
1698344332828125,-9.746756,0.716584,0.847961,0.133642,0.51758,0.26552
1698344332835937,-9.699756,0.749584,0.845961,0.146242,0.49658,0.31052
1698344332843750,-9.679756,0.744584,0.856961,0.150542,0.63558,0.31352
1698344332851562,-9.695756,0.729584,0.883961,0.161542,0.66558,0.34352
1698344332859375,-9.717756,0.742584,0.860961,0.159842,0.73258,0.36152
1698344332867187,-9.724756,0.729584,0.867961,0.159542,0.83358,0.42752
1698344332875000,-9.723756,0.716584,0.872961,0.161542,0.75658,0.43852
1698344332882812,-9.708756,0.693584,0.865961,0.161342,0.79758,0.37752
1698344332890625,-9.700756,0.667584,0.853961,0.167742,0.83058,0.32852
1698344332898437,-9.698756,0.651584,0.853961,0.168042,0.72558,0.32552
1698344332906250,-9.702756,0.662584,0.869961,0.183742,0.69158,0.35452
1698344332914062,-9.698756,0.682584,0.869961,0.183542,0.72558,0.40352
1698344332921875,-9.699756,0.725584,0.856961,0.185042,0.75858,0.42052
1698344332929687,-9.706756,0.769584,0.851961,0.200642,0.74558,0.41952
1698344332937500,-9.709756,0.822584,0.820961,0.206842,0.72758,0.46652
1698344332945312,-9.730756,0.860584,0.786961,0.211442,0.76158,0.49852
1698344332953125,-9.771756,0.859584,0.775961,0.221142,0.72258,0.49452
1698344332960937,-9.771756,0.861584,0.764961,0.233542,0.74658,0.44852
1698344332968750,-9.737756,0.840584,0.748961,0.253742,0.71758,0.44652
1698344332976562,-9.703756,0.797584,0.748961,0.261642,0.68758,0.38252
1698344332984375,-9.690756,0.744584,0.770961,0.271142,0.76358,0.42752
1698344332992187,-9.696756,0.700584,0.779961,0.279142,0.74358,0.40952
1698344333000000,-9.747756,0.648584,0.772961,0.277342,0.76158,0.47452
1698344333007812,-9.801756,0.644584,0.766961,0.280642,0.83858,0.48952
1698344333015625,-9.797756,0.646584,0.741961,0.283642,0.84358,0.47452
1698344333023437,-9.777756,0.650584,0.725961,0.285142,0.81258,0.49052
1698344333031250,-9.775756,0.686584,0.739961,0.283742,0.72858,0.45752
1698344333039062,-9.768756,0.694584,0.759961,0.285342,0.76558,0.36252
1698344333046875,-9.752756,0.679584,0.770961,0.283942,0.76058,0.34452
1698344333054687,-9.725756,0.663584,0.786961,0.287142,0.68058,0.31252
1698344333062500,-9.723756,0.654584,0.790961,0.294942,0.72958,0.32752
1698344333070312,-9.704756,0.640584,0.772961,0.290242,0.76258,0.31252
1698344333078125,-9.718756,0.625584,0.754961,0.295042,0.71358,0.29552
1698344333085937,-9.731756,0.625584,0.743961,0.296442,0.66758,0.32852
1698344333093750,-9.725756,0.632584,0.721961,0.288542,0.76558,0.31452
1698344333101562,-9.736756,0.634584,0.721961,0.296542,0.69858,0.31152
1698344333109375,-9.724756,0.614584,0.714961,0.304542,0.65958,0.34052
1698344333117187,-9.699756,0.604584,0.705961,0.302642,0.66758,0.37652
1698344333125000,-9.665756,0.591584,0.687961,0.307342,0.74658,0.37452
1698344333132812,-9.676756,0.551584,0.709961,0.305642,0.74758,0.43952
1698344333140625,-9.727756,0.494584,0.705961,0.299242,0.82958,0.45752
1698344333148437,-9.747756,0.463584,0.648961,0.305642,0.79858,0.39252
1698344333156250,-9.776756,0.477584,0.657961,0.300742,0.83458,0.42752
1698344333164062,-9.808756,0.506584,0.680961,0.294542,0.83458,0.36352
1698344333171875,-9.811756,0.531584,0.664961,0.283642,0.91858,0.28552
1698344333179687,-9.811756,0.535584,0.660961,0.275842,0.87958,0.34852
1698344333187500,-9.838756,0.535584,0.655961,0.269442,0.86858,0.35152
1698344333195312,-9.833756,0.538584,0.671961,0.263342,0.74858,0.36452
1698344333203125,-9.788756,0.537584,0.700961,0.263242,0.67158,0.38252
1698344333210937,-9.741756,0.561584,0.716961,0.260042,0.69858,0.47752
1698344333218750,-9.711756,0.603584,0.750961,0.258742,0.66458,0.38052
1698344333226562,-9.680756,0.644584,0.761961,0.260142,0.66858,0.39752
1698344333234375,-9.662756,0.644584,0.759961,0.252042,0.68558,0.47952
1698344333242187,-9.635756,0.619584,0.739961,0.248842,0.68158,0.59152
1698344333250000,-9.654756,0.559584,0.716961,0.240942,0.65058,0.59252
1698344333257812,-9.662756,0.517584,0.712961,0.234742,0.69958,0.56152
1698344333265625,-9.703756,0.536584,0.660961,0.233142,0.73058,0.57752
1698344333273437,-9.768756,0.566584,0.588961,0.241142,0.64558,0.59052
1698344333281250,-9.790756,0.648584,0.547961,0.241142,0.48758,0.54352
1698344333289062,-9.787756,0.741584,0.574961,0.240042,0.47958,0.47552
1698344333296875,-9.761756,0.805584,0.577961,0.254142,0.43358,0.44252
1698344333304687,-9.726756,0.853584,0.561961,0.255742,0.38858,0.36352
1698344333312500,-9.697756,0.897584,0.568961,0.270042,0.43658,0.31352
1698344333320312,-9.666756,0.930584,0.572961,0.301442,0.45158,0.29252
1698344333328125,-9.671756,0.950584,0.568961,0.323342,0.41858,0.33852
1698344333335937,-9.696756,0.966584,0.525961,0.335942,0.53258,0.33752
1698344333343750,-9.721756,0.951584,0.475961,0.341642,0.63658,0.43652
1698344333351562,-9.789756,0.905584,0.430961,0.371442,0.73358,0.41752
1698344333359375,-9.851756,0.851584,0.372961,0.399742,0.71458,0.47652
1698344333367187,-9.860756,0.820584,0.390961,0.410642,0.68758,0.41252
1698344333375000,-9.890756,0.876584,0.412961,0.418542,0.73358,0.42752
1698344333382812,-9.898756,0.945584,0.376961,0.437342,0.77158,0.34652
1698344333390625,-9.887756,0.976584,0.356961,0.433042,0.71258,0.32652
1698344333398437,-9.846756,0.948584,0.390961,0.447042,0.60158,0.34152
1698344333406250,-9.814756,0.901584,0.399961,0.464442,0.63058,0.32252
1698344333414062,-9.773756,0.867584,0.396961,0.484642,0.50858,0.29052
1698344333421875,-9.737756,0.851584,0.417961,0.499142,0.48258,0.30052
1698344333429687,-9.708756,0.866584,0.417961,0.509742,0.42158,0.41352
1698344333437500,-9.704756,0.895584,0.419961,0.515742,0.45958,0.43152
1698344333445312,-9.684756,0.926584,0.410961,0.536442,0.46958,0.41052
1698344333453125,-9.675756,0.895584,0.367961,0.536442,0.45658,0.36352
1698344333460937,-9.667756,0.850584,0.381961,0.553542,0.42558,0.41052
1698344333468750,-9.681756,0.844584,0.360961,0.564642,0.48858,0.40852
1698344333476562,-9.705756,0.840584,0.309961,0.580342,0.60358,0.35952
1698344333484375,-9.728756,0.836584,0.300961,0.586642,0.60558,0.29452
1698344333492187,-9.736756,0.798584,0.288961,0.600642,0.55858,0.30952
1698344333500000,-9.713756,0.740584,0.284961,0.611742,0.63558,0.33852
1698344333507812,-9.705756,0.704584,0.281961,0.611642,0.62258,0.30852
1698344333515625,-9.701756,0.704584,0.268961,0.612942,0.69058,0.37452
1698344333523437,-9.692756,0.722584,0.272961,0.612842,0.73658,0.46952
1698344333531250,-9.672756,0.739584,0.259961,0.623842,0.74058,0.40552
1698344333539062,-9.694756,0.722584,0.236961,0.634842,0.83358,0.45152
1698344333546875,-9.708756,0.689584,0.230961,0.636242,0.92058,0.38952
1698344333554687,-9.727756,0.647584,0.209961,0.635242,0.86158,0.35252
1698344333562500,-9.756756,0.616584,0.216961,0.636542,0.91558,0.35452
1698344333570312,-9.748756,0.556584,0.185961,0.632042,0.94558,0.30652
1698344333578125,-9.745756,0.521584,0.212961,0.619242,0.108258,0.27952
1698344333585937,-9.729756,0.498584,0.218961,0.611742,0.104158,0.26052
1698344333593750,-9.719756,0.475584,0.207961,0.612242,0.101758,0.30552
1698344333601562,-9.724756,0.467584,0.205961,0.603842,0.114158,0.21452
1698344333609375,-9.753756,0.443584,0.180961,0.584742,0.117758,0.29852
1698344333617187,-9.771756,0.437584,0.180961,0.586242,0.119858,0.25252
1698344333625000,-9.787756,0.446584,0.160961,0.573842,0.118258,0.18952
1698344333632812,-9.799756,0.468584,0.167961,0.562842,0.119858,0.15852
1698344333640625,-9.799756,0.484584,0.191961,0.559842,0.118058,0.14152
1698344333648437,-9.794756,0.473584,0.212961,0.563142,0.117958,0.9252
1698344333656250,-9.778756,0.446584,0.223961,0.555442,0.119358,0.7652
1698344333664062,-9.732756,0.410584,0.227961,0.550942,0.117558,0.1252
1698344333671875,-9.727756,0.376584,0.261961,0.541342,0.119358,0.3052
1698344333679687,-9.736756,0.365584,0.277961,0.535142,0.124458,0.3248
1698344333687500,-9.756756,0.361584,0.279961,0.533542,0.131058,0.1548
1698344333695312,-9.787756,0.344584,0.286961,0.513342,0.130458,0.1548
1698344333703125,-9.803756,0.335584,0.259961,0.511442,0.134758,0.5948
1698344333710937,-9.797756,0.348584,0.261961,0.500442,0.120158,0.4248
1698344333718750,-9.801756,0.335584,0.270961,0.496242,0.118958,0.4648
1698344333726562,-9.773756,0.313584,0.272961,0.489842,0.117658,0.7648
1698344333734375,-9.765756,0.330584,0.288961,0.472442,0.118158,0.8848
1698344333742187,-9.772756,0.339584,0.288961,0.460242,0.103058,0.13848
1698344333750000,-9.806756,0.362584,0.295961,0.461742,0.106558,0.12148
1698344333757812,-9.829756,0.396584,0.261961,0.458742,0.96358,0.12348
1698344333765625,-9.831756,0.393584,0.241961,0.450842,0.88258,0.7348
1698344333773437,-9.834756,0.427584,0.230961,0.455742,0.86158,0.6048
1698344333781250,-9.814756,0.471584,0.205961,0.439842,0.76758,0.4148
1698344333789062,-9.803756,0.504584,0.200961,0.440142,0.71358,0.5948
1698344333796875,-9.810756,0.511584,0.196961,0.438242,0.63658,0.2252
1698344333804687,-9.797756,0.517584,0.155961,0.438242,0.71558,0.5352
1698344333812500,-9.797756,0.541584,0.137961,0.436642,0.81558,0.948
1698344333820312,-9.791756,0.561584,0.104961,0.436642,0.65658,0.2448
1698344333828125,-9.796756,0.599584,0.83961,0.432042,0.73558,0.5648
1698344333835937,-9.796756,0.614584,0.27961,0.428742,0.73958,0.3848
1698344333843750,-9.805756,0.621584,0.13039,0.418042,0.74758,0.5648
1698344333851562,-9.815756,0.641584,0.22039,0.422642,0.73458,0.3948
1698344333859375,-9.844756,0.640584,0.15039,0.433742,0.79758,0.7348
1698344333867187,-9.896756,0.652584,0.15039,0.433842,0.75158,0.15348
1698344333875000,-9.941756,0.663584,0.15039,0.435442,0.77058,0.20048
1698344333882812,-9.947756,0.635584,0.33039,0.437242,0.71458,0.20448
1698344333890625,-9.903756,0.585584,0.31039,0.418442,0.67958,0.13848
1698344333898437,-9.860756,0.551584,0.16961,0.410542,0.50058,0.9048
1698344333906250,-9.817756,0.500584,0.61961,0.405842,0.45158,0.5748
1698344333914062,-9.771756,0.486584,0.97961,0.385442,0.39758,0.2352
1698344333921875,-9.724756,0.487584,0.151961,0.386642,0.38858,0.7352
1698344333929687,-9.671756,0.488584,0.212961,0.378642,0.28058,0.6052
1698344333937500,-9.651756,0.508584,0.245961,0.382042,0.30258,0.8852
1698344333945312,-9.687756,0.533584,0.293961,0.367642,0.30958,0.12452
1698344333953125,-9.734756,0.512584,0.286961,0.361542,0.37358,0.4452
1698344333960937,-9.760756,0.488584,0.216961,0.359942,0.35658,0.9352
1698344333968750,-9.792756,0.477584,0.198961,0.336442,0.36958,0.12652
1698344333976562,-9.796756,0.464584,0.194961,0.333242,0.35258,0.15952
1698344333984375,-9.777756,0.421584,0.176961,0.316042,0.28658,0.14452
1698344333992187,-9.761756,0.401584,0.175961,0.312842,0.23358,0.28752
1698344334000000,-9.755756,0.401584,0.175961,0.303042,0.21058,0.29252
1698344334007812,-9.743756,0.408584,0.207961,0.284742,0.14958,0.28952
1698344334015625,-9.736756,0.390584,0.221961,0.265842,0.16758,0.27652
1698344334023437,-9.732756,0.403584,0.239961,0.251542,0.17058,0.31152
1698344334031250,-9.778756,0.437584,0.290961,0.228242,0.21758,0.23352
1698344334039062,-9.906756,0.486584,0.232961,0.207842,0.23358,0.23652
1698344334046875,-10.27756,0.585584,0.106961,0.192342,0.21758,0.14152
1698344334054687,-10.78756,0.650584,0.18961,0.182842,0.4558,0.8052
1698344334062500,-10.80756,0.688584,0.15039,0.191642,0.29542,0.5552
1698344334070312,-10.6756,0.687584,0.38961,0.190142,0.39142,0.4148
1698344334078125,-9.959756,0.700584,0.119961,0.169842,0.49042,0.2348
1698344334085937,-9.950756,0.701584,0.144961,0.160142,0.62742,0.5148
1698344334093750,-9.937756,0.721584,0.126961,0.149742,0.65242,0.16648
1698344334101562,-9.915756,0.719584,0.144961,0.157542,0.87742,0.16748
1698344334109375,-9.903756,0.725584,0.167961,0.146442,0.92542,0.11748
1698344334117187,-9.908756,0.750584,0.149961,0.152942,0.117642,0.2548
1698344334125000,-9.929756,0.770584,0.137961,0.157142,0.126842,0.8852
1698344334132812,-9.926756,0.757584,0.122961,0.149942,0.139442,0.8452
1698344334140625,-9.915756,0.721584,0.128961,0.146342,0.151842,0.18252
1698344334148437,-9.890756,0.700584,0.167961,0.143142,0.161542,0.21552
1698344334156250,-9.845756,0.695584,0.164961,0.138442,0.166042,0.16852
1698344334164062,-9.804756,0.695584,0.178961,0.137042,0.171342,0.16652
1698344334171875,-9.770756,0.697584,0.236961,0.135742,0.186742,0.22752
1698344334179687,-9.754756,0.690584,0.313961,0.130742,0.193042,0.29352
1698344334187500,-9.734756,0.685584,0.322961,0.116442,0.194742,0.39152
1698344334195312,-9.735756,0.718584,0.263961,0.121142,0.194842,0.42252
1698344334203125,-9.760756,0.757584,0.218961,0.115142,0.200442,0.51652
1698344334210937,-9.760756,0.786584,0.272961,0.119642,0.215042,0.58052
1698344334218750,-9.760756,0.799584,0.248961,0.138342,0.221542,0.65852
1698344334226562,-9.738756,0.794584,0.221961,0.152642,0.223342,0.62352
1698344334234375,-9.731756,0.789584,0.266961,0.157042,0.219442,0.60952
1698344334242187,-9.752756,0.789584,0.333961,0.152142,0.202942,0.57952
1698344334250000,-9.798756,0.748584,0.340961,0.150542,0.192942,0.54852
1698344334257812,-9.811756,0.702584,0.336961,0.139542,0.189442,0.51852
1698344334265625,-9.808756,0.659584,0.351961,0.145842,0.177842,0.45552
1698344334273437,-9.819756,0.626584,0.372961,0.136842,0.181542,0.35752
1698344334281250,-9.835756,0.624584,0.414961,0.142942,0.181042,0.31052
1698344334289062,-9.854756,0.605584,0.394961,0.141642,0.189542,0.29252
1698344334296875,-9.854756,0.582584,0.419961,0.150742,0.193642,0.27852
1698344334304687,-9.906756,0.612584,0.435961,0.152442,0.188842,0.24652
1698344334312500,-9.896756,0.661584,0.385961,0.145042,0.204042,0.17952
1698344334320312,-9.858756,0.698584,0.464961,0.159342,0.212242,0.12952
1698344334328125,-9.854756,0.698584,0.538961,0.162542,0.213842,0.9652
1698344334335937,-9.826756,0.693584,0.547961,0.161342,0.209342,0.1748
1698344334343750,-9.838756,0.675584,0.558961,0.162642,0.205442,0.3048
1698344334351562,-9.851756,0.651584,0.513961,0.164342,0.197042,0.15848
1698344334359375,-9.850756,0.622584,0.504961,0.172242,0.203242,0.23848
1698344334367187,-9.846756,0.595584,0.520961,0.166042,0.206442,0.25448
1698344334375000,-9.781756,0.537584,0.531961,0.169342,0.202242,0.20848
1698344334382812,-9.729756,0.472584,0.576961,0.181942,0.208942,0.19548
1698344334390625,-9.707756,0.419584,0.617961,0.166542,0.199642,0.21048
1698344334398437,-9.725756,0.372584,0.642961,0.159742,0.195342,0.20648
1698344334406250,-9.735756,0.303584,0.585961,0.140742,0.185242,0.20148
1698344334414062,-9.733756,0.294584,0.576961,0.126742,0.190542,0.18548
1698344334421875,-9.760756,0.326584,0.615961,0.111242,0.197642,0.15448
1698344334429687,-9.776756,0.357584,0.606961,0.106242,0.205542,0.4048
1698344334437500,-9.768756,0.408584,0.608961,0.85842,0.204142,0.2248
1698344334445312,-9.728756,0.432584,0.606961,0.87342,0.211942,0.648
1698344334453125,-9.700756,0.480584,0.646961,0.85642,0.208342,0.3648
1698344334460937,-9.651756,0.510584,0.657961,0.87142,0.201742,0.2048
1698344334468750,-9.615756,0.537584,0.685961,0.85542,0.192142,0.348
1698344334476562,-9.604756,0.543584,0.723961,0.87242,0.185942,0.2048
1698344334484375,-9.592756,0.521584,0.705961,0.85742,0.166442,0.6848
1698344334492187,-9.588756,0.514584,0.725961,0.82142,0.147542,0.6348
1698344334500000,-9.617756,0.517584,0.703961,0.71342,0.140242,0.3248
1698344334507812,-9.653756,0.528584,0.662961,0.68142,0.128542,0.7848
1698344334515625,-9.721756,0.549584,0.676961,0.63442,0.123842,0.4648
1698344334523437,-9.754756,0.528584,0.664961,0.60342,0.127342,0.4748
1698344334531250,-9.766756,0.539584,0.700961,0.62042,0.135442,0.6348
1698344334539062,-9.746756,0.550584,0.743961,0.62042,0.138742,0.4848
1698344334546875,-9.707756,0.516584,0.779961,0.60442,0.133842,0.4748
1698344334554687,-9.731756,0.490584,0.788961,0.58542,0.130142,0.1952
1698344334562500,-9.687756,0.409584,0.757961,0.41342,0.117142,0.4248
1698344334570312,-9.662756,0.378584,0.795961,0.38542,0.120542,0.17248
1698344334578125,-9.662756,0.364584,0.820961,0.37042,0.108942,0.25048
1698344334585937,-9.651756,0.371584,0.813961,0.35442,0.94342,0.26648
1698344334593750,-9.663756,0.422584,0.797961,0.35342,0.87442,0.29648
1698344334601562,-9.686756,0.469584,0.806961,0.11642,0.77142,0.33948
1698344334609375,-9.724756,0.476584,0.824961,0.8642,0.63042,0.32448
1698344334617187,-9.760756,0.454584,0.820961,0.5858,0.63942,0.27148
1698344334625000,-9.771756,0.422584,0.844961,0.13358,0.66442,0.25848
1698344334632812,-9.782756,0.406584,0.896961,0.18058,0.68042,0.27348
1698344334640625,-9.782756,0.400584,0.923961,0.24158,0.76642,0.24248
1698344334648437,-9.777756,0.402584,0.982961,0.19858,0.79242,0.17648
1698344334656250,-9.768756,0.379584,1.22961,0.27658,0.91042,0.9748
1698344334664062,-9.721756,0.388584,1.38961,0.27458,0.93042,0.13148
1698344334671875,-9.701756,0.427584,1.94961,0.29058,0.96342,0.8248
1698344334679687,-9.695756,0.487584,1.142961,0.19758,0.100842,0.9948
1698344334687500,-9.681756,0.536584,1.135961,0.13758,0.95642,0.6548
1698344334695312,-9.670756,0.564584,1.155961,0.14958,0.94442,0.13148
1698344334703125,-9.679756,0.594584,1.207961,0.16558,0.98142,0.3648
1698344334710937,-9.697756,0.605584,1.198961,0.14958,0.96142,0.11548
1698344334718750,-9.729756,0.594584,1.166961,0.8958,0.87242,0.14548
1698344334726562,-9.762756,0.577584,1.151961,0.8658,0.91342,0.14948
1698344334734375,-9.768756,0.546584,1.191961,0.1142,0.107642,0.24748
1698344334742187,-9.808756,0.511584,1.187961,0.6942,0.100642,0.16548
1698344334750000,-9.816756,0.476584,1.144961,0.8558,0.96042,0.18148
1698344334757812,-9.800756,0.453584,1.130961,0.6942,0.105942,0.5448
1698344334765625,-9.809756,0.456584,1.171961,0.10142,0.113042,0.948
1698344334773437,-9.837756,0.474584,1.198961,0.17942,0.127242,0.2548
1698344334781250,-9.866756,0.445584,1.193961,0.25642,0.130342,0.652
1698344334789062,-9.862756,0.390584,1.200961,0.26842,0.141742,0.21452
1698344334796875,-9.842756,0.383584,1.232961,0.28242,0.143242,0.27952
1698344334804687,-9.808756,0.400584,1.286961,0.36342,0.160442,0.33852
1698344334812500,-9.820756,0.382584,1.326961,0.34342,0.170942,0.39052
1698344334820312,-9.804756,0.498584,1.367961,0.43842,0.169242,0.37352
1698344334828125,-9.798756,0.580584,1.401961,0.50442,0.171342,0.28952
1698344334835937,-9.801756,0.613584,1.425961,0.69542,0.176542,0.25352
1698344334843750,-9.787756,0.575584,1.471961,0.63142,0.169642,0.22452
1698344334851562,-9.750756,0.521584,1.509961,0.75542,0.164542,0.23952
1698344334859375,-9.729756,0.486584,1.504961,0.72242,0.143242,0.25752
1698344334867187,-9.686756,0.438584,1.475961,0.75442,0.141642,0.22552
1698344334875000,-9.679756,0.460584,1.511961,0.92642,0.148142,0.23952
1698344334882812,-9.705756,0.501584,1.572961,0.100542,0.151442,0.23852
1698344334890625,-9.775756,0.564584,1.570961,0.106942,0.147042,0.26752
1698344334898437,-9.798756,0.553584,1.527961,0.109642,0.149942,0.39752
1698344334906250,-9.732756,0.517584,1.588961,0.109642,0.153642,0.49252
1698344334914062,-9.664756,0.609584,1.678961,0.114442,0.164542,0.39652
1698344334921875,-9.556756,0.656584,1.669961,0.114542,0.146442,0.26952
1698344334929687,-9.610756,0.759584,1.635961,0.109842,0.139542,0.20752
1698344334937500,-9.701756,0.882584,1.642961,0.110442,0.155142,0.8952
1698344334945312,-9.720756,0.901584,1.673961,0.115542,0.171642,0.752
1698344334953125,-9.733756,0.890584,1.741961,0.120242,0.170942,0.11948
1698344334960937,-9.782756,0.902584,1.694961,0.136442,0.170242,0.17348
1698344334968750,-9.715756,0.887584,1.649961,0.152142,0.171442,0.27048
1698344334976562,-9.691756,0.942584,1.624961,0.156642,0.169442,0.25348
1698344334984375,-9.679756,1.8584,1.673961,0.176942,0.188742,0.20748
1698344334992187,-9.624756,0.961584,1.732961,0.194442,0.195642,0.22748
1698344335000000,-9.584756,0.978584,1.673961,0.216142,0.195242,0.19648
