time,Acceleration X (m/s^2),Acceleration Y (m/s^2),Acceleration Z (m/s^2),Angular Velocity X (rad/s),Angular Velocity Y (rad/s),Angular Velocity Z (rad/s)
1698344396875000,-9.360908,1.928811,-0.356534,-1.279528,,
1698344396882812,-9.179908,1.838811,0.451534,-1.305828,0.274789,0.162237
1698344396890625,-9.27908,1.732811,0.512534,-1.351528,0.244089,0.170937
1698344396898437,-9.170908,1.712811,0.676534,-1.395528,0.239489,0.176137
1698344396906250,-9.569908,1.797811,0.791534,-1.412528,0.259489,0.176137
1698344396914062,-9.799908,1.850811,0.732534,-1.431128,0.276989,0.161937
1698344396929687,-10.72908,1.854811,0.714534,-1.448928,0.353389,0.156337
1698344396937500,-10.322908,1.922811,0.901534,-1.447128,0.400189,0.148237
1698344396945312,-10.575908,1.855811,-1.97534,-1.427728,0.447189,0.130037
1698344396953125,-10.619908,1.712811,-1.126534,-1.414928,0.463189,0.117037
1698344396976562,-10.459908,1.643811,0.793534,-1.370828,0.408689,0.10837
1698344396984375,-10.183908,1.798811,0.529534,-1.365928,0.371289,0.5163
1698344396992187,-10.79908,1.921811,0.406534,-1.347328,0.380789,0.4337
1698344397000000,-10.20908,1.900811,0.273534,-1.328528,0.388889,0.4037
1698344397007812,-9.875908,1.978811,0.297534,-1.362828,0.400589,0.4337
1698344397015625,-9.652908,2.77811,0.588534,-1.405728,0.409789,0.11437
1698344397023437,-9.543908,2.126811,0.786534,-1.410628,0.383989,0.24437
1698344397031250,-9.332908,2.334811,0.617534,-1.419728,0.327389,0.38137
1698344397039062,-9.412908,2.422811,0.498534,-1.464828,0.327889,0.33637
1698344397046875,-9.411908,2.189811,0.705534,-1.492828,0.363989,0.33737
1698344397054687,-9.347908,2.110811,0.813534,-1.508028,0.398989,0.41437
1698344397062500,-9.412908,1.993811,0.874534,-1.557828,0.441389,0.30537
1698344397070312,-9.505908,1.881811,0.971534,-1.593628,0.463189,0.35437
1698344397078125,-9.341908,1.891811,0.843534,-1.615028,0.457189,0.49037
1698344397085937,-9.476908,1.777811,0.811534,-1.639928,0.468689,0.41137
1698344397093750,-9.516908,1.562811,0.800534,-1.637828,0.466189,0.42537
1698344397101562,-9.588908,1.450811,0.865534,-1.639128,0.493789,0.29537
1698344397109375,-9.467908,1.464811,-1.64534,-1.667228,0.516589,0.24937
1698344397117187,-9.317908,1.488811,-1.140534,-1.697228,0.500289,0.31837
1698344397125000,-9.376908,1.529811,-1.108534,-1.706528,0.494389,0.41437
1698344397132812,-9.427908,1.537811,-1.91534,-1.701228,0.461089,0.59437
1698344397140625,-9.347908,1.589811,0.782534,-1.703128,0.444689,0.69237
1698344397148437,-9.610908,1.377811,0.901534,-1.713528,0.525489,0.83137
1698344397156250,-9.780908,1.157811,-1.293534,-1.705228,0.564089,0.95237
1698344397164062,-9.933908,1.112811,-1.365534,-1.705928,0.554589,0.92637
1698344397171875,-10.26908,1.9811,-1.318534,-1.687028,0.561089,0.87537
1698344397179687,-10.65908,1.74811,-1.374534,-1.687028,0.536489,0.81237
1698344397187500,-10.94908,1.214811,-1.399534,-1.682528,0.505289,0.79837
1698344397195312,-10.83908,1.354811,-1.458534,-1.701828,0.467289,0.77237
1698344397203125,-9.975908,1.487811,-1.415534,-1.723628,0.425589,0.83937
1698344397210937,-9.894908,1.655811,-1.399534,-1.744528,0.395689,0.86137
1698344397218750,-9.842908,1.724811,-1.345534,-1.763128,0.356989,0.84837
1698344397226562,-9.859908,1.782811,-1.248534,-1.785428,0.317789,0.87037
1698344397234375,-9.811908,1.895811,-1.212534,-1.812628,0.296089,0.94037
1698344397242187,-9.753908,2.44811,-1.194534,-1.843928,0.282489,0.113437
1698344397250000,-9.765908,2.98811,-1.232534,-1.881828,0.265989,0.118937
1698344397257812,-9.790908,2.127811,-1.286534,-1.893328,0.241089,0.124137
1698344397265625,-9.728908,2.168811,-1.198534,-1.915328,0.211889,0.126137
1698344397273437,-9.727908,2.133811,-1.108534,-1.937928,0.181789,0.126837
1698344397281250,-9.805908,2.84811,-1.72534,-1.936328,0.158889,0.118937
1698344397289062,-9.895908,1.983811,-1.14534,-1.936528,0.135889,0.119137
1698344397296875,-9.962908,1.935811,-1.38534,-1.934928,0.119989,0.125537
1698344397304687,-9.960908,1.935811,-1.47534,-1.917828,0.103589,0.127037
1698344397312500,-9.844908,2.31811,0.858534,-1.915028,0.81889,0.125737
1698344397320312,-9.734908,2.184811,0.827534,-1.912928,0.90389,0.115837
1698344397328125,-9.714908,2.159811,0.894534,-1.918928,0.102089,0.110937
1698344397335937,-9.566908,2.202811,0.928534,-1.939428,0.85489,0.103337
1698344397343750,-9.499908,2.85811,0.973534,-1.970828,0.92089,0.111637
1698344397351562,-9.401908,1.968811,-1.106534,-2.10328,0.113389,0.128037
1698344397359375,-9.374908,1.950811,-1.232534,-2.55928,0.125389,0.150937
1698344397367187,-9.402908,2.26811,-1.178534,-2.95928,0.118589,0.174037
1698344397375000,-9.482908,2.134811,-1.108534,-2.113528,0.92189,0.177737
1698344397382812,-9.589908,2.186811,-1.61534,-2.130628,0.60289,0.181137
1698344397390625,-9.639908,2.110811,-1.106534,-2.124828,0.35089,0.179837
1698344397398437,-9.643908,1.948811,-1.223534,-2.115428,0.25289,0.178137
1698344397406250,-9.700908,1.820811,-1.192534,-2.102928,0.13711,0.181337
1698344397414062,-9.558908,1.662811,-1.54534,-2.90528,0.49011,0.186037
1698344397421875,-9.448908,1.568811,-1.18534,-2.64428,0.35411,0.195737
1698344397429687,-9.283908,1.449811,-1.36534,-2.28128,0.38011,0.198237
1698344397437500,-9.121908,1.343811,0.971534,-1.994028,0.46711,0.202937
1698344397445312,-9.43908,1.269811,0.998534,-1.973128,0.106511,0.208237
1698344397453125,-8.931908,1.56811,0.681534,-1.945028,0.172711,0.224137
1698344397460937,-9.101908,0.852811,0.546534,-1.899428,0.170711,0.228337
1698344397468750,-9.363908,0.663811,0.336534,-1.865328,0.211811,0.229837
1698344397476562,-9.695908,0.504811,0.86534,-1.817228,0.246811,0.229737
1698344397484375,-10.122908,0.389811,0.87534,-1.764328,0.286611,0.228037
1698344397492187,-10.522908,0.112811,0.143534,-1.695528,0.336611,0.200437
1698344397500000,-10.712908,0.117189,0.265534,-1.600628,0.384011,0.156137
1698344397507812,-10.781908,0.96811,0.101466,-1.519028,0.467611,0.131737
1698344397515625,-10.881908,0.430811,0.404466,-1.460928,0.498011,0.137437
1698344397523437,-11.20908,0.458811,0.584466,-1.386128,0.475111,0.166937
1698344397531250,-11.100908,0.71811,0.358466,-1.332828,0.403011,0.189937
1698344397539062,-11.128908,0.397189,0.108466,-1.317628,0.392311,0.194837
1698344397546875,-11.172908,0.626189,0.29466,-1.317128,0.428011,0.170837
1698344397554687,-11.89908,0.496189,0.153466,-1.330728,0.490411,0.129637
1698344397562500,-10.786908,0.272189,0.261466,-1.324228,0.526811,0.96137
1698344397570312,-10.388908,0.3811,0.342466,-1.298328,0.513611,0.68337
1698344397578125,-10.11908,0.339811,0.300466,-1.293528,0.493311,0.44237
1698344397585937,-9.637908,0.799811,0.338466,-1.311428,0.491111,0.18537
1698344397593750,-9.100908,1.552811,0.296466,-1.325128,0.457111,0.2363
1698344397601562,-8.619908,2.284811,0.222466,-1.367228,0.378411,0.10437
1698344397609375,-8.315908,2.707811,0.37466,-1.421528,0.297611,0.21537
1698344397617187,-8.156908,3.26811,0.11534,-1.491728,0.253211,0.18837
1698344397625000,-7.992908,3.26811,0.177466,-1.573328,0.213711,0.38737
1698344397632812,-7.831908,2.910811,0.405466,-1.672028,0.163711,0.66637
1698344397640625,-7.789908,2.774811,0.659466,-1.756728,0.101211,0.91237
1698344397648437,-7.843908,2.542811,0.627466,-1.857228,0.30711,0.119237
1698344397656250,-8.88908,1.978811,0.386466,-1.923628,0.32589,0.139037
1698344397664062,-8.490908,1.343811,0.253466,-1.965228,0.47689,0.121637
1698344397671875,-8.949908,0.757811,0.115466,-1.992928,0.20389,0.104237
1698344397679687,-9.442908,0.280811,0.134534,-1.950928,0.61289,0.61637
1698344397687500,-9.884908,0.89189,0.438534,-1.893628,0.117889,0.20537
1698344397695312,-10.131908,0.227189,0.731534,-1.856628,0.156489,0.23463
1698344397703125,-10.237908,0.30189,-1.51534,-1.821128,0.190989,0.54663
1698344397710937,-10.161908,0.260811,-1.77534,-1.793828,0.181389,0.77563
1698344397718750,-9.887908,0.585811,0.922534,-1.789428,0.177889,0.69463
1698344397726562,-9.624908,0.862811,0.798534,-1.787928,0.181489,0.58363
1698344397734375,-9.415908,0.882811,0.706534,-1.783628,0.205689,0.42363
1698344397742187,-9.267908,0.850811,0.638534,-1.788628,0.225889,0.12063
1698344397750000,-9.192908,0.656811,0.598534,-1.788428,0.237289,0.15363
1698344397757812,-9.165908,0.418811,0.632534,-1.790228,0.249989,0.15263
1698344397765625,-9.179908,0.239811,0.647534,-1.785328,0.255089,0.17063
1698344397773437,-9.262908,0.131811,0.713534,-1.775628,0.264889,0.28463
1698344397781250,-9.435908,0.91811,0.816534,-1.761028,0.276689,0.35263
1698344397789062,-9.567908,0.85811,0.922534,-1.743328,0.280189,0.53363
1698344397796875,-9.627908,0.64811,0.981534,-1.714128,0.299689,0.62863
1698344397804687,-9.665908,0.28811,0.976534,-1.693928,0.319289,0.76663
1698344397812500,-9.716908,0.36189,0.952534,-1.665828,0.331389,0.92863
1698344397820312,-9.737908,0.100189,0.972534,-1.636828,0.351389,0.111163
1698344397828125,-9.866908,0.83189,0.949534,-1.634928,0.336289,0.139963
1698344397835937,-10.4908,0.41189,0.823534,-1.648828,0.292189,0.155563
1698344397843750,-10.124908,0.96811,0.726534,-1.663228,0.275189,0.167963
1698344397851562,-10.209908,0.331811,0.724534,-1.680328,0.279889,0.177363
1698344397859375,-10.138908,0.522811,0.758534,-1.694128,0.306389,0.180663
1698344397867187,-10.82908,0.657811,0.755534,-1.709328,0.322889,0.188763
1698344397875000,-9.953908,0.759811,0.728534,-1.709028,0.326589,0.192163
1698344397882812,-9.817908,0.848811,0.535534,-1.722128,0.305889,0.204363
1698344397890625,-9.716908,0.873811,0.269534,-1.728328,0.293289,0.199563
1698344397898437,-9.715908,0.787811,0.240534,-1.717028,0.316389,0.198263
1698344397906250,-9.822908,0.622811,0.264534,-1.692228,0.312589,0.199963
1698344397914062,-10.34908,0.484811,0.265534,-1.675228,0.297689,0.196763
1698344397921875,-10.253908,0.249811,0.296534,-1.649728,0.280389,0.202063
1698344397929687,-10.407908,0.18811,0.314534,-1.602728,0.278889,0.194563
1698344397937500,-10.570908,0.4189,0.247534,-1.580028,0.255189,0.186363
1698344397945312,-10.515908,0.72189,0.125534,-1.541128,0.229089,0.175463
1698344397953125,-10.397908,0.161189,0.48534,-1.475328,0.234789,0.147563
1698344397960937,-10.216908,0.272189,0.73534,-1.446028,0.199989,0.142663
1698344397968750,-10.7908,0.390189,0.6534,-1.401928,0.172789,0.118463
1698344397976562,-9.832908,0.511189,0.29466,-1.365728,0.149189,0.99763
1698344397984375,-9.672908,0.527189,0.33534,-1.325228,0.162089,0.87363
1698344397992187,-9.692908,0.431189,0.168534,-1.308228,0.176889,0.71663
1698344398000000,-9.759908,0.330189,0.209534,-1.313128,0.141089,0.69763
1698344398007812,-9.787908,0.232189,0.168534,-1.313128,0.115089,0.71263
1698344398015625,-9.806908,0.145189,0.195534,-1.303928,0.119789,0.66463
1698344398023437,-9.796908,0.63189,0.186534,-1.285228,0.119289,0.74663
1698344398031250,-9.812908,0.33811,0.220534,-1.276728,0.124989,0.79863
1698344398039062,-9.805908,0.93811,0.294534,-1.247428,0.134189,0.71963
1698344398046875,-9.892908,0.170811,0.400534,-1.231728,0.119189,0.81663
1698344398054687,-9.750908,0.150811,0.321534,-1.191928,0.139389,0.87263
1698344398062500,-10.43908,0.338811,0.521534,-1.158328,0.216289,0.94663
1698344398070312,-10.22908,0.304811,0.515534,-1.180028,0.139989,0.87063
1698344398078125,-9.989908,0.354811,0.467534,-1.179828,0.132189,0.87163
1698344398085937,-9.912908,0.435811,0.424534,-1.176328,0.151989,0.88963
1698344398093750,-10.121908,0.539811,0.487534,-1.183628,0.175689,0.89363
1698344398101562,-9.916908,0.397811,0.305534,-1.227128,0.112589,0.81663
1698344398109375,-9.829908,0.330811,0.188534,-1.231928,0.138189,0.86363
1698344398117187,-9.748908,0.331811,0.161534,-1.214828,0.165689,0.81863
1698344398125000,-9.673908,0.506811,0.215534,-1.201228,0.203089,0.76263
1698344398132812,-9.711908,0.693811,0.442534,-1.173328,0.205889,0.74863
1698344398140625,-9.871908,0.714811,0.580534,-1.120528,0.200389,0.67263
1698344398148437,-9.951908,0.761811,0.377534,-1.91828,0.177889,0.43963
1698344398156250,-9.948908,0.737811,0.285534,-1.91528,0.192889,0.16263
1698344398164062,-9.914908,0.723811,0.496534,-1.69128,0.244689,0.5337
1698344398171875,-9.874908,0.762811,0.591534,-1.38028,0.249189,0.13137
1698344398179687,-9.883908,0.779811,0.523534,-1.42128,0.200489,0.7437
1698344398187500,-9.809908,0.710811,0.359534,-1.16128,0.206889,0.6637
1698344398195312,-9.910908,0.577811,0.321534,-1.11728,0.215989,0.5137
1698344398203125,-9.669908,0.264811,0.78534,-1.42928,0.162889,0.3937
1698344398210937,-9.524908,0.176811,0.230466,-1.35228,0.176889,0.2437
1698344398218750,-9.504908,0.169811,0.376466,-1.56828,0.195489,0.737
1698344398226562,-9.555908,0.323811,0.336466,-1.64828,0.221189,0.5637
1698344398234375,-9.728908,0.603811,0.235466,-1.63728,0.226189,0.29737
1698344398242187,-9.830908,0.923811,0.194466,-1.32528,0.227489,0.64237
1698344398250000,-9.884908,1.244811,0.176466,-1.38728,0.231389,0.114537
1698344398257812,-9.715908,1.479811,0.75466,-1.30228,0.224989,0.156337
1698344398265625,-9.520908,1.551811,0.5534,-1.36928,0.197389,0.175837
1698344398273437,-9.341908,1.444811,0.64534,-1.24928,0.170789,0.177637
1698344398281250,-9.242908,1.281811,0.62534,-1.34628,0.167089,0.179537
1698344398289062,-9.229908,1.174811,0.32534,-1.40828,0.173889,0.185937
1698344398296875,-9.358908,1.101811,0.28534,-1.52028,0.222989,0.206637
1698344398304687,-9.560908,0.890811,0.55466,-1.62228,0.302789,0.226737
1698344398312500,-9.802908,0.859811,0.122466,-1.60528,0.367989,0.235937
1698344398320312,-10.173908,0.869811,0.86466,-1.85428,0.410189,0.224837
1698344398328125,-10.613908,0.833811,0.55534,-1.83928,0.435389,0.179337
1698344398335937,-10.876908,0.734811,0.282534,-1.86528,0.421089,0.121937
1698344398343750,-10.964908,0.735811,0.276534,-1.65228,0.353689,0.54637
1698344398351562,-10.888908,0.778811,0.246534,-1.61428,0.294289,0.1163
1698344398359375,-10.610908,0.966811,0.320534,-1.45928,0.234689,0.57663
1698344398367187,-10.249908,1.150811,0.203534,-1.13128,0.142089,0.94063
1698344398375000,-9.904908,1.342811,0.107466,0.975328,0.91489,0.113563
1698344398382812,-9.634908,1.545811,0.77466,0.944528,0.70889,0.118263
1698344398390625,-9.384908,1.640811,0.39534,0.896028,0.64389,0.112363
1698344398398437,-9.222908,1.697811,0.21534,0.881828,0.40789,0.96563
1698344398406250,-9.164908,1.734811,0.27534,0.855628,0.59089,0.66563
1698344398414062,-9.99908,1.795811,0.41534,0.848328,0.88189,0.39363
1698344398421875,-9.102908,1.822811,0.153534,0.865928,0.118089,0.7363
1698344398429687,-9.20908,1.776811,0.149534,0.855828,0.106389,0.28137
1698344398437500,-8.983908,1.727811,0.133534,0.855228,0.114389,0.63637
1698344398445312,-8.981908,1.732811,0.228534,0.867528,0.112089,0.102637
1698344398453125,-9.35908,1.834811,0.295534,0.861128,0.108089,0.123237
1698344398460937,-8.973908,1.915811,0.234534,0.879028,0.61289,0.154137
1698344398468750,-9.57908,1.955811,0.176534,0.894228,0.39289,0.180437
1698344398476562,-9.487908,1.996811,0.210534,0.890328,0.70989,0.171937
1698344398484375,-9.912908,1.893811,0.268534,0.891928,0.124189,0.162137
1698344398492187,-10.80908,1.682811,0.302534,0.891028,0.171089,0.164737
1698344398500000,-10.300908,1.451811,0.370534,0.894028,0.209089,0.135837
1698344398507812,-10.414908,1.246811,0.453534,0.877528,0.253389,0.114437
1698344398515625,-10.314908,1.128811,0.296534,0.843328,0.257689,0.86237
1698344398523437,-10.204908,1.153811,0.194534,0.836628,0.278489,0.65237
1698344398531250,-10.197908,1.253811,0.273534,0.815928,0.291589,0.52037
1698344398539062,-10.151908,1.361811,0.284534,0.811128,0.274689,0.31337
1698344398546875,-10.120908,1.419811,0.406534,0.812528,0.271389,0.21737
1698344398554687,-10.103908,1.418811,0.552534,0.779028,0.240489,0.2663
1698344398562500,-10.108908,1.480811,0.554534,0.733428,0.212289,0.25363
1698344398570312,-10.94908,1.580811,0.377534,0.703628,0.180889,0.43063
1698344398578125,-10.30908,1.666811,0.343534,0.670728,0.190389,0.46663
1698344398585937,-9.896908,1.723811,0.302534,0.634128,0.217189,0.45863
1698344398593750,-9.763908,1.690811,0.345534,0.623128,0.244589,0.49263
1698344398601562,-9.593908,1.623811,0.444534,0.609228,0.226589,0.44463
1698344398609375,-9.426908,1.608811,0.316534,0.611728,0.186189,0.45463
1698344398617187,-9.273908,1.523811,0.201534,0.609428,0.174489,0.42663
1698344398625000,-9.152908,1.432811,0.241534,0.608128,0.192389,0.29863
1698344398632812,-9.238908,1.347811,0.397534,0.608128,0.233389,0.12463
1698344398640625,-9.255908,1.281811,0.329534,0.591528,0.226289,0.4363
1698344398648437,-9.228908,1.236811,0.170534,0.593428,0.203789,0.18137
1698344398656250,-9.211908,1.185811,0.158534,0.576628,0.223089,0.34037
1698344398664062,-9.172908,1.145811,0.136534,0.562928,0.234389,0.53137
1698344398671875,-9.111908,1.94811,0.165534,0.562628,0.240789,0.78437
1698344398679687,-9.72908,1.169811,0.345534,0.574328,0.230489,0.98137
1698344398687500,-9.103908,1.427811,0.431534,0.560528,0.188089,0.103037
1698344398695312,-9.155908,1.752811,0.232534,0.549928,0.136189,0.115937
1698344398703125,-9.157908,2.11811,0.204466,0.539928,0.91889,0.143537
1698344398710937,-9.215908,2.305811,0.551466,0.527928,0.116189,0.170737
1698344398718750,-9.518908,2.124811,0.391466,0.491028,0.172789,0.200637
1698344398726562,-9.786908,1.597811,0.88534,0.478128,0.193289,0.214637
1698344398734375,-10.84908,1.85811,0.447534,0.472928,0.133589,0.223237
1698344398742187,-10.362908,0.790811,0.478534,0.471628,0.66589,0.223637
1698344398750000,-10.586908,0.612811,0.400534,0.458828,0.68189,0.209037
1698344398757812,-10.807908,0.461811,0.492534,0.431028,0.106089,0.177837
1698344398765625,-10.866908,0.365811,0.476534,0.398628,0.102889,0.137137
1698344398773437,-10.744908,0.327811,0.366534,0.365328,0.76189,0.98437
1698344398781250,-10.575908,0.416811,0.269534,0.326928,0.84189,0.61037
1698344398789062,-10.473908,0.501811,0.357534,0.309128,0.100689,0.47737
1698344398796875,-10.350908,0.592811,0.573534,0.287128,0.100589,0.45937
1698344398804687,-10.236908,0.732811,0.670534,0.281028,0.65989,0.36537
1698344398812500,-10.128908,0.907811,0.708534,0.286528,0.27289,0.29137
1698344398820312,-9.984908,1.170811,0.577534,0.284928,0.19611,0.30837
1698344398828125,-9.846908,1.394811,0.419534,0.284828,0.31111,0.22937
1698344398835937,-9.708908,1.477811,0.332534,0.274028,0.39511,0.24537
1698344398843750,-9.575908,1.515811,0.323534,0.264628,0.26711,0.22837
1698344398851562,-9.427908,1.456811,0.237534,0.257628,0.38811,0.14437
1698344398859375,-9.328908,1.311811,0.145534,0.257828,0.29411,0.11337
1698344398867187,-9.220908,1.196811,0.181534,0.267328,0.16411,0.16237
1698344398875000,-9.149908,1.77811,0.154534,0.276628,0.3111,0.19337
1698344398882812,-9.59908,0.958811,0.208534,0.278028,0.21489,0.20837
1698344398890625,-9.19908,0.933811,0.163534,0.265328,0.21589,0.18937
1698344398898437,-9.38908,0.885811,0.64534,0.254728,0.16089,0.15837
1698344398906250,-9.172908,0.800811,0.91534,0.235428,0.19889,0.15437
1698344398914062,-9.327908,0.714811,0.44534,0.232128,0.29689,0.8937
1698344398921875,-9.579908,0.673811,0.197534,0.253428,0.60989,0.5663
1698344398929687,-9.747908,0.678811,0.384534,0.236428,0.70689,0.3837
1698344398937500,-9.895908,0.685811,0.368534,0.237128,0.79989,0.18437
1698344398945312,-10.71908,0.679811,0.476534,0.228728,0.101789,0.19537
1698344398953125,-10.164908,0.585811,0.546534,0.210228,0.107989,0.22637
1698344398960937,-10.178908,0.496811,0.559534,0.181128,0.103889,0.5937
1698344398968750,-10.116908,0.405811,0.530534,0.153828,0.76489,0.7837
1698344398976562,-10.5908,0.387811,0.485534,0.133128,0.68589,0.1137
1698344398984375,-9.879908,0.445811,0.476534,0.120528,0.44489,0.4237
1698344398992187,-9.752908,0.523811,0.490534,0.106428,0.34989,0.10437
1698344399000000,-9.679908,0.608811,0.508534,0.97628,0.21089,0.13937
1698344399007812,-9.628908,0.674811,0.481534,0.88228,0.14589,0.15537
1698344399015625,-9.639908,0.679811,0.490534,0.88228,0.16389,0.20237
1698344399023437,-9.652908,0.663811,0.508534,0.79128,0.11289,0.26637
1698344399031250,-9.650908,0.625811,0.467534,0.64928,0.10089,0.37637
1698344399039062,-9.658908,0.557811,0.469534,0.60028,0.16989,0.32537
1698344399046875,-9.675908,0.502811,0.472534,0.47728,0.19689,0.32637
1698344399054687,-9.685908,0.444811,0.483534,0.45728,0.12189,0.27537
1698344399062500,-9.652908,0.389811,0.512534,0.34028,0.13889,0.26337
1698344399070312,-9.617908,0.378811,0.546534,0.16128,0.13189,0.27437
1698344399078125,-9.614908,0.350811,0.546534,0.5328,0.6489,0.25837
1698344399085937,-9.619908,0.363811,0.539534,0.10772,0.13289,0.15837
1698344399093750,-9.649908,0.401811,0.548534,0.21672,0.11489,0.17337
1698344399101562,-9.687908,0.435811,0.584534,0.41872,0.15989,0.15637
1698344399109375,-9.743908,0.522811,0.589534,0.62672,0.26089,0.8737
1698344399117187,-9.800908,0.635811,0.616534,0.70272,0.36989,0.8737
1698344399125000,-9.844908,0.715811,0.618534,0.78172,0.42089,0.13437
1698344399132812,-9.849908,0.758811,0.625534,0.88872,0.61389,0.19737
1698344399140625,-9.803908,0.790811,0.616534,0.89372,0.65489,0.22637
1698344399148437,-9.770908,0.829811,0.566534,0.97072,0.65489,0.25737
1698344399156250,-9.771908,0.747811,0.501534,0.114172,0.63589,0.25637
1698344399164062,-9.802908,0.610811,0.411534,0.136172,0.58589,0.23837
1698344399171875,-9.797908,0.517811,0.406534,0.162872,0.52389,0.26637
1698344399179687,-9.833908,0.421811,0.427534,0.193572,0.49489,0.25137
1698344399187500,-9.855908,0.279811,0.416534,0.240572,0.33089,0.21437
1698344399195312,-9.805908,0.91811,0.566534,0.282172,0.35389,0.4637
1698344399203125,-9.754908,0.11189,0.684534,0.318172,0.18889,0.2737
1698344399210937,-9.781908,0.48189,0.553534,0.349872,0.16911,0.15163
1698344399218750,-9.840908,0.23189,0.596534,0.379572,0.33711,0.26463
1698344399226562,-9.866908,0.72811,0.686534,0.399772,0.55311,0.32863
1698344399234375,-9.834908,0.225811,0.710534,0.431172,0.65211,0.36363
1698344399242187,-9.798908,0.359811,0.724534,0.449872,0.65211,0.31763
1698344399250000,-9.809908,0.461811,0.706534,0.467472,0.63411,0.40063
1698344399257812,-9.834908,0.499811,0.706534,0.481672,0.56711,0.38763
1698344399265625,-9.829908,0.505811,0.638534,0.494972,0.62811,0.36863
1698344399273437,-9.807908,0.495811,0.537534,0.512372,0.70611,0.33963
1698344399281250,-9.829908,0.462811,0.458534,0.525172,0.67211,0.40563
1698344399289062,-9.855908,0.394811,0.406534,0.552072,0.88611,0.60063
1698344399296875,-9.892908,0.326811,0.413534,0.584972,0.93811,0.66763
1698344399304687,-9.941908,0.250811,0.364534,0.618872,0.108811,0.80363
1698344399312500,-9.993908,0.165811,0.348534,0.644772,0.131411,0.83263
1698344399320312,-9.989908,0.97811,0.416534,0.682272,0.140111,0.91563
1698344399328125,-10.9908,0.64811,0.467534,0.727872,0.146611,0.93663
1698344399335937,-9.964908,0.55811,0.443534,0.772872,0.153811,0.90763
1698344399343750,-9.924908,0.49811,0.506534,0.812672,0.147911,0.89963
1698344399351562,-9.892908,0.34811,0.571534,0.847272,0.147611,0.80863
1698344399359375,-9.890908,0.41811,0.630534,0.870372,0.146311,0.72963
1698344399367187,-9.988908,0.93811,0.652534,0.893872,0.165611,0.66763
1698344399375000,-10.27908,0.172811,0.632534,0.916472,0.186111,0.55363
1698344399382812,-9.986908,0.269811,0.571534,0.956072,0.183711,0.48063
1698344399390625,-9.946908,0.324811,0.530534,0.982372,0.184311,0.48063
1698344399398437,-9.947908,0.404811,0.526534,0.995372,0.175811,0.56463
1698344399406250,-9.937908,0.466811,0.496534,1.21572,0.192611,0.54963
1698344399414062,-9.922908,0.483811,0.429534,1.31272,0.202111,0.59963
1698344399421875,-9.934908,0.433811,0.427534,1.43672,0.209111,0.67963
1698344399429687,-9.933908,0.371811,0.334534,1.76672,0.215511,0.66663
1698344399437500,-10.33908,0.250811,0.310534,1.102172,0.220111,0.75163
1698344399445312,-10.54908,0.191811,0.377534,1.142472,0.232411,0.81663
1698344399453125,-10.78908,0.155811,0.373534,1.177172,0.245211,0.85263
1698344399460937,-10.52908,0.150811,0.418534,1.216872,0.269111,0.97063
1698344399468750,-9.979908,0.109811,0.427534,1.259272,0.294011,0.110163
1698344399476562,-9.898908,0.155811,0.380534,1.294772,0.321111,0.113363
1698344399484375,-9.882908,0.243811,0.328534,1.335872,0.325411,0.113963
1698344399492187,-9.847908,0.210811,0.310534,1.379172,0.332911,0.114163
1698344399500000,-9.847908,0.199811,0.353534,1.430672,0.331311,0.101863
1698344399507812,-9.941908,0.282811,0.413534,1.479972,0.340411,0.113863
1698344399515625,-10.4908,0.420811,0.400534,1.525172,0.355011,0.99863
1698344399523437,-10.114908,0.404811,0.406534,1.543772,0.381111,0.96763
1698344399531250,-10.151908,0.193811,0.519534,1.600272,0.393611,0.92763
1698344399539062,-10.224908,0.261811,0.627534,1.647372,0.433611,0.116863
1698344399546875,-10.174908,0.50811,0.737534,1.689572,0.492711,0.128163
1698344399554687,-10.124908,0.224811,0.654534,1.725172,0.567211,0.145463
1698344399562500,-10.87908,0.270811,0.674534,1.750372,0.624111,0.159963
1698344399570312,-9.971908,0.448811,0.751534,1.773672,0.676611,0.164663
1698344399578125,-9.821908,0.492811,0.744534,1.803172,0.724511,0.174163
1698344399585937,-9.732908,0.840811,0.710534,1.835472,0.739711,0.163063
1698344399593750,-9.652908,0.763811,0.771534,1.823272,0.746911,0.159963
1698344399601562,-9.582908,0.791811,0.719534,1.919372,0.707111,0.119163
1698344399609375,-9.598908,0.917811,0.825534,1.955672,0.668711,0.99163
1698344399617187,-9.566908,1.43811,0.856534,1.953972,0.665511,0.94363
1698344399625000,-9.511908,1.136811,0.872534,1.939172,0.659511,0.74663
1698344399632812,-9.301908,1.168811,0.958534,1.923472,0.643811,0.45963
1698344399640625,-9.17908,1.243811,0.969534,1.918772,0.618111,0.19163
1698344399648437,-8.648908,1.211811,-1.84534,1.911672,0.589211,0.16337
1698344399656250,-8.293908,1.227811,-1.210534,1.917072,0.566611,0.56537
1698344399664062,-8.145908,1.136811,-1.332534,1.858772,0.558211,0.76437
1698344399671875,-8.278908,0.992811,-1.334534,1.825672,0.588411,0.89537
1698344399679687,-8.861908,1.199811,-1.188534,1.829772,0.579811,0.93137
1698344399687500,-9.461908,1.350811,-1.230534,1.815472,0.512411,0.63637
1698344399695312,-9.754908,1.430811,-1.352534,1.800672,0.415611,0.53437
1698344399703125,-9.909908,1.418811,-1.422534,1.786372,0.346511,0.43837
1698344399710937,-9.999908,1.310811,-1.476534,1.776172,0.301711,0.38637
1698344399718750,-9.962908,1.193811,-1.496534,1.757872,0.281611,0.33737
1698344399726562,-9.809908,1.185811,-1.370534,1.742072,0.311311,0.24537
1698344399734375,-9.753908,1.217811,-1.298534,1.743972,0.319311,0.13337
1698344399742187,-9.588908,1.265811,-1.61534,1.732772,0.379611,0.10537
1698344399750000,-9.414908,1.366811,0.901534,1.730272,0.434611,0.11237
1698344399757812,-9.305908,1.486811,0.931534,1.727072,0.444411,0.9737
1698344399765625,-9.196908,1.657811,0.969534,1.697172,0.463811,0.18237
1698344399773437,-9.157908,1.889811,0.939534,1.674672,0.461811,0.48937
1698344399781250,-9.284908,2.120811,0.919534,1.649572,0.422411,0.65037
1698344399789062,-9.577908,2.319811,0.998534,1.621572,0.350011,0.82437
1698344399796875,-9.818908,2.539811,-1.49534,1.594972,0.294611,0.85637
1698344399804687,-9.881908,2.664811,-1.34534,1.565972,0.240411,0.74237
1698344399812500,-9.815908,2.744811,0.941534,1.532272,0.192511,0.59737
1698344399820312,-9.745908,2.744811,0.768534,1.501072,0.183011,0.47237
1698344399828125,-9.756908,2.695811,0.707534,1.474072,0.193011,0.54137
1698344399835937,-9.685908,2.664811,0.622534,1.438072,0.194811,0.41737
1698344399843750,-9.686908,2.689811,0.491534,1.421472,0.176011,0.39937
1698344399851562,-9.766908,2.764811,0.419534,1.406172,0.144511,0.41337
1698344399859375,-9.741908,2.780811,0.367534,1.382072,0.125411,0.56237
1698344399867187,-9.694908,2.766811,0.518534,1.345872,0.81511,0.67637
1698344399875000,-9.536908,2.851811,0.655534,1.295972,0.67711,0.75937
1698344399882812,-9.361908,2.886811,0.583534,1.248872,0.68811,0.87637
1698344399890625,-9.416908,2.853811,0.232534,1.186772,0.68011,0.106337
1698344399898437,-9.643908,2.654811,0.7534,1.124672,0.26111,0.117737
1698344399906250,-9.857908,2.411811,0.304534,1.46172,0.15789,0.110537
1698344399914062,-9.826908,2.333811,0.610534,0.983872,0.5211,0.90437
1698344399921875,-9.607908,2.351811,0.480534,0.965872,0.66811,0.50637
1698344399929687,-9.513908,2.374811,0.97534,0.948672,0.115011,0.19237
1698344399937500,-9.513908,2.282811,0.11534,0.917872,0.85811,0.4663
1698344399945312,-9.587908,2.154811,0.239534,0.886872,0.25811,0.22263
1698344399953125,-9.593908,2.93811,0.408534,0.852772,0.6789,0.36563
1698344399960937,-9.587908,2.17811,0.192534,0.812372,0.5189,0.55363
1698344399968750,-9.678908,2.25811,0.115534,0.744172,0.38589,0.63063
1698344399976562,-9.762908,2.187811,0.345534,0.684172,0.73789,0.85463
1698344399984375,-9.779908,2.334811,0.169534,0.667172,0.58589,0.112363
1698344399992187,-9.568908,2.365811,0.307466,0.670372,0.17189,0.142463
1698344400000000,-9.199908,2.331811,0.352466,0.675072,0.41289,0.148963
1698344400007812,-8.925908,2.279811,0.386466,0.703772,0.40589,0.141663
1698344400015625,-8.785908,2.295811,0.765466,0.720472,0.18889,0.135063
1698344400023437,-8.934908,2.205811,1.46466,0.736072,0.65789,0.130563
1698344400031250,-9.203908,1.949811,0.911466,0.760772,0.148489,0.139763
1698344400039062,-9.488908,1.600811,0.692466,0.784172,0.175389,0.177563
1698344400046875,-9.682908,1.266811,0.683466,0.848972,0.147889,0.233963
1698344400054687,-9.750908,0.840811,0.768466,0.936572,0.108789,0.299263
1698344400062500,-9.829908,0.460811,0.780466,1.21372,0.55689,0.333463
1698344400070312,-9.887908,0.241811,0.640466,1.110772,0.42689,0.334363
1698344400078125,-10.18908,0.143811,0.410466,1.188472,0.32789,0.303063
1698344400085937,-10.262908,0.122811,0.135466,1.213972,0.32411,0.267563
1698344400093750,-10.448908,0.70811,0.107534,1.248072,0.98311,0.204563
1698344400101562,-10.487908,0.4189,0.199534,1.303372,0.139511,0.171063
1698344400109375,-10.327908,0.125189,0.159534,1.353872,0.151911,0.142263
1698344400117187,-10.105908,0.262189,0.130534,1.385472,0.160711,0.128363
1698344400125000,-9.804908,0.413189,0.96534,1.419972,0.162511,0.131963
1698344400132812,-9.565908,0.594189,0.135534,1.470072,0.161611,0.145263
1698344400140625,-9.465908,0.725189,0.227534,1.524772,0.164311,0.191063
1698344400148437,-9.573908,0.816189,0.319534,1.608672,0.135511,0.232363
1698344400156250,-9.716908,0.881189,0.481534,1.670972,0.123911,0.275063
1698344400164062,-9.923908,0.754189,0.589534,1.743672,0.101011,0.285763
1698344400171875,-10.236908,0.578189,0.722534,1.803272,0.73211,0.281763
1698344400179687,-10.629908,0.252189,0.929534,1.867972,0.69511,0.258063
1698344400187500,-10.932908,0.11811,-1.80534,1.934672,0.100211,0.220063
1698344400195312,-11.185908,0.228811,-1.152534,1.994572,0.147411,0.170663
1698344400203125,-11.227908,0.346811,-1.62534,2.38772,0.199311,0.111463
1698344400210937,-10.967908,0.389811,0.954534,2.80872,0.265111,0.56663
1698344400218750,-10.727908,0.423811,0.893534,2.121572,0.334011,0.5063
1698344400226562,-10.688908,0.322811,0.918534,2.177772,0.346311,0.23037
1698344400234375,-10.502908,0.244811,0.949534,2.209872,0.351511,0.53437
1698344400242187,-10.303908,0.185811,0.859534,2.242372,0.335111,0.78637
1698344400250000,-10.156908,0.232811,0.760534,2.283072,0.326511,0.94137
1698344400257812,-9.999908,0.276811,0.742534,2.298472,0.323711,0.98837
1698344400265625,-9.875908,0.382811,0.789534,2.319472,0.303511,0.93437
1698344400273437,-9.755908,0.461811,0.728534,2.342372,0.309011,0.101437
1698344400281250,-9.714908,0.474811,0.544534,2.365772,0.325611,0.96537
1698344400289062,-9.745908,0.392811,0.512534,2.378472,0.330411,0.94737
1698344400296875,-9.753908,0.503811,0.557534,2.386372,0.328511,0.96237
1698344400304687,-9.679908,0.502811,0.591534,2.391072,0.344911,0.93037
1698344400312500,-9.542908,0.344811,0.580534,2.395972,0.345011,0.83337
1698344400320312,-9.524908,0.317811,0.609534,2.416872,0.331811,0.68537
1698344400328125,-9.536908,0.395811,0.537534,2.420272,0.340011,0.50837
1698344400335937,-9.558908,0.551811,0.521534,2.418872,0.332511,0.30137
1698344400343750,-9.630908,0.686811,0.551534,2.423772,0.309811,0.17037
1698344400351562,-9.741908,0.754811,0.575534,2.446272,0.306311,0.3837
1698344400359375,-9.810908,0.812811,0.537534,2.464272,0.306011,0.19063
1698344400367187,-9.840908,0.870811,0.503534,2.486372,0.281711,0.24263
1698344400375000,-9.925908,0.843811,0.447534,2.521372,0.273011,0.29663
1698344400382812,-9.976908,0.824811,0.370534,2.514472,0.298311,0.32363
1698344400390625,-10.63908,0.763811,0.316534,2.523872,0.303211,0.30863
1698344400398437,-10.102908,0.502811,0.305534,2.550772,0.301511,0.37663
1698344400406250,-10.195908,0.261811,0.377534,2.585772,0.279911,0.41563
1698344400414062,-10.51908,0.14811,0.490534,2.612972,0.282911,0.36563
1698344400421875,-9.879908,0.102189,0.569534,2.693772,0.228211,0.36563
1698344400429687,-9.810908,0.48189,0.927534,2.756872,0.216911,0.50163
1698344400437500,-9.750908,0.44811,-1.154534,2.825572,0.234111,0.61863
1698344400445312,-9.865908,0.10811,-1.512534,2.896672,0.245311,0.80463
1698344400453125,-9.836908,0.70189,-1.589534,2.959172,0.289711,0.85663
1698344400460937,-9.831908,0.43811,-1.609534,3.272,0.325911,0.111563
1698344400468750,-10.908,0.187811,-1.767534,3.23572,0.341111,0.117963
1698344400476562,-10.172908,0.267811,-1.769534,3.18872,0.399711,0.125663
1698344400484375,-10.128908,0.518811,-1.659534,2.994672,0.436011,0.116963
1698344400492187,-9.982908,0.931811,-1.508534,2.952272,0.444411,0.121163
1698344400500000,-9.853908,1.181811,-1.514534,2.907372,0.447011,0.130563
1698344400507812,-9.681908,1.372811,-1.390534,2.877372,0.455611,0.139663
1698344400515625,-9.446908,1.556811,-1.135534,2.831172,0.469511,0.160163
1698344400523437,-9.188908,1.753811,0.861534,2.802972,0.457211,0.182163
1698344400531250,-8.976908,1.881811,0.660534,2.755972,0.460411,0.183263
1698344400539062,-8.704908,1.972811,0.494534,2.714872,0.475111,0.173063
1698344400546875,-8.707908,2.25811,0.462534,2.663472,0.471711,0.183763
1698344400554687,-8.917908,2.104811,0.347534,2.631772,0.493411,0.189463
1698344400562500,-9.159908,2.61811,0.268534,2.600772,0.497711,0.190963
1698344400570312,-9.479908,2.81811,0.419534,2.556072,0.465911,0.195663
1698344400578125,-9.779908,2.202811,0.638534,2.539272,0.479911,0.177363
1698344400585937,-10.15908,2.464811,0.383534,2.490372,0.521011,0.138363
1698344400593750,-10.292908,2.746811,0.184534,2.421972,0.532211,0.94063
1698344400601562,-10.363908,2.901811,0.121534,2.349872,0.536011,0.43163
1698344400609375,-10.281908,2.842811,0.185534,2.261072,0.560511,0.6563
1698344400617187,-10.212908,2.870811,0.265466,2.191172,0.649911,0.17337
1698344400625000,-10.264908,3.130811,0.909466,2.102472,0.708211,0.58837
1698344400632812,-10.418908,3.229811,0.929466,2.40172,0.726811,0.82437
1698344400640625,-10.451908,3.195811,0.923466,2.38672,0.760611,0.87337
1698344400648437,-10.418908,3.253811,1.53466,2.52772,0.739511,0.87037
1698344400656250,-10.176908,2.976811,0.664466,2.60472,0.695211,0.107537
1698344400664062,-9.789908,2.956811,0.233466,1.970772,0.706511,0.121537
1698344400671875,-9.454908,2.673811,0.209466,1.886972,0.741611,0.162737
1698344400679687,-9.158908,2.250811,0.413466,1.897272,0.702611,0.196237
1698344400687500,-9.65908,2.50811,0.114466,1.885672,0.629911,0.194037
1698344400695312,-8.973908,1.582811,0.23534,1.870072,0.629711,0.195737
1698344400703125,-8.748908,1.360811,0.262466,1.885272,0.650711,0.175137
1698344400710937,-8.766908,1.210811,0.63466,1.918672,0.596911,0.164837
1698344400718750,-8.688908,1.74811,0.433534,1.947072,0.525611,0.131537
1698344400726562,-8.550908,0.899811,0.789534,1.947772,0.483111,0.110237
1698344400734375,-8.383908,0.930811,0.728534,1.946872,0.464811,0.92337
1698344400742187,-8.262908,0.866811,0.679534,1.906472,0.437111,0.84637
1698344400750000,-8.134908,0.713811,0.537534,1.878372,0.425411,0.84737
1698344400757812,-8.371908,0.515811,0.510534,1.906372,0.365411,0.98637
1698344400765625,-8.695908,0.487811,0.618534,1.994472,0.291811,0.110037
1698344400773437,-8.814908,0.473811,0.636534,2.69972,0.242311,0.124737
1698344400781250,-8.988908,0.418811,0.692534,2.140272,0.222911,0.136737
1698344400789062,-9.250908,0.517811,0.821534,2.204872,0.203211,0.132637
1698344400796875,-9.487908,0.585811,-1.21534,2.274172,0.203011,0.122037
1698344400804687,-9.577908,0.715811,-1.206534,2.332272,0.207011,0.105537
1698344400812500,-9.643908,0.905811,-1.345534,2.381072,0.205911,0.84137
1698344400820312,-9.660908,1.136811,-1.458534,2.408072,0.212111,0.75737
1698344400828125,-9.695908,1.367811,-1.527534,2.432272,0.197311,0.52837
1698344400835937,-9.742908,1.638811,-1.469534,2.445272,0.179811,0.23737
1698344400843750,-9.712908,1.895811,-1.412534,2.420872,0.174611,0.4537
1698344400851562,-9.663908,2.59811,-1.496534,2.422872,0.169911,0.19563
1698344400859375,-9.611908,2.173811,-1.556534,2.402872,0.160111,0.35463
1698344400867187,-9.533908,2.275811,-1.532534,2.398172,0.146311,0.57763
1698344400875000,-9.488908,2.376811,-1.459534,2.383472,0.127711,0.77263
1698344400882812,-9.500908,2.433811,-1.360534,2.366572,0.125611,0.82063
1698344400890625,-9.499908,2.363811,-1.252534,2.353372,0.123111,0.76863
1698344400898437,-9.465908,2.320811,-1.149534,2.347372,0.142211,0.75163
1698344400906250,-9.524908,2.263811,-1.77534,2.348472,0.163911,0.73363
1698344400914062,-9.608908,2.162811,-1.7534,2.364072,0.171611,0.59063
1698344400921875,-9.633908,2.6811,-1.32534,2.391272,0.191811,0.34963
1698344400929687,-9.600908,2.29811,0.973534,2.401272,0.210711,0.43263
1698344400937500,-9.780908,2.209811,0.980534,2.413572,0.225711,0.43163
1698344400945312,-9.817908,2.323811,0.820534,2.421972,0.283211,0.17063
1698344400953125,-9.759908,2.314811,0.732534,2.419872,0.293311,0.7163
1698344400960937,-9.640908,2.320811,0.752534,2.421872,0.281311,0.5863
1698344400968750,-9.571908,2.344811,0.811534,2.405572,0.295911,0.16937
1698344400976562,-9.542908,2.387811,0.844534,2.373672,0.308311,0.54137
1698344400984375,-9.464908,2.253811,0.847534,2.347772,0.285511,0.96237
1698344400992187,-9.512908,2.178811,0.881534,2.336372,0.269011,0.120337
1698344401000000,-9.503908,2.199811,0.716534,2.316572,0.308311,0.151437
1698344401007812,-9.655908,2.110811,0.613534,2.317672,0.321411,0.167637
1698344401015625,-9.619908,2.33811,0.476534,2.321272,0.343911,0.177737
1698344401023437,-9.716908,1.894811,0.446534,2.364072,0.230211,0.142437
1698344401031250,-10.83908,1.926811,0.768534,2.365672,0.221811,0.150337
1698344401039062,-9.706908,1.947811,0.624534,2.314172,0.315411,0.171037
1698344401046875,-9.638908,2.25811,0.802534,2.319872,0.231511,0.163737
1698344401054687,-9.705908,2.56811,0.809534,2.328172,0.266211,0.191437
1698344401062500,-9.640908,1.906811,0.534534,2.313572,0.336211,0.208037
1698344401070312,-9.776908,1.846811,0.503534,2.352472,0.339511,0.217237
1698344401078125,-9.555908,1.756811,0.381534,2.393772,0.329611,0.203837
1698344401085937,-9.754908,1.823811,0.629534,2.476272,0.213511,0.190737
1698344401093750,-9.878908,1.836811,0.633534,2.467472,0.329511,0.207737
1698344401101562,-9.867908,1.769811,0.676534,2.462472,0.370711,0.203337
1698344401109375,-9.822908,1.699811,0.888534,2.457872,0.376611,0.209637
1698344401117187,-9.813908,1.744811,-1.158534,2.502572,0.246211,0.200337
1698344401125000,-10.118908,1.845811,-1.221534,2.457472,0.294411,0.219137
1698344401132812,-10.88908,1.824811,-1.120534,2.348772,0.372211,0.235237
1698344401140625,-10.60908,1.861811,-1.171534,2.328972,0.327711,0.227037
1698344401148437,-10.270908,2.79811,-1.135534,2.334772,0.267011,0.202337
1698344401156250,-10.332908,2.187811,-1.41534,2.246472,0.342911,0.181537
1698344401164062,-10.38908,2.210811,-1.189534,2.187272,0.323611,0.158137
1698344401171875,-9.993908,2.452811,-1.374534,2.158972,0.290211,0.119337
1698344401179687,-9.893908,2.575811,-1.329534,2.79272,0.313711,0.80437
1698344401187500,-9.751908,2.677811,-1.263534,2.26872,0.269311,0.58137
1698344401195312,-9.731908,2.710811,-1.202534,1.944972,0.232611,0.29637
1698344401203125,-9.633908,2.615811,-1.369534,1.848472,0.176811,0.12637
1698344401210937,-9.541908,2.578811,-1.639534,1.797472,0.107611,0.7737
1698344401218750,-9.543908,2.686811,-1.669534,1.738072,0.107211,0.3437
1698344401226562,-9.464908,2.830811,-1.434534,1.668972,0.124411,0.16263
1698344401234375,-9.435908,2.996811,-1.63534,1.614172,0.111411,0.22063
1698344401242187,-9.449908,2.939811,0.759534,1.555272,0.87011,0.48863
1698344401250000,-9.533908,2.789811,0.826534,1.520472,0.14411,0.68463
1698344401257812,-9.653908,2.598811,0.865534,1.481972,0.689,0.95663
1698344401265625,-9.752908,2.446811,0.779534,1.444472,0.8111,0.115863
1698344401273437,-9.856908,2.337811,0.622534,1.419972,0.15911,0.138163
1698344401281250,-9.913908,2.274811,0.554534,1.404172,0.6911,0.147463
1698344401289062,-9.913908,2.230811,0.694534,1.384272,0.9489,0.166563
1698344401296875,-9.876908,2.222811,0.741534,1.359172,0.23311,0.178963
1698344401304687,-9.855908,2.268811,0.649534,1.340872,0.58611,0.194863
1698344401312500,-9.721908,2.362811,0.525534,1.324772,0.72211,0.192763
1698344401320312,-9.555908,2.454811,0.516534,1.292472,0.67811,0.197663
1698344401328125,-9.350908,2.625811,0.475534,1.242072,0.76911,0.207963
1698344401335937,-9.32908,2.702811,0.320534,1.221672,0.92011,0.223563
1698344401343750,-8.675908,2.692811,0.81534,1.228672,0.114711,0.252463
1698344401351562,-8.482908,2.693811,0.200466,1.249872,0.133811,0.286663
1698344401359375,-8.462908,2.562811,0.341466,1.276972,0.139411,0.318863
1698344401367187,-8.589908,2.207811,0.224466,1.299672,0.119311,0.340363
1698344401375000,-8.767908,1.792811,0.143466,1.345572,0.121511,0.366463
1698344401382812,-9.8908,1.381811,0.282466,1.413072,0.137911,0.376863
1698344401390625,-9.423908,1.82811,0.462466,1.472372,0.121911,0.362963
1698344401398437,-9.984908,0.997811,0.622466,1.545572,0.115311,0.336563
1698344401406250,-10.590908,0.789811,0.471466,1.620372,0.97011,0.300663
1698344401414062,-11.164908,0.443811,0.46534,1.707572,0.82611,0.272663
1698344401421875,-11.248908,0.33811,0.413534,1.743072,0.154211,0.258263
1698344401429687,-10.838908,0.418189,0.377534,1.736472,0.307411,0.240663
1698344401437500,-10.400908,0.839189,0.153534,1.722872,0.405811,0.223663
1698344401445312,-10.153908,-1.136189,0.78534,1.702772,0.436111,0.226663
1698344401453125,-9.954908,-1.202189,0.146534,1.699772,0.442711,0.234663
1698344401460937,-9.749908,-1.256189,0.267534,1.719172,0.439211,0.259163
1698344401468750,-9.594908,-1.227189,0.376534,1.785172,0.437311,0.294863
1698344401476562,-9.663908,0.975189,0.378534,1.862772,0.413211,0.329563
1698344401484375,-9.873908,0.619189,0.411534,1.931172,0.368111,0.337463
1698344401492187,-10.250908,0.239189,0.564534,1.997172,0.291211,0.317863
1698344401500000,-10.619908,0.83811,0.956534,2.51472,0.214511,0.272263
1698344401507812,-10.925908,0.425811,-1.323534,2.120872,0.181811,0.210563
1698344401515625,-10.984908,0.690811,-1.257534,2.149072,0.264211,0.141463
1698344401523437,-11.65908,0.711811,-1.10534,2.151772,0.320011,0.63763
1698344401531250,-10.939908,0.694811,0.766534,2.175372,0.358711,0.437
1698344401539062,-10.750908,0.587811,0.649534,2.194272,0.367211,0.61537
1698344401546875,-10.499908,0.308811,0.785534,2.229172,0.357911,0.103137
1698344401554687,-10.298908,0.45189,0.949534,2.275972,0.352611,0.129737
1698344401562500,-10.146908,0.252189,-1.66534,2.329172,0.345911,0.141837
1698344401570312,-9.965908,0.352189,0.936534,2.348972,0.378811,0.153237
1698344401578125,-9.791908,0.376189,0.805534,2.370872,0.375811,0.151437
1698344401585937,-9.723908,0.257189,0.808534,2.405372,0.355011,0.142937
1698344401593750,-9.723908,0.7189,0.956534,2.434372,0.333411,0.127837
1698344401601562,-9.641908,0.328811,-1.73534,2.448672,0.362511,0.119737
1698344401609375,-9.522908,0.607811,-1.41534,2.471972,0.409811,0.118137
1698344401617187,-9.431908,0.699811,0.953534,2.487672,0.429811,0.106937
1698344401625000,-9.339908,0.733811,0.902534,2.501872,0.433011,0.105137
1698344401632812,-9.238908,0.712811,0.832534,2.476972,0.424811,0.97337
1698344401640625,-9.144908,0.739811,0.850534,2.471472,0.390111,0.79337
1698344401648437,-8.982908,0.749811,0.855534,2.459972,0.375011,0.73337
1698344401656250,-8.884908,0.837811,0.742534,2.451372,0.382411,0.57137
1698344401664062,-8.892908,1.33811,0.564534,2.435472,0.386111,0.52637
1698344401671875,-8.948908,1.151811,0.426534,2.420172,0.382211,0.54237
1698344401679687,-9.106908,1.212811,0.433534,2.418772,0.346211,0.54037
1698344401687500,-9.341908,1.184811,0.579534,2.420372,0.325311,0.52337
1698344401695312,-9.673908,1.114811,0.703534,2.409572,0.326411,0.53837
1698344401703125,-9.981908,1.168811,0.681534,2.376072,0.332411,0.49837
1698344401710937,-10.258908,1.316811,0.624534,2.327872,0.315711,0.43837
1698344401718750,-10.288908,1.332811,0.532534,2.278372,0.321911,0.21737
1698344401726562,-10.314908,1.277811,0.507534,2.255572,0.310111,0.663
1698344401734375,-10.418908,1.212811,0.476534,2.252272,0.320511,0.13263
1698344401742187,-10.454908,1.175811,0.347534,2.238572,0.406711,0.44863
1698344401750000,-10.332908,1.196811,0.143534,2.242972,0.450511,0.71563
1698344401757812,-10.303908,1.27811,0.206534,2.263572,0.449011,0.83063
1698344401765625,-10.266908,0.802811,0.289534,2.309172,0.479611,0.81963
1698344401773437,-10.223908,0.463811,0.438534,2.348472,0.494011,0.80763
1698344401781250,-10.90908,0.65189,0.731534,2.373972,0.529311,0.62763
1698344401789062,-10.96908,0.197189,0.841534,2.421072,0.507111,0.33263
1698344401796875,-10.94908,0.139189,-1.44534,2.399972,0.549911,0.21363
1698344401804687,-10.162908,0.63811,-1.116534,2.429172,0.552011,0.5463
1698344401812500,-10.232908,0.370811,-1.62534,2.478072,0.492611,0.12737
1698344401820312,-10.131908,0.642811,-1.53534,2.487172,0.453711,0.28537
1698344401828125,-9.985908,0.939811,-1.30534,2.473472,0.410411,0.41037
1698344401835937,-9.802908,1.187811,0.965534,2.454172,0.388011,0.50937
1698344401843750,-9.600908,1.319811,0.872534,2.423372,0.369111,0.54137
1698344401851562,-9.396908,1.331811,0.755534,2.385672,0.354511,0.60937
1698344401859375,-9.222908,1.167811,0.739534,2.351272,0.331311,0.64337
1698344401867187,-9.182908,1.62811,0.782534,2.324672,0.321811,0.56637
1698344401875000,-9.263908,0.925811,0.915534,2.290672,0.364111,0.25037
1698344401882812,-9.131908,0.661811,0.803534,2.278572,0.395111,0.363
1698344401890625,-9.78908,0.459811,0.866534,2.258872,0.353611,0.43563
1698344401898437,-9.20908,0.341811,-1.26534,2.245472,0.334011,0.75763
1698344401906250,-8.913908,0.385811,-1.55534,2.228572,0.350211,0.89963
1698344401914062,-8.705908,0.562811,0.965534,2.206872,0.362911,0.94563
1698344401921875,-8.631908,0.721811,0.879534,2.169172,0.353711,0.105263
1698344401929687,-8.683908,0.732811,0.616534,2.134972,0.379211,0.109763
1698344401937500,-8.719908,0.755811,0.404534,2.109872,0.369411,0.106263
1698344401945312,-8.822908,0.834811,0.456534,2.81972,0.328411,0.109463
1698344401953125,-9.89908,0.839811,0.181534,2.47072,0.340411,0.112063
1698344401960937,-9.618908,1.46811,0.638466,2.2872,0.332511,0.103363
1698344401968750,-10.408908,1.573811,1.449466,1.962072,0.301011,0.88763
1698344401976562,-11.84908,2.543811,1.143466,1.944872,0.193511,0.31763
1698344401984375,-11.365908,3.586811,0.24466,1.967872,0.122211,0.6563
1698344401992187,-11.130908,4.75811,0.501534,1.942072,0.207111,0.7137
1698344402000000,-10.483908,3.932811,0.80534,1.813472,0.364211,0.30737
1698344402007812,-10.53908,3.446811,0.468466,1.708472,0.369911,0.43037
1698344402015625,-9.899908,2.640811,0.204466,1.670972,0.290011,0.52637
1698344402023437,-9.806908,1.888811,0.149534,1.682272,0.291211,0.47537
1698344402031250,-9.955908,1.458811,0.327534,1.726972,0.280011,0.11637
1698344402039062,-10.90908,1.49811,0.516534,1.762272,0.270011,0.16363
1698344402046875,-10.183908,0.814811,0.440534,1.790872,0.306611,0.56463
1698344402054687,-10.279908,0.751811,0.386534,1.822072,0.297011,0.121163
1698344402062500,-10.283908,0.744811,0.598534,1.876472,0.273011,0.171763
1698344402070312,-10.132908,0.746811,0.717534,1.923972,0.296111,0.205863
1698344402078125,-9.893908,0.836811,0.690534,1.988472,0.327211,0.219363
1698344402085937,-9.530908,0.908811,0.665534,2.24072,0.332511,0.211463
1698344402093750,-9.109908,1.123811,0.692534,2.56372,0.353611,0.179663
1698344402101562,-8.778908,1.388811,0.575534,2.85572,0.385911,0.150963
1698344402109375,-8.686908,1.531811,0.595534,2.130172,0.392611,0.115963
1698344402117187,-8.563908,1.551811,0.552534,2.193572,0.426211,0.66863
1698344402125000,-8.479908,1.518811,0.570534,2.234372,0.408011,0.28263
1698344402132812,-8.441908,1.367811,0.845534,2.261272,0.403111,0.263
1698344402140625,-8.451908,1.323811,-1.97534,2.268172,0.415211,0.27337
1698344402148437,-8.448908,1.397811,-1.115534,2.267572,0.433111,0.50037
1698344402156250,-8.461908,1.537811,0.996534,2.269872,0.453111,0.74437
1698344402164062,-8.475908,1.670811,0.829534,2.288772,0.436111,0.93137
1698344402171875,-8.534908,1.718811,0.777534,2.293172,0.416811,0.104337
1698344402179687,-8.643908,1.828811,0.811534,2.297672,0.413711,0.105937
1698344402187500,-8.897908,1.940811,0.755534,2.301372,0.409911,0.102437
1698344402195312,-9.200908,2.36811,0.674534,2.293672,0.398211,0.102437
1698344402203125,-9.529908,2.126811,0.599534,2.291872,0.369311,0.104037
1698344402210937,-9.873908,2.289811,0.673534,2.298572,0.320211,0.100337
1698344402218750,-10.111908,2.448811,0.914534,2.314272,0.281111,0.106437
1698344402226562,-10.301908,2.497811,-1.185534,2.335272,0.236711,0.97737
1698344402234375,-10.352908,2.503811,-1.324534,2.344272,0.247211,0.96237
1698344402242187,-10.251908,2.488811,-1.313534,2.341272,0.255611,0.77137
1698344402250000,-10.189908,2.411811,-1.203534,2.327872,0.268411,0.49937
1698344402257812,-10.61908,2.407811,-1.236534,2.315772,0.263511,0.32337
1698344402265625,-9.908908,2.482811,-1.243534,2.294372,0.259911,0.17937
1698344402273437,-9.803908,2.561811,-1.185534,2.237672,0.275211,0.7637
1698344402281250,-9.722908,2.698811,-1.115534,2.178072,0.290011,0.437
1698344402289062,-9.687908,2.757811,-1.83534,2.124972,0.303111,0.16563
1698344402296875,-9.631908,2.744811,0.975534,2.83072,0.323711,0.24163
1698344402304687,-9.670908,2.701811,-1.36534,2.57772,0.324311,0.33263
1698344402312500,-9.828908,2.748811,-1.40534,2.18572,0.352111,0.43863
1698344402320312,-9.989908,2.850811,0.917534,1.984372,0.361811,0.54763
1698344402328125,-10.123908,2.892811,0.959534,1.962472,0.337111,0.49863
1698344402335937,-10.185908,3.13811,-1.534,1.938772,0.322711,0.46363
1698344402343750,-10.126908,3.132811,-1.27534,1.911672,0.327511,0.25163
1698344402351562,-9.892908,3.232811,0.905534,1.867872,0.346511,0.16663
1698344402359375,-9.694908,3.354811,0.853534,1.834572,0.368111,0.17563
1698344402367187,-9.496908,3.531811,0.786534,1.792272,0.399011,0.23363
1698344402375000,-9.336908,3.750811,0.583534,1.766372,0.427111,0.5063
1698344402382812,-9.215908,3.796811,0.369534,1.732472,0.417711,0.27637
1698344402390625,-9.98908,3.648811,0.367534,1.712972,0.366911,0.72537
1698344402398437,-9.25908,3.415811,0.446534,1.708372,0.326211,0.115337
1698344402406250,-8.983908,3.170811,0.401534,1.699472,0.334411,0.160537
1698344402414062,-9.71908,2.903811,0.106534,1.689172,0.353711,0.200937
1698344402421875,-9.184908,2.516811,0.69466,1.670172,0.325311,0.236137
1698344402429687,-9.318908,2.121811,0.116466,1.654272,0.300411,0.257037
1698344402437500,-9.500908,1.842811,0.357466,1.639872,0.289311,0.266837
1698344402445312,-9.621908,1.659811,0.445466,1.598172,0.268811,0.266937
1698344402453125,-9.614908,1.520811,0.208466,1.557172,0.246811,0.251437
1698344402460937,-9.678908,1.423811,0.104534,1.528472,0.238111,0.221037
1698344402468750,-9.641908,1.533811,0.341534,1.495972,0.277711,0.179937
1698344402476562,-9.655908,1.839811,0.250534,1.453472,0.298511,0.124037
1698344402484375,-9.884908,2.121811,0.300534,1.403072,0.297911,0.104037
1698344402492187,-9.959908,2.322811,0.466534,1.354472,0.260311,0.109237
1698344402500000,-9.966908,2.479811,0.822534,1.272172,0.184411,0.107837
1698344402507812,-10.56908,2.503811,-1.56534,1.199772,0.120611,0.68037
1698344402515625,-10.115908,2.417811,-1.83534,1.142772,0.117411,0.18737
1698344402523437,-10.38908,2.368811,0.755534,1.83772,0.130911,0.25363
1698344402531250,-9.954908,2.331811,0.865534,1.28672,0.85411,0.81263
1698344402539062,-9.592908,2.733811,0.822534,0.986272,0.78111,0.129363
1698344402546875,-9.233908,3.169811,0.358534,0.963172,0.94811,0.162663
1698344402554687,-8.854908,2.856811,0.101534,0.939472,0.49711,0.164063
1698344402562500,-8.569908,2.557811,0.329534,0.916272,0.589,0.130763
1698344402570312,-8.428908,2.454811,0.512534,0.858472,0.21311,0.97463
1698344402578125,-8.371908,2.408811,0.192534,0.819972,0.79611,0.58163
1698344402585937,-8.488908,2.203811,0.244466,0.789572,0.78611,0.5063
1698344402593750,-8.780908,1.807811,0.278466,0.782672,0.17389,0.34737
1698344402601562,-9.172908,1.389811,0.118466,0.801772,0.90189,0.62737
1698344402609375,-9.681908,0.919811,0.111534,0.844272,0.119389,0.55737
1698344402617187,-10.266908,0.626811,0.50534,0.920172,0.82089,0.30837
1698344402625000,-10.647908,0.446811,0.70466,1.15472,0.17089,0.1537
1698344402632812,-10.771908,0.204811,0.226534,1.90372,0.2511,0.50763
1698344402640625,-10.643908,0.76811,0.490534,1.120472,0.47311,0.95663
1698344402648437,-10.259908,0.232811,0.618534,1.118872,0.124411,0.117563
1698344402656250,-9.788908,0.546811,0.584534,1.120572,0.163311,0.123863
1698344402664062,-9.392908,0.964811,0.523534,1.98272,0.168611,0.121863
1698344402671875,-9.130908,1.330811,0.410534,1.52972,0.153111,0.108763
1698344402679687,-8.906908,1.801811,0.268534,1.15372,0.116411,0.83063
1698344402687500,-8.836908,2.197811,0.257534,0.946072,0.78311,0.50463
1698344402695312,-8.881908,2.367811,0.183534,0.879272,0.30011,0.15963
1698344402703125,-9.84908,2.396811,0.133534,0.821372,0.47589,0.12937
1698344402710937,-9.418908,2.488811,0.126534,0.753672,0.93389,0.37537
1698344402718750,-9.695908,2.406811,0.50534,0.685872,0.113289,0.62337
1698344402726562,-9.872908,2.60811,0.56534,0.611072,0.158289,0.70637
1698344402734375,-9.942908,1.701811,0.131534,0.557172,0.179889,0.66737
1698344402742187,-9.987908,1.422811,0.190534,0.515372,0.189689,0.43037
1698344402750000,-9.994908,1.264811,0.197534,0.481872,0.185389,0.15937
1698344402757812,-9.956908,1.244811,0.143534,0.463372,0.179989,0.14263
1698344402765625,-9.865908,1.357811,0.111534,0.418272,0.177389,0.15563
1698344402773437,-9.764908,1.448811,0.124534,0.382372,0.184389,0.8863
1698344402781250,-9.664908,1.558811,0.145534,0.350272,0.193789,0.10937
1698344402789062,-9.563908,1.568811,0.199534,0.340472,0.214989,0.31837
1698344402796875,-9.470908,1.481811,0.250534,0.323372,0.222389,0.52637
1698344402804687,-9.452908,1.351811,0.269534,0.314472,0.223089,0.73937
1698344402812500,-9.467908,1.186811,0.289534,0.300672,0.227489,0.91437
1698344402820312,-9.560908,1.91811,0.327534,0.306772,0.231789,0.81837
1698344402828125,-9.749908,0.944811,0.341534,0.305672,0.245289,0.75237
1698344402835937,-10.8908,0.860811,0.361534,0.323172,0.238389,0.55837
1698344402843750,-10.262908,0.848811,0.386534,0.315372,0.229989,0.43137
1698344402851562,-10.406908,0.853811,0.350534,0.328372,0.204089,0.23837
1698344402859375,-10.431908,0.846811,0.305534,0.345572,0.190689,0.17337
1698344402867187,-10.365908,0.837811,0.318534,0.367572,0.182489,0.10737
1698344402875000,-10.237908,0.821811,0.336534,0.381572,0.167689,0.13937
1698344402882812,-10.143908,0.884811,0.327534,0.393672,0.134689,0.15637
1698344402890625,-10.32908,0.965811,0.282534,0.402872,0.98889,0.23837
1698344402898437,-9.940908,1.83811,0.293534,0.396072,0.79289,0.43337
1698344402906250,-9.865908,1.202811,0.316534,0.381372,0.61389,0.64537
1698344402914062,-9.819908,1.252811,0.348534,0.377772,0.49389,0.63237
1698344402921875,-9.810908,1.252811,0.361534,0.376272,0.16989,0.63337
1698344402929687,-9.837908,1.243811,0.399534,0.371872,0.7589,0.58537
1698344402937500,-9.805908,1.228811,0.368534,0.347972,0.12711,0.49437
1698344402945312,-9.729908,1.228811,0.426534,0.324572,0.17411,0.48137
1698344402953125,-9.691908,1.268811,0.456534,0.300772,0.24311,0.50137
1698344402960937,-9.712908,1.317811,0.429534,0.261472,0.45511,0.49137
1698344402968750,-9.778908,1.358811,0.383534,0.225572,0.56511,0.51137
1698344402976562,-9.807908,1.376811,0.377534,0.209872,0.61411,0.46537
1698344402984375,-9.805908,1.333811,0.410534,0.196672,0.50311,0.39737
1698344402992187,-9.765908,1.275811,0.455534,0.188872,0.44511,0.25537
1698344403000000,-9.713908,1.222811,0.440534,0.171172,0.45211,0.24437
1698344403007812,-9.697908,1.195811,0.426534,0.160372,0.56511,0.16537
1698344403015625,-9.692908,1.177811,0.435534,0.154172,0.63311,0.5437
1698344403023437,-9.692908,1.175811,0.438534,0.140072,0.71211,0.8837
1698344403031250,-9.739908,1.169811,0.433534,0.138572,0.74511,0.5637
1698344403039062,-9.780908,1.171811,0.406534,0.137172,0.78811,0.13537
1698344403046875,-9.843908,1.179811,0.422534,0.140172,0.72411,0.16737
1698344403054687,-9.849908,1.182811,0.453534,0.141172,0.78211,0.15337
1698344403062500,-9.816908,1.178811,0.501534,0.155972,0.64311,0.10037
1698344403070312,-9.759908,1.182811,0.528534,0.166972,0.61111,0.9837
1698344403078125,-9.708908,1.219811,0.537534,0.178372,0.62411,0.1663
1698344403085937,-9.704908,1.239811,0.512534,0.176172,0.68311,0.337
1698344403093750,-9.700908,1.276811,0.503534,0.167372,0.65611,0.1463
1698344403101562,-9.701908,1.341811,0.489534,0.148072,0.74111,0.11837
1698344403109375,-9.700908,1.412811,0.525534,0.130872,0.69211,0.11937
1698344403117187,-9.707908,1.457811,0.534534,0.114872,0.79411,0.12337
1698344403125000,-9.717908,1.499811,0.516534,0.99072,0.88911,0.18937
1698344403132812,-9.675908,1.514811,0.500534,0.72572,0.90611,0.12837
1698344403140625,-9.623908,1.528811,0.478534,0.57372,0.83411,0.7937
1698344403148437,-9.578908,1.498811,0.453534,0.43372,0.71811,0.7937
1698344403156250,-9.559908,1.455811,0.447534,0.20572,0.70211,0.2337
1698344403164062,-9.592908,1.410811,0.417534,0.13272,0.75711,0.3737
1698344403171875,-9.631908,1.349811,0.386534,0.11472,0.74511,0.2337
1698344403179687,-9.642908,1.285811,0.401534,0.3572,0.64411,0.13537
1698344403187500,-9.638908,1.228811,0.438534,0.1328,0.60111,0.7237
1698344403195312,-9.640908,1.178811,0.469534,0.2328,0.52611,0.13337
1698344403203125,-9.637908,1.134811,0.471534,0.7428,0.43511,0.8737
1698344403210937,-9.621908,1.100811,0.483534,0.12028,0.48211,0.10437
1698344403218750,-9.605908,1.104811,0.483534,0.2428,0.43111,0.8537
1698344403226562,-9.621908,1.98811,0.476534,0.5728,0.38611,0.3937
1698344403234375,-9.623908,1.100811,0.496534,0.8672,0.22111,0.1937
1698344403242187,-9.607908,1.105811,0.557534,0.9972,0.17811,0.1163
1698344403250000,-9.619908,1.115811,0.573534,0.12472,0.13311,0.4763
1698344403257812,-9.639908,1.150811,0.568534,0.11872,0.589,0.1837
1698344403265625,-9.653908,1.199811,0.593534,0.14872,0.1411,0.6163
1698344403273437,-9.661908,1.230811,0.593534,0.13672,0.811,0.3063
1698344403281250,-9.666908,1.248811,0.586534,0.15272,0.12289,0.1563
1698344403289062,-9.661908,1.254811,0.595534,0.13972,0.10789,0.6463
1698344403296875,-9.660908,1.276811,0.568534,0.15572,0.10989,0.1763
1698344403304687,-9.644908,1.269811,0.543534,0.14272,0.16489,0.363
1698344403312500,-9.658908,1.267811,0.536534,0.11272,0.11589,0.6663
1698344403320312,-9.646908,1.258811,0.510534,0.6072,0.11089,0.0
1698344403328125,-9.643908,1.238811,0.507534,0.7828,0.19489,0.0
1698344403335937,-9.643908,1.225811,0.521534,0.5228,0.15389,0.1363
1698344403343750,-9.638908,1.205811,0.539534,0.8428,0.18689,0.1937
1698344403351562,-9.660908,1.186811,0.516534,0.6628,0.20289,0.6163
1698344403359375,-9.660908,1.176811,0.510534,0.3128,0.17589,0.4763
1698344403367187,-9.660908,1.159811,0.519534,0.4472,0.33589,0.4863
1698344403375000,-9.662908,1.130811,0.543534,0.7772,0.38689,0.3363
1698344403382812,-9.659908,1.114811,0.546534,0.9072,0.36889,0.3137
1698344403390625,-9.695908,1.106811,0.514534,0.16772,0.38089,0.1663
1698344403398437,-9.716908,1.113811,0.548534,0.12572,0.43789,0.1237
1698344403406250,-9.727908,1.103811,0.575534,0.22272,0.41089,0.1037
1698344403414062,-9.760908,1.84811,0.582534,0.28372,0.46989,0.3763
1698344403421875,-9.733908,1.90811,0.615534,0.39572,0.47389,0.3963
1698344403429687,-9.716908,1.106811,0.609534,0.39472,0.50489,0.5563
1698344403437500,-9.729908,1.113811,0.593534,0.43772,0.49689,0.6963
1698344403445312,-9.738908,1.142811,0.634534,0.53272,0.61389,0.2363
1698344403453125,-9.754908,1.149811,0.629534,0.54672,0.48289,0.937
1698344403460937,-9.773908,1.191811,0.595534,0.64972,0.45989,0.14063
1698344403468750,-9.807908,1.203811,0.586534,0.64272,0.43289,0.8863
1698344403476562,-9.804908,1.194811,0.577534,0.65972,0.46989,0.4163
1698344403484375,-9.804908,1.178811,0.579534,0.67772,0.42489,0.2663
1698344403492187,-9.788908,1.154811,0.534534,0.73572,0.33689,0.2463
1698344403500000,-9.767908,1.123811,0.503534,0.90872,0.35289,0.5863
1698344403507812,-9.781908,1.125811,0.510534,0.89272,0.35089,0.7463
1698344403515625,-9.774908,1.100811,0.534534,0.92972,0.22689,0.17263
1698344403523437,-9.769908,1.116811,0.514534,0.95772,0.15589,0.18663
1698344403531250,-9.763908,1.121811,0.498534,0.87472,0.8589,0.10363
1698344403539062,-9.767908,1.134811,0.496534,0.94972,0.9889,0.7163
1698344403546875,-9.755908,1.185811,0.507534,0.96872,0.2289,0.7263
1698344403554687,-9.741908,1.209811,0.510534,0.91872,0.289,0.5463
1698344403562500,-9.711908,1.214811,0.501534,0.100372,0.2889,0.5863
1698344403570312,-9.668908,1.216811,0.501534,0.111472,0.10989,0.9263
1698344403578125,-9.655908,1.240811,0.505534,0.108072,0.5989,0.4363
1698344403585937,-9.636908,1.259811,0.505534,0.98072,0.6589,0.8763
1698344403593750,-9.628908,1.260811,0.507534,0.96972,0.2411,0.8963
1698344403601562,-9.657908,1.254811,0.507534,0.111172,0.5689,0.10763
1698344403609375,-9.697908,1.255811,0.546534,0.106172,0.5289,0.7363
1698344403617187,-9.729908,1.277811,0.557534,0.97172,0.6189,0.2663
1698344403625000,-9.709908,1.270811,0.555534,0.100272,0.1289,0.1063
1698344403632812,-9.671908,1.261811,0.532534,0.95272,0.2411,0.2463
1698344403640625,-9.644908,1.260811,0.532534,0.89072,0.9011,0.5563
1698344403648437,-9.655908,1.258811,0.552534,0.90772,0.12111,0.10463
1698344403656250,-9.664908,1.258811,0.579534,0.111372,0.5311,0.10763
1698344403664062,-9.655908,1.238811,0.586534,0.116272,0.5411,0.18863
1698344403671875,-9.677908,1.234811,0.579534,0.114672,0.411,0.15663
1698344403679687,-9.735908,1.235811,0.616534,0.115972,0.1111,0.21963
1698344403687500,-9.749908,1.246811,0.647534,0.122372,0.5811,0.26863
1698344403695312,-9.724908,1.248811,0.634534,0.125172,0.6011,0.13963
1698344403703125,-9.727908,1.251811,0.600534,0.130072,0.9111,0.20463
1698344403710937,-9.725908,1.279811,0.613534,0.128872,0.10311,0.25463
1698344403718750,-9.707908,1.321811,0.611534,0.126772,0.12511,0.17163
1698344403726562,-9.710908,1.341811,0.604534,0.130072,0.15411,0.15663
1698344403734375,-9.706908,1.325811,0.618534,0.120872,0.15011,0.12463
1698344403742187,-9.717908,1.314811,0.636534,0.128772,0.18311,0.17363
1698344403750000,-9.738908,1.291811,0.627534,0.134872,0.12411,0.26963
1698344403757812,-9.736908,1.279811,0.636534,0.133372,0.26911,0.26863
1698344403765625,-9.720908,1.264811,0.638534,0.139572,0.30211,0.25363
1698344403773437,-9.734908,1.264811,0.631534,0.139672,0.35111,0.30163
1698344403781250,-9.718908,1.263811,0.629534,0.141372,0.38211,0.30163
1698344403789062,-9.689908,1.272811,0.618534,0.139372,0.35511,0.28363
1698344403796875,-9.664908,1.292811,0.597534,0.141072,0.45011,0.25263
1698344403804687,-9.626908,1.320811,0.584534,0.139272,0.38811,0.26763
1698344403812500,-9.588908,1.299811,0.579534,0.142772,0.38211,0.25363
1698344403820312,-9.570908,1.315811,0.609534,0.145272,0.32911,0.26663
1698344403828125,-9.568908,1.339811,0.616534,0.139172,0.37411,0.25063
1698344403835937,-9.609908,1.353811,0.649534,0.141272,0.38211,0.26963
1698344403843750,-9.659908,1.376811,0.658534,0.139372,0.41911,0.25163
1698344403851562,-9.675908,1.396811,0.665534,0.134472,0.37111,0.20263
1698344403859375,-9.680908,1.421811,0.672534,0.137472,0.29111,0.17063
1698344403867187,-9.673908,1.421811,0.674534,0.132672,0.29311,0.16963
1698344403875000,-9.637908,1.420811,0.645534,0.137972,0.25111,0.14163
1698344403882812,-9.628908,1.399811,0.629534,0.138172,0.21411,0.12763
1698344403890625,-9.614908,1.386811,0.647534,0.137872,0.18711,0.15763
1698344403898437,-9.632908,1.376811,0.649534,0.133172,0.17311,0.18863
1698344403906250,-9.650908,1.389811,0.651534,0.123772,0.17311,0.18763
1698344403914062,-9.666908,1.405811,0.667534,0.125072,0.14411,0.20263
1698344403921875,-9.684908,1.409811,0.683534,0.123972,0.15211,0.17263
1698344403929687,-9.694908,1.434811,0.683534,0.114372,0.26911,0.20263
1698344403937500,-9.707908,1.438811,0.663534,0.116172,0.13611,0.18863
1698344403945312,-9.704908,1.435811,0.692534,0.112572,0.19311,0.24963
1698344403953125,-9.700908,1.455811,0.710534,0.95372,0.19311,0.23163
1698344403960937,-9.689908,1.458811,0.674534,0.89372,0.23811,0.24763
1698344403968750,-9.678908,1.476811,0.685534,0.90872,0.15811,0.26363
1698344403976562,-9.681908,1.476811,0.699534,0.89672,0.23211,0.24963
1698344403984375,-9.674908,1.445811,0.687534,0.81572,0.28511,0.26263
1698344403992187,-9.677908,1.425811,0.660534,0.77872,0.33711,0.13263
1698344404000000,-9.680908,1.405811,0.654534,0.79672,0.30311,0.16563
1698344404007812,-9.669908,1.402811,0.663534,0.72372,0.29711,0.19863
1698344404015625,-9.670908,1.394811,0.656534,0.71672,0.37011,0.16363
1698344404023437,-9.643908,1.385811,0.636534,0.73172,0.28811,0.9963
1698344404031250,-9.655908,1.387811,0.615534,0.70272,0.23711,0.14863
1698344404039062,-9.664908,1.387811,0.636534,0.70572,0.18411,0.13463
1698344404046875,-9.657908,1.391811,0.647534,0.69272,0.16411,0.15163
1698344404054687,-9.664908,1.382811,0.631534,0.70672,0.19611,0.10363
1698344404062500,-9.679908,1.394811,0.618534,0.72172,0.17011,0.21463
1698344404070312,-9.677908,1.405811,0.651534,0.74872,0.19211,0.19663
1698344404078125,-9.655908,1.404811,0.649534,0.66072,0.16511,0.16663
1698344404085937,-9.646908,1.402811,0.647534,0.62872,0.21711,0.19763
1698344404093750,-9.619908,1.395811,0.651534,0.64272,0.21611,0.11763
1698344404101562,-9.623908,1.386811,0.663534,0.65972,0.11611,0.8663
1698344404109375,-9.621908,1.389811,0.661534,0.65172,0.12811,0.9863
1698344404117187,-9.635908,1.395811,0.663534,0.62672,0.8511,0.5363
1698344404125000,-9.670908,1.405811,0.685534,0.57272,0.7911,0.5063
1698344404132812,-9.684908,1.403811,0.726534,0.51172,0.489,0.5063
1698344404140625,-9.678908,1.407811,0.717534,0.50172,0.311,0.5363
1698344404148437,-9.682908,1.405811,0.719534,0.39072,0.10989,0.1963
1698344404156250,-9.680908,1.402811,0.708534,0.40672,0.6289,0.1137
1698344404164062,-9.707908,1.405811,0.710534,0.37572,0.3311,0.1237
1698344404171875,-9.716908,1.399811,0.694534,0.35972,0.1911,0.363
1698344404179687,-9.708908,1.395811,0.674534,0.22772,0.589,0.3237
1698344404187500,-9.673908,1.410811,0.651534,0.13172,0.2611,0.16237
1698344404195312,-9.663908,1.405811,0.658534,0.14772,0.1211,0.5037
1698344404203125,-9.650908,1.399811,0.656534,0.12672,0.1811,0.11737
1698344404210937,-9.643908,1.385811,0.643534,0.14572,0.4911,0.3637
1698344404218750,-9.663908,1.365811,0.649534,0.13572,0.5511,0.8137
1698344404226562,-9.681908,1.350811,0.654534,0.14672,0.4411,0.11537
1698344404234375,-9.685908,1.326811,0.676534,0.13372,0.2289,0.6637
1698344404242187,-9.671908,1.314811,0.683534,0.13572,0.7589,0.8037
1698344404250000,-9.649908,1.345811,0.670534,0.13272,0.5911,0.6637
1698344404257812,-9.663908,1.358811,0.658534,0.15072,0.789,0.3337
1698344404265625,-9.672908,1.371811,0.676534,0.13872,0.1811,0.4737
1698344404273437,-9.701908,1.389811,0.694534,0.14572,0.6511,0.437
1698344404281250,-9.708908,1.386811,0.699534,0.13572,0.7189,0.3063
1698344404289062,-9.691908,1.397811,0.687534,0.15172,0.2511,0.1463
1698344404296875,-9.673908,1.401811,0.665534,0.5672,0.5711,0.1837
1698344404304687,-9.650908,1.405811,0.685534,0.10228,0.1211,0.537
1698344404312500,-9.643908,1.403811,0.683534,0.12128,0.1611,0.3837
1698344404320312,-9.636908,1.399811,0.661534,0.10428,0.6311,0.2237
1698344404328125,-9.636908,1.365811,0.667534,0.2328,0.2811,0.437
1698344404335937,-9.636908,1.354811,0.683534,0.11828,0.489,0.2137
1698344404343750,-9.636908,1.370811,0.679534,0.10328,0.6311,0.637
1698344404351562,-9.666908,1.393811,0.690534,0.11028,0.11289,0.1737
1698344404359375,-9.700908,1.383811,0.710534,0.9428,0.0,0.137
1698344404367187,-9.760908,1.362811,0.710534,0.12628,0.10011,0.6163
1698344404375000,-9.784908,1.329811,0.699534,0.11628,0.15511,0.537
1698344404382812,-9.770908,1.320811,0.676534,0.11528,0.13911,0.2763
1698344404390625,-9.727908,1.304811,0.681534,0.9828,0.17211,0.10763
1698344404398437,-9.664908,1.296811,0.672534,0.8328,0.17211,0.4363
1698344404406250,-9.635908,1.298811,0.656534,0.11328,0.11811,0.1937
1698344404414062,-9.628908,1.296811,0.631534,0.5228,0.15311,0.1937
1698344404421875,-9.673908,1.288811,0.638534,0.9872,0.21311,0.1063
1698344404429687,-9.700908,1.263811,0.647534,0.15372,0.15211,0.1563
1698344404437500,-9.720908,1.275811,0.645534,0.13372,0.22111,0.5137
1698344404445312,-9.725908,1.279811,0.649534,0.15472,0.24611,0.1637
1698344404453125,-9.729908,1.288811,0.656534,0.10272,0.20211,0.6637
1698344404460937,-9.734908,1.300811,0.633534,0.7072,0.33611,0.2037
1698344404468750,-9.732908,1.313811,0.568534,0.2328,0.39711,0.10137
1698344404476562,-9.710908,1.305811,0.546534,0.428,0.32911,0.3537
1698344404484375,-9.676908,1.310811,0.501534,0.2828,0.38811,0.13537
1698344404492187,-9.664908,1.297811,0.501534,0.472,0.32111,0.10237
1698344404500000,-9.671908,1.265811,0.523534,0.7172,0.34811,0.8337
1698344404507812,-9.684908,1.239811,0.539534,0.5372,0.41511,0.13337
1698344404515625,-9.720908,1.219811,0.579534,0.8672,0.49311,0.13237
1698344404523437,-9.762908,1.218811,0.541534,0.2072,0.60911,0.18237
1698344404531250,-9.778908,1.225811,0.512534,0.272,0.66011,0.23237
1698344404539062,-9.792908,1.236811,0.483534,0.12428,0.67611,0.28137
1698344404546875,-9.805908,1.223811,0.415534,0.10728,0.66011,0.26537
1698344404554687,-9.809908,1.210811,0.359534,0.12528,0.79111,0.33037
1698344404562500,-9.818908,1.198811,0.305534,0.12028,0.86511,0.28037
1698344404570312,-9.813908,1.185811,0.296534,0.11128,0.93811,0.36337
1698344404578125,-9.802908,1.158811,0.307534,0.12428,0.92011,0.29937
1698344404585937,-9.781908,1.147811,0.298534,0.7828,0.113111,0.31537
1698344404593750,-9.763908,1.138811,0.278534,0.3428,0.119811,0.38037
1698344404601562,-9.764908,1.171811,0.248534,0.5228,0.136411,0.39837
1698344404609375,-9.721908,1.191811,0.221534,0.5228,0.144411,0.44637
1698344404617187,-9.658908,1.189811,0.185534,0.5128,0.149111,0.43037
1698344404625000,-9.645908,1.196811,0.179534,0.14672,0.148011,0.51037
1698344404632812,-9.618908,1.203811,0.158534,0.3472,0.161111,0.59237
1698344404640625,-9.594908,1.231811,0.136534,0.3372,0.172611,0.59337
1698344404648437,-9.580908,1.231811,0.145534,0.12328,0.170711,0.67537
1698344404656250,-9.587908,1.215811,0.145534,0.12328,0.172511,0.64337
1698344404664062,-9.623908,1.222811,0.88534,0.34128,0.170411,0.66037
1698344404671875,-9.661908,1.248811,0.97534,0.37328,0.175611,0.61437
1698344404679687,-9.696908,1.295811,0.86534,0.56028,0.198311,0.58537
1698344404687500,-9.724908,1.346811,0.95534,0.63728,0.196211,0.64837
1698344404695312,-9.706908,1.388811,0.88534,0.69028,0.211811,0.60437
1698344404703125,-9.700908,1.435811,0.43534,0.87828,0.224811,0.57537
1698344404710937,-9.701908,1.461811,0.21534,0.94228,0.226411,0.64037
1698344404718750,-9.703908,1.466811,0.10534,0.110028,0.240911,0.72337
1698344404726562,-9.674908,1.463811,0.16534,0.118428,0.244511,0.82237
1698344404734375,-9.653908,1.467811,0.16466,0.132328,0.236111,0.80637
1698344404742187,-9.670908,1.520811,0.5466,0.144628,0.240611,0.83937
1698344404750000,-9.673908,1.533811,0.14466,0.161728,0.240211,0.88837
1698344404757812,-9.720908,1.550811,0.28466,0.173328,0.235611,0.105137
1698344404765625,-9.760908,1.547811,0.37466,0.192628,0.242711,0.108737
1698344404773437,-9.816908,1.511811,0.7534,0.199928,0.239611,0.124437
1698344404781250,-9.807908,1.501811,0.10534,0.202528,0.242311,0.140937
1698344404789062,-9.895908,1.533811,0.100466,0.199528,0.239311,0.141037
1698344404796875,-9.927908,1.563811,0.188466,0.191928,0.220011,0.147337
1698344404804687,-9.938908,1.602811,0.127466,0.192228,0.197911,0.145837
1698344404812500,-9.899908,1.631811,0.55466,0.199228,0.201411,0.147037
1698344404820312,-9.849908,1.646811,0.14534,0.218428,0.206911,0.144337
1698344404828125,-9.785908,1.662811,0.55466,0.236628,0.235311,0.134737
1698344404835937,-9.710908,1.675811,0.55466,0.273328,0.263911,0.134037
1698344404843750,-9.632908,1.699811,0.55466,0.302128,0.287611,0.128337
1698344404851562,-9.633908,1.731811,0.77466,0.335928,0.291511,0.125237
1698344404859375,-9.826908,1.750811,0.48466,0.343428,0.278411,0.110737
1698344404867187,-9.998908,1.816811,0.75466,0.352528,0.271511,0.110637
1698344404875000,-10.38908,1.888811,0.14466,0.363228,0.250211,0.104237
1698344404882812,-9.852908,1.843811,0.23534,0.364328,0.235911,0.75337
1698344404890625,-9.740908,1.841811,0.0,0.366528,0.243611,0.47837
1698344404898437,-9.651908,1.889811,0.28466,0.386528,0.247011,0.27237
1698344404906250,-9.609908,1.906811,0.79534,0.388928,0.229311,0.11463
1698344404914062,-9.622908,1.906811,0.131534,0.407328,0.242411,0.35263
1698344404921875,-9.679908,1.938811,0.122534,0.411628,0.221211,0.49763
1698344404929687,-9.741908,2.36811,0.183534,0.415528,0.198111,0.74163
1698344404937500,-9.731908,2.78811,0.261534,0.411328,0.163311,0.97163
1698344404945312,-9.634908,2.113811,0.365534,0.430228,0.138111,0.116063
1698344404953125,-9.545908,2.155811,0.442534,0.432428,0.106811,0.142063
1698344404960937,-9.472908,2.252811,0.473534,0.453028,0.92711,0.146563
1698344404968750,-9.438908,2.344811,0.491534,0.474228,0.75311,0.148363
1698344404976562,-9.412908,2.393811,0.502534,0.500728,0.57211,0.148263
1698344404984375,-9.376908,2.421811,0.518534,0.527528,0.24811,0.141563
1698344404992187,-9.367908,2.414811,0.531534,0.547528,0.8389,0.140163
1698344405000000,-9.356908,2.459811,0.563534,0.576128,0.34089,0.131763
