time,Acceleration X (m/s^2),Acceleration Y (m/s^2),Acceleration Z (m/s^2),Angular Velocity X (rad/s),Angular Velocity Y (rad/s),Angular Velocity Z (rad/s)
1702327758101562,-9.288257,2.867466,-0.029682,,,
1702327758109375,-9.315257,0.806161,2.883466,0.22019,0.26982,0.3713
1702327758117187,-9.333257,0.804161,2.917466,0.20519,0.26582,0.11813
1702327758125000,-9.352257,0.792161,2.908466,0.24619,0.26282,0.8213
1702327758132812,-9.363257,0.797161,2.892466,0.23219,0.37282,0.1813
1702327758140625,-9.391257,0.804161,2.913466,0.16819,0.30682,0.5113
1702327758156250,-9.442257,0.807161,2.924466,0.19819,0.44882,0.16313
1702327758164062,-9.448257,0.807161,2.915466,0.21319,0.32882,0.6513
1702327758171875,-9.434257,0.813161,2.915466,0.20519,0.42582,0.3713
1702327758179687,-9.429257,0.795161,2.908466,0.21719,0.30682,0.5113
1702327758203125,-9.374257,0.739161,2.854466,0.18619,0.52482,0.313
1702327758210937,-9.363257,0.739161,2.854466,0.17119,0.55682,0.1287
1702327758218750,-9.353257,0.732161,2.854466,0.20019,0.55882,0.9913
1702327758226562,-9.364257,0.737161,2.888466,0.21219,0.54982,0.6513
1702327758234375,-9.363257,0.737161,2.915466,0.20219,0.58682,0.5113
1702327758242187,-9.371257,0.738161,2.913466,0.21219,0.61182,0.9713
1702327758250000,-9.384257,0.734161,2.929466,0.18819,0.57682,0.9313
1702327758257812,-9.380257,0.726161,2.924466,0.28019,0.62082,0.13113
1702327758265625,-9.364257,0.704161,2.922466,0.23419,0.61782,0.8413
1702327758273437,-9.356257,0.697161,2.926466,0.18819,0.66082,0.13313
1702327758281250,-9.346257,0.701161,2.919466,0.31319,0.66782,0.8313
1702327758289062,-9.344257,0.699161,2.935466,0.25119,0.66482,0.5213
1702327758296875,-9.333257,0.699161,2.947466,0.24819,0.65582,0.3413
1702327758304687,-9.337257,0.697161,2.974466,0.24519,0.56582,0.1713
1702327758312500,-9.327257,0.701161,2.956466,0.18919,0.59982,0.1187
1702327758320312,-9.331257,0.710161,2.947466,0.31619,0.58682,0.313
1702327758328125,-9.328257,0.705161,2.928466,0.34719,0.60582,0.2987
1702327758335937,-9.315257,0.716161,2.928466,0.28219,0.57482,0.1387
1702327758343750,-9.317257,0.713161,2.926466,0.37319,0.59982,0.0
1702327758351562,-9.330257,0.724161,2.928466,0.27419,0.60282,0.1687
1702327758359375,-9.335257,0.740161,2.944466,0.19319,0.55582,0.87
1702327758367187,-9.353257,0.742161,2.956466,0.21419,0.56582,0.4787
1702327758375000,-9.352257,0.748161,2.951466,0.20119,0.59082,0.4587
1702327758382812,-9.363257,0.735161,2.958466,0.21819,0.50982,0.3513
1702327758390625,-9.356257,0.728161,2.958466,0.20319,0.50982,0.2887
1702327758398437,-9.357257,0.733161,2.953466,0.21119,0.56882,0.1687
1702327758406250,-9.353257,0.739161,2.949466,0.19919,0.54682,0.113
1702327758414062,-9.347257,0.737161,2.958466,0.21619,0.56282,0.4687
1702327758421875,-9.345257,0.736161,2.944466,0.17619,0.57782,0.987
1702327758429687,-9.331257,0.710161,2.935466,0.17219,0.56882,0.2013
1702327758437500,-9.327257,0.716161,2.935466,0.11119,0.57782,0.2213
1702327758445312,-9.324257,0.699161,2.933466,0.5419,0.57882,0.1487
1702327758453125,-9.315257,0.707161,2.931466,0.7519,0.55282,0.3613
1702327758460937,-9.311257,0.707161,2.949466,0.3919,0.45982,0.2713
1702327758468750,-9.329257,0.721161,2.971466,0.819,0.40082,0.1287
1702327758476562,-9.334257,0.723161,2.971466,0.5381,0.45982,0.413
1702327758484375,-9.331257,0.734161,2.962466,0.3981,0.44782,0.4487
1702327758492187,-9.334257,0.734161,2.965466,0.15181,0.35182,0.1187
1702327758500000,-9.340257,0.736161,2.913466,0.581,0.41382,0.1187
1702327758507812,-9.369257,0.733161,2.897466,0.1481,0.52182,0.0
1702327758515625,-9.356257,0.715161,3.3466,0.9081,0.58782,0.1013
1702327758523437,-9.304257,0.708161,2.983466,0.14181,0.55082,0.1613
1702327758531250,-9.300257,0.725161,2.883466,0.5781,0.62182,0.6713
1702327758539062,-9.304257,0.725161,2.908466,0.10981,0.51982,0.1587
1702327758546875,-9.331257,0.735161,2.958466,0.7881,0.51882,0.6413
1702327758554687,-9.342257,0.741161,2.989466,0.4181,0.48182,0.1813
1702327758562500,-9.339257,0.749161,3.50466,0.5281,0.39482,0.1087
1702327758570312,-9.302257,0.742161,2.895466,0.4081,0.33882,0.313
1702327758578125,-9.300257,0.742161,2.856466,0.8681,0.28582,0.5313
1702327758585937,-9.343257,0.776161,3.12466,0.2581,0.30682,0.6713
1702327758593750,-9.341257,0.834161,3.17466,0.21219,0.43682,0.16213
1702327758601562,-9.309257,0.868161,2.901466,0.20419,0.51782,0.23013
1702327758609375,-9.275257,0.893161,2.874466,0.21419,0.59282,0.9813
1702327758617187,-9.249257,0.897161,2.838466,0.10519,0.54082,0.1913
1702327758625000,-9.227257,0.925161,2.845466,0.15519,0.52182,0.11613
1702327758632812,-9.227257,0.956161,2.919466,0.32619,0.56182,0.13013
1702327758640625,-9.243257,0.952161,2.933466,0.47319,0.33582,0.26013
1702327758648437,-9.254257,0.952161,2.931466,0.52119,0.33582,0.29213
1702327758656250,-9.265257,0.943161,2.933466,0.45519,0.14982,0.27613
1702327758664062,-9.296257,0.949161,2.956466,0.43519,0.6282,0.24113
1702327758671875,-9.298257,0.953161,2.944466,0.49819,0.6582,0.22413
1702327758679687,-9.295257,0.954161,2.904466,0.44219,0.4682,0.20513
1702327758687500,-9.301257,0.966161,2.856466,0.46819,0.3418,0.24213
1702327758695312,-9.301257,0.980161,2.806466,0.45119,0.0,0.24113
1702327758703125,-9.303257,0.991161,2.775466,0.49919,0.5082,0.12813
1702327758710937,-9.316257,1.17161,2.768466,0.63619,0.2282,0.10013
1702327758718750,-9.313257,1.22161,2.745466,0.58419,0.2982,0.1813
1702327758726562,-9.311257,1.22161,2.734466,0.69819,0.7918,0.4587
1702327758734375,-9.295257,1.26161,2.734466,0.72619,0.8918,0.1587
1702327758742187,-9.306257,1.24161,2.721466,0.73119,0.12918,0.313
1702327758750000,-9.301257,1.27161,2.682466,0.70719,0.19418,0.1687
1702327758757812,-9.302257,1.43161,2.678466,0.79719,0.19418,0.1287
1702327758765625,-9.329257,1.49161,2.698466,0.78919,0.19818,0.0
1702327758773437,-9.323257,1.57161,2.671466,0.74719,0.19118,0.1387
1702327758781250,-9.318257,1.58161,2.664466,0.78919,0.19818,0.1613
1702327758789062,-9.318257,1.61161,2.687466,0.82919,0.19518,0.5213
1702327758796875,-9.327257,1.59161,2.700466,0.90719,0.16118,0.8313
1702327758804687,-9.340257,1.53161,2.725466,0.98519,0.17018,0.3313
1702327758812500,-9.357257,1.50161,2.736466,0.94619,0.11518,0.7813
1702327758820312,-9.366257,1.42161,2.741466,0.95619,0.9118,0.18813
1702327758828125,-9.383257,1.31161,2.730466,0.99119,0.2418,0.10013
1702327758835937,-9.389257,1.21161,2.730466,0.107919,0.3782,0.7913
1702327758843750,-9.371257,1.23161,2.739466,0.106919,0.218,0.1813
1702327758851562,-9.358257,1.25161,2.736466,0.116619,0.9082,0.3413
1702327758859375,-9.342257,1.11161,2.714466,0.113219,0.7782,0.3313
1702327758867187,-9.329257,0.999161,2.696466,0.113919,0.15582,0.1987
1702327758875000,-9.312257,0.967161,2.698466,0.108019,0.20882,0.6313
1702327758882812,-9.291257,0.949161,2.712466,0.103619,0.17182,0.1713
1702327758890625,-9.268257,0.920161,2.689466,0.103319,0.8182,0.1587
1702327758898437,-9.266257,0.866161,2.662466,0.103819,0.4482,0.6187
1702327758906250,-9.327257,0.765161,2.725466,0.99019,0.6082,0.14187
1702327758914062,-9.308257,0.712161,2.587466,0.92219,0.3682,0.19187
1702327758921875,-9.260257,0.694161,2.547466,0.132719,0.9882,0.23987
1702327758929687,-9.225257,0.680161,2.608466,0.145819,0.12682,0.25487
1702327758937500,-9.270257,0.651161,2.703466,0.149419,0.782,0.17287
1702327758945312,-9.322257,0.633161,2.739466,0.129319,0.2618,0.20787
1702327758953125,-9.392257,0.611161,2.737466,0.131319,0.9418,0.22287
1702327758960937,-9.470257,0.579161,2.773466,0.131719,0.10018,0.26887
1702327758968750,-9.515257,0.544161,2.789466,0.125419,0.19718,0.25187
1702327758976562,-9.551257,0.506161,2.782466,0.132719,0.18418,0.27187
1702327758984375,-9.560257,0.473161,2.766466,0.137719,0.16818,0.35187
1702327758992187,-9.548257,0.442161,2.768466,0.139119,0.25818,0.36887
1702327759000000,-9.536257,0.410161,2.750466,0.140919,0.19918,0.38387
1702327759007812,-9.534257,0.386161,2.768466,0.133119,0.18618,0.44687
1702327759015625,-9.556257,0.372161,2.766466,0.128619,0.14218,0.52687
1702327759023437,-9.570257,0.361161,2.789466,0.129319,0.15018,0.63587
1702327759031250,-9.599257,0.351161,2.823466,0.125719,0.19018,0.71787
1702327759039062,-9.615257,0.362161,2.834466,0.145319,0.16318,0.71687
1702327759046875,-9.601257,0.387161,2.847466,0.139719,0.16618,0.68887
1702327759054687,-9.577257,0.400161,2.861466,0.130219,0.20018,0.75187
1702327759062500,-9.575257,0.417161,2.852466,0.136419,0.13518,0.62487
1702327759070312,-9.566257,0.424161,2.841466,0.129919,0.19718,0.64087
1702327759078125,-9.561257,0.436161,2.813466,0.126119,0.23518,0.62787
1702327759085937,-9.559257,0.455161,2.802466,0.124419,0.20418,0.56287
1702327759093750,-9.556257,0.441161,2.789466,0.121919,0.25018,0.64787
1702327759101562,-9.553257,0.461161,2.782466,0.124719,0.46318,0.51287
1702327759109375,-9.517257,0.463161,2.784466,0.118519,0.41918,0.51187
1702327759117187,-9.489257,0.473161,2.800466,0.117219,0.47218,0.46187
1702327759125000,-9.493257,0.491161,2.780466,0.115519,0.39118,0.47887
1702327759132812,-9.460257,0.517161,2.750466,0.107019,0.43518,0.36787
1702327759140625,-9.465257,0.528161,2.746466,0.107019,0.45118,0.31887
1702327759148437,-9.487257,0.549161,2.757466,0.97019,0.46418,0.25587
1702327759156250,-9.503257,0.556161,2.764466,0.98419,0.48018,0.11187
1702327759164062,-9.506257,0.586161,2.748466,0.97219,0.44018,0.6187
1702327759171875,-9.518257,0.615161,2.750466,0.94219,0.43118,0.2013
1702327759179687,-9.504257,0.635161,2.707466,0.100219,0.36418,0.13113
1702327759187500,-9.495257,0.649161,2.676466,0.91519,0.29318,0.22413
1702327759195312,-9.493257,0.653161,2.664466,0.95119,0.25318,0.30613
1702327759203125,-9.481257,0.656161,2.667466,0.81419,0.14718,0.33513
1702327759210937,-9.477257,0.650161,2.669466,0.73819,0.14118,0.40213
1702327759218750,-9.473257,0.644161,2.664466,0.67519,0.20718,0.43513
1702327759226562,-9.473257,0.645161,2.673466,0.61419,0.16718,0.50113
1702327759234375,-9.462257,0.630161,2.678466,0.55019,0.1118,0.48513
1702327759242187,-9.419257,0.641161,2.651466,0.46619,0.5782,0.49913
1702327759250000,-9.414257,0.652161,2.662466,0.41219,0.6682,0.51213
1702327759257812,-9.391257,0.662161,2.653466,0.29319,0.3282,0.58213
1702327759265625,-9.381257,0.694161,2.619466,0.10619,0.20382,0.62513
1702327759273437,-9.407257,0.705161,2.608466,0.12719,0.21282,0.61113
1702327759281250,-9.402257,0.715161,2.610466,0.1419,0.13182,0.66013
1702327759289062,-9.398257,0.724161,2.608466,0.9881,0.16282,0.70813
1702327759296875,-9.397257,0.716161,2.624466,0.12181,0.6282,0.77013
1702327759304687,-9.371257,0.704161,2.630466,0.19481,0.5082,0.75713
1702327759312500,-9.354257,0.703161,2.606466,0.31981,0.2982,0.72713
1702327759320312,-9.349257,0.697161,2.565466,0.42081,0.5082,0.74113
1702327759328125,-9.328257,0.678161,2.524466,0.41981,0.82,0.77413
1702327759335937,-9.336257,0.652161,2.475466,0.51981,0.818,0.75613
1702327759343750,-9.348257,0.650161,2.475466,0.53481,0.7318,0.75713
1702327759351562,-9.383257,0.635161,2.459466,0.45681,0.17918,0.77213
1702327759359375,-9.463257,0.631161,2.486466,0.46381,0.4318,0.80013
1702327759367187,-9.528257,0.629161,2.545466,0.34781,0.8018,0.80213
1702327759375000,-9.544257,0.598161,2.429466,0.50681,0.16118,0.78713
1702327759382812,-9.577257,0.559161,2.400466,0.44181,0.118,0.65813
1702327759390625,-9.629257,0.575161,2.570466,0.27981,0.10382,0.77113
1702327759398437,-9.651257,0.605161,2.601466,0.4181,0.17482,0.72113
1702327759406250,-9.615257,0.611161,2.436466,0.4181,0.30282,0.64013
1702327759414062,-9.593257,0.615161,2.454466,0.6781,0.48482,0.54613
1702327759421875,-9.561257,0.637161,2.411466,0.5481,0.49082,0.49613
1702327759429687,-9.539257,0.645161,2.445466,0.1019,0.52282,0.41513
1702327759437500,-9.544257,0.681161,2.504466,0.18819,0.53782,0.41513
1702327759445312,-9.552257,0.698161,2.520466,0.33719,0.62482,0.45013
1702327759453125,-9.583257,0.703161,2.538466,0.44819,0.65782,0.49713
1702327759460937,-9.635257,0.710161,2.594466,0.34019,0.52482,0.51613
1702327759468750,-9.697257,0.671161,2.655466,0.35819,0.55282,0.48413
1702327759476562,-9.697257,0.674161,2.705466,0.27119,0.37582,0.43313
1702327759484375,-9.684257,0.683161,2.664466,0.19219,0.50082,0.40113
1702327759492187,-9.668257,0.680161,2.606466,0.20719,0.56582,0.33613
1702327759500000,-9.666257,0.702161,2.556466,0.17919,0.56082,0.29013
1702327759507812,-9.666257,0.706161,2.529466,0.23019,0.65082,0.32313
1702327759515625,-9.671257,0.704161,2.554466,0.18219,0.65082,0.30713
1702327759523437,-9.660257,0.709161,2.590466,0.219,0.65382,0.32213
1702327759531250,-9.635257,0.699161,2.597466,0.5681,0.62882,0.35713
1702327759539062,-9.615257,0.672161,2.599466,0.12281,0.66382,0.29213
1702327759546875,-9.580257,0.668161,2.594466,0.10181,0.72882,0.35113
1702327759554687,-9.533257,0.667161,2.581466,0.6281,0.78182,0.28913
1702327759562500,-9.502257,0.669161,2.565466,0.4781,0.89382,0.27213
1702327759570312,-9.489257,0.662161,2.554466,0.6081,0.96482,0.32313
1702327759578125,-9.467257,0.683161,2.556466,0.5819,0.93982,0.32513
1702327759585937,-9.451257,0.706161,2.576466,0.8319,0.93682,0.27413
1702327759593750,-9.388257,0.705161,2.599466,0.14519,0.91282,0.20713
1702327759601562,-9.355257,0.707161,2.624466,0.19419,0.79982,0.25613
1702327759609375,-9.330257,0.704161,2.626466,0.21219,0.84382,0.20913
1702327759617187,-9.307257,0.704161,2.599466,0.18019,0.91082,0.8013
1702327759625000,-9.302257,0.682161,2.612466,0.37219,0.88182,0.4713
1702327759632812,-9.305257,0.648161,2.628466,0.47619,0.91982,0.213
1702327759640625,-9.305257,0.614161,2.628466,0.53019,0.95682,0.513
1702327759648437,-9.324257,0.582161,2.639466,0.50919,0.95082,0.4587
1702327759656250,-9.345257,0.554161,2.628466,0.61719,0.97682,0.11287
1702327759664062,-9.368257,0.530161,2.660466,0.73219,0.106682,0.11187
1702327759671875,-9.379257,0.508161,2.646466,0.75119,0.98582,0.19087
1702327759679687,-9.372257,0.500161,2.635466,0.85319,0.101182,0.31787
1702327759687500,-9.354257,0.509161,2.653466,0.79019,0.113682,0.36587
1702327759695312,-9.337257,0.531161,2.680466,0.77719,0.114982,0.44487
1702327759703125,-9.311257,0.554161,2.698466,0.65119,0.114782,0.53987
1702327759710937,-9.281257,0.546161,2.675466,0.53319,0.101782,0.73587
1702327759718750,-9.180257,0.526161,2.603466,0.47319,0.93482,0.78187
1702327759726562,-9.51257,0.611161,2.583466,0.66319,0.101782,0.76787
1702327759734375,-8.944257,0.642161,2.598466,0.80919,0.85882,0.73487
1702327759742187,-8.954257,0.651161,2.510466,0.73219,0.82182,0.76487
1702327759750000,-9.43257,0.653161,2.398466,0.71119,0.87382,0.62287
1702327759757812,-9.171257,0.677161,2.382466,0.91319,0.76882,0.38387
1702327759765625,-9.296257,0.677161,2.551466,0.97719,0.67582,0.35187
1702327759773437,-9.448257,0.662161,2.705466,0.97119,0.44782,0.30587
1702327759781250,-9.627257,0.648161,2.748466,0.108919,0.29882,0.30287
1702327759789062,-9.793257,0.613161,2.739466,0.117219,0.31082,0.31787
1702327759796875,-9.893257,0.588161,2.687466,0.122219,0.29282,0.33387
1702327759804687,-9.927257,0.559161,2.626466,0.117719,0.33282,0.28387
1702327759812500,-9.902257,0.544161,2.574466,0.119119,0.47982,0.36487
1702327759820312,-9.850257,0.523161,2.547466,0.112519,0.45182,0.43087
1702327759828125,-9.790257,0.532161,2.543466,0.92119,0.53282,0.45187
1702327759835937,-9.746257,0.570161,2.561466,0.87219,0.55282,0.58087
1702327759843750,-9.683257,0.611161,2.579466,0.78919,0.56282,0.60687
1702327759851562,-9.603257,0.639161,2.603466,0.75919,0.55982,0.65387
1702327759859375,-9.553257,0.661161,2.662466,0.67319,0.61582,0.65687
1702327759867187,-9.512257,0.699161,2.687466,0.70819,0.54682,0.59087
1702327759875000,-9.481257,0.755161,2.673466,0.70519,0.64682,0.56087
1702327759882812,-9.459257,0.787161,2.694466,0.69119,0.70182,0.42987
1702327759890625,-9.437257,0.825161,2.682466,0.63619,0.72582,0.30487
1702327759898437,-9.401257,0.851161,2.664466,0.56819,0.77482,0.22587
1702327759906250,-9.382257,0.868161,2.687466,0.47919,0.77382,0.2787
1702327759914062,-9.378257,0.857161,2.694466,0.47719,0.80782,0.313
1702327759921875,-9.375257,0.842161,2.671466,0.40419,0.81582,0.24013
1702327759929687,-9.377257,0.826161,2.642466,0.20919,0.86182,0.35313
1702327759937500,-9.374257,0.786161,2.619466,0.22519,0.84182,0.51413
1702327759945312,-9.369257,0.757161,2.619466,0.9819,0.83882,0.53113
1702327759953125,-9.346257,0.730161,2.642466,0.1581,0.88582,0.57913
1702327759960937,-9.328257,0.706161,2.646466,0.4981,0.82682,0.57813
1702327759968750,-9.321257,0.681161,2.644466,0.4781,0.79282,0.54713
1702327759976562,-9.316257,0.664161,2.644466,0.8281,0.74882,0.57813
1702327759984375,-9.327257,0.651161,2.653466,0.22781,0.79582,0.53013
1702327759992187,-9.327257,0.642161,2.673466,0.35981,0.81782,0.52813
1702327760000000,-9.343257,0.628161,2.671466,0.46381,0.78682,0.54913
1702327760007812,-9.376257,0.623161,2.671466,0.50181,0.81582,0.40113
1702327760015625,-9.405257,0.612161,2.685466,0.55281,0.77282,0.40013
1702327760023437,-9.427257,0.602161,2.732466,0.58581,0.74482,0.33413
1702327760031250,-9.442257,0.584161,2.748466,0.56581,0.75482,0.30413
1702327760039062,-9.447257,0.562161,2.768466,0.65781,0.81082,0.25813
1702327760046875,-9.426257,0.546161,2.782466,0.61181,0.84882,0.17613
1702327760054687,-9.390257,0.519161,2.798466,0.77181,0.84582,0.14513
1702327760062500,-9.383257,0.517161,2.793466,0.78781,0.92782,0.9613
1702327760070312,-9.341257,0.527161,2.779466,0.78181,0.96582,0.1913
1702327760078125,-9.316257,0.521161,2.759466,0.83981,0.96582,0.1413
1702327760085937,-9.298257,0.529161,2.741466,0.78581,0.97182,0.4913
1702327760093750,-9.264257,0.522161,2.709466,0.84281,0.101882,0.387
1702327760101562,-9.285257,0.521161,2.739466,0.73481,0.90682,0.213
1702327760109375,-9.294257,0.524161,2.752466,0.77181,0.84982,0.6413
1702327760117187,-9.309257,0.521161,2.757466,0.66681,0.90882,0.9213
1702327760125000,-9.343257,0.520161,2.766466,0.60881,0.83182,0.1713
1702327760132812,-9.391257,0.527161,2.770466,0.58781,0.72882,0.5113
1702327760140625,-9.446257,0.520161,2.782466,0.43181,0.65982,0.0
1702327760148437,-9.502257,0.512161,2.773466,0.30281,0.70582,0.4913
1702327760156250,-9.533257,0.495161,2.789466,0.22581,0.65082,0.1687
1702327760164062,-9.558257,0.488161,2.782466,0.22181,0.67482,0.1587
1702327760171875,-9.557257,0.484161,2.775466,0.23881,0.74082,0.3187
1702327760179687,-9.556257,0.494161,2.766466,0.8181,0.72282,0.9087
1702327760187500,-9.531257,0.487161,2.777466,0.5581,0.68482,0.9387
1702327760195312,-9.500257,0.487161,2.798466,0.881,0.68782,0.7887
1702327760203125,-9.484257,0.498161,2.861466,0.5619,0.67282,0.11087
1702327760210937,-9.456257,0.522161,2.850466,0.17019,0.63782,0.9387
1702327760218750,-9.426257,0.522161,2.725466,0.14819,0.63182,0.11287
1702327760226562,-9.413257,0.546161,2.761466,0.3919,0.56382,0.14287
1702327760234375,-9.414257,0.594161,2.910466,0.23119,0.69082,0.7987
1702327760242187,-9.379257,0.649161,2.962466,0.47419,0.75282,0.7887
1702327760250000,-9.341257,0.663161,2.899466,0.44619,0.69682,0.6087
1702327760257812,-9.312257,0.663161,2.829466,0.36419,0.55582,0.313
1702327760265625,-9.314257,0.666161,2.770466,0.19719,0.56582,0.1587
1702327760273437,-9.285257,0.656161,2.858466,0.27919,0.57682,0.9813
1702327760281250,-9.267257,0.642161,2.795466,0.32919,0.53882,0.19613
1702327760289062,-9.249257,0.620161,2.755466,0.39519,0.47282,0.26113
1702327760296875,-9.244257,0.596161,2.834466,0.29519,0.35182,0.29213
1702327760304687,-9.252257,0.581161,2.856466,0.27519,0.29582,0.27413
1702327760312500,-9.250257,0.572161,2.813466,0.22619,0.5882,0.32313
1702327760320312,-9.215257,0.591161,2.811466,0.16219,0.12182,0.33913
1702327760328125,-9.174257,0.586161,2.824466,0.17519,0.1582,0.30513
1702327760335937,-9.132257,0.617161,2.791466,0.7719,0.1882,0.32113
1702327760343750,-9.113257,0.646161,2.716466,0.12119,0.4618,0.23013
1702327760351562,-9.162257,0.670161,2.617466,0.17519,0.3482,0.20813
1702327760359375,-9.240257,0.669161,2.560466,0.24319,0.5982,0.24213
1702327760367187,-9.312257,0.647161,2.619466,0.37519,0.3782,0.27613
1702327760375000,-9.419257,0.639161,2.714466,0.40019,0.6582,0.25613
1702327760382812,-9.540257,0.613161,2.755466,0.42219,0.5618,0.37213
1702327760390625,-9.641257,0.588161,2.802466,0.47019,0.18118,0.35613
1702327760398437,-9.736257,0.566161,2.829466,0.43419,0.6218,0.27313
1702327760406250,-9.787257,0.565161,2.820466,0.41619,0.3482,0.25613
1702327760414062,-9.792257,0.567161,2.811466,0.33719,0.17482,0.20813
1702327760421875,-9.763257,0.580161,2.764466,0.26019,0.17282,0.11313
1702327760429687,-9.725257,0.608161,2.730466,0.24719,0.30982,0.1813
1702327760437500,-9.666257,0.640161,2.737466,0.10319,0.38882,0.213
1702327760445312,-9.574257,0.665161,2.771466,0.6281,0.42582,0.3213
1702327760453125,-9.496257,0.686161,2.793466,0.7381,0.35382,0.3513
1702327760460937,-9.425257,0.705161,2.825466,0.8881,0.40082,0.3513
1702327760468750,-9.387257,0.724161,2.845466,0.17381,0.40282,0.19513
1702327760476562,-9.365257,0.737161,2.834466,0.21981,0.36582,0.26113
1702327760484375,-9.338257,0.737161,2.831466,0.25881,0.38982,0.38613
1702327760492187,-9.326257,0.728161,2.800466,0.33781,0.40182,0.41913
1702327760500000,-9.319257,0.710161,2.770466,0.37381,0.41982,0.57813
1702327760507812,-9.326257,0.708161,2.743466,0.38981,0.37282,0.53013
1702327760515625,-9.330257,0.679161,2.707466,0.48981,0.39082,0.65813
1702327760523437,-9.321257,0.664161,2.691466,0.50481,0.35682,0.67513
1702327760531250,-9.307257,0.650161,2.662466,0.58381,0.33782,0.74013
1702327760539062,-9.311257,0.635161,2.666466,0.60481,0.29682,0.73813
1702327760546875,-9.311257,0.619161,2.660466,0.60181,0.7382,0.69113
1702327760554687,-9.312257,0.584161,2.556466,0.60681,0.8282,0.67213
1702327760562500,-9.297257,0.599161,2.540466,0.44281,0.15782,0.67313
1702327760570312,-9.286257,0.597161,2.565466,0.30181,0.16282,0.67113
1702327760578125,-9.314257,0.569161,2.603466,0.36481,0.2082,0.60813
1702327760585937,-9.336257,0.568161,2.617466,0.45081,0.6082,0.63713
1702327760593750,-9.348257,0.587161,2.585466,0.46181,0.7218,0.56013
1702327760601562,-9.347257,0.597161,2.621466,0.45281,0.3718,0.53213
1702327760609375,-9.349257,0.602161,2.596466,0.38781,0.618,0.50013
1702327760617187,-9.372257,0.622161,2.578466,0.38781,0.618,0.51613
1702327760625000,-9.394257,0.634161,2.587466,0.36481,0.2482,0.51113
1702327760632812,-9.414257,0.641161,2.599466,0.34781,0.8682,0.47913
1702327760640625,-9.394257,0.663161,2.603466,0.23581,0.3982,0.49513
1702327760648437,-9.379257,0.673161,2.585466,0.22581,0.10182,0.51613
1702327760656250,-9.382257,0.693161,2.558466,0.27481,0.7082,0.50013
1702327760664062,-9.401257,0.696161,2.502466,0.18481,0.17682,0.51213
1702327760671875,-9.462257,0.699161,2.452466,0.6681,0.13582,0.54713
1702327760679687,-9.506257,0.680161,2.468466,0.12119,0.14482,0.54413
1702327760687500,-9.517257,0.665161,2.504466,0.18619,0.6682,0.52813
1702327760695312,-9.558257,0.669161,2.567466,0.23719,0.1382,0.53013
1702327760703125,-9.578257,0.667161,2.567466,0.38419,0.3618,0.57913
1702327760710937,-9.603257,0.673161,2.570466,0.30019,0.4518,0.51313
1702327760718750,-9.622257,0.692161,2.551466,0.38919,0.2082,0.48513
1702327760726562,-9.624257,0.701161,2.520466,0.47019,0.3582,0.50113
1702327760734375,-9.604257,0.705161,2.524466,0.45019,0.10382,0.48313
1702327760742187,-9.599257,0.705161,2.565466,0.46819,0.27582,0.43513
1702327760750000,-9.561257,0.705161,2.619466,0.46819,0.29582,0.30613
1702327760757812,-9.546257,0.697161,2.633466,0.50719,0.36382,0.29313
1702327760765625,-9.521257,0.706161,2.610466,0.45319,0.29182,0.32313
1702327760773437,-9.482257,0.724161,2.621466,0.53019,0.42682,0.24013
1702327760781250,-9.455257,0.747161,2.599466,0.52319,0.44182,0.30913
1702327760789062,-9.412257,0.782161,2.590466,0.45619,0.49482,0.25913
1702327760796875,-9.421257,0.812161,2.563466,0.57919,0.53482,0.30413
1702327760804687,-9.440257,0.833161,2.538466,0.57019,0.50682,0.29213
1702327760812500,-9.471257,0.847161,2.542466,0.63119,0.52882,0.29013
1702327760820312,-9.478257,0.854161,2.558466,0.69619,0.41582,0.38713
1702327760828125,-9.503257,0.854161,2.567466,0.58919,0.42282,0.37413
1702327760835937,-9.534257,0.852161,2.556466,0.61719,0.31982,0.32413
1702327760843750,-9.569257,0.832161,2.531466,0.72319,0.33482,0.40913
1702327760851562,-9.586257,0.808161,2.522466,0.60519,0.31382,0.27813
1702327760859375,-9.611257,0.777161,2.529466,0.59319,0.33182,0.33613
1702327760867187,-9.636257,0.759161,2.538466,0.61819,0.33582,0.27613
1702327760875000,-9.649257,0.746161,2.545466,0.63319,0.33582,0.30813
1702327760882812,-9.680257,0.729161,2.572466,0.48819,0.38582,0.22713
1702327760890625,-9.705257,0.713161,2.606466,0.49219,0.45782,0.19713
1702327760898437,-9.715257,0.716161,2.642466,0.51819,0.50182,0.11313
1702327760906250,-9.696257,0.711161,2.664466,0.44619,0.55282,0.2013
1702327760914062,-9.665257,0.708161,2.689466,0.43219,0.53382,0.513
1702327760921875,-9.614257,0.702161,2.676466,0.35719,0.56882,0.4887
1702327760929687,-9.570257,0.710161,2.633466,0.29419,0.66282,0.11287
1702327760937500,-9.541257,0.695161,2.628466,0.18719,0.76282,0.9387
1702327760945312,-9.505257,0.702161,2.603466,0.12219,0.73182,0.10987
1702327760953125,-9.479257,0.708161,2.599466,0.4319,0.72882,0.9287
1702327760960937,-9.438257,0.701161,2.601466,0.7581,0.72182,0.0
1702327760968750,-9.395257,0.689161,2.592466,0.4281,0.60982,0.113
1702327760976562,-9.363257,0.693161,2.596466,0.14381,0.56982,0.1687
1702327760984375,-9.323257,0.680161,2.601466,0.9781,0.54082,0.187
1702327760992187,-9.309257,0.666161,2.592466,0.20881,0.52282,0.0
1702327761000000,-9.303257,0.634161,2.558466,0.15381,0.48782,0.12413
1702327761007812,-9.333257,0.605161,2.524466,0.25781,0.50682,0.3113
1702327761015625,-9.344257,0.569161,2.515466,0.32181,0.54982,0.19313
1702327761023437,-9.357257,0.531161,2.515466,0.29981,0.55582,0.18013
1702327761031250,-9.381257,0.496161,2.517466,0.39481,0.54182,0.5113
1702327761039062,-9.372257,0.485161,2.520466,0.33281,0.54482,0.3413
1702327761046875,-9.379257,0.465161,2.565466,0.29781,0.55682,0.1913
1702327761054687,-9.387257,0.443161,2.585466,0.36281,0.66982,0.4587
1702327761062500,-9.389257,0.443161,2.576466,0.33181,0.68782,0.6287
1702327761070312,-9.387257,0.448161,2.587466,0.30181,0.67582,0.3187
1702327761078125,-9.362257,0.448161,2.594466,0.31881,0.83482,0.9587
1702327761085937,-9.338257,0.458161,2.626466,0.29681,0.87182,0.9387
1702327761093750,-9.298257,0.484161,2.628466,0.34381,0.81082,0.17387
1702327761101562,-9.218257,0.494161,2.624466,0.35981,0.82582,0.17387
1702327761109375,-9.160257,0.523161,2.603466,0.35681,0.78882,0.15587
1702327761117187,-9.100257,0.569161,2.558466,0.36081,0.76382,0.12587
1702327761125000,-9.61257,0.574161,2.413466,0.41481,0.61382,0.9587
1702327761132812,-9.98257,0.578161,2.429466,0.30081,0.60982,0.4687
1702327761140625,-9.160257,0.618161,2.578466,0.8381,0.55082,0.513
1702327761148437,-9.212257,0.631161,2.574466,0.11319,0.52082,0.11213
1702327761156250,-9.306257,0.608161,2.493466,0.16319,0.45182,0.21013
1702327761164062,-9.389257,0.598161,2.484466,0.16219,0.35882,0.25813
1702327761171875,-9.489257,0.558161,2.466466,0.16219,0.29582,0.25813
1702327761179687,-9.565257,0.537161,2.527466,0.30819,0.30782,0.33913
1702327761187500,-9.634257,0.523161,2.520466,0.44619,0.33582,0.30313
1702327761195312,-9.703257,0.479161,2.504466,0.44019,0.28882,0.29213
1702327761203125,-9.782257,0.464161,2.592466,0.32919,0.30182,0.26113
1702327761210937,-9.842257,0.461161,2.665466,0.21019,0.29582,0.24213
1702327761218750,-9.845257,0.485161,2.685466,0.13519,0.27182,0.26113
1702327761226562,-9.827257,0.516161,2.665466,0.1481,0.31282,0.21013
1702327761234375,-9.787257,0.546161,2.678466,0.2219,0.33782,0.14713
1702327761242187,-9.739257,0.596161,2.671466,0.881,0.35382,0.5113
1702327761250000,-9.661257,0.629161,2.646466,0.3619,0.46882,0.3313
1702327761257812,-9.592257,0.669161,2.603466,0.4019,0.46282,0.3513
1702327761265625,-9.556257,0.700161,2.570466,0.1919,0.39082,0.8113
1702327761273437,-9.528257,0.708161,2.585466,0.3981,0.45882,0.16413
1702327761281250,-9.525257,0.702161,2.590466,0.6281,0.35882,0.21013
1702327761289062,-9.539257,0.693161,2.588466,0.4481,0.33682,0.30813
1702327761296875,-9.545257,0.669161,2.585466,0.7781,0.33582,0.38813
1702327761304687,-9.552257,0.644161,2.615466,0.5681,0.27982,0.48713
1702327761312500,-9.562257,0.610161,2.617466,0.5081,0.31082,0.49813
1702327761320312,-9.542257,0.589161,2.606466,0.4781,0.28882,0.53213
1702327761328125,-9.530257,0.574161,2.574466,0.8081,0.33882,0.51513
1702327761335937,-9.496257,0.562161,2.565466,0.22981,0.39182,0.49713
1702327761343750,-9.453257,0.559161,2.574466,0.25981,0.43482,0.49813
1702327761351562,-9.393257,0.558161,2.565466,0.25781,0.52582,0.51513
1702327761359375,-9.331257,0.566161,2.554466,0.30281,0.58482,0.46813
1702327761367187,-9.307257,0.585161,2.574466,0.21981,0.58182,0.45313
1702327761375000,-9.291257,0.592161,2.567466,0.27181,0.54182,0.40313
1702327761382812,-9.280257,0.589161,2.563466,0.23581,0.51982,0.40513
1702327761390625,-9.295257,0.592161,2.558466,0.32081,0.51082,0.40313
1702327761398437,-9.329257,0.595161,2.542466,0.26981,0.49282,0.34013
1702327761406250,-9.376257,0.577161,2.536466,0.29881,0.48582,0.40613
1702327761414062,-9.452257,0.577161,2.527466,0.31981,0.55782,0.37113
1702327761421875,-9.505257,0.529161,2.549466,0.47981,0.57082,0.37213
1702327761429687,-9.547257,0.502161,2.572466,0.50781,0.59482,0.40613
1702327761437500,-9.569257,0.468161,2.570466,0.57281,0.62982,0.29313
1702327761445312,-9.587257,0.454161,2.590466,0.56781,0.71382,0.36013
1702327761453125,-9.593257,0.446161,2.610466,0.55581,0.84782,0.27713
1702327761460937,-9.566257,0.455161,2.624466,0.62981,0.92582,0.32113
1702327761468750,-9.550257,0.471161,2.673466,0.64581,0.94482,0.19113
1702327761476562,-9.503257,0.434161,2.603466,0.81781,0.84682,0.1713
1702327761484375,-9.445257,0.447161,2.547466,0.60781,0.95582,0.3313
1702327761492187,-9.395257,0.487161,2.601466,0.50481,0.99282,0.2013
1702327761500000,-9.339257,0.488161,2.628466,0.56081,0.104282,0.787
1702327761507812,-9.322257,0.471161,2.626466,0.55681,0.104582,0.213
1702327761515625,-9.299257,0.483161,2.619466,0.54681,0.103082,0.887
1702327761523437,-9.267257,0.485161,2.626466,0.56281,0.104582,0.713
1702327761531250,-9.231257,0.501161,2.621466,0.52381,0.101482,0.2987
1702327761539062,-9.205257,0.507161,2.614466,0.39181,0.94682,0.4387
1702327761546875,-9.176257,0.519161,2.603466,0.32181,0.95282,0.713
1702327761554687,-9.191257,0.531161,2.576466,0.29481,0.94682,0.4387
1702327761562500,-9.211257,0.534161,2.529466,0.36481,0.101782,0.4687
1702327761570312,-9.249257,0.519161,2.511466,0.28581,0.102082,0.0
1702327761578125,-9.283257,0.503161,2.517466,0.24581,0.100882,0.1187
1702327761585937,-9.339257,0.493161,2.520466,0.14881,0.103882,0.413
1702327761593750,-9.401257,0.487161,2.520466,0.3481,0.88082,0.1087
1702327761601562,-9.470257,0.487161,2.560466,0.7881,0.96082,0.0
1702327761609375,-9.565257,0.492161,2.608466,0.2719,0.89882,0.3613
1702327761617187,-9.632257,0.507161,2.635466,0.10619,0.93282,0.1913
1702327761625000,-9.699257,0.506161,2.660466,0.7019,0.96982,0.3313
1702327761632812,-9.736257,0.517161,2.714466,0.20719,0.89582,0.2113
1702327761640625,-9.758257,0.510161,2.791466,0.16019,0.90782,0.3813
1702327761648437,-9.780257,0.520161,2.843466,0.20519,0.91382,0.2013
1702327761656250,-9.796257,0.534161,2.881466,0.18319,0.81482,0.1487
1702327761664062,-9.812257,0.538161,2.899466,0.12419,0.91382,0.3613
1702327761671875,-9.772257,0.548161,2.886466,0.381,0.94182,0.11713
1702327761679687,-9.754257,0.584161,2.793466,0.3981,0.93282,0.5113
1702327761687500,-9.725257,0.608161,2.805466,0.7281,0.102982,0.213
1702327761695312,-9.690257,0.602161,2.836466,0.5381,0.99182,0.10013
1702327761703125,-9.649257,0.604161,2.793466,0.18481,0.97982,0.6713
1702327761710937,-9.623257,0.601161,2.802466,0.24681,0.105482,0.6813
1702327761718750,-9.591257,0.590161,2.888466,0.32481,0.106682,0.5313
1702327761726562,-9.546257,0.599161,2.838466,0.28381,0.117282,0.3313
1702327761734375,-9.468257,0.605161,2.816466,0.24481,0.125282,0.14913
1702327761742187,-9.424257,0.606161,2.829466,0.9381,0.127482,0.18413
1702327761750000,-9.350257,0.604161,2.886466,0.11581,0.129882,0.23013
1702327761757812,-9.289257,0.625161,2.854466,0.3781,0.127082,0.29313
1702327761765625,-9.256257,0.606161,2.870466,0.8381,0.124882,0.34313
1702327761773437,-9.233257,0.600161,2.856466,0.11781,0.128182,0.42213
1702327761781250,-9.210257,0.593161,2.858466,0.5981,0.129082,0.43513
1702327761789062,-9.230257,0.558161,2.874466,0.10381,0.130082,0.42113
1702327761796875,-9.261257,0.545161,2.886466,0.5881,0.133782,0.38713
1702327761804687,-9.301257,0.535161,2.931466,0.4181,0.131882,0.50013
1702327761812500,-9.336257,0.507161,2.899466,0.6081,0.132582,0.41813
1702327761820312,-9.370257,0.523161,2.877466,0.2581,0.133882,0.35513
1702327761828125,-9.399257,0.525161,2.881466,0.619,0.132282,0.35513
1702327761835937,-9.419257,0.527161,2.879466,0.1681,0.136682,0.30313
1702327761843750,-9.428257,0.533161,2.910466,0.1919,0.131382,0.28913
1702327761851562,-9.425257,0.541161,2.924466,0.1319,0.128282,0.23013
1702327761859375,-9.396257,0.531161,2.879466,0.1781,0.127982,0.24713
1702327761867187,-9.371257,0.524161,2.881466,0.419,0.128982,0.13613
1702327761875000,-9.338257,0.536161,2.879466,0.4481,0.133682,0.21713
1702327761882812,-9.308257,0.550161,2.872466,0.6781,0.130282,0.13213
1702327761890625,-9.273257,0.552161,2.892466,0.18281,0.125582,0.19713
1702327761898437,-9.240257,0.557161,2.915466,0.25781,0.121582,0.21513
1702327761906250,-9.199257,0.562161,2.924466,0.31281,0.116582,0.13113
1702327761914062,-9.186257,0.559161,2.940466,0.29381,0.105082,0.14913
1702327761921875,-9.177257,0.570161,2.926466,0.30881,0.99682,0.27913
1702327761929687,-9.156257,0.562161,2.917466,0.30181,0.95082,0.24213
1702327761937500,-9.156257,0.565161,2.892466,0.31281,0.94082,0.26113
1702327761945312,-9.154257,0.574161,2.870466,0.32981,0.81682,0.26113
1702327761953125,-9.176257,0.570161,2.872466,0.33381,0.82282,0.35513
1702327761960937,-9.198257,0.558161,2.883466,0.32281,0.78182,0.36913
1702327761968750,-9.223257,0.540161,2.904466,0.34981,0.70982,0.42013
1702327761976562,-9.250257,0.523161,2.913466,0.30181,0.70982,0.40413
1702327761984375,-9.264257,0.522161,2.913466,0.29381,0.69682,0.44013
1702327761992187,-9.288257,0.517161,2.917466,0.31881,0.67882,0.46813
1702327762000000,-9.292257,0.490161,2.931466,0.33481,0.64782,0.45213
1702327762007812,-9.294257,0.480161,2.942466,0.37081,0.66882,0.49913
1702327762015625,-9.305257,0.473161,2.931466,0.28881,0.64982,0.53213
1702327762023437,-9.328257,0.475161,2.971466,0.20281,0.69082,0.43713
1702327762031250,-9.332257,0.482161,3.3466,0.24181,0.57582,0.43413
1702327762039062,-9.337257,0.475161,2.870466,0.28281,0.48582,0.40613
1702327762046875,-9.342257,0.499161,2.895466,0.13581,0.46682,0.42313
1702327762054687,-9.366257,0.540161,3.32466,0.1381,0.55682,0.41913
1702327762062500,-9.362257,0.569161,3.48466,0.5119,0.60382,0.40313
1702327762070312,-9.329257,0.597161,2.996466,0.7019,0.54982,0.48513
1702327762078125,-9.305257,0.598161,2.906466,0.10519,0.49682,0.48713
1702327762085937,-9.283257,0.627161,2.836466,0.1381,0.44482,0.48413
1702327762093750,-9.285257,0.623161,2.940466,0.1681,0.41582,0.54713
1702327762101562,-9.296257,0.632161,2.931466,0.13019,0.33482,0.59613
1702327762109375,-9.309257,0.621161,2.951466,0.20519,0.33982,0.70713
1702327762117187,-9.350257,0.606161,3.62466,0.16319,0.29582,0.77513
1702327762125000,-9.409257,0.570161,3.116466,0.14119,0.14982,0.77213
1702327762132812,-9.440257,0.553161,3.80466,0.15119,0.9682,0.72113
1702327762140625,-9.456257,0.566161,3.17466,0.14119,0.4182,0.65913
1702327762148437,-9.471257,0.583161,2.967466,0.21219,0.9382,0.67813
1702327762156250,-9.498257,0.592161,2.951466,0.23319,0.9982,0.69713
1702327762164062,-9.487257,0.619161,2.983466,0.24719,0.9182,0.58313
1702327762171875,-9.488257,0.622161,2.942466,0.33819,0.22882,0.51513
1702327762179687,-9.480257,0.628161,2.911466,0.25819,0.35282,0.54713
1702327762187500,-9.469257,0.619161,2.947466,0.42319,0.36282,0.53313
1702327762195312,-9.460257,0.596161,2.951466,0.41219,0.41182,0.54413
1702327762203125,-9.425257,0.594161,2.926466,0.43419,0.38682,0.53013
1702327762210937,-9.394257,0.596161,2.915466,0.40119,0.35582,0.56313
1702327762218750,-9.383257,0.611161,2.942466,0.45219,0.30682,0.48313
1702327762226562,-9.363257,0.631161,2.967466,0.45019,0.35682,0.45013
1702327762234375,-9.350257,0.648161,2.967466,0.40619,0.36582,0.46813
1702327762242187,-9.351257,0.668161,2.960466,0.40719,0.28482,0.43713
1702327762250000,-9.346257,0.670161,2.953466,0.42219,0.33482,0.43613
1702327762257812,-9.340257,0.686161,2.940466,0.39019,0.33482,0.40413
1702327762265625,-9.330257,0.674161,2.919466,0.47119,0.31982,0.42013
1702327762273437,-9.332257,0.675161,2.913466,0.45219,0.30682,0.43513
1702327762281250,-9.337257,0.663161,2.906466,0.47119,0.31982,0.40413
1702327762289062,-9.348257,0.670161,2.913466,0.44019,0.28582,0.42113
1702327762296875,-9.345257,0.658161,2.895466,0.40419,0.34482,0.41113
1702327762304687,-9.346257,0.654161,2.910466,0.42619,0.28182,0.42213
1702327762312500,-9.349257,0.667161,2.888466,0.39819,0.32282,0.39213
1702327762320312,-9.349257,0.660161,2.879466,0.46319,0.32282,0.37613
1702327762328125,-9.349257,0.658161,2.874466,0.44519,0.34182,0.34313
1702327762335937,-9.357257,0.673161,2.847466,0.38819,0.29582,0.27413
1702327762343750,-9.364257,0.663161,2.840466,0.31619,0.32682,0.34313
1702327762351562,-9.356257,0.667161,2.849466,0.24419,0.42382,0.26613
1702327762359375,-9.371257,0.663161,2.858466,0.20519,0.54482,0.27913
1702327762367187,-9.377257,0.666161,2.825466,0.21519,0.52282,0.32413
1702327762375000,-9.385257,0.670161,2.838466,0.20419,0.43582,0.32713
1702327762382812,-9.378257,0.670161,2.899466,0.20019,0.41082,0.29313
1702327762390625,-9.350257,0.648161,2.831466,0.12019,0.34982,0.22913
1702327762398437,-9.317257,0.661161,2.664466,0.26419,0.35282,0.17913
1702327762406250,-9.298257,0.702161,2.793466,0.38319,0.33982,0.26413
1702327762414062,-9.313257,0.685161,2.886466,0.34319,0.24282,0.24413
1702327762421875,-9.349257,0.692161,2.865466,0.22919,0.19582,0.29213
1702327762429687,-9.345257,0.676161,2.800466,0.20719,0.28982,0.29613
1702327762437500,-9.344257,0.668161,2.773466,0.19619,0.28882,0.37213
1702327762445312,-9.359257,0.670161,2.809466,0.21319,0.27382,0.37213
1702327762453125,-9.413257,0.687161,2.843466,0.34019,0.29182,0.37113
1702327762460937,-9.438257,0.703161,2.816466,0.43819,0.38582,0.32313
1702327762468750,-9.454257,0.683161,2.813466,0.42319,0.28882,0.34013
1702327762476562,-9.470257,0.667161,2.825466,0.31819,0.27682,0.32813
1702327762484375,-9.474257,0.665161,2.816466,0.45819,0.36382,0.29313
1702327762492187,-9.458257,0.658161,2.786466,0.40919,0.28582,0.29313
1702327762500000,-9.460257,0.645161,2.773466,0.41219,0.40782,0.26213
1702327762507812,-9.465257,0.653161,2.780466,0.48119,0.43282,0.23213
1702327762515625,-9.455257,0.650161,2.784466,0.43919,0.46382,0.24313
1702327762523437,-9.457257,0.655161,2.804466,0.46819,0.42682,0.26613
1702327762531250,-9.449257,0.666161,2.840466,0.47019,0.46682,0.24213
1702327762539062,-9.428257,0.665161,2.843466,0.45219,0.46982,0.25713
1702327762546875,-9.433257,0.647161,2.847466,0.47619,0.52382,0.11613
1702327762554687,-9.442257,0.634161,2.852466,0.47819,0.54782,0.23013
1702327762562500,-9.442257,0.622161,2.847466,0.46419,0.53382,0.8513
1702327762570312,-9.430257,0.614161,2.861466,0.47819,0.50582,0.6813
1702327762578125,-9.417257,0.624161,2.847466,0.44819,0.51882,0.3713
1702327762585937,-9.394257,0.630161,2.829466,0.35819,0.56482,0.1713
1702327762593750,-9.393257,0.631161,2.816466,0.31919,0.53482,0.1087
1702327762601562,-9.379257,0.642161,2.798466,0.23719,0.55282,0.413
1702327762609375,-9.379257,0.647161,2.811466,0.20119,0.54382,0.1387
1702327762617187,-9.380257,0.641161,2.847466,0.22519,0.55582,0.87
1702327762625000,-9.361257,0.648161,2.856466,0.15219,0.48182,0.1387
1702327762632812,-9.344257,0.668161,2.852466,0.20019,0.49682,0.213
1702327762640625,-9.339257,0.663161,2.822466,0.15619,0.50682,0.1187
1702327762648437,-9.330257,0.659161,2.797466,0.13419,0.45382,0.113
1702327762656250,-9.325257,0.650161,2.800466,0.8619,0.43482,0.5013
1702327762664062,-9.301257,0.636161,2.793466,0.9019,0.36682,0.2013
1702327762671875,-9.293257,0.619161,2.777466,0.11719,0.32582,0.9813
1702327762679687,-9.289257,0.603161,2.773466,0.17019,0.31882,0.10013
1702327762687500,-9.291257,0.597161,2.768466,0.9819,0.34782,0.4813
1702327762695312,-9.293257,0.586161,2.775466,0.9919,0.29782,0.9713
1702327762703125,-9.312257,0.565161,2.784466,0.19119,0.32482,0.11913
1702327762710937,-9.331257,0.562161,2.807466,0.18419,0.33782,0.13113
1702327762718750,-9.356257,0.571161,2.827466,0.7119,0.33782,0.5113
1702327762726562,-9.372257,0.575161,2.827466,0.6019,0.39482,0.1087
1702327762734375,-9.385257,0.592161,2.843466,0.11619,0.37582,0.4913
1702327762742187,-9.394257,0.595161,2.843466,0.12419,0.36282,0.5313
1702327762750000,-9.395257,0.615161,2.822466,0.9019,0.39682,0.6813
1702327762757812,-9.422257,0.629161,2.791466,0.15319,0.39582,0.19713
1702327762765625,-9.422257,0.642161,2.784466,0.13819,0.34682,0.21313
1702327762773437,-9.432257,0.655161,2.802466,0.20819,0.34982,0.16013
1702327762781250,-9.437257,0.652161,2.840466,0.17519,0.31882,0.19213
1702327762789062,-9.453257,0.661161,2.870466,0.1819,0.27782,0.25913
1702327762796875,-9.462257,0.648161,2.890466,0.9919,0.26182,0.22613
1702327762804687,-9.471257,0.642161,2.856466,0.12919,0.17182,0.25813
1702327762812500,-9.455257,0.635161,2.818466,0.6519,0.15682,0.16113
1702327762820312,-9.455257,0.639161,2.786466,0.6919,0.27482,0.24313
1702327762828125,-9.456257,0.636161,2.809466,0.8919,0.31482,0.26213
1702327762835937,-9.456257,0.634161,2.825466,0.15419,0.37782,0.21313
1702327762843750,-9.450257,0.639161,2.845466,0.8219,0.45182,0.24213
1702327762851562,-9.463257,0.622161,2.831466,0.7519,0.49582,0.23813
1702327762859375,-9.472257,0.600161,2.843466,0.22319,0.44182,0.28813
1702327762867187,-9.479257,0.602161,2.870466,0.14919,0.52582,0.29113
1702327762875000,-9.485257,0.581161,2.901466,0.15619,0.55782,0.27013
1702327762882812,-9.479257,0.548161,2.913466,0.11819,0.56982,0.32413
1702327762890625,-9.474257,0.546161,2.915466,0.14819,0.65482,0.22613
1702327762898437,-9.472257,0.539161,2.915466,0.13719,0.58682,0.14813
1702327762906250,-9.470257,0.539161,3.12466,0.9219,0.62682,0.19813
1702327762914062,-9.433257,0.528161,2.949466,0.4181,0.57082,0.19613
1702327762921875,-9.397257,0.534161,2.777466,0.6081,0.54682,0.9813
1702327762929687,-9.365257,0.561161,2.827466,0.7919,0.68682,0.10313
1702327762937500,-9.338257,0.604161,3.3466,0.21619,0.80682,0.24313
1702327762945312,-9.305257,0.614161,2.998466,0.20219,0.71082,0.16413
1702327762953125,-9.250257,0.626161,2.874466,0.22319,0.68582,0.21513
1702327762960937,-9.206257,0.613161,2.779466,0.5819,0.67682,0.16513
1702327762968750,-9.186257,0.602161,2.795466,0.5781,0.66782,0.13113
1702327762976562,-9.170257,0.588161,2.897466,0.4181,0.55482,0.21213
1702327762984375,-9.155257,0.592161,2.913466,0.5781,0.50482,0.29313
1702327762992187,-9.163257,0.574161,2.940466,0.4381,0.53882,0.37213
1702327763000000,-9.177257,0.572161,2.994466,0.15581,0.45782,0.38913
1702327763007812,-9.210257,0.562161,2.978466,0.4881,0.35782,0.35413
1702327763015625,-9.228257,0.564161,2.901466,0.15681,0.39882,0.30813
1702327763023437,-9.233257,0.571161,2.840466,0.21981,0.48882,0.38913
1702327763031250,-9.269257,0.583161,2.843466,0.27081,0.39882,0.37213
1702327763039062,-9.322257,0.584161,2.863466,0.28781,0.40282,0.32313
1702327763046875,-9.361257,0.586161,2.865466,0.20181,0.36182,0.29413
1702327763054687,-9.411257,0.582161,2.827466,0.6581,0.38382,0.24813
1702327763062500,-9.456257,0.564161,2.825466,0.4881,0.43982,0.25713
1702327763070312,-9.483257,0.541161,2.847466,0.4081,0.42782,0.22913
1702327763078125,-9.505257,0.536161,2.877466,0.10881,0.51182,0.22713
1702327763085937,-9.529257,0.525161,2.886466,0.7681,0.53082,0.13013
1702327763093750,-9.529257,0.525161,2.879466,0.7781,0.49982,0.19413
1702327763101562,-9.502257,0.550161,2.870466,0.8281,0.52082,0.24013
1702327763109375,-9.481257,0.554161,2.870466,0.5581,0.43982,0.32613
1702327763117187,-9.445257,0.579161,2.883466,0.4281,0.53882,0.27613
1702327763125000,-9.416257,0.601161,2.906466,0.6381,0.42082,0.30613
1702327763132812,-9.368257,0.615161,2.906466,0.3981,0.40782,0.32613
1702327763140625,-9.332257,0.626161,2.895466,0.6081,0.41382,0.40413
1702327763148437,-9.300257,0.634161,2.881466,0.119,0.46382,0.41913
1702327763156250,-9.283257,0.647161,2.838466,0.6619,0.41682,0.38713
1702327763164062,-9.274257,0.640161,2.811466,0.15219,0.40682,0.42213
1702327763171875,-9.294257,0.647161,2.791466,0.22919,0.41282,0.45213
1702327763179687,-9.314257,0.637161,2.795466,0.38719,0.33782,0.48313
1702327763187500,-9.332257,0.627161,2.813466,0.45919,0.39082,0.43813
1702327763195312,-9.359257,0.610161,2.807466,0.47219,0.34782,0.43713
1702327763203125,-9.383257,0.607161,2.807466,0.45419,0.38182,0.46813
1702327763210937,-9.416257,0.596161,2.804466,0.50319,0.45882,0.45213
1702327763218750,-9.465257,0.597161,2.793466,0.56519,0.48082,0.40213
1702327763226562,-9.483257,0.593161,2.793466,0.51719,0.57482,0.41813
1702327763234375,-9.512257,0.585161,2.813466,0.48319,0.59282,0.41813
1702327763242187,-9.532257,0.576161,2.818466,0.53119,0.59282,0.40213
1702327763250000,-9.521257,0.598161,2.850466,0.56419,0.68682,0.41813
1702327763257812,-9.523257,0.592161,2.883466,0.62719,0.61182,0.35213
1702327763265625,-9.498257,0.619161,2.951466,0.55519,0.69382,0.27613
1702327763273437,-9.479257,0.615161,2.956466,0.45619,0.55682,0.25913
1702327763281250,-9.457257,0.619161,2.834466,0.47419,0.49582,0.9913
1702327763289062,-9.422257,0.662161,2.811466,0.68519,0.63182,0.24413
1702327763296875,-9.386257,0.673161,2.931466,0.72919,0.63782,0.29013
1702327763304687,-9.395257,0.693161,2.978466,0.69619,0.59082,0.29013
1702327763312500,-9.396257,0.700161,2.940466,0.65119,0.56882,0.30813
1702327763320312,-9.369257,0.715161,2.908466,0.63719,0.58082,0.32513
1702327763328125,-9.358257,0.706161,2.913466,0.56819,0.57182,0.32313
1702327763335937,-9.348257,0.702161,2.956466,0.49919,0.62882,0.28813
1702327763343750,-9.340257,0.710161,2.928466,0.47019,0.51382,0.25813
1702327763351562,-9.328257,0.724161,2.906466,0.49819,0.48882,0.24013
1702327763359375,-9.329257,0.739161,2.870466,0.43819,0.55982,0.25813
1702327763367187,-9.329257,0.734161,2.840466,0.35719,0.57582,0.30613
1702327763375000,-9.324257,0.732161,2.818466,0.27719,0.58782,0.40313
1702327763382812,-9.330257,0.729161,2.788466,0.26919,0.55282,0.41613
1702327763390625,-9.331257,0.717161,2.807466,0.21119,0.55582,0.48313
1702327763398437,-9.333257,0.715161,2.820466,0.21019,0.54382,0.45013
1702327763406250,-9.335257,0.728161,2.845466,0.19019,0.56582,0.46513
1702327763414062,-9.340257,0.740161,2.856466,0.20519,0.54982,0.49713
1702327763421875,-9.351257,0.742161,2.854466,0.15719,0.56582,0.46513
1702327763429687,-9.345257,0.738161,2.858466,0.21519,0.50282,0.46913
1702327763437500,-9.338257,0.732161,2.865466,0.8719,0.49982,0.51813
1702327763445312,-9.323257,0.738161,2.870466,0.4181,0.51582,0.50213
1702327763453125,-9.315257,0.730161,2.872466,0.8081,0.40082,0.51513
1702327763460937,-9.316257,0.725161,2.890466,0.5881,0.42182,0.56613
1702327763468750,-9.310257,0.708161,2.886466,0.5081,0.41882,0.56213
1702327763476562,-9.322257,0.703161,2.865466,0.12581,0.35882,0.66213
1702327763484375,-9.338257,0.701161,2.858466,0.10781,0.43782,0.59813
1702327763492187,-9.345257,0.689161,2.858466,0.7381,0.32182,0.68013
1702327763500000,-9.369257,0.695161,2.868466,0.20781,0.42482,0.66213
1702327763507812,-9.389257,0.686161,2.883466,0.14381,0.45982,0.58013
1702327763515625,-9.411257,0.687161,2.888466,0.11381,0.36882,0.56313
1702327763523437,-9.438257,0.685161,2.886466,0.17681,0.38182,0.58013
1702327763531250,-9.447257,0.696161,2.883466,0.20681,0.47182,0.59713
1702327763539062,-9.450257,0.707161,2.881466,0.31881,0.50382,0.54913
1702327763546875,-9.426257,0.703161,2.890466,0.26281,0.47582,0.55313
1702327763554687,-9.414257,0.706161,2.868466,0.30081,0.49982,0.58213
1702327763562500,-9.391257,0.704161,2.861466,0.37081,0.44782,0.53113
1702327763570312,-9.372257,0.716161,2.849466,0.39381,0.44782,0.56813
1702327763578125,-9.345257,0.721161,2.840466,0.38481,0.45982,0.53213
1702327763585937,-9.317257,0.725161,2.840466,0.50281,0.41982,0.53013
1702327763593750,-9.306257,0.720161,2.818466,0.38581,0.33582,0.53213
1702327763601562,-9.277257,0.731161,2.802466,0.30581,0.30482,0.54813
1702327763609375,-9.262257,0.733161,2.806466,0.31781,0.29782,0.53413
1702327763617187,-9.262257,0.739161,2.779466,0.27081,0.31682,0.53313
1702327763625000,-9.275257,0.738161,2.764466,0.17981,0.29482,0.51413
1702327763632812,-9.271257,0.744161,2.752466,0.19581,0.29082,0.61113
1702327763640625,-9.295257,0.749161,2.768466,0.8281,0.30582,0.67613
1702327763648437,-9.316257,0.756161,2.775466,0.1681,0.25682,0.62813
1702327763656250,-9.334257,0.774161,2.784466,0.8019,0.33382,0.66113
1702327763664062,-9.359257,0.774161,2.782466,0.13219,0.38982,0.71113
1702327763671875,-9.397257,0.777161,2.795466,0.19519,0.47082,0.72613
1702327763679687,-9.419257,0.782161,2.809466,0.19219,0.44582,0.70813
1702327763687500,-9.446257,0.782161,2.807466,0.20919,0.44182,0.75713
1702327763695312,-9.468257,0.792161,2.831466,0.23619,0.48182,0.77013
1702327763703125,-9.484257,0.794161,2.863466,0.28619,0.47982,0.73913
1702327763710937,-9.504257,0.793161,2.881466,0.34819,0.54782,0.70513
1702327763718750,-9.502257,0.811161,2.886466,0.22019,0.54882,0.60913
1702327763726562,-9.498257,0.819161,2.895466,0.19019,0.56082,0.62613
1702327763734375,-9.489257,0.823161,2.892466,0.20619,0.54582,0.56213
1702327763742187,-9.485257,0.843161,2.890466,0.25719,0.55782,0.57913
1702327763750000,-9.474257,0.860161,2.910466,0.25919,0.53982,0.56413
1702327763757812,-9.461257,0.862161,2.917466,0.27619,0.58682,0.50013
1702327763765625,-9.443257,0.882161,2.919466,0.34219,0.62982,0.51713
1702327763773437,-9.414257,0.886161,2.940466,0.25619,0.68682,0.49813
1702327763781250,-9.392257,0.883161,2.928466,0.28319,0.58982,0.51913
1702327763789062,-9.380257,0.886161,2.917466,0.20719,0.54682,0.51413
1702327763796875,-9.342257,0.883161,2.892466,0.29219,0.55582,0.50013
1702327763804687,-9.333257,0.885161,2.881466,0.23919,0.51482,0.51413
1702327763812500,-9.333257,0.881161,2.861466,0.27119,0.48382,0.48113
1702327763820312,-9.336257,0.898161,2.940466,0.43519,0.48082,0.49913
1702327763828125,-9.309257,0.898161,2.892466,0.31919,0.31282,0.49713
1702327763835937,-9.331257,0.894161,2.784466,0.25219,0.26982,0.44813
1702327763843750,-9.372257,0.923161,2.886466,0.37519,0.31582,0.48513
1702327763851562,-9.390257,0.953161,3.1466,0.51119,0.40882,0.49713
1702327763859375,-9.358257,0.946161,2.915466,0.57319,0.34982,0.49613
1702327763867187,-9.322257,0.929161,2.829466,0.43319,0.39082,0.38513
1702327763875000,-9.316257,0.927161,2.750466,0.42219,0.35482,0.29113
1702327763882812,-9.325257,0.926161,2.795466,0.42419,0.33582,0.27613
1702327763890625,-9.338257,0.903161,2.899466,0.45219,0.29482,0.32213
1702327763898437,-9.350257,0.877161,2.908466,0.46019,0.15482,0.34313
1702327763906250,-9.355257,0.863161,2.904466,0.45019,0.22082,0.25713
1702327763914062,-9.391257,0.841161,2.967466,0.32619,0.4082,0.21113
1702327763921875,-9.420257,0.846161,2.965466,0.16419,0.5682,0.22713
1702327763929687,-9.414257,0.851161,2.922466,0.1819,0.118,0.16213
1702327763937500,-9.421257,0.875161,2.883466,0.7781,0.2018,0.22713
1702327763945312,-9.419257,0.892161,2.861466,0.12381,0.5482,0.16413
1702327763953125,-9.431257,0.914161,2.858466,0.21581,0.2818,0.8613
1702327763960937,-9.432257,0.942161,2.827466,0.27781,0.2382,0.11113
1702327763968750,-9.405257,0.940161,2.777466,0.17981,0.3182,0.4187
1702327763976562,-9.368257,0.927161,2.775466,0.26981,0.8118,0.213
1702327763984375,-9.346257,0.906161,2.775466,0.14981,0.10518,0.7487
1702327763992187,-9.320257,0.891161,2.743466,0.23881,0.9318,0.113
1702327764000000,-9.283257,0.867161,2.705466,0.32581,0.16218,0.1787
1702327764007812,-9.281257,0.849161,2.691466,0.20981,0.16818,0.0
1702327764015625,-9.279257,0.846161,2.694466,0.20181,0.14918,0.1187
1702327764023437,-9.279257,0.839161,2.662466,0.15381,0.25818,0.1187
1702327764031250,-9.308257,0.827161,2.664466,0.15781,0.26818,0.213
1702327764039062,-9.333257,0.837161,2.700466,0.8781,0.18418,0.3713
1702327764046875,-9.389257,0.827161,2.714466,0.4081,0.19618,0.2013
1702327764054687,-9.459257,0.810161,2.712466,0.8281,0.8818,0.6413
1702327764062500,-9.508257,0.787161,2.755466,0.681,0.9418,0.1887
1702327764070312,-9.551257,0.742161,2.802466,0.10019,0.1618,0.2987
1702327764078125,-9.584257,0.723161,2.818466,0.7681,0.9282,0.1813
1702327764085937,-9.595257,0.698161,2.834466,0.4181,0.10582,0.7687
1702327764093750,-9.599257,0.669161,2.832466,0.6781,0.28682,0.10687
1702327764101562,-9.600257,0.660161,2.845466,0.19281,0.40482,0.8887
1702327764109375,-9.570257,0.631161,2.865466,0.37181,0.51782,0.10587
1702327764117187,-9.525257,0.635161,2.877466,0.48981,0.60482,0.9287
1702327764125000,-9.480257,0.625161,2.895466,0.58381,0.71082,0.10787
1702327764132812,-9.392257,0.633161,2.904466,0.53781,0.72882,0.7687
1702327764140625,-9.317257,0.669161,2.888466,0.63081,0.75382,0.2687
1702327764148437,-9.257257,0.673161,2.886466,0.59881,0.80082,0.513
1702327764156250,-9.179257,0.705161,2.883466,0.56681,0.83182,0.2113
1702327764164062,-9.112257,0.731161,2.867466,0.68081,0.81882,0.1187
1702327764171875,-9.52257,0.748161,2.827466,0.73181,0.75982,0.313
1702327764179687,-9.20257,0.740161,2.842466,0.77981,0.60182,0.2787
1702327764187500,-9.257,0.740161,2.903466,0.76581,0.54282,0.1287
1702327764195312,-8.959257,0.713161,2.840466,0.87881,0.30582,0.413
1702327764203125,-8.912257,0.696161,2.644466,0.69881,0.33382,0.1087
1702327764210937,-8.892257,0.716161,2.619466,0.52381,0.47982,0.313
1702327764218750,-8.890257,0.694161,2.655466,0.48981,0.30182,0.5313
1702327764226562,-8.932257,0.693161,2.700466,0.52881,0.8982,0.19513
1702327764234375,-8.977257,0.698161,2.714466,0.46681,0.6182,0.17813
1702327764242187,-9.26257,0.715161,2.687466,0.43881,0.4118,0.17613
1702327764250000,-9.96257,0.728161,2.632466,0.38381,0.3918,0.29213
1702327764257812,-9.220257,0.745161,2.599466,0.15581,0.1982,0.27713
1702327764265625,-9.387257,0.760161,2.585466,0.5181,0.382,0.27213
1702327764273437,-9.528257,0.762161,2.640466,0.481,0.5382,0.28713
1702327764281250,-9.683257,0.753161,2.716466,0.12519,0.10518,0.28813
1702327764289062,-9.801257,0.742161,2.782466,0.18819,0.2418,0.27113
1702327764296875,-9.900257,0.741161,2.854466,0.21019,0.318,0.30613
1702327764304687,-9.990257,0.724161,2.886466,0.24919,0.3482,0.21313
1702327764312500,-10.46257,0.693161,2.906466,0.30119,0.10582,0.26313
1702327764320312,-10.76257,0.668161,2.920466,0.39419,0.33382,0.21313
1702327764328125,-10.85257,0.652161,2.940466,0.33519,0.50282,0.513
1702327764335937,-10.47257,0.647161,2.965466,0.25319,0.58382,0.413
1702327764343750,-9.959257,0.633161,2.985466,0.23419,0.71482,0.2987
1702327764351562,-9.840257,0.654161,2.990466,0.24819,0.75282,0.9587
1702327764359375,-9.743257,0.698161,3.10466,0.21119,0.79682,0.7387
1702327764367187,-9.618257,0.743161,3.24466,0.23219,0.78382,0.9487
1702327764375000,-9.513257,0.781161,3.26466,0.23519,0.74682,0.4587
1702327764382812,-9.409257,0.824161,3.37466,0.29919,0.80782,0.3513
1702327764390625,-9.349257,0.856161,3.10466,0.47319,0.79482,0.13013
1702327764398437,-9.313257,0.882161,2.989466,0.46019,0.80682,0.8313
1702327764406250,-9.295257,0.871161,2.960466,0.45519,0.76682,0.9713
1702327764414062,-9.270257,0.858161,2.924466,0.46919,0.67182,0.25713
1702327764421875,-9.261257,0.822161,2.872466,0.44019,0.61882,0.30713
1702327764429687,-9.254257,0.777161,2.818466,0.45719,0.58482,0.37213
1702327764437500,-9.249257,0.759161,2.818466,0.47519,0.58182,0.35713
1702327764445312,-9.221257,0.728161,2.815466,0.44119,0.53782,0.30813
1702327764453125,-9.198257,0.727161,2.786466,0.35219,0.52582,0.32813
1702327764460937,-9.181257,0.698161,2.766466,0.36419,0.56282,0.31013
1702327764468750,-9.152257,0.695161,2.748466,0.31819,0.40582,0.16613
1702327764476562,-9.125257,0.700161,2.718466,0.23319,0.44682,0.13113
1702327764484375,-9.98257,0.699161,2.696466,0.22419,0.46882,0.3813
1702327764492187,-9.83257,0.700161,2.684466,0.21319,0.33582,0.687
1702327764500000,-9.84257,0.713161,2.637466,0.18319,0.31082,0.2987
1702327764507812,-9.94257,0.726161,2.623466,0.5919,0.33582,0.9187
1702327764515625,-9.139257,0.733161,2.599466,0.9219,0.30182,0.5887
1702327764523437,-9.179257,0.736161,2.585466,0.2619,0.24282,0.5987
1702327764531250,-9.239257,0.731161,2.594466,0.2581,0.13682,0.1287
1702327764539062,-9.313257,0.738161,2.617466,0.5881,0.2782,0.1287
1702327764546875,-9.390257,0.739161,2.635466,0.5281,0.4982,0.513
1702327764554687,-9.469257,0.733161,2.685466,0.13181,0.3082,0.2213
1702327764562500,-9.528257,0.717161,2.728466,0.23681,0.4282,0.3513
1702327764570312,-9.584257,0.706161,2.741466,0.21681,0.6382,0.19813
1702327764578125,-9.592257,0.708161,2.728466,0.19481,0.13682,0.7213
1702327764585937,-9.594257,0.706161,2.734466,0.24381,0.16682,0.16813
1702327764593750,-9.589257,0.710161,2.703466,0.21281,0.19782,0.23213
1702327764601562,-9.558257,0.712161,2.673466,0.14381,0.19082,0.25013
1702327764609375,-9.529257,0.721161,2.664466,0.18181,0.29382,0.29513
1702327764617187,-9.495257,0.723161,2.678466,0.21981,0.34982,0.27713
1702327764625000,-9.464257,0.716161,2.698466,0.16781,0.31182,0.29413
1702327764632812,-9.444257,0.719161,2.694466,0.6281,0.31582,0.28213
1702327764640625,-9.435257,0.717161,2.680466,0.3381,0.30282,0.32913
1702327764648437,-9.438257,0.718161,2.682466,0.6081,0.32082,0.32413
1702327764656250,-9.441257,0.740161,2.669466,0.7581,0.28682,0.35713
1702327764664062,-9.448257,0.742161,2.664466,0.4181,0.36082,0.40613
1702327764671875,-9.466257,0.740161,2.680466,0.681,0.40482,0.35913
1702327764679687,-9.483257,0.733161,2.709466,0.8119,0.36082,0.39513
1702327764687500,-9.487257,0.717161,2.714466,0.19519,0.41682,0.37113
1702327764695312,-9.488257,0.705161,2.705466,0.21719,0.48482,0.40613
1702327764703125,-9.479257,0.707161,2.689466,0.34619,0.51982,0.29313
1702327764710937,-9.487257,0.705161,2.678466,0.35919,0.55282,0.42013
1702327764718750,-9.483257,0.707161,2.680466,0.46119,0.53182,0.31013
1702327764726562,-9.479257,0.705161,2.689466,0.42419,0.53782,0.37213
1702327764734375,-9.472257,0.707161,2.703466,0.42919,0.54782,0.27813
1702327764742187,-9.460257,0.699161,2.709466,0.45519,0.51682,0.26713
1702327764750000,-9.448257,0.689161,2.730466,0.46619,0.54182,0.20013
1702327764757812,-9.441257,0.681161,2.728466,0.48819,0.52182,0.5713
1702327764765625,-9.428257,0.710161,2.752466,0.46819,0.60582,0.5513
1702327764773437,-9.408257,0.728161,2.752466,0.48319,0.57782,0.613
1702327764781250,-9.410257,0.728161,2.630466,0.41619,0.53382,0.1087
1702327764789062,-9.448257,0.742161,2.709466,0.44919,0.62782,0.513
1702327764796875,-9.478257,0.767161,2.879466,0.59619,0.63882,0.7113
1702327764804687,-9.462257,0.771161,2.789466,0.66219,0.63582,0.10413
1702327764812500,-9.417257,0.766161,2.712466,0.49619,0.66182,0.2113
1702327764820312,-9.381257,0.761161,2.689466,0.44819,0.67782,0.4387
1702327764828125,-9.349257,0.757161,2.696466,0.45719,0.59282,0.213
1702327764835937,-9.352257,0.779161,2.741466,0.47319,0.60882,0.3413
1702327764843750,-9.354257,0.792161,2.777466,0.49019,0.55782,0.13113
1702327764851562,-9.323257,0.794161,2.777466,0.50219,0.51382,0.25813
1702327764859375,-9.312257,0.800161,2.770466,0.31019,0.44882,0.25913
1702327764867187,-9.299257,0.816161,2.795466,0.18019,0.37082,0.30713
1702327764875000,-9.271257,0.847161,2.784466,0.13919,0.29182,0.40813
1702327764882812,-9.245257,0.850161,2.732466,0.0,0.26182,0.37113
1702327764890625,-9.234257,0.857161,2.687466,0.6481,0.12182,0.35513
1702327764898437,-9.257257,0.844161,2.675466,0.4481,0.18082,0.29113
1702327764906250,-9.282257,0.837161,2.664466,0.5581,0.17182,0.29413
1702327764914062,-9.310257,0.816161,2.633466,0.4581,0.5682,0.24313
1702327764921875,-9.339257,0.783161,2.615466,0.5981,0.5382,0.27613
1702327764929687,-9.379257,0.763161,2.628466,0.4481,0.3782,0.32413
1702327764937500,-9.439257,0.751161,2.667466,0.9381,0.5682,0.27513
1702327764945312,-9.467257,0.737161,2.691466,0.27581,0.12482,0.33813
1702327764953125,-9.474257,0.739161,2.703466,0.27781,0.9782,0.30413
1702327764960937,-9.514257,0.726161,2.712466,0.17981,0.4682,0.37013
1702327764968750,-9.541257,0.733161,2.705466,0.24081,0.21582,0.32313
1702327764976562,-9.553257,0.744161,2.696466,0.22381,0.27782,0.29113
1702327764984375,-9.547257,0.734161,2.705466,0.24681,0.33682,0.27113
1702327764992187,-9.546257,0.749161,2.732466,0.24281,0.34282,0.37013
1702327765000000,-9.530257,0.763161,2.752466,0.29681,0.35182,0.36713
1702327765007812,-9.520257,0.759161,2.766466,0.28581,0.31782,0.38913
1702327765015625,-9.493257,0.771161,2.775466,0.28381,0.34582,0.39013
1702327765023437,-9.462257,0.762161,2.784466,0.34781,0.36182,0.39013
1702327765031250,-9.455257,0.760161,2.768466,0.39981,0.36882,0.32413
1702327765039062,-9.427257,0.747161,2.755466,0.30681,0.34282,0.32213
1702327765046875,-9.410257,0.742161,2.743466,0.33581,0.33682,0.38813
1702327765054687,-9.403257,0.735161,2.730466,0.47681,0.40882,0.39013
1702327765062500,-9.401257,0.735161,2.716466,0.35181,0.38382,0.37213
1702327765070312,-9.387257,0.731161,2.709466,0.24081,0.43282,0.40313
1702327765078125,-9.389257,0.714161,2.728466,0.38981,0.48582,0.41713
1702327765085937,-9.405257,0.704161,2.730466,0.31681,0.52082,0.37313
1702327765093750,-9.408257,0.699161,2.734466,0.31181,0.53882,0.35113
1702327765101562,-9.420257,0.705161,2.734466,0.20781,0.51482,0.29013
1702327765109375,-9.420257,0.710161,2.705466,0.25781,0.54882,0.24113
1702327765117187,-9.402257,0.707161,2.707466,0.33581,0.68582,0.24213
1702327765125000,-9.396257,0.702161,2.741466,0.28281,0.58282,0.29313
1702327765132812,-9.396257,0.720161,2.820466,0.46481,0.56182,0.19413
1702327765140625,-9.360257,0.704161,2.748466,0.50881,0.54082,0.9913
1702327765148437,-9.331257,0.726161,2.655466,0.30281,0.60882,0.13013
1702327765156250,-9.320257,0.737161,2.689466,0.15881,0.65482,0.24213
1702327765164062,-9.297257,0.734161,2.705466,0.30781,0.56782,0.19213
1702327765171875,-9.331257,0.739161,2.755466,0.30381,0.62382,0.27413
1702327765179687,-9.351257,0.737161,2.761466,0.40181,0.57682,0.30613
1702327765187500,-9.346257,0.740161,2.768466,0.47081,0.55182,0.30413
1702327765195312,-9.372257,0.752161,2.748466,0.40981,0.57982,0.31013
1702327765203125,-9.383257,0.757161,2.718466,0.54481,0.57382,0.27513
1702327765210937,-9.392257,0.764161,2.712466,0.54681,0.60782,0.30613
1702327765218750,-9.432257,0.758161,2.696466,0.51481,0.56182,0.25813
1702327765226562,-9.454257,0.738161,2.700466,0.48081,0.55782,0.33913
1702327765234375,-9.472257,0.723161,2.723466,0.44881,0.52682,0.30713
1702327765242187,-9.487257,0.701161,2.739466,0.46681,0.52982,0.33813
1702327765250000,-9.507257,0.693161,2.732466,0.54681,0.53082,0.27413
1702327765257812,-9.525257,0.668161,2.723466,0.52481,0.52182,0.27713
1702327765265625,-9.540257,0.658161,2.725466,0.46581,0.54682,0.24213
1702327765273437,-9.548257,0.666161,2.714466,0.45981,0.62982,0.29313
1702327765281250,-9.563257,0.654161,2.728466,0.49581,0.69882,0.25913
1702327765289062,-9.561257,0.662161,2.743466,0.47781,0.64882,0.24413
1702327765296875,-9.558257,0.659161,2.755466,0.48281,0.70482,0.25713
1702327765304687,-9.562257,0.671161,2.775466,0.43881,0.76382,0.24713
1702327765312500,-9.559257,0.671161,2.795466,0.39381,0.76982,0.26113
1702327765320312,-9.541257,0.663161,2.813466,0.35581,0.77682,0.26413
1702327765328125,-9.535257,0.670161,2.820466,0.34181,0.79482,0.24713
1702327765335937,-9.513257,0.664161,2.841466,0.36781,0.79482,0.25813
1702327765343750,-9.501257,0.661161,2.854466,0.31181,0.73582,0.24613
1702327765351562,-9.478257,0.641161,2.852466,0.32781,0.79782,0.26213
1702327765359375,-9.455257,0.618161,2.852466,0.34481,0.83282,0.21313
1702327765367187,-9.417257,0.600161,2.838466,0.29281,0.82682,0.21513
1702327765375000,-9.378257,0.583161,2.818466,0.35181,0.82982,0.16113
1702327765382812,-9.339257,0.580161,2.807466,0.30581,0.86382,0.19213
1702327765390625,-9.282257,0.588161,2.804466,0.23681,0.90382,0.17813
1702327765398437,-9.239257,0.587161,2.820466,0.34781,0.82382,0.9913
1702327765406250,-9.184257,0.597161,2.852466,0.34481,0.77482,0.5213
1702327765414062,-9.134257,0.612161,2.840466,0.35081,0.73782,0.3313
1702327765421875,-9.108257,0.627161,2.782466,0.29881,0.71582,0.1387
1702327765429687,-9.79257,0.639161,2.716466,0.37381,0.73782,0.2113
1702327765437500,-9.50257,0.657161,2.671466,0.32781,0.72482,0.3613
1702327765445312,-9.27257,0.659161,2.680466,0.30081,0.59482,0.113
1702327765453125,-8.998257,0.666161,2.678466,0.27381,0.52182,0.8013
1702327765460937,-9.2257,0.675161,2.635466,0.29081,0.52182,0.12813
1702327765468750,-9.55257,0.673161,2.601466,0.27081,0.40282,0.22713
1702327765476562,-9.135257,0.660161,2.562466,0.9281,0.33682,0.29213
1702327765484375,-9.245257,0.644161,2.581466,0.7081,0.23482,0.23013
1702327765492187,-9.354257,0.621161,2.660466,0.6081,0.6882,0.30813
1702327765500000,-9.470257,0.618161,2.757466,0.3981,0.7182,0.31913
1702327765507812,-9.566257,0.592161,2.804466,0.319,0.1082,0.22713
1702327765515625,-9.653257,0.578161,2.823466,0.4981,0.1682,0.25713
1702327765523437,-9.700257,0.574161,2.818466,0.9781,0.6382,0.20913
1702327765531250,-9.738257,0.570161,2.766466,0.6481,0.15682,0.24113
1702327765539062,-9.784257,0.577161,2.739466,0.5581,0.33082,0.24513
1702327765546875,-9.795257,0.583161,2.773466,0.1119,0.35882,0.21413
1702327765554687,-9.775257,0.579161,2.771466,0.4219,0.48682,0.19813
1702327765562500,-9.715257,0.582161,2.773466,0.5081,0.57782,0.10213
1702327765570312,-9.648257,0.599161,2.809466,0.6581,0.55882,0.18313
1702327765578125,-9.575257,0.617161,2.827466,0.5981,0.63982,0.8213
1702327765585937,-9.491257,0.639161,2.802466,0.2481,0.69582,0.19613
1702327765593750,-9.413257,0.676161,2.786466,0.2781,0.68282,0.25913
1702327765601562,-9.387257,0.708161,2.782466,0.15219,0.61682,0.26013
1702327765609375,-9.375257,0.715161,2.727466,0.9819,0.54482,0.33813
1702327765617187,-9.378257,0.708161,2.709466,0.16419,0.57182,0.38713
1702327765625000,-9.343257,0.673161,2.718466,0.21019,0.57482,0.45013
1702327765632812,-9.278257,0.665161,2.698466,0.20719,0.51482,0.51413
1702327765640625,-9.220257,0.644161,2.703466,0.27719,0.38182,0.46813
1702327765648437,-9.199257,0.631161,2.696466,0.22419,0.30982,0.49813
1702327765656250,-9.210257,0.634161,2.689466,0.23619,0.30082,0.51213
1702327765664062,-9.220257,0.630161,2.675466,0.29619,0.26682,0.50213
1702327765671875,-9.238257,0.631161,2.675466,0.40719,0.20782,0.43713
1702327765679687,-9.236257,0.647161,2.682466,0.37119,0.15182,0.40313
1702327765687500,-9.231257,0.667161,2.673466,0.46519,0.6082,0.41813
1702327765695312,-9.238257,0.673161,2.664466,0.45219,0.7482,0.29013
1702327765703125,-9.252257,0.705161,2.646466,0.45119,0.10882,0.24113
1702327765710937,-9.265257,0.700161,2.648466,0.46719,0.1582,0.25713
1702327765718750,-9.297257,0.699161,2.675466,0.41919,0.6282,0.25713
1702327765726562,-9.324257,0.694161,2.714466,0.42219,0.2118,0.22713
1702327765734375,-9.335257,0.695161,2.705466,0.45019,0.14018,0.22513
1702327765742187,-9.380257,0.698161,2.716466,0.40119,0.15518,0.27313
1702327765750000,-9.408257,0.728161,2.757466,0.29319,0.15218,0.25113
1702327765757812,-9.451257,0.726161,2.673466,0.20519,0.18318,0.28813
1702327765765625,-9.526257,0.731161,2.637466,0.19119,0.14018,0.28913
1702327765773437,-9.588257,0.754161,2.755466,0.36519,0.16918,0.38413
1702327765781250,-9.595257,0.779161,2.712466,0.44019,0.12918,0.44613
1702327765789062,-9.587257,0.760161,2.606466,0.30619,0.318,0.37113
1702327765796875,-9.557257,0.751161,2.640466,0.20919,0.5882,0.40313
1702327765804687,-9.523257,0.745161,2.612466,0.19919,0.1918,0.39813
1702327765812500,-9.483257,0.746161,2.612466,0.18819,0.282,0.41713
1702327765820312,-9.470257,0.743161,2.658466,0.30519,0.5782,0.49913
1702327765828125,-9.461257,0.734161,2.707466,0.33419,0.6082,0.54613
1702327765835937,-9.470257,0.714161,2.709466,0.20919,0.782,0.56413
1702327765843750,-9.499257,0.701161,2.746466,0.20919,0.7318,0.62913
1702327765851562,-9.519257,0.709161,2.804466,0.13919,0.218,0.64213
1702327765859375,-9.516257,0.709161,2.818466,0.2319,0.482,0.62413
1702327765867187,-9.512257,0.702161,2.809466,0.3781,0.3318,0.62613
1702327765875000,-9.513257,0.679161,2.809466,0.8181,0.3182,0.65213
1702327765882812,-9.497257,0.658161,2.838466,0.7681,0.2018,0.54213
1702327765890625,-9.461257,0.633161,2.827466,0.9181,0.5882,0.47813
1702327765898437,-9.377257,0.624161,2.788466,0.4481,0.2818,0.47013
1702327765906250,-9.336257,0.610161,2.755466,0.6481,0.618,0.43613
1702327765914062,-9.330257,0.639161,2.716466,0.4781,0.2218,0.38713
1702327765921875,-9.337257,0.650161,2.657466,0.2981,0.5282,0.40513
1702327765929687,-9.346257,0.663161,2.612466,0.5981,0.9682,0.42213
1702327765937500,-9.348257,0.701161,2.540466,0.8081,0.9082,0.37113
1702327765945312,-9.311257,0.734161,2.515466,0.4781,0.22982,0.40313
1702327765953125,-9.254257,0.758161,2.483466,0.8781,0.28982,0.38313
1702327765960937,-9.199257,0.763161,2.420466,0.6481,0.16782,0.38713
1702327765968750,-9.164257,0.778161,2.375466,0.4781,0.5582,0.42013
1702327765976562,-9.159257,0.809161,2.416466,0.6581,0.7382,0.45113
1702327765984375,-9.186257,0.801161,2.463466,0.9981,0.5018,0.49913
1702327765992187,-9.220257,0.781161,2.479466,0.15881,0.21518,0.45313
1702327766000000,-9.270257,0.767161,2.506466,0.18681,0.21218,0.51213
1702327766007812,-9.307257,0.749161,2.569466,0.19281,0.21218,0.46813
1702327766015625,-9.333257,0.730161,2.599466,0.21481,0.20218,0.41713
1702327766023437,-9.349257,0.736161,2.565466,0.28981,0.14918,0.43613
1702327766031250,-9.380257,0.730161,2.531466,0.4581,0.918,0.43713
1702327766039062,-9.437257,0.738161,2.565466,0.15981,0.8382,0.51713
1702327766046875,-9.476257,0.748161,2.601466,0.13281,0.12382,0.49813
1702327766054687,-9.477257,0.752161,2.524466,0.6581,0.33782,0.56313
1702327766062500,-9.497257,0.766161,2.524466,0.8281,0.41882,0.54613
1702327766070312,-9.560257,0.775161,2.576466,0.4481,0.42482,0.54913
1702327766078125,-9.601257,0.785161,2.653466,0.6181,0.49082,0.50013
1702327766085937,-9.627257,0.813161,2.739466,0.3881,0.44782,0.52013
1702327766093750,-9.642257,0.821161,2.655466,0.6281,0.33582,0.50013
1702327766101562,-9.660257,0.841161,2.660466,0.4581,0.52182,0.54813
1702327766109375,-9.674257,0.841161,2.816466,0.7481,0.43782,0.56613
1702327766117187,-9.673257,0.812161,2.734466,0.7881,0.41282,0.53213
1702327766125000,-9.648257,0.808161,2.651466,0.6219,0.63582,0.67513
1702327766132812,-9.633257,0.823161,2.624466,0.24519,0.62582,0.75813
1702327766140625,-9.605257,0.809161,2.712466,0.25619,0.61582,0.78813
1702327766148437,-9.590257,0.805161,2.795466,0.33719,0.55382,0.78813
1702327766156250,-9.581257,0.802161,2.789466,0.23919,0.47582,0.82013
1702327766164062,-9.583257,0.831161,2.775466,0.42919,0.45082,0.80213
1702327766171875,-9.567257,0.851161,2.761466,0.45919,0.49982,0.88213
1702327766179687,-9.542257,0.879161,2.728466,0.54819,0.54982,0.86913
1702327766187500,-9.475257,0.891161,2.644466,0.67519,0.45582,0.91713
1702327766195312,-9.423257,0.882161,2.558466,0.75719,0.48682,0.86913
1702327766203125,-9.405257,0.885161,2.639466,0.88919,0.51482,0.83813
1702327766210937,-9.396257,0.888161,2.707466,0.86919,0.31582,0.82113
1702327766218750,-9.373257,0.877161,2.633466,0.91519,0.33782,0.77113
1702327766226562,-9.353257,0.885161,2.599466,0.94819,0.36982,0.72313
1702327766234375,-9.353257,0.896161,2.556466,0.94819,0.49382,0.75513
1702327766242187,-9.356257,0.907161,2.531466,0.94919,0.54082,0.72313
1702327766250000,-9.380257,0.928161,2.540466,0.89619,0.48882,0.59213
1702327766257812,-9.403257,0.949161,2.567466,0.89519,0.47282,0.68813
1702327766265625,-9.433257,0.972161,2.565466,0.93819,0.48882,0.58113
1702327766273437,-9.444257,0.987161,2.578466,0.98219,0.45482,0.50613
1702327766281250,-9.443257,0.995161,2.601466,0.102019,0.50482,0.51713
1702327766289062,-9.457257,1.16161,2.578466,0.86419,0.54282,0.50413
1702327766296875,-9.462257,1.25161,2.567466,0.91519,0.55482,0.52113
1702327766304687,-9.449257,1.22161,2.554466,0.92119,0.58582,0.54813
1702327766312500,-9.447257,1.8161,2.531466,0.89319,0.56382,0.47013
1702327766320312,-9.438257,1.1161,2.531466,0.79619,0.50282,0.43713
1702327766328125,-9.437257,0.973161,2.517466,0.70919,0.51182,0.49913
1702327766335937,-9.419257,0.944161,2.517466,0.72619,0.46482,0.43413
1702327766343750,-9.386257,0.916161,2.524466,0.71719,0.40582,0.42213
1702327766351562,-9.392257,0.895161,2.536466,0.76019,0.39982,0.38713
1702327766359375,-9.377257,0.855161,2.526466,0.77119,0.45982,0.25513
1702327766367187,-9.416257,0.850161,2.504466,0.91119,0.44082,0.26113
1702327766375000,-9.458257,0.831161,2.484466,0.94019,0.49382,0.24313
1702327766382812,-9.487257,0.865161,2.497466,0.92219,0.52782,0.25813
1702327766390625,-9.503257,0.857161,2.513466,0.90519,0.51282,0.30613
1702327766398437,-9.502257,0.837161,2.554466,0.82219,0.56182,0.35313
1702327766406250,-9.520257,0.842161,2.583466,0.79019,0.54682,0.35313
1702327766414062,-9.507257,0.845161,2.597466,0.77919,0.55682,0.27513
1702327766421875,-9.481257,0.867161,2.569466,0.71619,0.63082,0.30813
1702327766429687,-9.463257,0.902161,2.531466,0.72819,0.68382,0.33813
1702327766437500,-9.459257,0.934161,2.511466,0.65819,0.73982,0.36813
1702327766445312,-9.453257,0.976161,2.506466,0.51619,0.79482,0.45013
1702327766453125,-9.433257,1.4161,2.540466,0.45219,0.80682,0.54713
1702327766460937,-9.420257,1.32161,2.556466,0.45219,0.75982,0.57913
1702327766468750,-9.421257,1.34161,2.549466,0.36219,0.77882,0.64713
1702327766476562,-9.422257,1.24161,2.493466,0.33519,0.79382,0.72213
1702327766484375,-9.398257,1.5161,2.481466,0.30619,0.81782,0.80513
1702327766492187,-9.377257,0.977161,2.524466,0.33419,0.83982,0.86713
1702327766500000,-9.352257,0.934161,2.513466,0.17319,0.82082,0.94813
1702327766507812,-9.380257,0.901161,2.481466,0.481,0.72382,0.107713
1702327766515625,-9.436257,0.902161,2.481466,0.5381,0.70682,0.117313
1702327766523437,-9.463257,0.880161,2.470466,0.21781,0.69482,0.122013
1702327766531250,-9.474257,0.882161,2.454466,0.37681,0.67282,0.130213
1702327766539062,-9.478257,0.859161,2.488466,0.44981,0.71582,0.136313
1702327766546875,-9.458257,0.847161,2.477466,0.49081,0.68782,0.143113
1702327766554687,-9.438257,0.848161,2.456466,0.53681,0.76182,0.143213
1702327766562500,-9.431257,0.844161,2.484466,0.58781,0.79582,0.147913
1702327766570312,-9.408257,0.828161,2.497466,0.57481,0.76782,0.154213
1702327766578125,-9.389257,0.850161,2.486466,0.58881,0.78082,0.152713
1702327766585937,-9.362257,0.851161,2.493466,0.56881,0.75882,0.154513
1702327766593750,-9.337257,0.874161,2.551466,0.59481,0.66182,0.162113
1702327766601562,-9.313257,0.887161,2.587466,0.56381,0.54082,0.152413
1702327766609375,-9.306257,0.916161,2.603466,0.43381,0.55582,0.147613
1702327766617187,-9.298257,0.957161,2.581466,0.38181,0.51882,0.147813
1702327766625000,-9.302257,0.985161,2.560466,0.39081,0.49482,0.138413
1702327766632812,-9.310257,1.6161,2.529466,0.35081,0.44482,0.141213
1702327766640625,-9.314257,1.36161,2.517466,0.30681,0.46982,0.129713
1702327766648437,-9.336257,1.68161,2.526466,0.26781,0.33282,0.130113
1702327766656250,-9.345257,1.100161,2.524466,0.39981,0.18082,0.130013
1702327766664062,-9.386257,1.136161,2.522466,0.43381,0.7182,0.133213
1702327766671875,-9.406257,1.170161,2.497466,0.47181,0.9682,0.137713
1702327766679687,-9.403257,1.189161,2.463466,0.54381,0.3382,0.141413
1702327766687500,-9.390257,1.186161,2.432466,0.54181,0.17418,0.143213
1702327766695312,-9.376257,1.215161,2.454466,0.33981,0.17818,0.149213
1702327766703125,-9.358257,1.231161,2.434466,0.42581,0.23418,0.153813
1702327766710937,-9.379257,1.253161,2.325466,0.48381,0.35218,0.144413
1702327766718750,-9.445257,1.302161,2.436466,0.51681,0.32118,0.150913
1702327766726562,-9.467257,1.343161,2.529466,0.34681,0.39118,0.165013
1702327766734375,-9.466257,1.358161,2.470466,0.32081,0.46818,0.157513
1702327766742187,-9.426257,1.370161,2.418466,0.44781,0.42418,0.152713
1702327766750000,-9.401257,1.372161,2.398466,0.56481,0.43318,0.152513
1702327766757812,-9.375257,1.392161,2.364466,0.51281,0.40418,0.141413
1702327766765625,-9.354257,1.412161,2.357466,0.34181,0.28418,0.145913
1702327766773437,-9.363257,1.392161,2.404466,0.34181,0.28318,0.141113
1702327766781250,-9.378257,1.368161,2.427466,0.49881,0.25818,0.139613
1702327766789062,-9.403257,1.344161,2.420466,0.53081,0.25818,0.136413
1702327766796875,-9.438257,1.325161,2.432466,0.55281,0.23318,0.134513
1702327766804687,-9.461257,1.328161,2.420466,0.58681,0.26918,0.125613
1702327766812500,-9.477257,1.336161,2.427466,0.57481,0.18218,0.120513
1702327766820312,-9.488257,1.350161,2.425466,0.62481,0.16318,0.117213
1702327766828125,-9.506257,1.378161,2.423466,0.66981,0.582,0.109313
1702327766835937,-9.516257,1.396161,2.400466,0.57181,0.2082,0.106113
1702327766843750,-9.532257,1.423161,2.377466,0.64981,0.6482,0.99813
1702327766851562,-9.528257,1.443161,2.364466,0.66781,0.8382,0.98113
1702327766859375,-9.530257,1.457161,2.357466,0.60481,0.21482,0.91513
1702327766867187,-9.539257,1.445161,2.407466,0.61681,0.23982,0.90113
1702327766875000,-9.539257,1.445161,2.427466,0.72681,0.26882,0.82213
1702327766882812,-9.538257,1.446161,2.447466,0.86181,0.30982,0.83513
1702327766890625,-9.541257,1.448161,2.466466,0.82881,0.34082,0.78713
1702327766898437,-9.557257,1.448161,2.468466,0.87481,0.36882,0.75613
1702327766906250,-9.541257,1.452161,2.454466,0.83781,0.42482,0.74213
1702327766914062,-9.530257,1.459161,2.459466,0.82381,0.49482,0.61113
1702327766921875,-9.512257,1.456161,2.481466,0.83781,0.55382,0.62913
1702327766929687,-9.498257,1.449161,2.463466,0.84081,0.57582,0.57913
1702327766937500,-9.503257,1.452161,2.456466,0.82481,0.71982,0.48213
1702327766945312,-9.529257,1.421161,2.459466,0.78981,0.74782,0.46613
1702327766953125,-9.560257,1.371161,2.472466,0.85581,0.79782,0.45013
1702327766960937,-9.611257,1.323161,2.520466,0.75581,0.82582,0.33813
1702327766968750,-9.643257,1.286161,2.556466,0.78981,0.95782,0.25613
1702327766976562,-9.643257,1.248161,2.585466,0.85081,0.96682,0.24213
1702327766984375,-9.643257,1.240161,2.617466,0.96481,0.103682,0.6413
1702327766992187,-9.656257,1.244161,2.631466,0.110481,0.120182,0.5013
1702327767000000,-9.649257,1.269161,2.637466,0.114481,0.129882,0.3813
1702327767007812,-9.625257,1.306161,2.612466,0.125581,0.129582,0.3913
1702327767015625,-9.571257,1.308161,2.644466,0.127481,0.150382,0.8513
1702327767023437,-9.490257,1.311161,2.723466,0.133881,0.158282,0.5313
1702327767031250,-9.405257,1.308161,2.766466,0.132481,0.155382,0.8413
1702327767039062,-9.332257,1.313161,2.773466,0.133481,0.152982,0.2313
1702327767046875,-9.256257,1.321161,2.736466,0.133281,0.158882,0.2413
1702327767054687,-9.175257,1.331161,2.772466,0.133681,0.162582,0.8613
1702327767062500,-9.83257,1.314161,2.684466,0.146681,0.156382,0.8613
1702327767070312,-8.995257,1.327161,2.657466,0.127981,0.160282,0.24413
1702327767078125,-8.940257,1.368161,2.673466,0.106981,0.142782,0.29313
1702327767085937,-8.898257,1.339161,2.544466,0.107681,0.131282,0.29013
1702327767093750,-8.918257,1.319161,2.513466,0.105881,0.124682,0.29113
1702327767101562,-8.976257,1.282161,2.488466,0.92881,0.103782,0.38913
1702327767109375,-9.43257,1.248161,2.522466,0.81981,0.85382,0.43613
1702327767117187,-9.158257,1.195161,2.524466,0.79481,0.81982,0.40013
1702327767125000,-9.275257,1.158161,2.549466,0.57781,0.79082,0.48413
1702327767132812,-9.373257,1.129161,2.603466,0.57881,0.69782,0.48313
1702327767140625,-9.461257,1.125161,2.639466,0.57181,0.76582,0.43813
1702327767148437,-9.549257,1.125161,2.678466,0.49881,0.77882,0.45113
1702327767156250,-9.628257,1.122161,2.707466,0.46281,0.80782,0.27513
1702327767164062,-9.664257,1.129161,2.743466,0.60681,0.91682,0.27513
1702327767171875,-9.675257,1.133161,2.768466,0.47581,0.97582,0.27613
1702327767179687,-9.693257,1.129161,2.802466,0.46181,0.115282,0.24313
1702327767187500,-9.697257,1.116161,2.802466,0.44381,0.129382,0.14713
1702327767195312,-9.684257,1.120161,2.816466,0.40981,0.129482,0.5013
1702327767203125,-9.678257,1.148161,2.836466,0.43681,0.140982,0.10113
1702327767210937,-9.654257,1.172161,2.818466,0.30381,0.151582,0.3813
1702327767218750,-9.649257,1.179161,2.832466,0.30681,0.153782,0.1187
1702327767226562,-9.642257,1.195161,2.888466,0.31281,0.156182,0.213
1702327767234375,-9.607257,1.194161,2.938466,0.30481,0.159682,0.2113
1702327767242187,-9.533257,1.186161,2.976466,0.30981,0.161782,0.6813
1702327767250000,-9.430257,1.191161,3.3466,0.32381,0.158382,0.2113
1702327767257812,-9.340257,1.213161,3.3466,0.34281,0.166782,0.5113
1702327767265625,-9.267257,1.233161,2.922466,0.35381,0.158082,0.5413
1702327767273437,-9.193257,1.257161,2.861466,0.41181,0.160782,0.22613
1702327767281250,-9.115257,1.265161,2.840466,0.57481,0.151482,0.24213
1702327767289062,-9.40257,1.241161,2.809466,0.49481,0.131182,0.19413
1702327767296875,-8.958257,1.231161,2.824466,0.41281,0.126182,0.25913
1702327767304687,-8.885257,1.217161,2.806466,0.36981,0.106582,0.24113
1702327767312500,-8.860257,1.190161,2.743466,0.30281,0.103182,0.22513
1702327767320312,-8.838257,1.177161,2.707466,0.6381,0.92582,0.22413
1702327767328125,-8.852257,1.142161,2.682466,0.5281,0.82582,0.15713
1702327767335937,-8.895257,1.120161,2.644466,0.4919,0.72382,0.14413
1702327767343750,-8.961257,1.111161,2.630466,0.5919,0.48682,0.13313
1702327767351562,-9.34257,1.93161,2.621466,0.13419,0.43482,0.8213
1702327767359375,-9.103257,1.83161,2.641466,0.8119,0.42882,0.3113
1702327767367187,-9.186257,1.69161,2.666466,0.11719,0.32882,0.1487
1702327767375000,-9.281257,1.63161,2.700466,0.2719,0.30182,0.513
1702327767382812,-9.363257,1.64161,2.721466,0.4281,0.31082,0.213
1702327767390625,-9.443257,1.93161,2.759466,0.12919,0.40382,0.887
1702327767398437,-9.530257,1.111161,2.793466,0.2819,0.44182,0.513
1702327767406250,-9.598257,1.162161,2.861466,0.0,0.48182,0.2313
1702327767414062,-9.639257,1.198161,2.895466,0.1381,0.54082,0.2413
1702327767421875,-9.669257,1.230161,2.938466,0.15919,0.57782,0.8613
1702327767429687,-9.673257,1.237161,2.967466,0.9119,0.56882,0.5213
1702327767437500,-9.659257,1.250161,2.969466,0.7119,0.69882,0.14713
1702327767445312,-9.646257,1.252161,2.958466,0.20719,0.75182,0.3813
1702327767453125,-9.597257,1.269161,2.962466,0.10919,0.81782,0.5313
1702327767460937,-9.534257,1.255161,2.944466,0.12419,0.86782,0.3613
1702327767468750,-9.465257,1.262161,2.890466,0.14819,0.88582,0.2413
1702327767476562,-9.398257,1.272161,2.827466,0.15719,0.89482,0.14913
1702327767484375,-9.351257,1.270161,2.793466,0.8919,0.88182,0.21213
1702327767492187,-9.326257,1.276161,2.806466,0.2719,0.79782,0.26213
1702327767500000,-9.299257,1.280161,2.820466,0.18319,0.77482,0.29113
1702327767507812,-9.282257,1.272161,2.820466,0.15619,0.59082,0.35913
1702327767515625,-9.243257,1.275161,2.849466,0.18119,0.58782,0.33913
1702327767523437,-9.223257,1.269161,2.876466,0.22019,0.51382,0.34313
1702327767531250,-9.199257,1.260161,2.831466,0.36419,0.41982,0.39113
1702327767539062,-9.178257,1.267161,2.777466,0.40919,0.47682,0.24413
1702327767546875,-9.176257,1.264161,2.763466,0.43319,0.47982,0.26413
1702327767554687,-9.193257,1.255161,2.743466,0.46919,0.38882,0.22613
1702327767562500,-9.197257,1.233161,2.702466,0.45319,0.37382,0.22613
1702327767570312,-9.225257,1.221161,2.687466,0.47919,0.34282,0.16613
1702327767578125,-9.240257,1.201161,2.732466,0.44619,0.29982,0.10113
1702327767585937,-9.269257,1.193161,2.768466,0.33219,0.28782,0.2013
1702327767593750,-9.291257,1.185161,2.797466,0.32619,0.32882,0.1713
1702327767601562,-9.332257,1.169161,2.802466,0.29019,0.29482,0.4087
1702327767609375,-9.388257,1.167161,2.813466,0.22819,0.37082,0.10387
1702327767617187,-9.464257,1.187161,2.856466,0.22219,0.46082,0.12387
1702327767625000,-9.527257,1.174161,2.917466,0.18019,0.43682,0.21787
1702327767632812,-9.555257,1.166161,2.811466,0.12819,0.44282,0.25187
1702327767640625,-9.587257,1.196161,2.820466,0.6319,0.58682,0.28387
1702327767648437,-9.593257,1.205161,2.983466,0.3881,0.68982,0.30287
1702327767656250,-9.589257,1.219161,3.10466,0.4019,0.64582,0.36787
1702327767664062,-9.545257,1.216161,2.938466,0.2219,0.73382,0.34587
1702327767671875,-9.489257,1.234161,2.802466,0.4481,0.76782,0.32987
1702327767679687,-9.456257,1.226161,2.816466,0.23781,0.81482,0.29787
1702327767687500,-9.425257,1.210161,2.998466,0.42781,0.80182,0.27187
1702327767695312,-9.376257,1.200161,3.41466,0.44281,0.66982,0.10987
1702327767703125,-9.300257,1.178161,3.21466,0.42581,0.57382,0.10887
1702327767710937,-9.248257,1.138161,3.44466,0.54281,0.64182,0.6287
1702327767718750,-9.212257,1.122161,3.98466,0.60281,0.62082,0.6087
1702327767726562,-9.160257,1.117161,3.50466,0.65581,0.70782,0.11187
1702327767734375,-9.87257,1.121161,2.946466,0.72681,0.61082,0.5787
1702327767742187,-9.35257,1.121161,2.892466,0.78181,0.70182,0.7787
1702327767750000,-8.995257,1.144161,2.885466,0.82281,0.68882,0.5787
1702327767757812,-8.988257,1.140161,2.888466,0.81281,0.65182,0.4487
1702327767765625,-8.952257,1.133161,2.836466,0.82881,0.66782,0.10887
1702327767773437,-8.927257,1.122161,2.777466,0.83581,0.56782,0.6387
1702327767781250,-8.921257,1.115161,2.743466,0.84081,0.59982,0.10687
1702327767789062,-8.925257,1.110161,2.734466,0.95281,0.53382,0.8987
1702327767796875,-8.956257,1.64161,2.761466,0.84181,0.55282,0.9087
1702327767804687,-8.974257,1.57161,2.748466,0.100281,0.54582,0.5087
1702327767812500,-8.990257,1.75161,2.718466,0.100281,0.41782,0.1413
1702327767820312,-9.30257,1.49161,2.732466,0.93781,0.35582,0.4987
1702327767828125,-9.94257,1.54161,2.770466,0.94981,0.32982,0.11313
1702327767835937,-9.144257,1.67161,2.815466,0.94281,0.25582,0.14913
1702327767843750,-9.209257,1.71161,2.838466,0.88381,0.7482,0.14713
1702327767851562,-9.281257,1.65161,2.840466,0.83281,0.11482,0.26113
1702327767859375,-9.363257,1.80161,2.809466,0.80981,0.9882,0.20813
1702327767867187,-9.469257,1.86161,2.816466,0.73981,0.10482,0.24313
1702327767875000,-9.573257,1.70161,2.836466,0.63081,0.7982,0.25713
1702327767882812,-9.683257,1.63161,2.899466,0.62981,0.18882,0.28913
1702327767890625,-9.760257,1.54161,2.949466,0.59081,0.19082,0.35713
1702327767898437,-9.806257,1.47161,2.990466,0.61181,0.20082,0.29013
1702327767906250,-9.838257,1.54161,3.10466,0.56081,0.29082,0.27513
1702327767914062,-9.838257,1.62161,3.1466,0.60981,0.29082,0.29113
1702327767921875,-9.816257,1.64161,2.997466,0.55981,0.47782,0.26013
1702327767929687,-9.784257,1.75161,3.15466,0.57681,0.55882,0.24313
1702327767937500,-9.742257,1.92161,3.3466,0.57781,0.68682,0.25813
1702327767945312,-9.711257,1.98161,3.5466,0.55181,0.76482,0.23113
1702327767953125,-9.653257,1.94161,2.994466,0.58181,0.77682,0.24813
1702327767960937,-9.579257,1.94161,3.17466,0.57381,0.89782,0.30813
1702327767968750,-9.503257,1.92161,3.64466,0.54881,0.88582,0.26413
1702327767976562,-9.397257,1.65161,3.5466,0.55981,0.79182,0.25913
1702327767984375,-9.316257,1.78161,2.892466,0.48381,0.86382,0.28813
1702327767992187,-9.273257,1.113161,2.994466,0.26181,0.85682,0.34313
1702327768000000,-9.228257,1.105161,2.967466,0.34181,0.72882,0.42413
1702327768007812,-9.209257,1.113161,2.983466,0.44981,0.57282,0.45113
1702327768015625,-9.187257,1.106161,3.10466,0.48181,0.58882,0.41913
1702327768023437,-9.149257,1.89161,2.998466,0.52581,0.53282,0.48613
1702327768031250,-9.103257,1.81161,2.967466,0.54981,0.45182,0.48213
1702327768039062,-9.92257,1.74161,2.946466,0.56281,0.46482,0.37113
1702327768046875,-9.66257,1.68161,2.921466,0.59281,0.30282,0.38913
1702327768054687,-9.54257,1.62161,2.910466,0.57481,0.30382,0.29213
1702327768062500,-9.27257,1.44161,2.874466,0.57981,0.35982,0.24213
1702327768070312,-8.997257,1.52161,2.808466,0.56481,0.26582,0.25713
1702327768078125,-8.978257,1.54161,2.766466,0.61181,0.10782,0.17813
1702327768085937,-8.966257,1.47161,2.750466,0.57981,0.4582,0.19413
1702327768093750,-8.955257,1.48161,2.732466,0.66281,0.2182,0.4813
1702327768101562,-8.978257,1.56161,2.711466,0.64181,0.11218,0.9913
1702327768109375,-8.990257,1.58161,2.707466,0.66881,0.5918,0.15013
1702327768117187,-9.21257,1.79161,2.702466,0.77281,0.20518,0.16313
1702327768125000,-9.74257,1.71161,2.725466,0.84081,0.32718,0.20913
1702327768132812,-9.139257,1.72161,2.721466,0.81081,0.40218,0.25713
1702327768140625,-9.229257,1.73161,2.707466,0.80781,0.47118,0.27413
1702327768148437,-9.333257,1.65161,2.678466,0.76681,0.39618,0.30313
1702327768156250,-9.431257,1.42161,2.700466,0.79981,0.39718,0.36713
1702327768164062,-9.528257,1.30161,2.748466,0.62081,0.44718,0.35213
1702327768171875,-9.607257,1.10161,2.827466,0.66081,0.38118,0.32413
1702327768179687,-9.666257,0.988161,2.861466,0.70081,0.44618,0.30413
1702327768187500,-9.713257,0.987161,2.859466,0.70381,0.33118,0.28613
1702327768195312,-9.747257,0.998161,2.872466,0.81281,0.25918,0.27213
1702327768203125,-9.766257,1.28161,2.877466,0.67781,0.22218,0.27513
1702327768210937,-9.786257,1.20161,2.861466,0.71081,0.17218,0.25813
1702327768218750,-9.772257,1.35161,2.850466,0.61481,0.7618,0.22513
1702327768226562,-9.766257,1.26161,2.884466,0.72581,0.3218,0.25813
1702327768234375,-9.741257,1.26161,2.893466,0.66081,0.2018,0.32313
1702327768242187,-9.700257,1.19161,2.886466,0.70881,0.7682,0.21013
1702327768250000,-9.658257,1.2161,2.877466,0.63881,0.8682,0.11613
1702327768257812,-9.601257,0.970161,2.879466,0.55981,0.13682,0.11513
1702327768265625,-9.560257,0.966161,2.877466,0.58181,0.23882,0.12813
1702327768273437,-9.529257,0.937161,2.892466,0.56281,0.29782,0.14513
1702327768281250,-9.490257,0.900161,2.915466,0.57681,0.31082,0.13013
1702327768289062,-9.454257,0.876161,2.922466,0.56581,0.36682,0.9513
1702327768296875,-9.418257,0.835161,2.922466,0.55981,0.38882,0.11413
1702327768304687,-9.364257,0.808161,2.915466,0.46181,0.51382,0.1813
1702327768312500,-9.316257,0.785161,2.895466,0.31581,0.56082,0.1387
1702327768320312,-9.260257,0.766161,2.845466,0.42481,0.56982,0.413
1702327768328125,-9.182257,0.770161,2.795466,0.39581,0.63882,0.4587
1702327768335937,-9.124257,0.782161,2.784466,0.45781,0.68182,0.1287
1702327768343750,-9.70257,0.804161,2.779466,0.44481,0.73482,0.4687
1702327768351562,-9.7257,0.823161,2.781466,0.43281,0.66382,0.11287
1702327768359375,-8.974257,0.849161,2.766466,0.31581,0.70382,0.9487
1702327768367187,-8.939257,0.870161,2.795466,0.34581,0.70082,0.12587
1702327768375000,-8.927257,0.875161,2.818466,0.47681,0.72382,0.22387
1702327768382812,-8.936257,0.889161,2.804466,0.57781,0.68382,0.24187
1702327768390625,-8.917257,0.914161,2.763466,0.63581,0.60882,0.23787
1702327768398437,-8.933257,0.954161,2.677466,0.63581,0.56182,0.20587
1702327768406250,-8.988257,0.995161,2.601466,0.75081,0.51882,0.22287
1702327768414062,-9.89257,1.7161,2.538466,0.76581,0.42282,0.25487
1702327768421875,-9.211257,0.996161,2.522466,0.60581,0.36382,0.27187
1702327768429687,-9.329257,0.943161,2.601466,0.56081,0.28882,0.24087
1702327768437500,-9.441257,0.918161,2.743466,0.57681,0.9782,0.19187
1702327768445312,-9.547257,0.898161,2.836466,0.58481,0.7082,0.23587
1702327768453125,-9.632257,0.909161,2.841466,0.63881,0.4882,0.25487
1702327768460937,-9.672257,0.921161,2.743466,0.69181,0.7082,0.20887
1702327768468750,-9.692257,0.923161,2.669466,0.67081,0.7682,0.14187
1702327768476562,-9.741257,0.900161,2.856466,0.83281,0.7682,0.9387
1702327768484375,-9.754257,0.887161,2.956466,0.96381,0.1782,0.11087
1702327768492187,-9.717257,0.888161,2.938466,0.94481,0.10782,0.9387
1702327768500000,-9.656257,0.890161,2.992466,0.99581,0.7982,0.11087
1702327768507812,-9.607257,0.848161,2.899466,0.111881,0.6382,0.9987
1702327768515625,-9.591257,0.852161,2.868466,0.118181,0.5182,0.10687
1702327768523437,-9.573257,0.891161,2.949466,0.102881,0.26982,0.6287
1702327768531250,-9.531257,0.918161,2.990466,0.81481,0.37182,0.6087
1702327768539062,-9.452257,0.923161,2.822466,0.83781,0.44682,0.8087
1702327768546875,-9.363257,0.928161,2.685466,0.81981,0.44282,0.4787
1702327768554687,-9.309257,0.903161,2.721466,0.83781,0.38082,0.1613
1702327768562500,-9.264257,0.872161,2.836466,0.78481,0.22682,0.19613
1702327768570312,-9.218257,0.839161,2.802466,0.58481,0.12882,0.33713
1702327768578125,-9.173257,0.825161,2.748466,0.57081,0.382,0.43313
1702327768585937,-9.193257,0.808161,2.775466,0.58881,0.12118,0.51313
1702327768593750,-9.237257,0.782161,2.813466,0.55681,0.21418,0.49613
1702327768601562,-9.264257,0.749161,2.791466,0.52281,0.28018,0.46513
1702327768609375,-9.284257,0.720161,2.736466,0.61281,0.31918,0.40413
1702327768617187,-9.316257,0.709161,2.691466,0.56081,0.32618,0.42213
1702327768625000,-9.344257,0.710161,2.718466,0.58381,0.32918,0.37013
1702327768632812,-9.355257,0.711161,2.714466,0.58581,0.24418,0.25613
1702327768640625,-9.382257,0.704161,2.691466,0.45281,0.21518,0.11313
1702327768648437,-9.386257,0.722161,2.642466,0.30781,0.21118,0.1687
1702327768656250,-9.416257,0.735161,2.603466,0.31781,0.20518,0.6187
1702327768664062,-9.448257,0.738161,2.597466,0.31281,0.11718,0.10787
1702327768671875,-9.475257,0.736161,2.599466,0.29981,0.19218,0.9287
1702327768679687,-9.473257,0.747161,2.606466,0.36281,0.19518,0.7587
1702327768687500,-9.460257,0.757161,2.644466,0.32281,0.19218,0.8787
1702327768695312,-9.435257,0.784161,2.664466,0.34481,0.21418,0.5887
1702327768703125,-9.411257,0.814161,2.655466,0.36081,0.21418,0.4287
1702327768710937,-9.364257,0.832161,2.666466,0.33781,0.10618,0.0
1702327768718750,-9.347257,0.851161,2.680466,0.33281,0.19318,0.313
1702327768726562,-9.334257,0.855161,2.660466,0.28181,0.15318,0.15013
1702327768734375,-9.320257,0.849161,2.657466,0.9081,0.18218,0.19713
1702327768742187,-9.303257,0.841161,2.635466,0.6981,0.15218,0.32013
1702327768750000,-9.308257,0.843161,2.621466,0.8381,0.24818,0.27313
1702327768757812,-9.315257,0.833161,2.624466,0.6381,0.17718,0.30713
1702327768765625,-9.320257,0.835161,2.596466,0.4481,0.16818,0.40513
1702327768773437,-9.348257,0.843161,2.567466,0.3881,0.23018,0.38413
1702327768781250,-9.359257,0.852161,2.477466,0.2719,0.20318,0.48213
1702327768789062,-9.382257,0.848161,2.405466,0.12419,0.18818,0.48213
1702327768796875,-9.399257,0.844161,2.436466,0.15419,0.18518,0.49713
1702327768804687,-9.509257,0.824161,2.615466,0.9119,0.20318,0.48213
1702327768812500,-9.565257,0.786161,2.782466,0.10119,0.20318,0.50213
1702327768820312,-9.551257,0.798161,2.651466,0.18819,0.17218,0.48213
1702327768828125,-9.525257,0.810161,2.533466,0.21019,0.718,0.43613
1702327768835937,-9.543257,0.815161,2.563466,0.19219,0.4282,0.41913
1702327768843750,-9.548257,0.812161,2.626466,0.21519,0.9582,0.40613
1702327768851562,-9.523257,0.814161,2.725466,0.11719,0.6882,0.29213
1702327768859375,-9.498257,0.785161,2.633466,0.7781,0.4182,0.25913
1702327768867187,-9.487257,0.814161,2.563466,0.8319,0.14982,0.30713
1702327768875000,-9.438257,0.842161,2.700466,0.25819,0.27982,0.33813
1702327768882812,-9.360257,0.861161,2.666466,0.35519,0.29482,0.33813
1702327768890625,-9.298257,0.873161,2.574466,0.31419,0.45382,0.37413
1702327768898437,-9.284257,0.884161,2.644466,0.19419,0.55982,0.41813
1702327768906250,-9.235257,0.903161,2.608466,0.21619,0.53482,0.42113
1702327768914062,-9.186257,0.920161,2.553466,0.26019,0.55582,0.45113
1702327768921875,-9.199257,0.932161,2.495466,0.35319,0.56182,0.49813
1702327768929687,-9.235257,0.948161,2.504466,0.43219,0.59182,0.65813
1702327768937500,-9.273257,0.947161,2.499466,0.49319,0.55182,0.60813
1702327768945312,-9.304257,0.940161,2.565466,0.44719,0.54482,0.65813
1702327768953125,-9.336257,0.918161,2.601466,0.66219,0.41082,0.64513
1702327768960937,-9.356257,0.894161,2.590466,0.69219,0.42882,0.70813
1702327768968750,-9.420257,0.864161,2.635466,0.77219,0.49482,0.64313
1702327768976562,-9.478257,0.852161,2.658466,0.86819,0.44782,0.72313
1702327768984375,-9.532257,0.848161,2.649466,0.90219,0.50682,0.72413
1702327768992187,-9.585257,0.856161,2.646466,0.97919,0.55882,0.72213
1702327769000000,-9.624257,0.890161,2.669466,0.97819,0.63982,0.77013
1702327769007812,-9.634257,0.886161,2.719466,0.102119,0.57482,0.77513
1702327769015625,-9.620257,0.898161,2.714466,0.110019,0.54682,0.72613
1702327769023437,-9.634257,0.923161,2.703466,0.122319,0.63682,0.69013
1702327769031250,-9.658257,0.948161,2.714466,0.120519,0.71782,0.67313
1702327769039062,-9.695257,0.959161,2.759466,0.122719,0.67782,0.66013
1702327769046875,-9.706257,0.984161,2.786466,0.126919,0.72182,0.57613
1702327769054687,-9.675257,1.8161,2.798466,0.140119,0.70282,0.51313
1702327769062500,-9.647257,1.15161,2.791466,0.128319,0.73082,0.53513
1702327769070312,-9.595257,1.33161,2.766466,0.133819,0.81282,0.43313
1702327769078125,-9.537257,1.32161,2.752466,0.140519,0.84082,0.40213
1702327769085937,-9.537257,1.50161,2.770466,0.134219,0.83782,0.40313
1702327769093750,-9.508257,1.47161,2.782466,0.128919,0.79682,0.41713
1702327769101562,-9.441257,1.57161,2.759466,0.129219,0.80982,0.40213
1702327769109375,-9.389257,1.70161,2.718466,0.129119,0.82482,0.43413
1702327769117187,-9.361257,1.82161,2.687466,0.132619,0.82182,0.40313
1702327769125000,-9.340257,1.107161,2.671466,0.125719,0.82882,0.43313
1702327769132812,-9.334257,1.108161,2.644466,0.123019,0.75682,0.48413
1702327769140625,-9.325257,1.118161,2.619466,0.124019,0.70382,0.46513
1702327769148437,-9.301257,1.112161,2.619466,0.117819,0.65082,0.51513
1702327769156250,-9.282257,1.130161,2.635466,0.120519,0.59782,0.46413
1702327769164062,-9.259257,1.143161,2.637466,0.124319,0.51082,0.40313
1702327769171875,-9.226257,1.152161,2.648466,0.108819,0.48082,0.38213
1702327769179687,-9.217257,1.157161,2.626466,0.95819,0.41282,0.24413
1702327769187500,-9.228257,1.168161,2.596466,0.99019,0.34682,0.35713
1702327769195312,-9.223257,1.155161,2.538466,0.98519,0.30982,0.29013
1702327769203125,-9.216257,1.165161,2.499466,0.93219,0.30082,0.30413
1702327769210937,-9.216257,1.162161,2.431466,0.85119,0.33182,0.33613
1702327769218750,-9.209257,1.162161,2.348466,0.94919,0.44082,0.33613
1702327769226562,-9.220257,1.151161,2.276466,0.91919,0.56182,0.33713
1702327769234375,-9.259257,1.133161,2.341466,0.92519,0.58382,0.32413
1702327769242187,-9.316257,1.108161,2.506466,0.72619,0.53082,0.33713
1702327769250000,-9.374257,1.92161,2.599466,0.62919,0.65582,0.35413
1702327769257812,-9.406257,1.87161,2.639466,0.49319,0.76782,0.32513
1702327769265625,-9.461257,1.68161,2.630466,0.44219,0.75982,0.22713
1702327769273437,-9.514257,1.70161,2.682466,0.45019,0.81882,0.25613
1702327769281250,-9.555257,1.75161,2.676466,0.40219,0.80282,0.23913
1702327769289062,-9.613257,1.68161,2.646466,0.34319,0.79382,0.22613
1702327769296875,-9.675257,1.71161,2.723466,0.34919,0.83082,0.26113
1702327769304687,-9.696257,1.68161,2.784466,0.17819,0.89382,0.28913
1702327769312500,-9.667257,1.89161,2.721466,0.24419,0.92182,0.29013
1702327769320312,-9.585257,1.90161,2.624466,0.29619,0.90382,0.16213
1702327769328125,-9.497257,1.74161,2.734466,0.22619,0.89682,0.17513
1702327769335937,-9.412257,1.50161,2.870466,0.18319,0.86882,0.27513
1702327769343750,-9.345257,1.62161,2.874466,0.14919,0.82882,0.12913
1702327769351562,-9.312257,1.61161,2.818466,0.919,0.78882,0.13213
1702327769359375,-9.345257,1.82161,2.786466,0.5881,0.80682,0.25913
1702327769367187,-9.410257,1.112161,2.759466,0.4581,0.76282,0.30613
1702327769375000,-9.389257,1.129161,2.730466,0.3919,0.75682,0.34013
1702327769382812,-9.336257,1.103161,2.583466,0.5181,0.57082,0.23913
1702327769390625,-9.329257,1.89161,2.599466,0.4681,0.56782,0.26613
1702327769398437,-9.326257,1.113161,2.793466,0.6919,0.58882,0.24313
1702327769406250,-9.268257,1.124161,2.784466,0.23719,0.53382,0.16613
1702327769414062,-9.248257,1.126161,2.675466,0.4219,0.52182,0.11613
1702327769421875,-9.272257,1.102161,2.612466,0.5181,0.50382,0.2687
1702327769429687,-9.337257,1.88161,2.610466,0.5281,0.42582,0.3713
1702327769437500,-9.355257,1.95161,2.666466,0.2819,0.34782,0.1087
1702327769445312,-9.342257,1.98161,2.549466,0.25719,0.40282,0.8713
1702327769453125,-9.315257,1.107161,2.621466,0.24019,0.46882,0.2213
1702327769460937,-9.326257,1.67161,2.829466,0.8219,0.30782,0.787
1702327769468750,-9.350257,1.46161,2.858466,0.5181,0.29882,0.613
1702327769476562,-9.347257,1.44161,2.818466,0.7181,0.22682,0.413
1702327769484375,-9.388257,1.58161,2.816466,0.25181,0.29182,0.3513
1702327769492187,-9.416257,1.82161,2.800466,0.40581,0.36982,0.3013
1702327769500000,-9.437257,1.108161,2.800466,0.35181,0.32982,0.1713
1702327769507812,-9.469257,1.139161,2.788466,0.47881,0.34282,0.5013
1702327769515625,-9.478257,1.140161,2.775466,0.43381,0.39482,0.3213
1702327769523437,-9.487257,1.126161,2.757466,0.36781,0.36082,0.4913
1702327769531250,-9.488257,1.109161,2.728466,0.41981,0.32082,0.0
1702327769539062,-9.481257,1.78161,2.694466,0.43581,0.36782,0.0
1702327769546875,-9.488257,1.60161,2.639466,0.61081,0.45782,0.3187
1702327769554687,-9.478257,1.38161,2.617466,0.51581,0.44582,0.1687
1702327769562500,-9.474257,1.50161,2.612466,0.51981,0.40482,0.1887
1702327769570312,-9.490257,1.47161,2.601466,0.57781,0.29882,0.3313
1702327769578125,-9.498257,1.45161,2.599466,0.56781,0.32382,0.3013
1702327769585937,-9.510257,1.47161,2.619466,0.51681,0.30582,0.0
1702327769593750,-9.505257,1.16161,2.662466,0.43681,0.28982,0.1513
1702327769601562,-9.476257,0.986161,2.712466,0.34781,0.24582,0.1287
1702327769609375,-9.460257,0.964161,2.734466,0.31381,0.5682,0.7687
1702327769617187,-9.451257,0.964161,2.739466,0.29781,0.5682,0.6087
1702327769625000,-9.457257,0.935161,2.718466,0.28581,0.3182,0.6287
1702327769632812,-9.441257,0.919161,2.696466,0.34781,0.15382,0.10987
1702327769640625,-9.426257,0.908161,2.667466,0.39581,0.23082,0.9287
1702327769648437,-9.416257,0.888161,2.680466,0.28281,0.21582,0.9287
1702327769656250,-9.396257,0.872161,2.673466,0.24781,0.18182,0.12487
1702327769664062,-9.353257,0.860161,2.642466,0.27981,0.33682,0.10787
1702327769671875,-9.322257,0.851161,2.644466,0.26781,0.34282,0.10987
1702327769679687,-9.272257,0.846161,2.614466,0.31781,0.42382,0.9487
1702327769687500,-9.253257,0.874161,2.583466,0.32681,0.33782,0.22087
1702327769695312,-9.270257,0.879161,2.551466,0.34781,0.37482,0.12587
1702327769703125,-9.284257,0.888161,2.529466,0.29681,0.38682,0.12487
1702327769710937,-9.282257,0.897161,2.560466,0.34681,0.43682,0.18987
1702327769718750,-9.273257,0.904161,2.565466,0.31181,0.38782,0.23787
1702327769726562,-9.278257,0.885161,2.646466,0.46881,0.30082,0.20287
1702327769734375,-9.237257,0.878161,2.721466,0.50381,0.10182,0.26787
1702327769742187,-9.167257,0.860161,2.603466,0.59181,0.14582,0.28787
1702327769750000,-9.90257,0.883161,2.472466,0.43781,0.28882,0.26787
1702327769757812,-9.58257,0.907161,2.422466,0.21481,0.27482,0.20487
1702327769765625,-9.24257,0.916161,2.395466,0.32381,0.32482,0.11387
1702327769773437,-9.40257,0.916161,2.440466,0.31881,0.15982,0.12787
1702327769781250,-9.102257,0.913161,2.508466,0.30881,0.5982,0.11387
1702327769789062,-9.158257,0.901161,2.562466,0.32781,0.3018,0.9887
1702327769796875,-9.219257,0.901161,2.531466,0.28881,0.16718,0.11187
1702327769804687,-9.284257,0.900161,2.513466,0.14281,0.7418,0.11187
1702327769812500,-9.371257,0.892161,2.508466,0.17581,0.12118,0.9587
1702327769820312,-9.487257,0.894161,2.490466,0.12881,0.7118,0.11287
1702327769828125,-9.617257,0.887161,2.479466,0.4781,0.7118,0.9687
1702327769835937,-9.703257,0.888161,2.495466,0.13881,0.3418,0.7787
1702327769843750,-9.747257,0.863161,2.475466,0.11381,0.4082,0.9687
1702327769851562,-9.780257,0.850161,2.585466,0.25581,0.6582,0.7887
1702327769859375,-9.811257,0.853161,2.646466,0.4881,0.14982,0.6487
1702327769867187,-9.817257,0.859161,2.608466,0.7181,0.37082,0.6087
1702327769875000,-9.821257,0.870161,2.619466,0.13681,0.40182,0.1287
1702327769882812,-9.804257,0.887161,2.662466,0.5681,0.46282,0.3513
1702327769890625,-9.761257,0.896161,2.707466,0.4381,0.54682,0.3313
1702327769898437,-9.707257,0.916161,2.725466,0.6481,0.66582,0.87
1702327769906250,-9.660257,0.939161,2.716466,0.4881,0.57282,0.3387
1702327769914062,-9.612257,0.942161,2.728466,0.519,0.54682,0.113
1702327769921875,-9.580257,0.931161,2.734466,0.7119,0.55982,0.1813
1702327769929687,-9.556257,0.919161,2.737466,0.23719,0.53782,0.1187
1702327769937500,-9.538257,0.921161,2.714466,0.21919,0.49082,0.8413
1702327769945312,-9.524257,0.916161,2.691466,0.29619,0.44982,0.6613
1702327769953125,-9.526257,0.895161,2.651466,0.37319,0.39382,0.6413
1702327769960937,-9.545257,0.871161,2.626466,0.40419,0.37782,0.16113
1702327769968750,-9.565257,0.835161,2.621466,0.39019,0.29282,0.19513
1702327769976562,-9.590257,0.815161,2.610466,0.45919,0.30682,0.3513
1702327769984375,-9.609257,0.774161,2.619466,0.45919,0.29082,0.1913
1702327769992187,-9.606257,0.761161,2.662466,0.49919,0.32282,0.3387
1702327770000000,-9.566257,0.751161,2.676466,0.53919,0.29482,0.7787
1702327770007812,-9.519257,0.742161,2.673466,0.47119,0.30182,0.11187
1702327770015625,-9.454257,0.748161,2.676466,0.47119,0.33282,0.9587
1702327770023437,-9.376257,0.764161,2.639466,0.45719,0.32982,0.11087
1702327770031250,-9.296257,0.778161,2.574466,0.47319,0.36082,0.9487
1702327770039062,-9.225257,0.810161,2.529466,0.45919,0.37282,0.10987
1702327770046875,-9.147257,0.835161,2.520466,0.47719,0.35382,0.9287
1702327770054687,-9.117257,0.838161,2.499466,0.37619,0.26682,0.11087
1702327770062500,-9.93257,0.863161,2.486466,0.42519,0.13982,0.10987
1702327770070312,-9.78257,0.863161,2.479466,0.46119,0.14882,0.9187
1702327770078125,-9.102257,0.875161,2.465466,0.46919,0.6782,0.11187
1702327770085937,-9.121257,0.867161,2.463466,0.44819,0.4418,0.9087
1702327770093750,-9.146257,0.872161,2.461466,0.45119,0.9718,0.10487
1702327770101562,-9.182257,0.888161,2.447466,0.36619,0.18418,0.9087
1702327770109375,-9.217257,0.894161,2.416466,0.32919,0.11218,0.10987
1702327770117187,-9.264257,0.894161,2.398466,0.20219,0.18118,0.5987
1702327770125000,-9.296257,0.892161,2.384466,0.22419,0.20618,0.2487
1702327770132812,-9.339257,0.893161,2.375466,0.9219,0.24918,0.613
1702327770140625,-9.352257,0.884161,2.384466,0.5681,0.18118,0.3613
1702327770148437,-9.360257,0.880161,2.409466,0.9281,0.17918,0.18013
1702327770156250,-9.365257,0.873161,2.429466,0.23081,0.23718,0.18313
1702327770164062,-9.347257,0.877161,2.450466,0.31381,0.25018,0.21413
1702327770171875,-9.336257,0.880161,2.423466,0.44981,0.24118,0.26013
1702327770179687,-9.297257,0.907161,2.411466,0.58581,0.22818,0.22413
1702327770187500,-9.262257,0.913161,2.371466,0.56581,0.20318,0.24213
1702327770195312,-9.232257,0.911161,2.337466,0.57181,0.20718,0.32813
1702327770203125,-9.236257,0.929161,2.287466,0.55881,0.24718,0.24613
1702327770210937,-9.249257,0.920161,2.264466,0.54381,0.27818,0.32613
1702327770218750,-9.310257,0.935161,2.235466,0.54581,0.18218,0.38913
1702327770226562,-9.393257,0.940161,2.208466,0.39881,0.31018,0.40613
1702327770234375,-9.515257,0.923161,2.228466,0.32381,0.23918,0.41913
1702327770242187,-9.633257,0.898161,2.276466,0.19981,0.32718,0.48113
1702327770250000,-9.754257,0.881161,2.332466,0.12081,0.32418,0.44813
1702327770257812,-9.857257,0.841161,2.389466,0.2981,0.27718,0.40513
1702327770265625,-9.912257,0.813161,2.486466,0.13019,0.21218,0.38813
1702327770273437,-9.943257,0.784161,2.450466,0.7519,0.26118,0.27213
1702327770281250,-9.987257,0.739161,2.339466,0.1281,0.22618,0.18013
1702327770289062,-10.41257,0.759161,2.452466,0.30619,0.4218,0.3213
1702327770296875,-10.48257,0.767161,2.597466,0.45619,0.23182,0.5013
1702327770304687,-9.986257,0.744161,2.516466,0.48019,0.40982,0.3713
1702327770312500,-9.891257,0.747161,2.459466,0.42919,0.49382,0.4487
1702327770320312,-9.792257,0.732161,2.421466,0.34919,0.55682,0.10887
1702327770328125,-9.723257,0.742161,2.436466,0.46419,0.55382,0.12387
1702327770335937,-9.652257,0.783161,2.520466,0.57919,0.53482,0.13887
1702327770343750,-9.597257,0.811161,2.601466,0.78519,0.60282,0.10887
1702327770351562,-9.559257,0.842161,2.603466,0.86419,0.55882,0.9387
1702327770359375,-9.539257,0.848161,2.588466,0.81719,0.54082,0.10887
1702327770367187,-9.551257,0.876161,2.624466,0.74019,0.53382,0.9087
1702327770375000,-9.534257,0.898161,2.594466,0.77919,0.57182,0.13587
1702327770382812,-9.513257,0.900161,2.533466,0.71119,0.57782,0.13787
1702327770390625,-9.486257,0.916161,2.488466,0.77019,0.54182,0.23687
1702327770398437,-9.477257,0.904161,2.454466,0.83819,0.64782,0.26787
1702327770406250,-9.470257,0.894161,2.427466,0.81719,0.54382,0.22187
1702327770414062,-9.458257,0.869161,2.398466,0.84719,0.69082,0.30387
1702327770421875,-9.444257,0.833161,2.391466,0.96419,0.68482,0.30187
1702327770429687,-9.428257,0.804161,2.391466,0.93319,0.61882,0.25287
1702327770437500,-9.421257,0.771161,2.402466,0.80019,0.64082,0.25487
1702327770445312,-9.408257,0.759161,2.384466,0.83819,0.69382,0.23587
1702327770453125,-9.388257,0.759161,2.375466,0.82419,0.69082,0.29887
1702327770460937,-9.384257,0.756161,2.400466,0.89319,0.73182,0.26487
1702327770468750,-9.381257,0.772161,2.407466,0.78919,0.77582,0.34887
1702327770476562,-9.369257,0.793161,2.409466,0.62119,0.73782,0.25587
1702327770484375,-9.352257,0.808161,2.416466,0.75319,0.75082,0.33487
1702327770492187,-9.341257,0.825161,2.427466,0.56419,0.72582,0.29987
1702327770500000,-9.330257,0.843161,2.432466,0.46419,0.71682,0.34987
1702327770507812,-9.335257,0.838161,2.434466,0.36819,0.65082,0.25287
1702327770515625,-9.332257,0.845161,2.441466,0.31319,0.64482,0.23987
1702327770523437,-9.354257,0.826161,2.475466,0.21819,0.67282,0.20687
1702327770531250,-9.383257,0.813161,2.481466,0.16719,0.65982,0.17587
1702327770539062,-9.406257,0.803161,2.479466,0.17619,0.61282,0.12287
1702327770546875,-9.442257,0.784161,2.488466,0.7919,0.69082,0.9087
1702327770554687,-9.450257,0.769161,2.499466,0.2719,0.68182,0.10887
1702327770562500,-9.455257,0.765161,2.508466,0.381,0.69382,0.5987
1702327770570312,-9.470257,0.743161,2.527466,0.2581,0.65682,0.3087
1702327770578125,-9.477257,0.743161,2.490466,0.18281,0.74382,0.1287
1702327770585937,-9.488257,0.741161,2.470466,0.31481,0.73182,0.1387
1702327770593750,-9.490257,0.725161,2.470466,0.32781,0.75582,0.6913
1702327770601562,-9.494257,0.721161,2.493466,0.31681,0.79182,0.21113
1702327770609375,-9.500257,0.706161,2.490466,0.33581,0.77882,0.30613
1702327770617187,-9.491257,0.679161,2.545466,0.41381,0.72582,0.32413
1702327770625000,-9.478257,0.650161,2.617466,0.49181,0.64582,0.24513
1702327770632812,-9.461257,0.631161,2.506466,0.58081,0.75582,0.19213
1702327770640625,-9.410257,0.658161,2.506466,0.28681,0.88782,0.27413
1702327770648437,-9.353257,0.648161,2.506466,0.8381,0.80982,0.29513
1702327770656250,-9.332257,0.646161,2.490466,0.17381,0.76382,0.21013
1702327770664062,-9.332257,0.659161,2.497466,0.30181,0.73382,0.16213
1702327770671875,-9.337257,0.697161,2.488466,0.31681,0.58682,0.24413
1702327770679687,-9.340257,0.710161,2.459466,0.28181,0.56782,0.22913
1702327770687500,-9.375257,0.713161,2.470466,0.19281,0.61082,0.25713
1702327770695312,-9.433257,0.699161,2.481466,0.9481,0.56082,0.27413
1702327770703125,-9.470257,0.680161,2.520466,0.7619,0.52982,0.27913
1702327770710937,-9.518257,0.668161,2.551466,0.7319,0.55182,0.21313
1702327770718750,-9.551257,0.658161,2.540466,0.8519,0.54282,0.21113
1702327770726562,-9.576257,0.650161,2.522466,0.11819,0.58882,0.22713
1702327770734375,-9.585257,0.647161,2.488466,0.13719,0.69482,0.16413
1702327770742187,-9.585257,0.650161,2.479466,0.19919,0.74782,0.13013
1702327770750000,-9.594257,0.654161,2.490466,0.12319,0.82082,0.5213
1702327770757812,-9.589257,0.659161,2.515466,0.21719,0.82282,0.9913
1702327770765625,-9.586257,0.676161,2.558466,0.20419,0.80082,0.16513
1702327770773437,-9.566257,0.700161,2.610466,0.22319,0.82982,0.11813
1702327770781250,-9.542257,0.710161,2.633466,0.24219,0.87282,0.10313
1702327770789062,-9.506257,0.748161,2.653466,0.20719,0.97382,0.1087
1702327770796875,-9.494257,0.760161,2.676466,0.19519,0.102482,0.15213
1702327770804687,-9.462257,0.787161,2.637466,0.22119,0.101782,0.26113
1702327770812500,-9.429257,0.824161,2.626466,0.18719,0.92482,0.32513
1702327770820312,-9.376257,0.845161,2.626466,0.20519,0.88982,0.31013
1702327770828125,-9.336257,0.853161,2.601466,0.17219,0.88982,0.40713
1702327770835937,-9.307257,0.866161,2.563466,0.15719,0.87082,0.45613
1702327770843750,-9.273257,0.866161,2.533466,0.3919,0.78382,0.43813
1702327770851562,-9.259257,0.851161,2.535466,0.11719,0.77482,0.40413
1702327770859375,-9.221257,0.852161,2.547466,0.12019,0.70582,0.40513
1702327770867187,-9.179257,0.832161,2.551466,0.8019,0.62782,0.49013
1702327770875000,-9.147257,0.841161,2.542466,0.7419,0.57482,0.48713
1702327770882812,-9.142257,0.840161,2.477466,0.8319,0.63682,0.50813
1702327770890625,-9.157257,0.868161,2.450466,0.7081,0.68382,0.51913
1702327770898437,-9.206257,0.884161,2.425466,0.719,0.65582,0.56713
1702327770906250,-9.301257,0.896161,2.434466,0.15519,0.55582,0.60113
1702327770914062,-9.386257,0.896161,2.477466,0.15619,0.63382,0.56913
1702327770921875,-9.462257,0.890161,2.549466,0.20319,0.53982,0.64913
1702327770929687,-9.522257,0.880161,2.619466,0.18719,0.41182,0.71413
1702327770937500,-9.573257,0.890161,2.640466,0.24819,0.51482,0.58313
1702327770945312,-9.617257,0.890161,2.612466,0.14219,0.51782,0.63413
1702327770953125,-9.661257,0.891161,2.599466,0.619,0.54682,0.56613
1702327770960937,-9.709257,0.898161,2.567466,0.1881,0.51882,0.55413
1702327770968750,-9.728257,0.894161,2.556466,0.5381,0.61882,0.52013
1702327770976562,-9.726257,0.883161,2.597466,0.1981,0.56882,0.50513
1702327770984375,-9.701257,0.883161,2.649466,0.15481,0.62482,0.58313
1702327770992187,-9.677257,0.878161,2.692466,0.15081,0.60282,0.55213
1702327771000000,-9.628257,0.866161,2.725466,0.16081,0.64482,0.41013
1702327771007812,-9.585257,0.857161,2.721466,0.18081,0.72882,0.40813
1702327771015625,-9.559257,0.873161,2.678466,0.2881,0.77482,0.40413
1702327771023437,-9.537257,0.876161,2.644466,0.5481,0.71882,0.39013
1702327771031250,-9.531257,0.874161,2.628466,0.3881,0.79682,0.42213
1702327771039062,-9.526257,0.876161,2.608466,0.3581,0.77882,0.29513
1702327771046875,-9.508257,0.864161,2.597466,0.6019,0.76282,0.35913
1702327771054687,-9.514257,0.838161,2.601466,0.13719,0.70582,0.37313
1702327771062500,-9.512257,0.843161,2.608466,0.21919,0.65682,0.35813
1702327771070312,-9.494257,0.818161,2.588466,0.20319,0.68782,0.35813
1702327771078125,-9.490257,0.804161,2.569466,0.22819,0.64482,0.28213
1702327771085937,-9.485257,0.804161,2.569466,0.25619,0.65082,0.28013
1702327771093750,-9.483257,0.804161,2.560466,0.35419,0.68182,0.24813
1702327771101562,-9.481257,0.811161,2.560466,0.40019,0.68482,0.26313
1702327771109375,-9.473257,0.814161,2.567466,0.35819,0.71582,0.24213
1702327771117187,-9.465257,0.809161,2.581466,0.46419,0.71982,0.18213
1702327771125000,-9.453257,0.807161,2.612466,0.46319,0.73882,0.6913
1702327771132812,-9.442257,0.802161,2.608466,0.46219,0.66482,0.2887
1702327771140625,-9.422257,0.812161,2.597466,0.50119,0.73382,0.7387
1702327771148437,-9.411257,0.806161,2.587466,0.53119,0.73682,0.7487
1702327771156250,-9.382257,0.803161,2.569466,0.59619,0.68982,0.10687
1702327771164062,-9.379257,0.808161,2.565466,0.55619,0.65582,0.9487
1702327771171875,-9.386257,0.808161,2.576466,0.44819,0.64682,0.9187
1702327771179687,-9.394257,0.807161,2.558466,0.42619,0.63182,0.10287
1702327771187500,-9.413257,0.801161,2.538466,0.45219,0.56282,0.8987
1702327771195312,-9.422257,0.797161,2.576466,0.41419,0.61882,0.7687
1702327771203125,-9.403257,0.793161,2.612466,0.23419,0.57582,0.10987
1702327771210937,-9.397257,0.788161,2.540466,0.9419,0.47282,0.10687
1702327771218750,-9.406257,0.812161,2.590466,0.1219,0.56982,0.5987
1702327771226562,-9.423257,0.850161,2.746466,0.15719,0.53782,0.5987
1702327771234375,-9.368257,0.882161,2.691466,0.12719,0.57782,0.5413
1702327771242187,-9.298257,0.895161,2.599466,0.2719,0.55382,0.1187
1702327771250000,-9.230257,0.886161,2.551466,0.22181,0.51582,0.6513
1702327771257812,-9.196257,0.883161,2.492466,0.29181,0.35082,0.9513
1702327771265625,-9.194257,0.894161,2.479466,0.10981,0.29382,0.16213
1702327771273437,-9.195257,0.875161,2.486466,0.8881,0.28382,0.29313
1702327771281250,-9.194257,0.842161,2.522466,0.9181,0.22482,0.34113
1702327771289062,-9.216257,0.826161,2.547466,0.13181,0.12482,0.41813
1702327771296875,-9.267257,0.793161,2.605466,0.17881,0.2782,0.40313
1702327771304687,-9.303257,0.787161,2.635466,0.35581,0.1818,0.35413
1702327771312500,-9.312257,0.787161,2.610466,0.48181,0.2282,0.40413
1702327771320312,-9.312257,0.794161,2.558466,0.51581,0.518,0.40313
1702327771328125,-9.311257,0.819161,2.529466,0.45581,0.818,0.36113
1702327771335937,-9.340257,0.847161,2.488466,0.57681,0.6582,0.42113
1702327771343750,-9.391257,0.836161,2.468466,0.55981,0.6682,0.35713
1702327771351562,-9.440257,0.826161,2.477466,0.54281,0.14482,0.34113
1702327771359375,-9.474257,0.802161,2.497466,0.42781,0.14082,0.35813
1702327771367187,-9.530257,0.776161,2.560466,0.47481,0.16882,0.39113
1702327771375000,-9.593257,0.760161,2.558466,0.51481,0.13482,0.35513
1702327771382812,-9.642257,0.755161,2.558466,0.45481,0.15982,0.30513
1702327771390625,-9.684257,0.756161,2.576466,0.45681,0.13182,0.32013
1702327771398437,-9.710257,0.755161,2.585466,0.41281,0.19082,0.29313
1702327771406250,-9.710257,0.758161,2.592466,0.55981,0.33782,0.21113
1702327771414062,-9.692257,0.753161,2.617466,0.44481,0.25782,0.14813
1702327771421875,-9.652257,0.758161,2.626466,0.55481,0.30182,0.6913
1702327771429687,-9.625257,0.756161,2.631466,0.49281,0.28882,0.13213
1702327771437500,-9.594257,0.771161,2.612466,0.45881,0.30482,0.3613
1702327771445312,-9.563257,0.775161,2.610466,0.53981,0.30182,0.14913
1702327771453125,-9.527257,0.783161,2.610466,0.37981,0.41282,0.16413
1702327771460937,-9.522257,0.788161,2.597466,0.46181,0.44782,0.16313
1702327771468750,-9.516257,0.778161,2.617466,0.29481,0.39082,0.15013
1702327771476562,-9.523257,0.779161,2.628466,0.23281,0.37782,0.19713
1702327771484375,-9.525257,0.749161,2.637466,0.17981,0.34182,0.11913
1702327771492187,-9.515257,0.741161,2.642466,0.3881,0.49082,0.5213
1702327771500000,-9.491257,0.736161,2.624466,0.5181,0.61282,0.513
1702327771507812,-9.475257,0.722161,2.601466,0.3181,0.52882,0.887
1702327771515625,-9.454257,0.707161,2.597466,0.3481,0.59782,0.7487
1702327771523437,-9.430257,0.719161,2.587466,0.4781,0.64182,0.10587
1702327771531250,-9.419257,0.708161,2.592466,0.2981,0.65382,0.8887
1702327771539062,-9.392257,0.710161,2.612466,0.7981,0.70382,0.10587
1702327771546875,-9.349257,0.702161,2.599466,0.2781,0.63482,0.8787
1702327771554687,-9.340257,0.699161,2.680466,0.11681,0.60082,0.12387
1702327771562500,-9.308257,0.669161,2.621466,0.28981,0.56482,0.16987
1702327771570312,-9.299257,0.692161,2.540466,0.2081,0.68182,0.9287
1702327771578125,-9.273257,0.735161,2.535466,0.6119,0.74482,0.17287
1702327771585937,-9.263257,0.718161,2.524466,0.3981,0.75082,0.14287
1702327771593750,-9.297257,0.705161,2.601466,0.8681,0.55782,0.9287
1702327771601562,-9.331257,0.712161,2.572466,0.24981,0.56082,0.10987
1702327771609375,-9.355257,0.706161,2.590466,0.26481,0.52682,0.9287
1702327771617187,-9.377257,0.697161,2.635466,0.28281,0.46782,0.10987
1702327771625000,-9.407257,0.698161,2.637466,0.29681,0.49582,0.9287
1702327771632812,-9.434257,0.687161,2.646466,0.31181,0.41482,0.10787
1702327771640625,-9.449257,0.678161,2.648466,0.39381,0.52682,0.9287
1702327771648437,-9.449257,0.670161,2.635466,0.37681,0.58882,0.7687
1702327771656250,-9.420257,0.671161,2.624466,0.55581,0.58882,0.2887
1702327771664062,-9.400257,0.682161,2.601466,0.52081,0.61682,0.7587
1702327771671875,-9.387257,0.688161,2.590466,0.56881,0.58582,0.7587
1702327771679687,-9.387257,0.676161,2.585466,0.56481,0.65082,0.187
1702327771687500,-9.395257,0.668161,2.599466,0.53781,0.56982,0.1187
1702327771695312,-9.386257,0.671161,2.633466,0.52181,0.56982,0.413
1702327771703125,-9.377257,0.657161,2.657466,0.42381,0.53582,0.3713
1702327771710937,-9.343257,0.659161,2.644466,0.42881,0.55982,0.1813
1702327771718750,-9.309257,0.671161,2.635466,0.30481,0.52582,0.5613
1702327771726562,-9.297257,0.676161,2.603466,0.43981,0.55082,0.5313
1702327771734375,-9.320257,0.703161,2.513466,0.24681,0.59682,0.16613
1702327771742187,-9.386257,0.675161,2.459466,0.10281,0.61082,0.27813
1702327771750000,-9.449257,0.658161,2.511466,0.8481,0.60782,0.29513
1702327771757812,-9.500257,0.635161,2.619466,0.9081,0.53882,0.27613
1702327771765625,-9.571257,0.609161,2.669466,0.4081,0.50482,0.29313
1702327771773437,-9.629257,0.590161,2.703466,0.2681,0.50782,0.27613
1702327771781250,-9.682257,0.592161,2.721466,0.14719,0.57582,0.25813
1702327771789062,-9.721257,0.589161,2.680466,0.22119,0.57982,0.13413
1702327771796875,-9.729257,0.577161,2.651466,0.19819,0.73682,0.3313
1702327771804687,-9.734257,0.570161,2.671466,0.20019,0.81182,0.213
1702327771812500,-9.727257,0.565161,2.707466,0.18819,0.78982,0.1187
1702327771820312,-9.689257,0.567161,2.732466,0.22219,0.75582,0.1187
