time,Acceleration X (m/s^2),Acceleration Y (m/s^2),Acceleration Z (m/s^2),Angular Velocity X (rad/s),Angular Velocity Y (rad/s),Angular Velocity Z (rad/s)
1700499730031250,-9.335177,-3.299545,-0.096867,,,
1700499730039062,-9.332177,-3.308545,0.333211,0.84867,0.62555,0.46218
1700499730046875,-9.315177,-3.268545,0.328211,0.79667,0.71755,0.43118
1700499730054687,-9.280177,-3.249545,0.340211,0.74167,0.61955,0.45018
1700499730062500,-9.264177,-3.238545,0.331211,0.72867,0.65255,0.43218
1700499730070312,-9.243177,-3.276545,0.315211,0.73267,0.57755,0.38318
1700499730085937,-9.202177,-3.332545,0.360211,0.70767,0.71355,0.33818
1700499730093750,-9.216177,-3.339545,0.376211,0.55867,0.63255,0.35518
1700499730101562,-9.229177,-3.343545,0.353211,0.46867,0.68255,0.41718
1700499730109375,-9.214177,-3.330545,0.360211,0.46367,0.66455,0.38618
1700499730132812,-9.154177,-3.271545,0.324211,0.22567,0.55555,0.49818
1700499730140625,-9.192177,-3.237545,0.321211,0.20067,0.49855,0.44718
1700499730148437,-9.245177,-3.204545,0.286211,0.633,0.44355,0.41918
1700499730156250,-9.267177,-3.174545,0.243211,0.3233,0.44655,0.41818
1700499730164062,-9.288177,-3.183545,0.213211,0.3833,0.44355,0.38718
1700499730171875,-9.333177,-3.237545,0.204211,0.13133,0.29255,0.20918
1700499730179687,-9.383177,-3.219545,0.197211,0.25533,0.17055,0.19218
1700499730187500,-9.424177,-3.152545,0.161211,0.35633,0.10555,0.20918
1700499730195312,-9.414177,-3.79545,0.130211,0.40133,0.12155,0.30418
1700499730203125,-9.410177,-2.988545,0.150211,0.29633,0.15955,0.23718
1700499730210937,-9.485177,-2.950545,0.157211,0.30633,0.1155,0.24118
1700499730218750,-9.562177,-2.924545,0.101211,0.16733,0.855,0.19518
1700499730226562,-9.625177,-2.901545,0.155211,0.7167,0.5755,0.6082
1700499730234375,-9.688177,-2.847545,0.216211,0.23967,0.23655,0.17682
1700499730242187,-9.724177,-2.878545,0.247211,0.37867,0.21755,0.23882
1700499730250000,-9.698177,-2.989545,0.241211,0.72867,0.40255,0.28482
1700499730257812,-9.555177,-3.128545,0.263211,0.71567,0.70055,0.20582
1700499730265625,-9.359177,-3.204545,0.306211,0.73467,0.84255,0.17482
1700499730273437,-9.182177,-3.211545,0.322211,0.74967,0.98055,0.218
1700499730281250,-9.52177,-3.197545,0.344211,0.72367,0.98155,0.20918
1700499730289062,-9.8177,-3.165545,0.340211,0.72267,0.111955,0.33718
1700499730296875,-9.46177,-3.167545,0.272211,0.44367,0.113255,0.32318
1700499730304687,-9.54177,-3.242545,0.245211,0.29667,0.117755,0.34018
1700499730312500,-9.25177,-3.349545,0.252211,0.3567,0.120655,0.32418
1700499730320312,-9.53177,-3.412545,0.258211,0.30233,0.113055,0.18018
1700499730328125,-9.119177,-3.372545,0.342211,0.52833,0.111455,0.19618
1700499730335937,-9.155177,-3.198545,0.389211,0.78333,0.95955,0.21118
1700499730343750,-9.203177,-2.979545,0.417211,0.101133,0.72255,0.26018
1700499730351562,-9.261177,-2.991545,0.277211,0.116433,0.44655,0.27418
1700499730359375,-9.242177,-2.929545,0.155211,0.110233,0.46355,0.8218
1700499730367187,-9.345177,-2.909545,0.272211,0.114833,0.31155,0.11182
1700499730375000,-9.507177,-2.984545,0.274211,0.127733,0.18955,0.32082
1700499730382812,-9.713177,-3.147545,0.146211,0.119933,0.6455,0.49682
1700499730390625,-9.778177,-3.308545,0.87211,0.113933,0.25055,0.54382
1700499730398437,-9.778177,-3.428545,0.141211,0.95033,0.45055,0.52582
1700499730406250,-9.742177,-3.453545,0.144211,0.68933,0.65355,0.39882
1700499730414062,-9.710177,-3.362545,0.137211,0.46233,0.87355,0.35082
1700499730421875,-9.704177,-3.177545,0.232211,0.37033,0.124355,0.18882
1700499730429687,-9.683177,-3.55545,0.313211,0.25533,0.155755,0.17382
1700499730437500,-9.777177,-3.54545,0.272211,0.0,0.200855,0.12582
1700499730445312,-9.745177,-2.988545,0.525211,0.15667,0.267655,0.4382
1700499730453125,-9.621177,-2.815545,0.896211,0.43267,0.344955,0.3982
1700499730460937,-9.451177,-2.605545,1.187211,0.65267,0.407855,0.13318
1700499730468750,-9.125177,-2.541545,1.381211,0.95467,0.459155,0.23018
1700499730476562,-8.752177,-2.622545,1.469211,0.132567,0.482455,0.34318
1700499730484375,-8.458177,-2.679545,1.536211,0.169367,0.473655,0.51518
1700499730492187,-8.283177,-2.724545,1.412211,0.182367,0.432855,0.67618
1700499730500000,-8.331177,-2.796545,1.202211,0.186167,0.382955,0.85218
1700499730507812,-8.521177,-2.918545,0.954211,0.179567,0.323355,0.91718
1700499730515625,-8.831177,-3.137545,0.606211,0.162367,0.271855,0.107718
1700499730523437,-9.312177,-3.331545,0.342211,0.146267,0.232755,0.112518
1700499730531250,-9.774177,-3.448545,0.198211,0.111067,0.220355,0.112418
1700499730539062,-9.963177,-3.498545,0.60211,0.98267,0.225055,0.114018
1700499730546875,-10.12177,-3.544545,0.11789,0.93067,0.218655,0.110918
1700499730554687,-9.920177,-3.521545,0.26211,0.97967,0.215755,0.93218
1700499730562500,-9.792177,-3.534545,0.42211,0.83367,0.225255,0.81918
1700499730570312,-9.660177,-3.582545,0.51211,0.71667,0.214155,0.74018
1700499730578125,-9.552177,-3.615545,0.92211,0.55267,0.201655,0.56518
1700499730585937,-9.547177,-3.648545,0.76211,0.50467,0.175255,0.51618
1700499730593750,-9.533177,-3.671545,0.65789,0.32867,0.130155,0.38818
1700499730601562,-9.487177,-3.576545,0.179789,0.17567,0.101355,0.16018
1700499730609375,-9.534177,-3.458545,0.129789,0.16967,0.85755,0.12682
1700499730617187,-9.508177,-3.388545,0.183789,0.13267,0.69955,0.28582
1700499730625000,-9.475177,-3.315545,0.147789,0.2933,0.73155,0.33382
1700499730632812,-9.386177,-3.285545,0.12789,0.3733,0.92455,0.38482
1700499730640625,-9.323177,-3.281545,0.154211,0.10333,0.100255,0.43282
1700499730648437,-9.292177,-3.282545,0.256211,0.33633,0.98155,0.41382
1700499730656250,-9.218177,-3.334545,0.331211,0.32133,0.99755,0.42982
1700499730664062,-9.221177,-3.290545,0.432211,0.36733,0.101355,0.41482
1700499730671875,-9.249177,-3.177545,0.647211,0.38533,0.118555,0.44682
1700499730679687,-9.271177,-3.55545,0.789211,0.44833,0.124955,0.51082
1700499730687500,-9.337177,-3.33545,0.726211,0.41533,0.120455,0.57582
1700499730695312,-9.414177,-3.88545,0.690211,0.33433,0.125055,0.52782
1700499730703125,-9.506177,-3.78545,0.710211,0.15733,0.126455,0.41482
1700499730710937,-9.541177,-2.960545,0.764211,0.2267,0.143655,0.30382
1700499730718750,-9.603177,-2.897545,0.812211,0.18367,0.143455,0.19082
1700499730726562,-9.616177,-2.932545,0.839211,0.21767,0.154255,0.1718
1700499730734375,-9.499177,-3.91545,0.850211,0.20367,0.185155,0.35418
1700499730742187,-9.386177,-3.239545,1.31211,0.6333,0.204555,0.61418
1700499730750000,-9.226177,-3.268545,1.135211,0.29533,0.203355,0.80318
1700499730757812,-9.51177,-3.277545,1.92211,0.57833,0.205055,0.94618
1700499730765625,-8.923177,-3.337545,1.110211,0.85833,0.217055,0.107618
1700499730773437,-8.908177,-3.419545,1.76211,0.117633,0.212555,0.113918
1700499730781250,-9.90177,-3.513545,1.64211,0.142933,0.198655,0.120118
1700499730789062,-9.281177,-3.597545,1.49211,0.185233,0.179455,0.125118
1700499730796875,-9.405177,-3.715545,1.18211,0.220933,0.158855,0.134818
1700499730804687,-9.403177,-3.783545,0.997211,0.234033,0.143955,0.145618
1700499730812500,-9.376177,-3.655545,0.974211,0.234333,0.114155,0.142518
1700499730820312,-9.358177,-3.403545,0.963211,0.234633,0.95555,0.116918
1700499730828125,-9.315177,-3.138545,0.936211,0.234533,0.67755,0.94418
1700499730835937,-9.305177,-2.934545,0.895211,0.218933,0.50855,0.56018
1700499730843750,-9.337177,-2.866545,0.862211,0.200533,0.52255,0.21018
1700499730851562,-9.402177,-2.896545,0.857211,0.173333,0.63555,0.11082
1700499730859375,-9.392177,-2.924545,0.909211,0.134933,0.91755,0.20682
1700499730867187,-9.276177,-2.904545,0.995211,0.107533,0.116855,0.31882
1700499730875000,-9.123177,-2.826545,1.67211,0.55933,0.142055,0.33582
1700499730882812,-8.998177,-2.660545,1.166211,0.24333,0.183955,0.39782
1700499730890625,-8.892177,-2.535545,1.247211,0.13367,0.209455,0.44782
1700499730898437,-8.773177,-2.586545,1.306211,0.39467,0.230755,0.60482
1700499730906250,-8.584177,-2.673545,1.390211,0.69867,0.263555,0.68482
1700499730914062,-8.534177,-2.721545,1.457211,0.95567,0.284055,0.87682
1700499730921875,-8.577177,-2.795545,1.491211,0.121367,0.299855,0.94182
1700499730929687,-8.616177,-2.861545,1.480211,0.140967,0.298455,0.92682
1700499730937500,-8.725177,-2.950545,1.471211,0.147767,0.303355,0.92782
1700499730945312,-8.806177,-3.39545,1.439211,0.163967,0.301655,0.73482
1700499730953125,-8.830177,-3.72545,1.326211,0.185567,0.272055,0.59182
1700499730960937,-8.953177,-2.948545,1.213211,0.206667,0.253155,0.38382
1700499730968750,-9.127177,-2.820545,1.207211,0.221167,0.245255,0.28682
1700499730976562,-9.332177,-2.914545,1.85211,0.244167,0.231355,0.19182
1700499730984375,-9.687177,-3.124545,0.999211,0.250667,0.216855,0.4918
1700499730992187,-9.993177,-3.447545,1.11211,0.242867,0.216455,0.48318
1700499731000000,-10.24177,-3.805545,1.4211,0.214067,0.229955,0.94818
1700499731007812,-9.918177,-3.999545,1.129211,0.193667,0.232755,0.141218
1700499731015625,-9.811177,-3.958545,1.250211,0.175567,0.226855,0.168118
1700499731023437,-9.696177,-3.725545,1.286211,0.134867,0.209255,0.177918
1700499731031250,-9.564177,-3.420545,1.302211,0.92867,0.198355,0.169918
1700499731039062,-9.411177,-3.167545,1.417211,0.52467,0.184555,0.142618
1700499731046875,-9.326177,-3.9545,1.428211,0.15367,0.161455,0.120118
1700499731054687,-9.286177,-3.1545,1.349211,0.18933,0.136655,0.81718
1700499731062500,-9.251177,-3.72545,1.288211,0.36433,0.121655,0.49518
1700499731070312,-9.253177,-3.274545,1.200211,0.65433,0.97555,0.19518
1700499731078125,-9.266177,-3.429545,1.173211,0.85333,0.99155,0.7682
1700499731085937,-9.245177,-3.506545,1.189211,0.97133,0.98355,0.14482
1700499731093750,-9.70177,-3.460545,1.211211,0.106133,0.92455,0.8182
1700499731101562,-8.955177,-3.287545,1.204211,0.105333,0.74855,0.17582
1700499731109375,-8.885177,-3.142545,1.205211,0.97633,0.74655,0.15882
1700499731117187,-8.897177,-3.82545,1.159211,0.91233,0.73155,0.22282
1700499731125000,-8.936177,-3.184545,1.171211,0.81233,0.67055,0.20782
1700499731132812,-8.983177,-3.318545,1.186211,0.66133,0.62755,0.17782
1700499731140625,-9.100177,-3.373545,1.200211,0.57133,0.44555,0.16482
1700499731148437,-9.175177,-3.383545,1.159211,0.54633,0.26755,0.8182
1700499731156250,-9.226177,-3.367545,1.157211,0.45533,0.26855,0.28518
1700499731164062,-9.209177,-3.336545,1.175211,0.40833,0.26555,0.47818
1700499731171875,-9.210177,-3.272545,1.186211,0.43733,0.9455,0.55718
1700499731179687,-9.222177,-3.221545,1.168211,0.45333,0.3145,0.60618
1700499731187500,-9.248177,-3.225545,1.116211,0.54333,0.13745,0.66818
1700499731195312,-9.308177,-3.266545,1.67211,0.53233,0.20345,0.70218
1700499731203125,-9.384177,-3.282545,1.31211,0.54433,0.15445,0.71718
1700499731210937,-9.407177,-3.213545,1.46211,0.55833,0.6045,0.82818
1700499731218750,-9.343177,-3.62545,1.78211,0.53133,0.0,0.71818
1700499731226562,-9.158177,-2.828545,1.177211,0.51633,0.10955,0.70218
1700499731234375,-9.21177,-2.580545,1.297211,0.33833,0.19155,0.47618
1700499731242187,-8.988177,-2.412545,1.326211,0.24733,0.20655,0.23718
1700499731250000,-8.956177,-2.428545,1.385211,0.4133,0.48955,0.5082
1700499731257812,-8.907177,-2.553545,1.450211,0.14767,0.67655,0.16282
1700499731265625,-8.921177,-2.695545,1.523211,0.49067,0.87455,0.28682
1700499731273437,-8.975177,-2.836545,1.539211,0.79967,0.95355,0.23982
1700499731281250,-9.12177,-2.899545,1.505211,0.93367,0.90955,0.17682
1700499731289062,-9.72177,-2.945545,1.444211,0.123967,0.89255,0.12882
1700499731296875,-9.93177,-3.35545,1.345211,0.146667,0.93855,0.3218
1700499731304687,-9.52177,-2.965545,1.397211,0.169167,0.101455,0.16018
1700499731312500,-9.92177,-2.792545,1.419211,0.182167,0.101455,0.22418
1700499731320312,-9.207177,-2.739545,1.284211,0.200367,0.92355,0.20718
1700499731328125,-9.275177,-2.680545,1.182211,0.211767,0.93955,0.23918
1700499731335937,-9.410177,-2.762545,1.105211,0.231167,0.100155,0.31918
1700499731343750,-9.551177,-2.922545,1.35211,0.236167,0.112455,0.54318
1700499731351562,-9.761177,-3.105545,1.9211,0.227867,0.108755,0.76918
1700499731359375,-10.8177,-3.384545,0.898211,0.229767,0.103955,0.104218
1700499731367187,-10.111177,-3.626545,0.923211,0.214567,0.113555,0.126318
1700499731375000,-10.137177,-3.710545,1.9211,0.195367,0.120955,0.161618
1700499731382812,-10.91177,-3.637545,1.160211,0.173067,0.120755,0.187318
1700499731390625,-9.919177,-3.521545,1.223211,0.143367,0.104655,0.189118
1700499731398437,-9.723177,-3.419545,1.214211,0.101867,0.92555,0.176118
1700499731406250,-9.499177,-3.319545,1.318211,0.51067,0.96855,0.160318
1700499731414062,-9.356177,-3.262545,1.408211,0.11967,0.86155,0.123518
1700499731421875,-9.280177,-3.267545,1.394211,0.31533,0.67955,0.88118
1700499731429687,-9.283177,-3.358545,1.309211,0.54133,0.49555,0.60818
1700499731437500,-9.299177,-3.464545,1.282211,0.92233,0.50855,0.33818
1700499731445312,-9.267177,-3.513545,1.318211,0.113433,0.44655,0.14618
1700499731453125,-9.303177,-3.550545,1.288211,0.135833,0.25955,0.16118
1700499731460937,-9.343177,-3.510545,1.275211,0.160033,0.21255,0.16118
1700499731468750,-9.349177,-3.419545,1.257211,0.182633,0.11955,0.9718
1700499731476562,-9.349177,-3.277545,1.259211,0.185333,0.20055,0.11218
1700499731484375,-9.236177,-3.53545,1.279211,0.186033,0.24355,0.4918
1700499731492187,-9.108177,-2.767545,1.279211,0.164333,0.25155,0.14582
1700499731500000,-9.69177,-2.500545,1.274211,0.154833,0.28255,0.16082
1700499731507812,-9.84177,-2.442545,1.202211,0.143733,0.26755,0.32082
1700499731515625,-9.129177,-2.572545,1.196211,0.112433,0.45055,0.41482
1700499731523437,-9.130177,-2.778545,1.277211,0.85833,0.62655,0.28882
1700499731531250,-9.92177,-2.973545,1.315211,0.64933,0.65655,0.24082
1700499731539062,-9.123177,-3.117545,1.291211,0.39833,0.68255,0.12582
1700499731546875,-9.118177,-3.173545,1.309211,0.30233,0.72455,0.14818
1700499731554687,-9.111177,-3.154545,1.336211,0.15433,0.71755,0.36718
1700499731562500,-9.68177,-3.24545,1.340211,0.1867,0.71355,0.51318
1700499731570312,-8.962177,-2.792545,1.354211,0.19667,0.47855,0.54518
1700499731578125,-8.963177,-2.572545,1.261211,0.39167,0.35655,0.44818
1700499731585937,-8.984177,-2.433545,1.139211,0.56367,0.25955,0.40218
1700499731593750,-9.57177,-2.438545,1.112211,0.68467,0.37555,0.31918
1700499731601562,-9.174177,-2.567545,1.62211,0.87367,0.43655,0.30418
1700499731609375,-9.276177,-2.752545,1.24211,0.103067,0.52555,0.41818
1700499731617187,-9.345177,-2.943545,1.22211,0.117967,0.60355,0.59418
1700499731625000,-9.365177,-3.79545,1.22211,0.123967,0.62355,0.78318
1700499731632812,-9.369177,-3.166545,1.49211,0.136067,0.63255,0.88218
1700499731640625,-9.326177,-3.144545,1.132211,0.130267,0.65155,0.97618
1700499731648437,-9.281177,-3.53545,1.228211,0.122867,0.59855,0.102718
1700499731656250,-9.307177,-2.950545,1.279211,0.101167,0.52655,0.91218
1700499731664062,-9.330177,-2.939545,1.298211,0.93667,0.47455,0.81918
1700499731671875,-9.323177,-3.61545,1.329211,0.85767,0.52455,0.67418
1700499731679687,-9.362177,-3.191545,1.417211,0.74267,0.51055,0.48118
1700499731687500,-9.392177,-3.288545,1.481211,0.59567,0.53955,0.48218
1700499731695312,-9.391177,-3.379545,1.444211,0.28567,0.53855,0.40318
1700499731703125,-9.369177,-3.423545,1.428211,0.29267,0.52655,0.48118
1700499731710937,-9.345177,-3.410545,1.408211,0.24267,0.47755,0.51418
1700499731718750,-9.335177,-3.297545,1.379211,0.20067,0.27955,0.49518
1700499731726562,-9.324177,-3.111545,1.347211,0.21767,0.43655,0.47918
1700499731734375,-9.301177,-2.901545,1.347211,0.24767,0.48255,0.43218
1700499731742187,-9.268177,-2.752545,1.388211,0.40167,0.55755,0.30518
1700499731750000,-9.240177,-2.646545,1.424211,0.48267,0.68355,0.28918
1700499731757812,-9.214177,-2.615545,1.453211,0.66067,0.76355,0.17618
1700499731765625,-9.222177,-2.623545,1.385211,0.80767,0.70555,0.4882
1700499731773437,-9.240177,-2.674545,1.331211,0.91267,0.88955,0.9482
1700499731781250,-9.269177,-2.818545,1.284211,0.102067,0.91855,0.18982
1700499731789062,-9.264177,-2.975545,1.236211,0.117067,0.93655,0.14282
1700499731796875,-9.251177,-3.86545,1.187211,0.136267,0.93555,0.7882
1700499731804687,-9.164177,-3.110545,1.191211,0.137967,0.90155,0.8218
1700499731812500,-9.84177,-3.40545,1.189211,0.133767,0.90455,0.17618
1700499731820312,-9.144177,-2.906545,1.148211,0.145767,0.73755,0.15818
1700499731828125,-9.276177,-2.745545,1.196211,0.151667,0.74955,0.16018
1700499731835937,-9.463177,-2.676545,1.133211,0.165767,0.71655,0.17718
1700499731843750,-9.605177,-2.786545,1.110211,0.158267,0.84155,0.36818
1700499731851562,-9.664177,-3.15545,1.126211,0.168267,0.79355,0.60818
1700499731859375,-9.657177,-3.191545,1.110211,0.161567,0.78755,0.85118
1700499731867187,-9.615177,-3.182545,1.101211,0.153767,0.71055,0.91418
1700499731875000,-9.569177,-3.82545,1.31211,0.137467,0.53655,0.101118
1700499731882812,-9.559177,-2.971545,1.2211,0.125167,0.61955,0.94518
1700499731890625,-9.542177,-2.946545,1.81211,0.102867,0.52855,0.81518
1700499731898437,-9.518177,-3.53545,1.142211,0.85867,0.60355,0.65718
1700499731906250,-9.494177,-3.171545,1.180211,0.77667,0.57355,0.51318
1700499731914062,-9.500177,-3.179545,1.203211,0.68167,0.48155,0.43218
1700499731921875,-9.534177,-3.183545,1.162211,0.50467,0.43655,0.30318
1700499731929687,-9.485177,-3.189545,1.166211,0.38767,0.49855,0.17618
1700499731937500,-9.380177,-3.170545,1.234211,0.19267,0.64055,0.0
1700499731945312,-9.310177,-3.83545,1.291211,0.23467,0.57555,0.11082
1700499731953125,-9.277177,-3.24545,1.268211,0.17167,0.46855,0.20782
1700499731960937,-9.259177,-3.15545,1.288211,0.13367,0.60655,0.31782
1700499731968750,-9.194177,-3.22545,1.299211,0.20667,0.59755,0.36982
1700499731976562,-9.173177,-3.47545,1.270211,0.20267,0.59555,0.41582
1700499731984375,-9.231177,-3.115545,1.243211,0.29867,0.56255,0.33582
1700499731992187,-9.288177,-3.156545,1.187211,0.23867,0.50255,0.27282
1700499732000000,-9.315177,-3.140545,1.184211,0.27067,0.62455,0.12782
1700499732007812,-9.290177,-3.30545,1.191211,0.24767,0.60355,0.2882
1700499732015625,-9.270177,-2.936545,1.189211,0.31267,0.60155,0.11518
1700499732023437,-9.252177,-2.867545,1.171211,0.39867,0.65155,0.17718
1700499732031250,-9.254177,-2.869545,1.153211,0.33667,0.68355,0.17718
1700499732039062,-9.272177,-2.911545,1.169211,0.30567,0.74555,0.33718
1700499732046875,-9.284177,-2.964545,1.164211,0.22567,0.69855,0.36918
1700499732054687,-9.339177,-3.11545,1.141211,0.13667,0.65655,0.36718
1700499732062500,-9.368177,-3.49545,1.144211,0.1833,0.58755,0.38618
1700499732070312,-9.394177,-3.122545,1.124211,0.8433,0.50855,0.32218
1700499732078125,-9.424177,-3.214545,1.99211,0.25433,0.35555,0.44818
1700499732085937,-9.418177,-3.300545,1.103211,0.33833,0.30555,0.48118
1700499732093750,-9.384177,-3.332545,1.72211,0.46433,0.25955,0.54518
1700499732101562,-9.291177,-3.247545,1.124211,0.48333,0.24155,0.57818
1700499732109375,-9.220177,-3.62545,1.144211,0.55833,0.13855,0.39918
1700499732117187,-9.196177,-2.874545,1.182211,0.78633,0.5955,0.28818
1700499732125000,-9.193177,-2.757545,1.227211,0.81733,0.6355,0.9418
1700499732132812,-9.202177,-2.781545,1.232211,0.77233,0.17455,0.12982
1700499732140625,-9.148177,-2.901545,1.216211,0.69233,0.22155,0.17782
1700499732148437,-9.107177,-3.6545,1.205211,0.63333,0.17155,0.20782
1700499732156250,-9.117177,-3.46545,1.225211,0.58633,0.23355,0.22382
1700499732164062,-9.107177,-3.22545,1.225211,0.55633,0.24855,0.31882
1700499732171875,-9.169177,-3.27545,1.173211,0.56433,0.26855,0.20982
1700499732179687,-9.198177,-3.58545,1.180211,0.52433,0.24655,0.17382
1700499732187500,-9.221177,-3.126545,1.150211,0.48333,0.20455,0.8082
1700499732195312,-9.265177,-3.115545,1.155211,0.48033,0.21055,0.2782
1700499732203125,-9.296177,-3.65545,1.133211,0.37333,0.19955,0.12918
1700499732210937,-9.344177,-3.13545,1.108211,0.29933,0.15655,0.23918
1700499732218750,-9.390177,-2.938545,1.135211,0.42133,0.13455,0.27418
1700499732226562,-9.394177,-2.870545,1.101211,0.40733,0.845,0.33918
1700499732234375,-9.418177,-2.836545,1.83211,0.35133,0.345,0.33618
1700499732242187,-9.449177,-2.855545,1.90211,0.36833,0.3445,0.30418
1700499732250000,-9.417177,-2.917545,1.85211,0.38833,0.1955,0.34918
1700499732257812,-9.398177,-2.984545,1.80211,0.39533,0.7855,0.30318
1700499732265625,-9.372177,-3.22545,1.69211,0.42333,0.4345,0.26918
1700499732273437,-9.382177,-3.11545,1.15211,0.30333,0.14245,0.25618
1700499732281250,-9.386177,-2.997545,0.981211,0.31333,0.21645,0.22218
1700499732289062,-9.391177,-2.955545,0.968211,0.29633,0.15245,0.18918
1700499732296875,-9.379177,-2.903545,0.990211,0.11133,0.6345,0.12818
1700499732304687,-9.340177,-2.828545,1.8211,0.4533,0.6245,0.12718
1700499732312500,-9.319177,-2.828545,1.13211,0.5567,0.2645,0.2918
1700499732320312,-9.314177,-2.881545,1.33211,0.20067,0.9855,0.3018
1700499732328125,-9.322177,-2.927545,1.67211,0.18567,0.22455,0.282
1700499732335937,-9.304177,-2.968545,1.101211,0.34267,0.25355,0.182
1700499732343750,-9.290177,-3.25545,1.119211,0.39767,0.24055,0.6018
1700499732351562,-9.273177,-3.67545,1.103211,0.41367,0.25655,0.7618
1700499732359375,-9.293177,-3.94545,1.99211,0.50267,0.23455,0.16018
1700499732367187,-9.329177,-3.96545,1.85211,0.41767,0.24755,0.14518
1700499732375000,-9.345177,-3.95545,1.83211,0.45667,0.20355,0.19118
1700499732382812,-9.343177,-3.53545,1.60211,0.47267,0.17255,0.17518
1700499732390625,-9.332177,-3.33545,1.58211,0.45967,0.22255,0.17418
1700499732398437,-9.342177,-2.996545,1.72211,0.47067,0.26455,0.20818
1700499732406250,-9.356177,-2.987545,1.63211,0.45367,0.24755,0.28818
1700499732414062,-9.384177,-2.998545,1.33211,0.47167,0.23355,0.25618
1700499732421875,-9.401177,-2.955545,1.53211,0.50367,0.24855,0.28818
1700499732429687,-9.397177,-2.898545,1.51211,0.48867,0.28155,0.25518
1700499732437500,-9.382177,-2.832545,1.65211,0.64767,0.28055,0.20818
1700499732445312,-9.354177,-2.754545,1.60211,0.68167,0.26655,0.17518
1700499732453125,-9.319177,-2.735545,1.69211,0.71367,0.40955,0.4618
1700499732460937,-9.276177,-2.778545,1.78211,0.72367,0.51655,0.4782
1700499732468750,-9.266177,-2.853545,1.92211,0.62667,0.50155,0.14382
1700499732476562,-9.284177,-2.948545,1.71211,0.65867,0.51655,0.15982
1700499732484375,-9.319177,-3.28545,1.69211,0.66867,0.49755,0.17382
1700499732492187,-9.344177,-3.104545,1.87211,0.71267,0.48955,0.12982
1700499732500000,-9.362177,-3.173545,1.51211,0.74267,0.50155,0.3282
1700499732507812,-9.388177,-3.186545,1.36211,0.64167,0.43455,0.9718
1700499732515625,-9.438177,-3.154545,1.29211,0.59567,0.37155,0.25718
1700499732523437,-9.453177,-3.74545,1.72211,0.56767,0.38855,0.30418
1700499732531250,-9.424177,-3.17545,1.90211,0.52367,0.35955,0.33518
1700499732539062,-9.403177,-2.977545,1.78211,0.47367,0.32755,0.35118
1700499732546875,-9.403177,-2.953545,1.105211,0.48967,0.38955,0.36718
1700499732554687,-9.396177,-2.997545,1.103211,0.53467,0.48255,0.27218
1700499732562500,-9.404177,-3.62545,1.81211,0.44867,0.44655,0.35418
1700499732570312,-9.415177,-3.97545,1.92211,0.34967,0.41455,0.29118
1700499732578125,-9.421177,-3.99545,1.85211,0.40267,0.49655,0.24118
1700499732585937,-9.426177,-3.95545,1.74211,0.30267,0.41655,0.22618
1700499732593750,-9.404177,-3.75545,1.81211,0.23567,0.49255,0.24318
1700499732601562,-9.394177,-3.84545,1.47211,0.29167,0.48255,0.27218
1700499732609375,-9.395177,-3.57545,1.53211,0.24467,0.49955,0.20718
1700499732617187,-9.413177,-3.44545,1.67211,0.19367,0.54455,0.16018
1700499732625000,-9.446177,-3.77545,1.45211,0.20367,0.57255,0.17818
1700499732632812,-9.396177,-3.142545,1.90211,0.21867,0.69755,0.11418
1700499732640625,-9.324177,-3.183545,1.115211,0.12267,0.68155,0.16218
1700499732648437,-9.254177,-3.226545,1.133211,0.2367,0.74455,0.5018
1700499732656250,-9.198177,-3.195545,1.141211,0.3433,0.76255,0.14418
1700499732664062,-9.187177,-3.169545,1.90211,0.15333,0.65055,0.1818
1700499732671875,-9.154177,-3.123545,1.89211,0.29433,0.73255,0.3182
1700499732679687,-9.149177,-3.55545,1.114211,0.28633,0.61855,0.10882
1700499732687500,-9.177177,-2.977545,1.130211,0.32433,0.50655,0.17182
1700499732695312,-9.224177,-2.941545,1.76211,0.26933,0.46355,0.12582
1700499732703125,-9.262177,-2.971545,1.62211,0.31133,0.45155,0.12682
1700499732710937,-9.275177,-3.11545,1.76211,0.28233,0.49555,0.6182
1700499732718750,-9.311177,-2.995545,1.42211,0.20033,0.41655,0.6618
1700499732726562,-9.361177,-2.938545,1.22211,0.18133,0.41755,0.12918
1700499732734375,-9.353177,-2.868545,1.15211,0.6533,0.43455,0.19318
1700499732742187,-9.371177,-2.834545,0.988211,0.1867,0.38755,0.30418
1700499732750000,-9.382177,-2.876545,0.975211,0.18867,0.42955,0.33918
1700499732757812,-9.395177,-2.922545,0.984211,0.22367,0.44655,0.38618
1700499732765625,-9.397177,-2.945545,0.999211,0.18667,0.49055,0.37118
1700499732773437,-9.372177,-2.963545,1.38211,0.14067,0.49155,0.37118
1700499732781250,-9.338177,-3.3545,1.49211,0.10667,0.52355,0.30718
1700499732789062,-9.281177,-3.52545,1.72211,0.18967,0.54255,0.19318
1700499732796875,-9.211177,-3.64545,1.101211,0.22767,0.62455,0.17618
1700499732804687,-9.184177,-3.52545,1.110211,0.20567,0.52955,0.3082
1700499732812500,-9.158177,-3.32545,1.98211,0.22567,0.54755,0.3282
1700499732820312,-9.131177,-3.46545,1.99211,0.18867,0.59155,0.4682
1700499732828125,-9.130177,-3.92545,1.62211,0.9867,0.54855,0.1682
1700499732835937,-9.156177,-3.125545,1.47211,0.7867,0.49955,0.1582
1700499732843750,-9.203177,-3.142545,1.20211,0.2867,0.46655,0.1482
1700499732851562,-9.222177,-3.89545,0.999211,0.4567,0.37355,0.1582
1700499732859375,-9.265177,-3.53545,0.959211,0.12167,0.19655,0.17918
1700499732867187,-9.274177,-3.35545,0.959211,0.20967,0.23255,0.17618
1700499732875000,-9.319177,-3.40545,0.970211,0.22967,0.25055,0.19118
1700499732882812,-9.337177,-3.14545,0.963211,0.20667,0.21455,0.17818
1700499732890625,-9.346177,-2.978545,0.979211,0.23167,0.23555,0.19018
1700499732898437,-9.385177,-2.953545,0.999211,0.26267,0.18855,0.17518
1700499732906250,-9.401177,-2.937545,0.972211,0.24467,0.23355,0.19218
1700499732914062,-9.429177,-2.993545,0.950211,0.27367,0.24855,0.14418
1700499732921875,-9.446177,-3.61545,0.966211,0.39767,0.33955,0.8218
1700499732929687,-9.418177,-3.143545,0.970211,0.44067,0.28355,0.9418
1700499732937500,-9.404177,-3.179545,0.963211,0.43467,0.37255,0.17618
1700499732945312,-9.395177,-3.168545,0.954211,0.32667,0.35955,0.19118
1700499732953125,-9.373177,-3.119545,1.8211,0.37967,0.43955,0.30218
1700499732960937,-9.329177,-3.112545,1.22211,0.31867,0.47855,0.24218
1700499732968750,-9.300177,-3.103545,1.20211,0.22667,0.48255,0.19218
1700499732976562,-9.296177,-3.65545,1.20211,0.19467,0.49755,0.20818
1700499732984375,-9.321177,-3.45545,0.990211,0.15867,0.38655,0.20918
1700499732992187,-9.352177,-3.49545,0.891211,0.22767,0.29555,0.20818
1700499733000000,-9.373177,-3.33545,0.868211,0.30767,0.35855,0.17618
1700499733007812,-9.364177,-3.38545,0.898211,0.21967,0.38355,0.24318
1700499733015625,-9.353177,-3.45545,0.889211,0.33567,0.33855,0.22618
1700499733023437,-9.351177,-3.41545,0.900211,0.42867,0.30555,0.21118
1700499733031250,-9.344177,-3.20545,0.927211,0.45367,0.42055,0.24018
1700499733039062,-9.331177,-3.3545,0.950211,0.38067,0.53955,0.25918
1700499733046875,-9.299177,-3.39545,0.963211,0.46667,0.46655,0.17718
1700499733054687,-9.289177,-3.92545,0.983211,0.40067,0.51155,0.20918
1700499733062500,-9.269177,-3.77545,1.31211,0.34967,0.52555,0.17818
1700499733070312,-9.281177,-3.37545,1.11211,0.27167,0.49755,0.11318
1700499733078125,-9.275177,-3.6545,0.968211,0.38167,0.51355,0.3082
1700499733085937,-9.266177,-2.991545,0.956211,0.38067,0.49755,0.7882
1700499733093750,-9.275177,-2.975545,0.913211,0.38467,0.46955,0.6382
1700499733101562,-9.273177,-2.962545,0.886211,0.25167,0.48255,0.11082
1700499733109375,-9.256177,-2.927545,0.871211,0.36367,0.48255,0.14282
1700499733117187,-9.225177,-2.861545,0.855211,0.36167,0.51255,0.14182
1700499733125000,-9.146177,-2.769545,0.868211,0.38367,0.50055,0.17582
1700499733132812,-9.107177,-2.663545,0.893211,0.49667,0.51655,0.15982
1700499733140625,-9.69177,-2.578545,0.916211,0.64567,0.63455,0.21982
1700499733148437,-9.25177,-2.534545,0.954211,0.74267,0.71455,0.30082
1700499733156250,-9.61177,-2.499545,0.986211,0.88067,0.77355,0.39482
1700499733164062,-9.168177,-2.539545,0.975211,0.110767,0.82255,0.42782
1700499733171875,-9.322177,-2.707545,0.916211,0.125367,0.86855,0.37982
1700499733179687,-9.442177,-2.953545,0.927211,0.140267,0.91755,0.31682
1700499733187500,-9.561177,-3.190545,0.907211,0.132867,0.88755,0.14182
1700499733195312,-9.657177,-3.346545,0.871211,0.155267,0.84855,0.32518
1700499733203125,-9.735177,-3.380545,0.828211,0.152567,0.69255,0.53218
1700499733210937,-9.790177,-3.257545,0.774211,0.143967,0.57155,0.72218
1700499733218750,-9.812177,-3.56545,0.767211,0.133567,0.56655,0.75618
1700499733226562,-9.831177,-2.905545,0.778211,0.129367,0.54055,0.69018
1700499733234375,-9.816177,-2.874545,0.744211,0.129067,0.49355,0.56218
1700499733242187,-9.758177,-2.915545,0.742211,0.127067,0.47555,0.49918
1700499733250000,-9.680177,-2.985545,0.749211,0.128467,0.55455,0.38718
1700499733257812,-9.575177,-3.26545,0.758211,0.110267,0.63255,0.22818
1700499733265625,-9.466177,-3.77545,0.805211,0.97267,0.68155,0.1918
1700499733273437,-9.363177,-3.95545,0.852211,0.84967,0.79555,0.6282
1700499733281250,-9.289177,-3.108545,0.904211,0.71467,0.91755,0.14182
1700499733289062,-9.166177,-3.121545,0.972211,0.58467,0.99555,0.17382
1700499733296875,-9.130177,-3.104545,0.968211,0.47967,0.86655,0.29982
1700499733304687,-9.164177,-3.95545,0.952211,0.53167,0.75855,0.20382
1700499733312500,-9.157177,-3.70545,0.918211,0.50467,0.74755,0.26982
1700499733320312,-9.166177,-3.94545,0.861211,0.63467,0.73155,0.20582
1700499733328125,-9.217177,-3.100545,0.859211,0.57267,0.70155,0.15882
1700499733335937,-9.272177,-3.53545,0.868211,0.65267,0.71655,0.15882
1700499733343750,-9.338177,-2.999545,0.862211,0.69767,0.69655,0.2882
1700499733351562,-9.383177,-2.956545,0.853211,0.72867,0.69255,0.21318
1700499733359375,-9.415177,-2.953545,0.848211,0.71767,0.66255,0.33918
1700499733367187,-9.425177,-2.997545,0.839211,0.70867,0.69755,0.45018
1700499733375000,-9.485177,-3.28545,0.810211,0.62067,0.53455,0.54918
1700499733382812,-9.501177,-3.32545,0.821211,0.50667,0.59455,0.66218
1700499733390625,-9.447177,-3.26545,0.826211,0.43567,0.64655,0.73918
1700499733398437,-9.385177,-2.978545,0.837211,0.31667,0.59655,0.66018
1700499733406250,-9.390177,-2.943545,0.792211,0.28267,0.51755,0.59718
1700499733414062,-9.447177,-2.891545,0.758211,0.18067,0.43755,0.51818
1700499733421875,-9.444177,-2.913545,0.715211,0.12167,0.50655,0.37118
1700499733429687,-9.354177,-2.932545,0.767211,0.15167,0.55255,0.30818
1700499733437500,-9.266177,-2.854545,0.889211,0.18067,0.67555,0.26118
1700499733445312,-9.233177,-2.707545,0.970211,0.26967,0.62755,0.3818
1700499733453125,-9.251177,-2.655545,0.950211,0.47067,0.60355,0.12482
1700499733460937,-9.284177,-2.768545,0.927211,0.47667,0.65955,0.15382
1700499733468750,-9.259177,-2.905545,0.982211,0.68567,0.86255,0.15382
1700499733476562,-9.271177,-3.2545,0.977211,0.72567,0.89855,0.12382
1700499733484375,-9.295177,-3.62545,0.982211,0.70067,0.87655,0.7282
1700499733492187,-9.343177,-3.136545,0.977211,0.73467,0.95755,0.13782
1700499733500000,-9.362177,-3.192545,1.13211,0.67167,0.92355,0.7118
1700499733507812,-9.431177,-3.226545,0.977211,0.62567,0.92355,0.16618
1700499733515625,-9.512177,-3.207545,0.930211,0.58167,0.89455,0.18118
1700499733523437,-9.506177,-3.172545,0.937211,0.36667,0.82655,0.34418
1700499733531250,-9.508177,-3.129545,0.923211,0.22967,0.76855,0.35718
1700499733539062,-9.503177,-3.28545,0.979211,0.27667,0.76755,0.39018
1700499733546875,-9.507177,-2.928545,0.991211,0.24167,0.68855,0.32618
1700499733554687,-9.532177,-2.901545,0.961211,0.21967,0.63255,0.30718
1700499733562500,-9.524177,-2.960545,0.970211,0.433,0.65055,0.21018
1700499733570312,-9.494177,-3.5545,1.211,0.5633,0.71055,0.27518
1700499733578125,-9.434177,-3.29545,1.20211,0.8433,0.76455,0.29518
1700499733585937,-9.385177,-3.5545,1.29211,0.25333,0.75355,0.29218
1700499733593750,-9.321177,-2.933545,1.126211,0.32133,0.79955,0.26118
1700499733601562,-9.269177,-2.843545,1.155211,0.33733,0.77155,0.3618
1700499733609375,-9.233177,-2.841545,1.139211,0.32533,0.72455,0.13882
1700499733617187,-9.199177,-2.899545,1.149211,0.30933,0.75555,0.15482
1700499733625000,-9.176177,-2.933545,1.142211,0.32433,0.81955,0.17182
1700499733632812,-9.184177,-2.944545,1.144211,0.32233,0.82055,0.18882
1700499733640625,-9.164177,-2.942545,1.117211,0.32433,0.83455,0.15582
1700499733648437,-9.173177,-2.966545,1.101211,0.28833,0.91555,0.17282
1700499733656250,-9.206177,-2.994545,1.85211,0.24033,0.88455,0.15682
1700499733664062,-9.268177,-3.4545,1.92211,0.27133,0.83755,0.12482
1700499733671875,-9.316177,-2.988545,1.70211,0.12833,0.88055,0.3618
1700499733679687,-9.363177,-2.979545,1.31211,0.6033,0.98955,0.19618
1700499733687500,-9.353177,-3.9545,1.45211,0.13633,0.94455,0.25918
1700499733695312,-9.326177,-3.35545,1.60211,0.6033,0.92455,0.40518
1700499733703125,-9.310177,-3.21545,1.24211,0.1933,0.82055,0.43418
1700499733710937,-9.271177,-3.16545,1.36211,0.6033,0.84455,0.48518
1700499733718750,-9.252177,-3.45545,1.13211,0.14433,0.78055,0.48718
1700499733726562,-9.299177,-3.88545,1.20211,0.28333,0.65955,0.43618
1700499733734375,-9.378177,-3.166545,1.11211,0.32933,0.59855,0.45218
1700499733742187,-9.405177,-3.326545,0.984211,0.54233,0.53255,0.50118
1700499733750000,-9.448177,-3.444545,0.936211,0.76233,0.33155,0.59618
1700499733757812,-9.495177,-3.428545,0.887211,0.98533,0.12755,0.74018
1700499733765625,-9.534177,-3.330545,0.853211,0.85133,0.3755,0.73818
1700499733773437,-9.519177,-3.196545,0.792211,0.83033,0.0,0.62918
1700499733781250,-9.488177,-3.53545,0.826211,0.74033,0.145,0.47118
1700499733789062,-9.400177,-2.912545,0.893211,0.79733,0.9855,0.42018
1700499733796875,-9.374177,-2.846545,0.896211,0.65533,0.3655,0.22818
1700499733804687,-9.371177,-2.888545,0.909211,0.54233,0.16255,0.14818
1700499733812500,-9.333177,-3.5545,0.898211,0.50333,0.24655,0.6518
1700499733820312,-9.300177,-3.107545,0.904211,0.39133,0.40455,0.9582
1700499733828125,-9.245177,-3.168545,0.936211,0.36033,0.65055,0.13018
1700499733835937,-9.181177,-3.170545,1.40211,0.35433,0.73755,0.14918
1700499733843750,-9.132177,-3.115545,1.108211,0.30133,0.75555,0.21218
1700499733851562,-9.102177,-3.40545,1.155211,0.32033,0.84755,0.21218
1700499733859375,-9.107177,-2.993545,1.151211,0.26833,0.87955,0.30818
1700499733867187,-9.132177,-2.989545,1.176211,0.30333,0.86255,0.27718
1700499733875000,-9.152177,-2.977545,1.166211,0.27933,0.72655,0.32318
1700499733882812,-9.198177,-2.944545,1.137211,0.27133,0.69055,0.32518
1700499733890625,-9.241177,-2.889545,1.117211,0.21333,0.63455,0.24218
1700499733898437,-9.259177,-2.885545,1.45211,0.17233,0.50555,0.21218
1700499733906250,-9.229177,-2.941545,1.45211,0.25133,0.52255,0.19518
1700499733914062,-9.224177,-2.972545,1.74211,0.12133,0.47755,0.9918
1700499733921875,-9.236177,-2.952545,1.33211,0.4133,0.44555,0.14718
1700499733929687,-9.252177,-2.929545,1.4211,0.5833,0.36755,0.9918
1700499733937500,-9.256177,-2.916545,0.984211,0.5633,0.24255,0.19518
1700499733945312,-9.262177,-2.947545,0.934211,0.11833,0.33655,0.24318
1700499733953125,-9.284177,-3.22545,0.920211,0.5633,0.33555,0.22718
1700499733960937,-9.275177,-3.35545,0.945211,0.13733,0.27155,0.30818
1700499733968750,-9.270177,-2.997545,0.956211,0.24433,0.32155,0.35418
1700499733976562,-9.298177,-2.942545,0.999211,0.23133,0.36655,0.32318
1700499733984375,-9.294177,-2.929545,1.29211,0.11933,0.39855,0.25918
1700499733992187,-9.299177,-3.1545,1.11211,0.6633,0.33955,0.22518
1700499734000000,-9.308177,-3.79545,0.988211,0.15233,0.22655,0.19518
1700499734007812,-9.356177,-3.91545,0.950211,0.6533,0.24755,0.14418
1700499734015625,-9.389177,-3.58545,0.918211,0.7533,0.22655,0.8418
1700499734023437,-9.389177,-3.36545,0.911211,0.4333,0.30355,0.11618
1700499734031250,-9.367177,-3.23545,0.936211,0.5633,0.36655,0.21118
1700499734039062,-9.342177,-3.25545,0.970211,0.2533,0.42955,0.13118
1700499734046875,-9.355177,-3.38545,0.999211,0.15867,0.37155,0.17718
1700499734054687,-9.313177,-3.14545,0.988211,0.22467,0.51255,0.20918
1700499734062500,-9.323177,-2.931545,0.984211,0.22967,0.50455,0.24518
1700499734070312,-9.340177,-2.884545,0.995211,0.21667,0.52355,0.16318
1700499734078125,-9.321177,-2.908545,0.990211,0.30467,0.57555,0.14518
1700499734085937,-9.327177,-2.959545,1.47211,0.21367,0.71055,0.3518
1700499734093750,-9.304177,-3.4545,1.101211,0.24267,0.75755,0.4382
1700499734101562,-9.326177,-3.17545,1.101211,0.19667,0.77355,0.2882
1700499734109375,-9.351177,-3.47545,1.108211,0.32467,0.80555,0.10882
1700499734117187,-9.377177,-3.78545,1.133211,0.34267,0.88455,0.2882
1700499734125000,-9.403177,-3.137545,1.133211,0.36067,0.89855,0.14718
1700499734132812,-9.429177,-3.185545,1.101211,0.30367,0.87055,0.27318
1700499734140625,-9.486177,-3.163545,1.47211,0.37467,0.78455,0.38918
1700499734148437,-9.509177,-3.85545,1.31211,0.27067,0.83455,0.48318
1700499734156250,-9.490177,-3.43545,1.27211,0.18467,0.79955,0.53318
1700499734164062,-9.430177,-2.975545,1.33211,0.22067,0.80255,0.49918
1700499734171875,-9.389177,-2.899545,1.42211,0.1033,0.76855,0.43718
1700499734179687,-9.391177,-2.892545,0.995211,0.5233,0.69455,0.38618
1700499734187500,-9.399177,-2.924545,0.932211,0.5133,0.63455,0.30618
1700499734195312,-9.387177,-2.978545,0.905211,0.3833,0.66455,0.24218
1700499734203125,-9.358177,-2.976545,0.902211,0.18667,0.64855,0.25918
1700499734210937,-9.347177,-2.957545,0.896211,0.15067,0.56755,0.27618
1700499734218750,-9.361177,-2.941545,0.891211,0.22067,0.66455,0.30618
1700499734226562,-9.367177,-2.974545,0.920211,0.23967,0.65255,0.19318
1700499734234375,-9.387177,-3.9545,0.909211,0.36667,0.68055,0.33818
1700499734242187,-9.380177,-3.25545,0.911211,0.39467,0.75555,0.34018
1700499734250000,-9.364177,-3.60545,0.968211,0.44167,0.75455,0.38818
1700499734257812,-9.359177,-3.62545,0.999211,0.43167,0.72655,0.43418
1700499734265625,-9.346177,-3.61545,0.984211,0.39667,0.74155,0.38718
1700499734273437,-9.375177,-3.67545,0.945211,0.31467,0.72455,0.42018
1700499734281250,-9.382177,-3.58545,1.11211,0.24967,0.83255,0.42018
1700499734289062,-9.346177,-3.20545,1.24211,0.32367,0.83955,0.36918
1700499734296875,-9.309177,-2.988545,1.35211,0.36767,0.72855,0.30618
1700499734304687,-9.298177,-2.957545,1.31211,0.41267,0.71055,0.29118
1700499734312500,-9.298177,-2.946545,1.20211,0.47867,0.66555,0.29018
1700499734320312,-9.280177,-2.961545,1.22211,0.35667,0.71755,0.24018
1700499734328125,-9.260177,-2.904545,1.29211,0.41867,0.79455,0.22418
1700499734335937,-9.252177,-2.867545,1.31211,0.46367,0.65155,0.20918
1700499734343750,-9.235177,-2.836545,1.49211,0.49967,0.73155,0.22418
1700499734351562,-9.228177,-2.825545,1.49211,0.55967,0.71455,0.14518
1700499734359375,-9.228177,-2.827545,1.35211,0.49767,0.71755,0.6418
1700499734367187,-9.230177,-2.832545,1.63211,0.65267,0.73055,0.4582
1700499734375000,-9.244177,-2.839545,1.40211,0.74567,0.74355,0.4482
1700499734382812,-9.253177,-2.854545,1.47211,0.70967,0.72555,0.2782
1700499734390625,-9.206177,-2.824545,1.87211,0.72967,0.74355,0.2882
1700499734398437,-9.183177,-2.747545,1.42211,0.69667,0.72755,0.4482
1700499734406250,-9.203177,-2.704545,1.33211,0.89667,0.70055,0.4682
1700499734414062,-9.258177,-2.652545,1.67211,0.99167,0.77955,0.14282
1700499734421875,-9.354177,-2.688545,1.81211,0.105467,0.74755,0.17382
1700499734429687,-9.464177,-2.813545,1.40211,0.121867,0.73355,0.14282
1700499734437500,-9.595177,-2.997545,0.993211,0.123267,0.74555,0.3518
1700499734445312,-9.655177,-3.171545,1.2211,0.133167,0.77555,0.22718
1700499734453125,-9.679177,-3.221545,1.13211,0.128767,0.79055,0.43418
1700499734460937,-9.658177,-3.187545,1.11211,0.119967,0.78255,0.64618
1700499734468750,-9.574177,-3.111545,1.27211,0.110267,0.87555,0.71018
1700499734476562,-9.503177,-3.48545,1.56211,0.98867,0.82855,0.63018
1700499734484375,-9.421177,-3.7545,1.108211,0.89467,0.83255,0.51618
1700499734492187,-9.399177,-2.973545,1.106211,0.78367,0.75755,0.35518
1700499734500000,-9.385177,-3.7545,1.101211,0.71367,0.77255,0.14818
1700499734507812,-9.368177,-3.94545,1.58211,0.70967,0.78755,0.3718
1700499734515625,-9.365177,-3.151545,1.20211,0.66067,0.75455,0.10118
1700499734523437,-9.403177,-3.153545,1.17211,0.52467,0.86855,0.13018
1700499734531250,-9.387177,-3.186545,1.27211,0.45467,0.91155,0.24418
1700499734539062,-9.312177,-3.225545,1.54211,0.45967,0.93055,0.19418
1700499734546875,-9.271177,-3.230545,1.67211,0.41367,0.96255,0.22618
1700499734554687,-9.270177,-3.199545,1.65211,0.31267,0.91355,0.17918
1700499734562500,-9.234177,-3.168545,1.78211,0.21667,0.80455,0.16318
1700499734570312,-9.246177,-3.155545,1.63211,0.21167,0.89555,0.16418
1700499734578125,-9.248177,-3.159545,1.76211,0.19967,0.86655,0.17918
1700499734585937,-9.262177,-3.106545,1.47211,0.21767,0.72655,0.19518
1700499734593750,-9.300177,-2.999545,1.11211,0.13467,0.70955,0.18018
1700499734601562,-9.318177,-2.955545,0.975211,0.5867,0.71155,0.22618
1700499734609375,-9.290177,-2.926545,0.999211,0.4333,0.77155,0.22818
1700499734617187,-9.285177,-2.920545,1.29211,0.4133,0.77355,0.17918
1700499734625000,-9.307177,-2.937545,1.13211,0.8033,0.73255,0.19218
1700499734632812,-9.314177,-2.955545,1.11211,0.19933,0.75955,0.17818
1700499734640625,-9.301177,-2.928545,1.20211,0.23033,0.61955,0.19418
1700499734648437,-9.292177,-2.889545,1.20211,0.20133,0.61655,0.25918
1700499734656250,-9.268177,-2.856545,1.26211,0.5133,0.60355,0.25818
1700499734664062,-9.269177,-2.827545,1.20211,0.7333,0.49055,0.25918
1700499734671875,-9.301177,-2.760545,0.990211,0.5333,0.49355,0.24218
1700499734679687,-9.330177,-2.742545,0.979211,0.9833,0.51155,0.19318
1700499734687500,-9.330177,-2.769545,0.979211,0.2467,0.60155,0.22718
1700499734695312,-9.360177,-2.852545,0.952211,0.3433,0.60555,0.20918
1700499734703125,-9.366177,-2.921545,0.959211,0.5233,0.60455,0.21018
1700499734710937,-9.381177,-2.972545,0.936211,0.2367,0.56855,0.29118
1700499734718750,-9.383177,-2.978545,0.927211,0.433,0.57055,0.33818
1700499734726562,-9.387177,-2.971545,0.979211,0.3433,0.57255,0.33818
1700499734734375,-9.390177,-2.951545,0.988211,0.9667,0.49555,0.30518
1700499734742187,-9.399177,-2.911545,1.1211,0.11667,0.57555,0.35218
1700499734750000,-9.404177,-2.891545,1.6211,0.16467,0.63855,0.36818
1700499734757812,-9.415177,-2.929545,1.9211,0.21567,0.58355,0.34018
1700499734765625,-9.421177,-2.953545,1.45211,0.23967,0.66555,0.35418
1700499734773437,-9.412177,-2.980545,1.112211,0.24867,0.80255,0.29218
1700499734781250,-9.359177,-3.22545,1.110211,0.21067,0.73055,0.33618
1700499734789062,-9.314177,-3.74545,1.94211,0.21667,0.74055,0.32418
1700499734796875,-9.323177,-3.97545,1.121211,0.16567,0.70755,0.27618
1700499734804687,-9.336177,-3.98545,1.60211,0.12767,0.66755,0.28918
1700499734812500,-9.362177,-3.49545,1.29211,0.15767,0.61755,0.35418
1700499734820312,-9.378177,-2.987545,1.13211,0.18667,0.47555,0.37118
1700499734828125,-9.399177,-2.951545,0.968211,0.21867,0.49055,0.35518
1700499734835937,-9.413177,-2.936545,0.968211,0.20367,0.47655,0.30718
1700499734843750,-9.417177,-2.922545,0.986211,0.39967,0.52555,0.30618
1700499734851562,-9.411177,-2.927545,0.993211,0.34767,0.52255,0.32318
1700499734859375,-9.376177,-2.965545,1.22211,0.30467,0.63455,0.33818
1700499734867187,-9.340177,-2.985545,1.65211,0.23767,0.68055,0.33818
1700499734875000,-9.324177,-3.14545,1.92211,0.20567,0.69555,0.35418
1700499734882812,-9.307177,-3.47545,1.101211,0.18167,0.65555,0.28718
1700499734890625,-9.306177,-3.55545,1.130211,0.10567,0.67955,0.25918
1700499734898437,-9.320177,-3.39545,1.128211,0.13167,0.70755,0.21318
1700499734906250,-9.308177,-3.52545,1.148211,0.10867,0.60455,0.17718
1700499734914062,-9.278177,-3.72545,1.166211,0.5867,0.60555,0.8118
1700499734921875,-9.248177,-3.60545,1.139211,0.8467,0.49155,0.10018
1700499734929687,-9.225177,-3.33545,1.101211,0.11367,0.45155,0.19218
1700499734937500,-9.216177,-2.957545,1.110211,0.3367,0.48755,0.19718
1700499734945312,-9.216177,-2.886545,1.87211,0.5733,0.44455,0.22718
1700499734953125,-9.194177,-2.845545,1.76211,0.1767,0.41955,0.22418
1700499734960937,-9.193177,-2.812545,1.69211,0.0,0.43355,0.28918
1700499734968750,-9.260177,-2.814545,1.2211,0.1733,0.30855,0.24118
1700499734976562,-9.336177,-2.837545,0.999211,0.2867,0.33855,0.22618
1700499734984375,-9.364177,-2.863545,1.8211,0.1733,0.29255,0.22518
1700499734992187,-9.366177,-2.898545,0.993211,0.4867,0.26255,0.20818
1700499735000000,-9.346177,-2.914545,1.17211,0.233,0.23055,0.17718
1700499735007812,-9.337177,-2.921545,1.33211,0.14367,0.23055,0.19318
1700499735015625,-9.325177,-2.915545,1.31211,0.22367,0.26255,0.17718
1700499735023437,-9.338177,-2.879545,1.40211,0.19967,0.33455,0.19618
1700499735031250,-9.317177,-2.866545,1.49211,0.21667,0.47655,0.14718
1700499735039062,-9.351177,-2.852545,1.76211,0.21767,0.48055,0.4582
1700499735046875,-9.382177,-2.874545,1.81211,0.30967,0.50755,0.2782
1700499735054687,-9.387177,-2.876545,1.85211,0.31467,0.58955,0.4582
1700499735062500,-9.380177,-2.874545,1.146211,0.41367,0.54455,0.4682
1700499735070312,-9.353177,-2.881545,1.164211,0.47767,0.65355,0.118
1700499735078125,-9.353177,-2.894545,1.139211,0.56067,0.60755,0.1482
1700499735085937,-9.380177,-2.894545,1.137211,0.55867,0.68455,0.1718
1700499735093750,-9.400177,-2.916545,1.133211,0.55467,0.68155,0.5118
1700499735101562,-9.416177,-2.971545,1.130211,0.55767,0.73155,0.3082
1700499735109375,-9.438177,-3.21545,1.110211,0.62967,0.68755,0.6318
1700499735117187,-9.475177,-3.83545,1.112211,0.47967,0.63655,0.12918
1700499735125000,-9.427177,-3.121545,1.151211,0.48367,0.65455,0.20818
1700499735132812,-9.408177,-3.92545,1.148211,0.43667,0.60755,0.25618
1700499735140625,-9.402177,-3.39545,1.128211,0.29167,0.59155,0.27218
1700499735148437,-9.399177,-2.962545,1.106211,0.20267,0.58655,0.25918
1700499735156250,-9.397177,-2.918545,1.74211,0.25367,0.52555,0.25818
1700499735164062,-9.385177,-2.924545,1.74211,0.26267,0.53155,0.22318
1700499735171875,-9.366177,-2.916545,1.92211,0.20967,0.52955,0.17618
1700499735179687,-9.366177,-2.912545,1.60211,0.20767,0.59055,0.19318
1700499735187500,-9.383177,-2.962545,1.67211,0.22367,0.59055,0.19318
1700499735195312,-9.353177,-3.36545,1.42211,0.13867,0.66555,0.17818
1700499735203125,-9.352177,-3.91545,1.33211,0.4467,0.63555,0.21018
1700499735210937,-9.354177,-3.127545,1.36211,0.4233,0.63155,0.22818
1700499735218750,-9.344177,-3.180545,1.6211,0.3233,0.52655,0.30518
1700499735226562,-9.308177,-3.176545,1.22211,0.8033,0.55755,0.38518
1700499735234375,-9.289177,-3.92545,1.13211,0.23233,0.45855,0.38718
1700499735242187,-9.302177,-3.1545,0.963211,0.11233,0.30855,0.28918
1700499735250000,-9.302177,-2.959545,0.952211,0.7833,0.32555,0.27218
1700499735257812,-9.294177,-2.922545,0.995211,0.18133,0.55655,0.24218
1700499735265625,-9.323177,-2.904545,0.981211,0.23133,0.43155,0.19418
1700499735273437,-9.351177,-2.967545,0.972211,0.17133,0.51655,0.23818
1700499735281250,-9.339177,-3.49545,0.981211,0.22233,0.55955,0.32018
1700499735289062,-9.307177,-3.56545,0.997211,0.14333,0.57455,0.33618
1700499735296875,-9.326177,-3.3545,1.6211,0.26033,0.50955,0.33818
1700499735304687,-9.327177,-2.963545,1.4211,0.12633,0.49655,0.36818
1700499735312500,-9.314177,-2.924545,1.2211,0.25933,0.47755,0.41818
1700499735320312,-9.328177,-2.890545,0.990211,0.17433,0.49555,0.40018
1700499735328125,-9.349177,-2.864545,0.993211,0.20033,0.45855,0.40418
1700499735335937,-9.338177,-2.864545,1.24211,0.2333,0.50655,0.33918
1700499735343750,-9.324177,-2.850545,1.54211,0.10133,0.44655,0.22618
1700499735351562,-9.313177,-2.839545,1.72211,0.11433,0.51155,0.17718
1700499735359375,-9.298177,-2.780545,1.80211,0.6433,0.49755,0.17618
1700499735367187,-9.285177,-2.751545,1.81211,0.3633,0.49555,0.12918
1700499735375000,-9.254177,-2.718545,1.76211,0.4733,0.61055,0.0
1700499735382812,-9.310177,-2.713545,1.71211,0.4467,0.60855,0.7982
1700499735390625,-9.374177,-2.774545,1.121211,0.4967,0.69055,0.14582
1700499735398437,-9.407177,-2.853545,1.139211,0.19167,0.74955,0.3182
1700499735406250,-9.411177,-2.902545,1.139211,0.18567,0.71555,0.4682
1700499735414062,-9.406177,-2.931545,1.148211,0.31567,0.79255,0.5018
1700499735421875,-9.399177,-2.920545,1.119211,0.45267,0.73355,0.19218
1700499735429687,-9.444177,-2.919545,1.90211,0.35967,0.65755,0.17418
1700499735437500,-9.410177,-2.922545,1.119211,0.36967,0.63655,0.27318
1700499735445312,-9.431177,-2.908545,1.87211,0.27367,0.57455,0.28918
1700499735453125,-9.470177,-2.936545,1.83211,0.32867,0.68855,0.30218
1700499735460937,-9.468177,-2.963545,1.119211,0.29467,0.67155,0.25518
1700499735468750,-9.430177,-2.964545,1.103211,0.22067,0.68055,0.25818
1700499735476562,-9.402177,-2.988545,1.90211,0.19567,0.70155,0.25618
1700499735484375,-9.371177,-3.40545,1.81211,0.17267,0.72855,0.21018
1700499735492187,-9.332177,-3.94545,1.51211,0.12467,0.76055,0.21018
1700499735500000,-9.337177,-3.133545,1.56211,0.19567,0.67055,0.22418
1700499735507812,-9.360177,-3.88545,1.44211,0.2833,0.67155,0.22318
1700499735515625,-9.372177,-3.33545,1.6211,0.2833,0.57755,0.23918
1700499735523437,-9.391177,-2.977545,0.997211,0.1333,0.65555,0.19118
1700499735531250,-9.398177,-2.957545,0.983211,0.9967,0.57655,0.27218
1700499735539062,-9.401177,-2.993545,0.986211,0.13767,0.55555,0.21118
1700499735546875,-9.379177,-3.51545,1.2211,0.7867,0.68255,0.27318
1700499735554687,-9.331177,-3.107545,1.31211,0.16667,0.63955,0.31918
1700499735562500,-9.297177,-3.138545,1.15211,0.14767,0.70055,0.32018
1700499735570312,-9.275177,-3.127545,1.10211,0.1233,0.54455,0.32018
1700499735578125,-9.265177,-3.63545,1.29211,0.3033,0.56155,0.17618
1700499735585937,-9.268177,-2.991545,1.17211,0.19833,0.55555,0.25818
1700499735593750,-9.276177,-2.946545,1.11211,0.13433,0.50955,0.21018
1700499735601562,-9.279177,-2.862545,1.8211,0.7033,0.47855,0.16218
1700499735609375,-9.293177,-2.804545,1.6211,0.11733,0.44855,0.12918
1700499735617187,-9.296177,-2.782545,0.997211,0.3233,0.50055,0.3282
1700499735625000,-9.309177,-2.773545,1.22211,0.0,0.53155,0.3282
1700499735632812,-9.311177,-2.797545,1.31211,0.4967,0.51555,0.11118
1700499735640625,-9.313177,-2.839545,1.33211,0.22367,0.52655,0.25718
1700499735648437,-9.331177,-2.873545,1.22211,0.20267,0.50855,0.22718
1700499735656250,-9.337177,-2.892545,1.4211,0.22367,0.49455,0.30518
1700499735664062,-9.319177,-2.881545,1.1211,0.21167,0.54355,0.32018
1700499735671875,-9.324177,-2.850545,0.999211,0.33767,0.46355,0.35318
1700499735679687,-9.309177,-2.790545,1.33211,0.22967,0.49855,0.32018
1700499735687500,-9.313177,-2.725545,1.40211,0.23267,0.45855,0.29218
1700499735695312,-9.305177,-2.690545,1.76211,0.24567,0.47355,0.22918
1700499735703125,-9.335177,-2.722545,1.81211,0.22267,0.48055,0.14518
1700499735710937,-9.356177,-2.825545,1.96211,0.23967,0.49755,0.14518
1700499735718750,-9.345177,-2.952545,1.137211,0.33567,0.49655,0.16118
1700499735726562,-9.378177,-3.36545,1.92211,0.21867,0.46255,0.19518
1700499735734375,-9.393177,-3.49545,1.110211,0.23967,0.44855,0.20918
1700499735742187,-9.375177,-3.24545,1.112211,0.24067,0.41655,0.33718
1700499735750000,-9.385177,-2.985545,1.106211,0.33367,0.44555,0.32318
1700499735757812,-9.379177,-2.945545,1.153211,0.22467,0.49655,0.22518
1700499735765625,-9.393177,-2.918545,1.124211,0.23967,0.44855,0.27318
1700499735773437,-9.435177,-2.931545,1.81211,0.22367,0.47955,0.24118
1700499735781250,-9.488177,-2.947545,1.33211,0.20667,0.46455,0.22518
1700499735789062,-9.497177,-2.979545,1.15211,0.21967,0.47755,0.27518
1700499735796875,-9.496177,-3.16545,1.6211,0.25667,0.47955,0.32118
1700499735804687,-9.458177,-3.23545,1.24211,0.28467,0.52355,0.27518
1700499735812500,-9.436177,-3.37545,1.45211,0.26967,0.52555,0.25818
1700499735820312,-9.426177,-3.59545,1.29211,0.24267,0.59155,0.25618
1700499735828125,-9.383177,-3.73545,1.76211,0.17767,0.59155,0.20818
1700499735835937,-9.319177,-3.40545,1.85211,0.13167,0.56155,0.22418
1700499735843750,-9.284177,-2.975545,1.108211,0.6567,0.56255,0.9518
1700499735851562,-9.290177,-2.911545,1.83211,0.2367,0.54255,0.2982
1700499735859375,-9.294177,-2.884545,1.56211,0.433,0.48255,0.7882
1700499735867187,-9.286177,-2.886545,1.65211,0.733,0.49755,0.12682
1700499735875000,-9.265177,-2.887545,1.83211,0.633,0.48155,0.7882
1700499735882812,-9.287177,-2.902545,1.58211,0.4467,0.49855,0.3082
1700499735890625,-9.303177,-2.902545,1.83211,0.9067,0.48155,0.1482
1700499735898437,-9.325177,-2.912545,1.63211,0.4467,0.49755,0.1718
1700499735906250,-9.355177,-2.921545,1.45211,0.18767,0.47955,0.14618
1700499735914062,-9.372177,-2.909545,1.56211,0.17867,0.49755,0.25618
1700499735921875,-9.357177,-2.879545,1.51211,0.7967,0.48055,0.24118
1700499735929687,-9.373177,-2.849545,1.47211,0.8167,0.49755,0.27218
1700499735937500,-9.383177,-2.847545,1.56211,0.7767,0.44655,0.32218
1700499735945312,-9.382177,-2.849545,1.76211,0.3067,0.41655,0.28918
1700499735953125,-9.389177,-2.858545,1.87211,0.16267,0.43555,0.24018
1700499735960937,-9.402177,-2.876545,1.42211,0.867,0.38155,0.29118
1700499735968750,-9.386177,-2.889545,1.45211,0.6067,0.52455,0.33818
1700499735976562,-9.377177,-2.885545,1.72211,0.5133,0.54155,0.25818
1700499735984375,-9.368177,-2.918545,1.76211,0.7867,0.54355,0.19318
1700499735992187,-9.334177,-2.979545,1.63211,0.8867,0.55555,0.17918
1700499736000000,-9.283177,-3.24545,1.26211,0.3167,0.52755,0.24118
1700499736007812,-9.263177,-3.46545,1.17211,0.4367,0.49355,0.25818
1700499736015625,-9.277177,-3.37545,1.22211,0.1267,0.52655,0.22518
1700499736023437,-9.304177,-2.995545,1.11211,0.733,0.44455,0.30718
1700499736031250,-9.311177,-2.968545,1.2211,0.5767,0.55455,0.29118
1700499736039062,-9.325177,-2.945545,0.988211,0.16167,0.49555,0.32118
1700499736046875,-9.368177,-2.916545,0.974211,0.22567,0.43455,0.27318
1700499736054687,-9.409177,-2.900545,0.966211,0.20167,0.28755,0.30818
1700499736062500,-9.433177,-2.926545,0.945211,0.20667,0.38455,0.33818
1700499736070312,-9.408177,-2.960545,0.975211,0.18467,0.42755,0.34018
1700499736078125,-9.401177,-2.998545,1.15211,0.21767,0.44255,0.35618
1700499736085937,-9.392177,-2.994545,1.18211,0.13467,0.45755,0.34118
1700499736093750,-9.409177,-3.16545,1.38211,0.16767,0.50555,0.26018
1700499736101562,-9.400177,-3.35545,1.17211,0.7767,0.44855,0.20918
1700499736109375,-9.389177,-3.24545,1.31211,0.14067,0.41655,0.21018
1700499736117187,-9.380177,-2.989545,1.63211,0.2333,0.52355,0.17918
1700499736125000,-9.354177,-2.930545,1.65211,0.533,0.47855,0.17818
1700499736132812,-9.314177,-2.899545,1.103211,0.2767,0.52755,0.8118
1700499736140625,-9.293177,-2.878545,1.117211,0.767,0.52655,0.4582
1700499736148437,-9.306177,-2.878545,1.79211,0.1733,0.47555,0.15582
1700499736156250,-9.313177,-2.879545,1.69211,0.3867,0.54355,0.12582
1700499736164062,-9.330177,-2.926545,1.74211,0.13367,0.49355,0.6082
1700499736171875,-9.354177,-2.972545,1.58211,0.15167,0.52555,0.1382
1700499736179687,-9.340177,-2.967545,1.44211,0.18967,0.54555,0.3082
1700499736187500,-9.338177,-2.970545,1.54211,0.15767,0.49555,0.12918
1700499736195312,-9.350177,-2.943545,1.63211,0.7367,0.53955,0.22718
1700499736203125,-9.337177,-2.888545,1.71211,0.4867,0.54455,0.22418
1700499736210937,-9.326177,-2.846545,1.60211,0.3167,0.46555,0.20918
1700499736218750,-9.307177,-2.802545,1.60211,0.2967,0.47955,0.22518
1700499736226562,-9.297177,-2.756545,1.101211,0.9167,0.55855,0.4918
1700499736234375,-9.315177,-2.738545,1.81211,0.2167,0.54155,0.10982
1700499736242187,-9.307177,-2.780545,1.78211,0.733,0.52855,0.14282
1700499736250000,-9.320177,-2.866545,1.76211,0.5267,0.54255,0.17382
1700499736257812,-9.308177,-2.890545,1.90211,0.4067,0.56055,0.17482
1700499736265625,-9.302177,-2.858545,1.85211,0.22967,0.69855,0.15682
1700499736273437,-9.290177,-2.848545,1.103211,0.19167,0.57955,0.14482
1700499736281250,-9.300177,-2.860545,1.67211,0.35767,0.54155,0.14082
1700499736289062,-9.342177,-2.891545,1.18211,0.36967,0.56755,0.4282
1700499736296875,-9.388177,-2.934545,0.977211,0.44067,0.61955,0.7782
1700499736304687,-9.428177,-2.933545,0.997211,0.46067,0.63555,0.9818
1700499736312500,-9.452177,-2.970545,1.6211,0.52367,0.68055,0.16318
1700499736320312,-9.470177,-3.10545,1.22211,0.60867,0.61955,0.25818
1700499736328125,-9.514177,-3.27545,1.8211,0.56267,0.61955,0.35418
1700499736335937,-9.521177,-3.24545,1.36211,0.61067,0.66655,0.37018
1700499736343750,-9.485177,-3.25545,1.49211,0.53967,0.67655,0.42018
1700499736351562,-9.436177,-3.28545,1.74211,0.65467,0.72455,0.43618
1700499736359375,-9.405177,-2.995545,1.81211,0.51367,0.74455,0.35418
1700499736367187,-9.385177,-2.962545,1.45211,0.39767,0.65055,0.22618
1700499736375000,-9.399177,-2.962545,0.995211,0.34767,0.53955,0.21118
1700499736382812,-9.396177,-3.5545,0.986211,0.24767,0.60155,0.11518
1700499736390625,-9.418177,-3.2545,0.975211,0.20167,0.54055,0.13118
1700499736398437,-9.414177,-2.980545,0.966211,0.21967,0.63455,0.14618
1700499736406250,-9.376177,-2.974545,0.981211,0.16667,0.63255,0.9918
1700499736414062,-9.325177,-2.972545,0.999211,0.21667,0.66555,0.6718
1700499736421875,-9.298177,-2.955545,1.24211,0.25467,0.73355,0.6382
1700499736429687,-9.267177,-2.925545,1.42211,0.21267,0.71155,0.1282
1700499736437500,-9.256177,-2.898545,1.47211,0.21967,0.73255,0.6282
1700499736445312,-9.259177,-2.845545,1.60211,0.20367,0.67055,0.11082
1700499736453125,-9.266177,-2.845545,1.60211,0.26267,0.68255,0.10882
1700499736460937,-9.264177,-2.851545,1.76211,0.23667,0.68555,0.6282
1700499736468750,-9.268177,-2.876545,1.49211,0.29067,0.67755,0.1082
1700499736476562,-9.295177,-2.898545,1.49211,0.25967,0.63255,0.2782
1700499736484375,-9.330177,-2.915545,1.24211,0.32967,0.60255,0.9918
1700499736492187,-9.364177,-2.919545,1.13211,0.34367,0.58455,0.21218
1700499736500000,-9.384177,-2.907545,1.40211,0.26667,0.47555,0.30718
1700499736507812,-9.403177,-2.861545,0.993211,0.25067,0.52155,0.35518
1700499736515625,-9.441177,-2.827545,0.959211,0.25567,0.41555,0.33818
1700499736523437,-9.437177,-2.800545,0.995211,0.25667,0.54155,0.35418
1700499736531250,-9.446177,-2.816545,0.986211,0.25067,0.49055,0.35518
1700499736539062,-9.472177,-2.857545,0.977211,0.20267,0.47555,0.33918
1700499736546875,-9.469177,-2.904545,0.975211,0.23967,0.44655,0.37018
1700499736554687,-9.447177,-2.909545,0.975211,0.21567,0.50355,0.42118
1700499736562500,-9.406177,-2.905545,0.970211,0.15667,0.50755,0.40318
1700499736570312,-9.375177,-2.894545,1.6211,0.15467,0.58555,0.30718
1700499736578125,-9.312177,-2.924545,1.29211,0.15767,0.58655,0.33818
1700499736585937,-9.275177,-2.993545,1.76211,0.3967,0.53855,0.22718
1700499736593750,-9.272177,-3.62545,1.56211,0.5567,0.44555,0.14718
1700499736601562,-9.290177,-3.136545,1.38211,0.2833,0.34555,0.11118
1700499736609375,-9.292177,-3.187545,1.6211,0.4133,0.26755,0.17418
1700499736617187,-9.269177,-3.192545,0.997211,0.3033,0.31055,0.19218
1700499736625000,-9.266177,-3.151545,1.9211,0.9233,0.24055,0.13218
1700499736632812,-9.269177,-3.59545,0.979211,0.14133,0.23455,0.14318
1700499736640625,-9.302177,-2.972545,0.941211,0.13133,0.24655,0.17718
1700499736648437,-9.283177,-2.937545,0.970211,0.31033,0.26055,0.17818
1700499736656250,-9.261177,-2.918545,1.8211,0.20133,0.24255,0.19518
1700499736664062,-9.292177,-2.920545,0.970211,0.31633,0.14755,0.14818
1700499736671875,-9.340177,-2.958545,0.963211,0.22633,0.12355,0.6418
1700499736679687,-9.367177,-2.996545,0.938211,0.19733,0.15155,0.17818
1700499736687500,-9.353177,-2.991545,0.911211,0.30233,0.10955,0.17518
1700499736695312,-9.365177,-2.962545,0.927211,0.22433,0.21755,0.17618
1700499736703125,-9.372177,-2.900545,0.898211,0.15633,0.14055,0.19118
1700499736710937,-9.391177,-2.874545,0.914211,0.12033,0.14955,0.16318
1700499736718750,-9.380177,-2.852545,0.961211,0.11533,0.21555,0.11318
1700499736726562,-9.398177,-2.840545,0.936211,0.4933,0.10555,0.19318
1700499736734375,-9.402177,-2.842545,0.925211,0.4633,0.15555,0.17618
1700499736742187,-9.395177,-2.876545,0.925211,0.3333,0.13755,0.19318
1700499736750000,-9.380177,-2.879545,0.934211,0.833,0.16355,0.21218
1700499736757812,-9.385177,-2.874545,0.934211,0.8967,0.10055,0.25918
1700499736765625,-9.402177,-2.869545,0.934211,0.10867,0.13455,0.25818
1700499736773437,-9.392177,-2.850545,0.932211,0.4167,0.18055,0.21118
1700499736781250,-9.396177,-2.872545,0.875211,0.9267,0.16555,0.22618
1700499736789062,-9.388177,-2.916545,0.916211,0.22067,0.21255,0.21018
1700499736796875,-9.336177,-2.952545,0.954211,0.21167,0.21755,0.17618
1700499736804687,-9.300177,-2.966545,0.950211,0.22867,0.23355,0.19218
1700499736812500,-9.286177,-2.975545,0.972211,0.25967,0.23355,0.16018
1700499736820312,-9.278177,-2.955545,0.941211,0.23667,0.25955,0.16218
1700499736828125,-9.275177,-2.941545,0.925211,0.21667,0.37755,0.17418
1700499736835937,-9.291177,-2.939545,0.911211,0.20767,0.29355,0.20918
1700499736843750,-9.336177,-2.950545,0.895211,0.24167,0.34155,0.20918
1700499736851562,-9.372177,-2.934545,0.923211,0.22567,0.27855,0.19218
1700499736859375,-9.424177,-2.929545,0.914211,0.20467,0.22855,0.17818
1700499736867187,-9.476177,-2.994545,0.902211,0.22167,0.33855,0.19418
1700499736875000,-9.507177,-3.49545,0.905211,0.21167,0.26255,0.30518
1700499736882812,-9.514177,-3.23545,0.941211,0.22167,0.25855,0.32218
1700499736890625,-9.472177,-2.988545,0.923211,0.33967,0.26055,0.38518
1700499736898437,-9.414177,-2.955545,0.886211,0.28867,0.27555,0.37018
1700499736906250,-9.395177,-2.911545,0.871211,0.27467,0.24555,0.32118
1700499736914062,-9.395177,-2.900545,0.862211,0.35267,0.38655,0.20918
1700499736921875,-9.384177,-2.907545,0.857211,0.26567,0.47655,0.19518
1700499736929687,-9.375177,-2.914545,0.914211,0.28667,0.49555,0.16118
1700499736937500,-9.347177,-2.932545,0.945211,0.25667,0.55955,0.20918
1700499736945312,-9.360177,-2.998545,0.941211,0.20567,0.57355,0.12918
1700499736953125,-9.375177,-3.62545,0.943211,0.20067,0.58555,0.21118
1700499736960937,-9.347177,-3.112545,0.923211,0.23167,0.50655,0.22818
1700499736968750,-9.359177,-3.63545,0.939211,0.21567,0.52155,0.22818
1700499736976562,-9.336177,-2.981545,0.961211,0.20667,0.51155,0.20918
1700499736984375,-9.305177,-2.893545,0.977211,0.22467,0.54355,0.19318
1700499736992187,-9.336177,-2.806545,0.981211,0.20567,0.49655,0.11318
1700499737000000,-9.324177,-2.744545,1.29211,0.28267,0.60455,0.1382
1700499737007812,-9.366177,-2.761545,1.6211,0.31367,0.71455,0.6182
1700499737015625,-9.371177,-2.854545,1.20211,0.27967,0.71255,0.4482
1700499737023437,-9.389177,-2.889545,1.31211,0.42667,0.72955,0.1382
1700499737031250,-9.427177,-2.898545,0.993211,0.36367,0.74455,0.11418
1700499737039062,-9.478177,-2.903545,0.925211,0.41267,0.72855,0.14618
1700499737046875,-9.547177,-2.918545,0.945211,0.41567,0.74455,0.22618
1700499737054687,-9.569177,-2.948545,0.999211,0.41967,0.79355,0.33718
1700499737062500,-9.560177,-2.953545,1.2211,0.46467,0.75955,0.35418
1700499737070312,-9.524177,-2.943545,1.22211,0.41267,0.83455,0.38718
1700499737078125,-9.486177,-2.927545,1.40211,0.32167,0.77555,0.40118
1700499737085937,-9.422177,-2.913545,1.60211,0.23567,0.83655,0.27418
1700499737093750,-9.332177,-2.910545,1.60211,0.21667,0.91355,0.21118
1700499737101562,-9.276177,-2.920545,1.63211,0.13167,0.80255,0.14818
1700499737109375,-9.256177,-2.945545,1.56211,0.6333,0.83555,0.5982
1700499737117187,-9.255177,-2.994545,1.38211,0.6833,0.75455,0.12282
1700499737125000,-9.253177,-3.5545,1.15211,0.1733,0.75755,0.18782
1700499737132812,-9.255177,-3.13545,0.986211,0.2933,0.79055,0.10882
1700499737140625,-9.277177,-2.993545,0.984211,0.467,0.80555,0.2882
1700499737148437,-9.327177,-2.950545,0.947211,0.11967,0.82255,0.3418
1700499737156250,-9.337177,-2.921545,0.963211,0.16467,0.87955,0.24418
1700499737164062,-9.312177,-2.904545,0.981211,0.13767,0.94555,0.22718
1700499737171875,-9.301177,-2.895545,0.992211,0.14367,0.90255,0.25718
1700499737179687,-9.292177,-2.862545,0.999211,0.24067,0.96455,0.30518
1700499737187500,-9.328177,-2.879545,1.38211,0.15367,0.96155,0.21118
1700499737195312,-9.353177,-2.912545,1.60211,0.6767,0.99055,0.16418
1700499737203125,-9.358177,-2.963545,1.87211,0.11967,0.94655,0.6618
1700499737210937,-9.367177,-3.16545,1.85211,0.16567,0.89855,0.5118
1700499737218750,-9.397177,-3.35545,1.56211,0.17367,0.85755,0.0
1700499737226562,-9.398177,-3.4545,1.81211,0.18467,0.86855,0.9818
1700499737234375,-9.388177,-2.933545,1.78211,0.19067,0.83955,0.22518
1700499737242187,-9.400177,-2.860545,1.35211,0.15867,0.73055,0.17718
1700499737250000,-9.402177,-2.765545,1.33211,0.23367,0.74255,0.17918
1700499737257812,-9.398177,-2.706545,0.993211,0.26167,0.73955,0.21218
1700499737265625,-9.409177,-2.708545,0.995211,0.37567,0.85055,0.19618
1700499737273437,-9.385177,-2.701545,1.20211,0.52667,0.86955,0.17818
1700499737281250,-9.389177,-2.728545,0.999211,0.52367,0.82055,0.17918
1700499737289062,-9.414177,-2.807545,1.2211,0.58967,0.86855,0.21018
1700499737296875,-9.434177,-2.891545,1.211,0.57067,0.89655,0.26018
1700499737304687,-9.439177,-2.989545,1.2211,0.45567,0.94155,0.30818
1700499737312500,-9.418177,-3.17545,1.20211,0.48267,0.101155,0.30518
1700499737320312,-9.385177,-3.9545,1.67211,0.32567,0.92455,0.38918
1700499737328125,-9.347177,-3.1545,1.76211,0.36767,0.86855,0.38618
1700499737335937,-9.298177,-2.980545,1.79211,0.31267,0.78555,0.38818
1700499737343750,-9.271177,-2.948545,1.69211,0.25767,0.76055,0.36918
1700499737351562,-9.285177,-2.936545,1.56211,0.26367,0.67655,0.27618
1700499737359375,-9.271177,-2.953545,1.65211,0.23367,0.56955,0.25918
1700499737367187,-9.256177,-2.929545,1.63211,0.24767,0.66355,0.19518
1700499737375000,-9.278177,-2.902545,1.53211,0.22567,0.60755,0.19218
1700499737382812,-9.303177,-2.906545,1.26211,0.20767,0.57455,0.19318
1700499737390625,-9.305177,-2.939545,1.29211,0.23967,0.55955,0.12918
1700499737398437,-9.272177,-2.920545,1.56211,0.22167,0.62055,0.17718
1700499737406250,-9.247177,-2.880545,1.53211,0.28867,0.51255,0.19318
1700499737414062,-9.248177,-2.843545,1.40211,0.38367,0.51155,0.14518
1700499737421875,-9.259177,-2.820545,1.28211,0.48567,0.54655,0.14318
1700499737429687,-9.275177,-2.858545,1.38211,0.40267,0.62355,0.17618
1700499737437500,-9.289177,-2.959545,1.47211,0.44867,0.63755,0.14518
1700499737445312,-9.293177,-3.22545,1.38211,0.42367,0.64655,0.18018
1700499737453125,-9.328177,-3.28545,1.33211,0.41167,0.57155,0.19518
1700499737460937,-9.347177,-2.970545,1.13211,0.40067,0.43155,0.33818
1700499737468750,-9.341177,-2.894545,1.33211,0.45067,0.51055,0.35318
1700499737476562,-9.342177,-2.830545,1.20211,0.36967,0.51055,0.35318
1700499737484375,-9.365177,-2.812545,1.17211,0.38967,0.54455,0.33618
1700499737492187,-9.378177,-2.825545,1.8211,0.44667,0.50855,0.33918
1700499737500000,-9.404177,-2.853545,0.997211,0.39267,0.51555,0.25518
1700499737507812,-9.413177,-2.929545,0.995211,0.44767,0.49455,0.27418
1700499737515625,-9.387177,-2.973545,0.963211,0.33767,0.52855,0.20918
1700499737523437,-9.400177,-3.13545,0.927211,0.24267,0.46455,0.32118
1700499737531250,-9.367177,-2.998545,0.943211,0.20567,0.50955,0.27418
1700499737539062,-9.368177,-2.925545,0.988211,0.24367,0.52855,0.30418
1700499737546875,-9.373177,-2.868545,0.952211,0.24967,0.50755,0.25918
1700499737554687,-9.331177,-2.860545,0.961211,0.21167,0.48755,0.22918
1700499737562500,-9.310177,-2.904545,0.975211,0.19967,0.50555,0.22818
1700499737570312,-9.305177,-2.924545,0.995211,0.23067,0.50655,0.19618
1700499737578125,-9.310177,-2.946545,0.979211,0.21567,0.44355,0.21218
1700499737585937,-9.323177,-2.952545,0.979211,0.20267,0.47755,0.17918
1700499737593750,-9.360177,-2.965545,1.13211,0.22667,0.49855,0.17618
1700499737601562,-9.355177,-3.11545,0.995211,0.20967,0.40355,0.22518
1700499737609375,-9.359177,-3.45545,0.977211,0.20367,0.33755,0.17818
1700499737617187,-9.377177,-3.18545,0.981211,0.22567,0.26355,0.19218
1700499737625000,-9.375177,-2.932545,0.950211,0.20267,0.22755,0.17918
1700499737632812,-9.407177,-2.863545,0.927211,0.23667,0.24455,0.19418
1700499737640625,-9.441177,-2.824545,0.898211,0.26067,0.23355,0.17618
1700499737648437,-9.466177,-2.809545,0.878211,0.29667,0.25755,0.13218
1700499737656250,-9.477177,-2.837545,0.866211,0.34567,0.24155,0.18018
1700499737664062,-9.485177,-2.850545,0.886211,0.40667,0.32855,0.15918
1700499737671875,-9.487177,-2.888545,0.877211,0.46667,0.51255,0.19318
1700499737679687,-9.469177,-2.908545,0.882211,0.50767,0.47655,0.19518
1700499737687500,-9.431177,-2.931545,0.934211,0.50967,0.55555,0.22718
1700499737695312,-9.408177,-2.955545,0.927211,0.54567,0.51155,0.20918
1700499737703125,-9.383177,-2.996545,0.945211,0.47667,0.61755,0.22718
1700499737710937,-9.358177,-3.21545,0.961211,0.45667,0.56855,0.22818
1700499737718750,-9.353177,-3.36545,0.943211,0.46467,0.54255,0.22518
1700499737726562,-9.357177,-3.18545,0.956211,0.45367,0.53155,0.15918
1700499737734375,-9.358177,-2.965545,0.972211,0.47867,0.52655,0.17818
1700499737742187,-9.366177,-2.903545,0.966211,0.39267,0.55355,0.19618
1700499737750000,-9.378177,-2.845545,0.938211,0.37867,0.47655,0.19518
1700499737757812,-9.408177,-2.830545,0.934211,0.36167,0.49255,0.16318
1700499737765625,-9.416177,-2.840545,0.950211,0.33367,0.52555,0.19418
1700499737773437,-9.402177,-2.869545,0.959211,0.25467,0.54255,0.22518
1700499737781250,-9.402177,-2.903545,0.963211,0.23467,0.50855,0.19518
1700499737789062,-9.379177,-2.949545,0.997211,0.25467,0.60455,0.19318
1700499737796875,-9.360177,-2.994545,1.2211,0.26667,0.60255,0.17918
1700499737804687,-9.322177,-2.997545,1.6211,0.26467,0.63155,0.21118
1700499737812500,-9.264177,-2.971545,1.13211,0.18567,0.63355,0.19518
1700499737820312,-9.256177,-2.927545,1.4211,0.26567,0.61855,0.11518
1700499737828125,-9.292177,-2.888545,0.992211,0.25467,0.51355,0.3318
1700499737835937,-9.319177,-2.919545,0.936211,0.21667,0.49455,0.218
1700499737843750,-9.336177,-2.963545,0.929211,0.19967,0.54155,0.6182
1700499737851562,-9.384177,-3.15545,0.904211,0.27367,0.54555,0.12818
1700499737859375,-9.424177,-3.44545,0.891211,0.25267,0.54055,0.22618
1700499737867187,-9.433177,-3.48545,0.891211,0.27367,0.65155,0.30518
1700499737875000,-9.454177,-3.28545,0.896211,0.23667,0.60155,0.35518
1700499737882812,-9.465177,-2.994545,0.877211,0.28767,0.57055,0.45018
1700499737890625,-9.456177,-2.956545,0.875211,0.23067,0.56055,0.40018
1700499737898437,-9.444177,-2.946545,0.893211,0.31967,0.66655,0.33818
1700499737906250,-9.419177,-2.939545,0.929211,0.35667,0.60655,0.32018
1700499737914062,-9.415177,-2.942545,0.943211,0.42967,0.61955,0.21018
1700499737921875,-9.410177,-2.955545,0.961211,0.43067,0.71455,0.17818
1700499737929687,-9.372177,-2.976545,1.4211,0.42667,0.74255,0.19518
1700499737937500,-9.344177,-3.5545,1.15211,0.42467,0.72555,0.16318
1700499737945312,-9.297177,-3.21545,1.69211,0.41667,0.74655,0.16118
1700499737953125,-9.262177,-2.988545,1.81211,0.36767,0.73155,0.9718
1700499737960937,-9.235177,-2.922545,1.60211,0.30667,0.75155,0.1682
1700499737968750,-9.239177,-2.863545,1.87211,0.18067,0.79155,0.10882
1700499737976562,-9.238177,-2.796545,1.87211,0.29667,0.82555,0.17482
1700499737984375,-9.245177,-2.772545,1.56211,0.24467,0.83855,0.15682
1700499737992187,-9.251177,-2.794545,1.83211,0.26967,0.89155,0.17582
1700499738000000,-9.253177,-2.825545,1.83211,0.39367,0.87255,0.15882
1700499738007812,-9.254177,-2.853545,1.29211,0.38167,0.84355,0.17582
1700499738015625,-9.257177,-2.860545,0.992211,0.31267,0.85655,0.15882
1700499738023437,-9.289177,-2.809545,1.29211,0.35867,0.90155,0.17382
1700499738031250,-9.330177,-2.737545,1.49211,0.42767,0.90455,0.19082
1700499738039062,-9.401177,-2.760545,1.17211,0.47767,0.89055,0.15982
1700499738046875,-9.460177,-2.852545,1.6211,0.50067,0.75355,0.17782
1700499738054687,-9.474177,-2.965545,0.999211,0.57667,0.78055,0.6382
1700499738062500,-9.454177,-3.28545,1.2211,0.46067,0.77755,0.4682
1700499738070312,-9.423177,-2.990545,1.4211,0.52667,0.76355,0.4682
1700499738078125,-9.413177,-2.904545,0.981211,0.57567,0.77855,0.3318
1700499738085937,-9.398177,-2.836545,0.979211,0.50867,0.76255,0.4682
1700499738093750,-9.401177,-2.789545,0.999211,0.49167,0.77855,0.11082
1700499738101562,-9.403177,-2.796545,1.4211,0.60267,0.77755,0.12582
1700499738109375,-9.382177,-2.852545,1.22211,0.58767,0.85655,0.17482
1700499738117187,-9.383177,-2.927545,1.15211,0.60367,0.81055,0.15882
1700499738125000,-9.429177,-3.6545,1.20211,0.63467,0.87055,0.12582
1700499738132812,-9.457177,-3.89545,1.17211,0.54167,0.88855,0.7882
1700499738140625,-9.440177,-3.158545,1.42211,0.60767,0.96555,0.9718
1700499738148437,-9.420177,-3.163545,1.69211,0.72267,0.88755,0.17718
1700499738156250,-9.405177,-3.106545,1.62211,0.58167,0.90455,0.25618
1700499738164062,-9.381177,-3.68545,1.38211,0.53767,0.84455,0.28718
1700499738171875,-9.327177,-3.42545,1.49211,0.44367,0.81355,0.33418
1700499738179687,-9.293177,-2.974545,1.33211,0.40667,0.85855,0.27118
1700499738187500,-9.294177,-2.935545,1.31211,0.43367,0.77855,0.16018
1700499738195312,-9.316177,-2.912545,1.26211,0.33467,0.74455,0.21018
1700499738203125,-9.336177,-2.970545,0.995211,0.30167,0.72955,0.14618
1700499738210937,-9.350177,-3.78545,0.954211,0.26567,0.71155,0.14718
1700499738218750,-9.375177,-3.177545,0.900211,0.23767,0.69755,0.22618
1700499738226562,-9.370177,-3.222545,0.886211,0.20767,0.57255,0.30618
1700499738234375,-9.336177,-3.215545,0.891211,0.11467,0.52655,0.43318
1700499738242187,-9.326177,-3.154545,0.862211,0.1833,0.41455,0.41818
1700499738250000,-9.307177,-3.69545,0.866211,0.2733,0.52855,0.43218
1700499738257812,-9.324177,-3.17545,0.875211,0.6833,0.52155,0.46718
1700499738265625,-9.343177,-2.943545,0.877211,0.24333,0.40055,0.32118
1700499738273437,-9.352177,-2.923545,0.891211,0.23433,0.44455,0.24318
1700499738281250,-9.347177,-2.974545,0.889211,0.29733,0.56955,0.32318
1700499738289062,-9.298177,-3.63545,0.943211,0.29233,0.60455,0.24118
1700499738296875,-9.287177,-3.119545,0.963211,0.25333,0.56755,0.19618
1700499738304687,-9.292177,-3.88545,1.211,0.30333,0.48855,0.21318
1700499738312500,-9.305177,-3.61545,1.24211,0.32633,0.49455,0.17718
1700499738320312,-9.288177,-3.10545,1.33211,0.34433,0.47755,0.19418
1700499738328125,-9.275177,-2.971545,1.20211,0.37333,0.49655,0.12918
1700499738335937,-9.256177,-2.925545,1.8211,0.29633,0.41655,0.9818
1700499738343750,-9.290177,-2.891545,0.999211,0.40733,0.41755,0.9718
1700499738351562,-9.265177,-2.889545,0.981211,0.42133,0.45155,0.0
1700499738359375,-9.254177,-2.891545,0.974211,0.34133,0.41855,0.6518
1700499738367187,-9.260177,-2.886545,0.972211,0.28733,0.46955,0.11118
1700499738375000,-9.267177,-2.900545,0.974211,0.30633,0.49755,0.20818
1700499738382812,-9.294177,-2.913545,0.945211,0.29533,0.46255,0.19418
1700499738390625,-9.289177,-2.937545,0.972211,0.34533,0.47655,0.22718
1700499738398437,-9.274177,-2.920545,0.981211,0.42833,0.50555,0.27518
1700499738406250,-9.304177,-2.868545,0.997211,0.39133,0.54155,0.21018
1700499738414062,-9.336177,-2.824545,1.8211,0.37633,0.35355,0.17818
1700499738421875,-9.351177,-2.823545,0.993211,0.30933,0.33955,0.19318
1700499738429687,-9.364177,-2.852545,1.4211,0.28933,0.32655,0.14418
1700499738437500,-9.366177,-2.863545,1.26211,0.30733,0.37155,0.20918
1700499738445312,-9.349177,-2.852545,1.17211,0.29333,0.43255,0.22518
1700499738453125,-9.378177,-2.834545,0.968211,0.32633,0.46355,0.20918
1700499738460937,-9.409177,-2.851545,0.983211,0.18833,0.40655,0.20718
1700499738468750,-9.440177,-2.866545,0.986211,0.3333,0.55855,0.25718
1700499738476562,-9.480177,-2.908545,0.988211,0.5733,0.52255,0.22718
1700499738484375,-9.479177,-2.967545,0.968211,0.4633,0.45055,0.32018
1700499738492187,-9.467177,-3.37545,1.4211,0.1067,0.50755,0.35518
1700499738500000,-9.417177,-3.66545,1.45211,0.2133,0.53855,0.37118
1700499738507812,-9.350177,-3.54545,1.85211,0.5033,0.50955,0.35418
1700499738515625,-9.324177,-3.23545,1.78211,0.11433,0.54255,0.27318
1700499738523437,-9.306177,-2.994545,1.58211,0.19433,0.43355,0.24118
1700499738531250,-9.320177,-2.985545,1.31211,0.22833,0.29255,0.14518
1700499738539062,-9.332177,-2.943545,1.13211,0.8333,0.30855,0.16118
1700499738546875,-9.330177,-2.912545,0.981211,0.3033,0.26455,0.16018
1700499738554687,-9.334177,-2.912545,0.909211,0.4733,0.23355,0.6418
1700499738562500,-9.352177,-2.932545,0.898211,0.1933,0.33955,0.16118
1700499738570312,-9.376177,-2.960545,0.898211,0.6167,0.40255,0.17718
1700499738578125,-9.375177,-3.29545,0.900211,0.17667,0.45055,0.19318
1700499738585937,-9.339177,-3.27545,0.986211,0.18867,0.52555,0.25818
1700499738593750,-9.327177,-2.968545,0.990211,0.22267,0.43155,0.30618
1700499738601562,-9.290177,-2.895545,0.990211,0.22267,0.43155,0.29018
1700499738609375,-9.279177,-2.847545,0.986211,0.20467,0.43255,0.19418
1700499738617187,-9.286177,-2.851545,0.997211,0.23867,0.48255,0.1482
1700499738625000,-9.317177,-2.870545,1.10211,0.24367,0.56455,0.4882
1700499738632812,-9.346177,-2.903545,1.49211,0.28567,0.57655,0.4682
1700499738640625,-9.358177,-2.960545,1.44211,0.22467,0.49955,0.1618
1700499738648437,-9.364177,-3.31545,1.24211,0.25367,0.55855,0.11318
1700499738656250,-9.397177,-3.43545,1.33211,0.31367,0.59455,0.28618
1700499738664062,-9.425177,-2.984545,1.35211,0.22767,0.46655,0.28818
1700499738671875,-9.446177,-2.908545,1.8211,0.27867,0.28155,0.23918
1700499738679687,-9.469177,-2.846545,0.977211,0.23167,0.32655,0.35118
1700499738687500,-9.484177,-2.788545,0.997211,0.22367,0.26055,0.30618
1700499738695312,-9.493177,-2.794545,0.995211,0.24467,0.34155,0.30418
1700499738703125,-9.481177,-2.857545,0.970211,0.32567,0.40355,0.36818
1700499738710937,-9.432177,-2.953545,0.972211,0.27567,0.41755,0.36918
1700499738718750,-9.369177,-2.998545,1.4211,0.22967,0.51455,0.32018
1700499738726562,-9.347177,-2.965545,0.984211,0.17467,0.47955,0.20918
1700499738734375,-9.313177,-2.979545,0.999211,0.11067,0.62155,0.22518
1700499738742187,-9.300177,-2.966545,1.33211,0.11267,0.56055,0.14418
1700499738750000,-9.304177,-2.945545,1.62211,0.833,0.58255,0.4518
1700499738757812,-9.306177,-2.981545,1.47211,0.6367,0.51355,0.12818
1700499738765625,-9.299177,-3.21545,1.44211,0.1767,0.48455,0.9518
1700499738773437,-9.269177,-3.46545,1.33211,0.3467,0.49955,0.15918
1700499738781250,-9.267177,-3.48545,1.22211,0.4733,0.48355,0.9518
1700499738789062,-9.263177,-3.50545,1.22211,0.14467,0.49655,0.22518
1700499738796875,-9.271177,-3.54545,1.19211,0.5067,0.54555,0.20818
1700499738804687,-9.281177,-3.24545,1.13211,0.4933,0.49655,0.24118
1700499738812500,-9.319177,-2.996545,0.979211,0.5833,0.53255,0.19018
1700499738820312,-9.309177,-2.970545,0.992211,0.3133,0.54355,0.30418
1700499738828125,-9.305177,-2.930545,0.990211,0.4333,0.56155,0.28718
1700499738835937,-9.309177,-2.903545,0.979211,0.2733,0.49955,0.28718
1700499738843750,-9.316177,-2.887545,0.983211,0.3833,0.45755,0.20518
1700499738851562,-9.359177,-2.860545,0.985211,0.1633,0.49155,0.23518
1700499738859375,-9.364177,-2.850545,1.2211,0.4933,0.43455,0.19318
1700499738867187,-9.391177,-2.862545,0.999211,0.6433,0.49755,0.19218
1700499738875000,-9.406177,-2.884545,0.970211,0.2833,0.48455,0.17518
1700499738882812,-9.413177,-2.884545,0.970211,0.4733,0.41955,0.20818
1700499738890625,-9.408177,-2.880545,0.974211,0.267,0.48355,0.22418
1700499738898437,-9.395177,-2.911545,0.986211,0.4567,0.47955,0.22518
1700499738906250,-9.367177,-2.902545,1.10211,0.10767,0.53455,0.28518
1700499738914062,-9.353177,-2.876545,1.17211,0.11567,0.52955,0.25618
1700499738921875,-9.317177,-2.823545,1.28211,0.19867,0.59355,0.27118
1700499738929687,-9.308177,-2.731545,1.24211,0.20767,0.66755,0.24118
1700499738937500,-9.309177,-2.678545,1.8211,0.18367,0.64755,0.19518
1700499738945312,-9.313177,-2.676545,0.972211,0.30167,0.68255,0.14618
1700499738953125,-9.340177,-2.706545,0.970211,0.42667,0.76055,0.2982
1700499738960937,-9.343177,-2.786545,0.995211,0.54167,0.76255,0.1482
1700499738968750,-9.342177,-2.865545,0.979211,0.59267,0.73255,0.1718
1700499738976562,-9.386177,-2.880545,0.977211,0.67567,0.82655,0.11218
1700499738984375,-9.451177,-2.924545,0.975211,0.73767,0.79255,0.21018
1700499738992187,-9.467177,-3.7545,0.977211,0.72667,0.74755,0.30418
1700499739000000,-9.503177,-3.25545,0.993211,0.75967,0.85555,0.43318
1700499739007812,-9.492177,-2.976545,1.38211,0.74067,0.80555,0.46618
1700499739015625,-9.471177,-2.907545,1.20211,0.73367,0.74855,0.52718
1700499739023437,-9.465177,-2.859545,1.24211,0.74467,0.85455,0.49718
1700499739031250,-9.458177,-2.844545,1.20211,0.72667,0.79155,0.48118
1700499739039062,-9.451177,-2.875545,0.986211,0.72367,0.79055,0.40218
1700499739046875,-9.415177,-2.896545,0.988211,0.73567,0.85055,0.38718
1700499739054687,-9.401177,-2.924545,0.997211,0.72167,0.88555,0.29018
1700499739062500,-9.398177,-2.948545,0.988211,0.72667,0.87355,0.24018
1700499739070312,-9.425177,-2.986545,0.965211,0.73967,0.74655,0.19318
1700499739078125,-9.440177,-3.26545,0.952211,0.78767,0.77855,0.17718
1700499739085937,-9.415177,-3.46545,0.959211,0.73667,0.83955,0.19418
1700499739093750,-9.370177,-3.64545,0.977211,0.72767,0.76455,0.19218
1700499739101562,-9.315177,-3.43545,1.13211,0.73567,0.85255,0.25818
1700499739109375,-9.243177,-2.998545,1.22211,0.72267,0.84055,0.17718
1700499739117187,-9.226177,-2.949545,1.40211,0.73667,0.82355,0.13018
1700499739125000,-9.224177,-2.933545,1.33211,0.67867,0.79855,0.0
1700499739132812,-9.259177,-2.997545,1.1211,0.67367,0.84255,0.3182
1700499739140625,-9.299177,-3.57545,1.8211,0.57067,0.79255,0.7782
1700499739148437,-9.339177,-3.83545,1.11211,0.43767,0.77455,0.6082
1700499739156250,-9.338177,-3.111545,0.999211,0.47467,0.76155,0.2982
1700499739164062,-9.330177,-3.85545,1.18211,0.42367,0.77355,0.6718
1700499739171875,-9.326177,-3.34545,1.33211,0.34867,0.71255,0.17818
1700499739179687,-9.340177,-2.992545,1.33211,0.21867,0.69655,0.16218
1700499739187500,-9.361177,-2.954545,1.22211,0.20167,0.67955,0.24318
1700499739195312,-9.365177,-2.923545,1.17211,0.22367,0.71455,0.25718
1700499739203125,-9.344177,-2.892545,1.31211,0.15667,0.72855,0.24218
1700499739210937,-9.306177,-2.877545,1.40211,0.7567,0.75955,0.22618
1700499739218750,-9.286177,-2.866545,1.17211,0.21167,0.67055,0.20818
1700499739226562,-9.274177,-2.859545,0.983211,0.19767,0.62455,0.23918
1700499739234375,-9.293177,-2.844545,0.974211,0.19567,0.63955,0.20818
1700499739242187,-9.313177,-2.839545,0.961211,0.21467,0.67255,0.20618
1700499739250000,-9.332177,-2.867545,0.936211,0.23167,0.70355,0.27018
1700499739257812,-9.348177,-2.914545,0.959211,0.23867,0.58855,0.25818
1700499739265625,-9.360177,-2.971545,0.952211,0.24067,0.58955,0.27318
1700499739273437,-9.369177,-2.987545,0.966211,0.21767,0.53755,0.29118
1700499739281250,-9.349177,-3.28545,0.970211,0.19767,0.63055,0.16418
1700499739289062,-9.307177,-3.63545,0.968211,0.20667,0.55755,0.22518
1700499739296875,-9.303177,-3.68545,1.2211,0.22067,0.55655,0.22618
1700499739304687,-9.265177,-3.61545,0.992211,0.17567,0.60555,0.24118
1700499739312500,-9.241177,-3.62545,0.999211,0.15267,0.50655,0.25918
1700499739320312,-9.241177,-3.49545,0.975211,0.2733,0.50355,0.30918
1700499739328125,-9.281177,-3.33545,0.936211,0.6733,0.44855,0.24118
1700499739335937,-9.288177,-3.22545,0.900211,0.7233,0.38255,0.22718
1700499739343750,-9.320177,-2.988545,0.916211,0.16533,0.33755,0.25818
1700499739351562,-9.367177,-2.958545,0.882211,0.11233,0.20055,0.22418
1700499739359375,-9.395177,-2.929545,0.835211,0.8433,0.21355,0.17818
1700499739367187,-9.417177,-2.926545,0.859211,0.3133,0.18455,0.20818
1700499739375000,-9.417177,-2.927545,0.882211,0.5133,0.22855,0.24218
1700499739382812,-9.425177,-2.973545,0.882211,0.5333,0.22755,0.22618
1700499739390625,-9.431177,-3.15545,0.900211,0.1933,0.24455,0.25818
1700499739398437,-9.411177,-3.41545,0.929211,0.2933,0.27855,0.30418
1700499739406250,-9.395177,-3.53545,0.952211,0.5033,0.25955,0.35418
1700499739414062,-9.413177,-3.64545,0.932211,0.3133,0.30855,0.30518
1700499739421875,-9.444177,-3.14545,0.925211,0.4333,0.20255,0.28718
1700499739429687,-9.444177,-2.944545,0.927211,0.6433,0.16755,0.28918
1700499739437500,-9.418177,-2.873545,0.963211,0.3233,0.27855,0.20918
1700499739445312,-9.379177,-2.794545,0.997211,0.3433,0.26155,0.16118
1700499739453125,-9.375177,-2.762545,0.995211,0.2733,0.24255,0.5218
1700499739460937,-9.390177,-2.816545,0.981211,0.3933,0.32455,0.7782
1700499739468750,-9.382177,-2.889545,0.992211,0.4667,0.43755,0.6382
1700499739476562,-9.347177,-2.960545,1.13211,0.9467,0.53055,0.1582
1700499739484375,-9.302177,-3.12545,1.47211,0.21867,0.52655,0.6618
1700499739492187,-9.273177,-2.997545,1.44211,0.17567,0.51255,0.12918
1700499739500000,-9.277177,-2.986545,1.49211,0.17867,0.48255,0.24018
1700499739507812,-9.287177,-2.944545,1.35211,0.14767,0.49855,0.22318
1700499739515625,-9.321177,-2.895545,1.11211,0.7667,0.46255,0.25818
1700499739523437,-9.331177,-2.826545,1.38211,0.9667,0.46455,0.30518
1700499739531250,-9.336177,-2.784545,1.56211,0.9667,0.52755,0.30518
1700499739539062,-9.332177,-2.789545,1.58211,0.18567,0.58655,0.19518
1700499739546875,-9.338177,-2.833545,1.42211,0.21967,0.60355,0.17818
1700499739554687,-9.337177,-2.897545,1.47211,0.26667,0.61755,0.19518
1700499739562500,-9.356177,-2.949545,1.35211,0.23867,0.55755,0.22518
1700499739570312,-9.387177,-3.2545,1.13211,0.25167,0.64855,0.29118
1700499739578125,-9.374177,-3.10545,1.11211,0.24567,0.61355,0.32518
1700499739585937,-9.387177,-3.545,0.947211,0.37067,0.54055,0.45018
1700499739593750,-9.398177,-2.969545,0.923211,0.32467,0.60355,0.49718
1700499739601562,-9.414177,-2.926545,0.968211,0.29567,0.63755,0.48018
1700499739609375,-9.410177,-2.915545,0.972211,0.26067,0.68355,0.43218
1700499739617187,-9.412177,-2.931545,0.965211,0.24467,0.65255,0.44818
1700499739625000,-9.396177,-2.958545,0.981211,0.17667,0.68255,0.36918
1700499739632812,-9.371177,-2.973545,1.6211,0.22667,0.71555,0.33618
1700499739640625,-9.353177,-2.985545,1.15211,0.21167,0.67055,0.25618
1700499739648437,-9.362177,-2.998545,1.29211,0.22667,0.74855,0.17618
1700499739656250,-9.349177,-2.991545,1.47211,0.21067,0.70155,0.19218
1700499739664062,-9.336177,-2.961545,1.42211,0.25867,0.73355,0.16018
1700499739671875,-9.332177,-2.903545,1.33211,0.24267,0.73355,0.17618
1700499739679687,-9.317177,-2.846545,1.47211,0.14267,0.76155,0.20918
1700499739687500,-9.311177,-2.786545,1.51211,0.22367,0.82555,0.11218
1700499739695312,-9.303177,-2.740545,1.26211,0.23667,0.84055,0.1718
1700499739703125,-9.330177,-2.737545,1.13211,0.31667,0.88755,0.118
1700499739710937,-9.357177,-2.717545,1.33211,0.44267,0.93355,0.7782
1700499739718750,-9.351177,-2.699545,1.44211,0.46667,0.100055,0.6482
1700499739726562,-9.344177,-2.677545,1.44211,0.59067,0.99955,0.12782
1700499739734375,-9.344177,-2.706545,1.17211,0.70367,0.96855,0.14382
1700499739742187,-9.341177,-2.733545,1.29211,0.74967,0.98255,0.17482
1700499739750000,-9.357177,-2.750545,1.35211,0.73967,0.106455,0.14482
1700499739757812,-9.366177,-2.737545,1.47211,0.87567,0.102655,0.10982
1700499739765625,-9.399177,-2.749545,0.992211,0.101467,0.100255,0.8082
1700499739773437,-9.399177,-2.747545,0.988211,0.103067,0.111055,0.3282
1700499739781250,-9.410177,-2.776545,0.974211,0.115667,0.106155,0.3182
1700499739789062,-9.427177,-2.835545,0.967211,0.114967,0.108155,0.14218
1700499739796875,-9.433177,-2.848545,0.977211,0.116267,0.112455,0.19118
1700499739804687,-9.485177,-2.825545,0.972211,0.114567,0.99855,0.20818
1700499739812500,-9.553177,-2.809545,0.918211,0.117967,0.93855,0.19118
1700499739820312,-9.621177,-2.839545,0.882211,0.116867,0.89355,0.20618
1700499739828125,-9.623177,-2.894545,0.891211,0.117567,0.90255,0.25718
1700499739835937,-9.587177,-2.910545,0.902211,0.119367,0.90355,0.30418
1700499739843750,-9.550177,-2.928545,0.886211,0.115767,0.89555,0.34918
1700499739851562,-9.490177,-2.965545,0.889211,0.118067,0.90455,0.35218
1700499739859375,-9.445177,-3.10545,0.932211,0.99967,0.91955,0.27218
1700499739867187,-9.417177,-3.50545,0.963211,0.99367,0.91555,0.25818
1700499739875000,-9.414177,-3.103545,1.2211,0.83667,0.99755,0.22518
1700499739882812,-9.393177,-3.159545,1.17211,0.70267,0.96255,0.21018
1700499739890625,-9.323177,-3.202545,1.38211,0.67167,0.90155,0.14618
1700499739898437,-9.296177,-3.198545,1.69211,0.46467,0.93555,0.9618
1700499739906250,-9.261177,-3.190545,1.78211,0.24667,0.91455,0.5118
1700499739914062,-9.254177,-3.197545,1.56211,0.17167,0.87155,0.4918
1700499739921875,-9.307177,-3.233545,1.44211,0.233,0.88655,0.19318
1700499739929687,-9.330177,-3.288545,1.60211,0.25433,0.78155,0.17518
1700499739937500,-9.326177,-3.310545,1.42211,0.32333,0.76155,0.28918
1700499739945312,-9.304177,-3.279545,1.28211,0.52633,0.68655,0.30318
1700499739953125,-9.290177,-3.190545,0.997211,0.58533,0.52355,0.33818
1700499739960937,-9.305177,-3.79545,0.950211,0.60133,0.29055,0.22618
1700499739968750,-9.293177,-2.957545,0.932211,0.71433,0.33655,0.24218
1700499739976562,-9.310177,-2.897545,0.875211,0.77433,0.35655,0.16018
1700499739984375,-9.323177,-2.881545,0.866211,0.74433,0.32655,0.3182
1700499739992187,-9.343177,-2.907545,0.868211,0.61633,0.27955,0.3182
1700499740000000,-9.340177,-2.943545,0.866211,0.56233,0.40755,0.82
1700499740007812,-9.338177,-2.972545,0.891211,0.53933,0.36755,0.19518
1700499740015625,-9.326177,-2.987545,0.904211,0.51433,0.45155,0.17618
1700499740023437,-9.275177,-2.948545,0.954211,0.54833,0.51255,0.20818
1700499740031250,-9.225177,-2.909545,1.33211,0.50033,0.51255,0.19218
1700499740039062,-9.189177,-2.867545,1.40211,0.49633,0.51555,0.15918
1700499740046875,-9.163177,-2.850545,1.37211,0.38833,0.51355,0.9618
1700499740054687,-9.167177,-2.853545,1.58211,0.42333,0.52855,0.1718
1700499740062500,-9.175177,-2.795545,1.42211,0.48233,0.53155,0.0
1700499740070312,-9.184177,-2.764545,1.22211,0.44133,0.49755,0.11082
1700499740078125,-9.184177,-2.741545,1.56211,0.34133,0.51655,0.17682
1700499740085937,-9.196177,-2.728545,1.74211,0.32733,0.59355,0.15982
1700499740093750,-9.242177,-2.761545,1.65211,0.27933,0.67055,0.15982
1700499740101562,-9.316177,-2.817545,1.40211,0.20433,0.65155,0.14182
1700499740109375,-9.391177,-2.865545,1.45211,0.7533,0.69855,0.14182
1700499740117187,-9.427177,-2.862545,1.60211,0.133,0.64055,0.4882
1700499740125000,-9.425177,-2.818545,1.38211,0.7767,0.65555,0.3182
1700499740132812,-9.438177,-2.745545,1.65211,0.20167,0.72855,0.6618
1700499740140625,-9.470177,-2.680545,1.74211,0.26867,0.60555,0.3318
1700499740148437,-9.506177,-2.671545,1.49211,0.42667,0.71455,0.218
1700499740156250,-9.551177,-2.672545,1.63211,0.54467,0.62055,0.16118
1700499740164062,-9.589177,-2.694545,1.27211,0.73467,0.64955,0.21118
1700499740171875,-9.621177,-2.760545,0.995211,0.94567,0.72955,0.17818
1700499740179687,-9.598177,-2.840545,1.6211,0.99167,0.78855,0.29218
1700499740187500,-9.555177,-2.863545,1.11211,0.116767,0.77155,0.32418
1700499740195312,-9.517177,-2.852545,1.13211,0.124967,0.81955,0.34018
1700499740203125,-9.493177,-2.788545,1.15211,0.125767,0.90255,0.35318
1700499740210937,-9.463177,-2.720545,1.33211,0.133267,0.90055,0.22618
1700499740218750,-9.416177,-2.714545,1.67211,0.144967,0.88855,0.19318
1700499740226562,-9.401177,-2.776545,1.47211,0.151567,0.98455,0.11218
1700499740234375,-9.388177,-2.889545,1.44211,0.147967,0.103155,0.4782
1700499740242187,-9.367177,-2.996545,1.87211,0.149367,0.112355,0.3082
1700499740250000,-9.343177,-3.71545,1.121211,0.155767,0.110855,0.6282
1700499740257812,-9.334177,-3.125545,1.130211,0.149167,0.102655,0.9818
1700499740265625,-9.304177,-3.147545,1.119211,0.150967,0.97855,0.22618
1700499740273437,-9.300177,-3.141545,1.151211,0.149767,0.110555,0.28918
1700499740281250,-9.278177,-3.119545,1.180211,0.131967,0.99455,0.35418
1700499740289062,-9.285177,-3.101545,1.173211,0.110767,0.97755,0.32218
1700499740296875,-9.329177,-3.114545,1.142211,0.94467,0.96055,0.35518
1700499740304687,-9.356177,-3.147545,1.112211,0.81567,0.86655,0.38718
1700499740312500,-9.358177,-3.194545,1.113211,0.71367,0.90855,0.43718
1700499740320312,-9.314177,-3.231545,1.112211,0.48067,0.81955,0.48318
1700499740328125,-9.329177,-3.268545,1.78211,0.19667,0.72955,0.54518
1700499740335937,-9.340177,-3.290545,1.65211,0.4733,0.63455,0.52918
1700499740343750,-9.361177,-3.280545,1.49211,0.29633,0.51955,0.51618
1700499740351562,-9.361177,-3.191545,1.63211,0.53033,0.50855,0.54518
1700499740359375,-9.323177,-3.76545,1.42211,0.58433,0.27255,0.40318
1700499740367187,-9.314177,-2.897545,1.40211,0.55933,0.23255,0.31918
1700499740375000,-9.297177,-2.733545,1.47211,0.58433,0.23055,0.11318
1700499740382812,-9.294177,-2.647545,1.60211,0.55733,0.26255,0.17382
1700499740390625,-9.267177,-2.639545,1.114211,0.52433,0.45055,0.15882
1700499740398437,-9.199177,-2.731545,1.135211,0.35233,0.47755,0.17282
1700499740406250,-9.128177,-2.820545,1.155211,0.31533,0.55955,0.19082
1700499740414062,-9.85177,-2.848545,1.175211,0.15933,0.61855,0.18882
1700499740421875,-9.116177,-2.891545,1.133211,0.6033,0.65055,0.12482
1700499740429687,-9.150177,-2.950545,1.155211,0.5433,0.70055,0.6282
1700499740437500,-9.161177,-2.996545,1.180211,0.3533,0.74755,0.1618
1700499740445312,-9.190177,-2.976545,1.173211,0.5133,0.69955,0.16118
1700499740453125,-9.285177,-2.888545,1.144211,0.5033,0.62055,0.25718
1700499740460937,-9.383177,-2.843545,1.117211,0.3533,0.60355,0.29018
1700499740468750,-9.461177,-2.837545,1.106211,0.5333,0.49355,0.21018
1700499740476562,-9.517177,-2.870545,1.142211,0.3633,0.46255,0.24218
1700499740484375,-9.563177,-2.945545,1.144211,0.7433,0.56755,0.30818
1700499740492187,-9.577177,-3.37545,1.142211,0.14833,0.57055,0.40218
1700499740500000,-9.587177,-3.70545,1.164211,0.30933,0.47655,0.45018
1700499740507812,-9.565177,-3.50545,1.171211,0.27633,0.52255,0.48218
1700499740515625,-9.531177,-3.12545,1.153211,0.39933,0.48555,0.47018
1700499740523437,-9.495177,-2.941545,1.171211,0.45533,0.44355,0.49918
1700499740531250,-9.480177,-2.899545,1.178211,0.53333,0.43055,0.40218
1700499740539062,-9.483177,-2.879545,1.160211,0.67933,0.41555,0.33818
1700499740546875,-9.448177,-2.921545,1.155211,0.66233,0.46355,0.27318
1700499740554687,-9.407177,-3.4545,1.158211,0.58633,0.47755,0.21018
1700499740562500,-9.375177,-3.71545,1.155211,0.68433,0.47755,0.13018
1700499740570312,-9.318177,-3.120545,1.184211,0.59933,0.66855,0.8018
1700499740578125,-9.227177,-3.111545,1.228211,0.80433,0.64555,0.13218
1700499740585937,-9.120177,-3.33545,1.227211,0.78333,0.61655,0.14718
1700499740593750,-9.96177,-2.852545,1.225211,0.77033,0.55555,0.12482
1700499740601562,-9.150177,-2.709545,1.200211,0.59333,0.50955,0.17282
1700499740609375,-9.190177,-2.729545,1.164211,0.54633,0.52455,0.15682
1700499740617187,-9.219177,-2.850545,1.194211,0.36633,0.65155,0.17382
1700499740625000,-9.237177,-3.11545,1.223211,0.29633,0.79555,0.12782
1700499740632812,-9.262177,-3.106545,1.196211,0.31533,0.71255,0.1818
1700499740640625,-9.311177,-3.112545,1.189211,0.29733,0.80455,0.27518
1700499740648437,-9.360177,-3.58545,1.198211,0.25133,0.75255,0.46918
1700499740656250,-9.365177,-2.945545,1.232211,0.25833,0.71255,0.43318
1700499740664062,-9.369177,-2.861545,1.225211,0.25933,0.67955,0.53018
1700499740671875,-9.372177,-2.797545,1.203211,0.23533,0.64355,0.45218
1700499740679687,-9.377177,-2.795545,1.207211,0.20133,0.51955,0.48418
1700499740687500,-9.387177,-2.852545,1.194211,0.27533,0.55555,0.45018
1700499740695312,-9.406177,-2.918545,1.196211,0.27433,0.57255,0.40118
1700499740703125,-9.386177,-2.932545,1.167211,0.26433,0.44255,0.40318
1700499740710937,-9.401177,-2.951545,1.162211,0.31333,0.41155,0.37118
1700499740718750,-9.433177,-2.966545,1.164211,0.29633,0.33355,0.40318
1700499740726562,-9.423177,-2.986545,1.176211,0.31333,0.42755,0.35518
1700499740734375,-9.380177,-2.989545,1.169211,0.29233,0.30555,0.41818
1700499740742187,-9.349177,-2.970545,1.142211,0.32233,0.22855,0.36918
1700499740750000,-9.280177,-2.949545,1.117211,0.43933,0.24155,0.33918
1700499740757812,-9.193177,-2.921545,1.119211,0.45333,0.22955,0.25718
1700499740765625,-9.127177,-2.868545,1.139211,0.49733,0.23355,0.15918
1700499740773437,-9.129177,-2.847545,1.108211,0.47133,0.24655,0.4918
1700499740781250,-9.193177,-2.912545,1.60211,0.48933,0.23155,0.11082
1700499740789062,-9.225177,-3.7545,1.58211,0.37533,0.28055,0.11182
1700499740796875,-9.261177,-3.44545,1.44211,0.32633,0.21755,0.9582
1700499740804687,-9.263177,-3.39545,1.51211,0.28933,0.23555,0.6482
1700499740812500,-9.268177,-2.997545,1.87211,0.30933,0.24655,0.11318
1700499740820312,-9.267177,-2.951545,1.130211,0.26233,0.16755,0.13018
1700499740828125,-9.308177,-2.919545,1.119211,0.14833,0.15155,0.17818
1700499740835937,-9.330177,-2.912545,1.166211,0.16033,0.18455,0.20818
1700499740843750,-9.364177,-2.881545,1.171211,0.3633,0.16555,0.25818
1700499740851562,-9.340177,-2.886545,1.167211,0.5433,0.22555,0.30718
1700499740859375,-9.324177,-2.881545,1.157211,0.1633,0.18355,0.30518
1700499740867187,-9.342177,-2.877545,1.142211,0.3367,0.24755,0.25718
1700499740875000,-9.357177,-2.890545,1.105211,0.3333,0.22955,0.27318
1700499740882812,-9.366177,-2.903545,1.96211,0.2067,0.15655,0.22318
1700499740890625,-9.372177,-2.918545,1.92211,0.167,0.27955,0.20818
1700499740898437,-9.354177,-2.947545,1.72211,0.267,0.27955,0.25618
1700499740906250,-9.335177,-2.969545,1.71211,0.367,0.26555,0.20718
1700499740914062,-9.322177,-2.961545,1.58211,0.1133,0.15655,0.17518
1700499740921875,-9.301177,-2.926545,1.44211,0.133,0.13755,0.19318
1700499740929687,-9.292177,-2.895545,1.28211,0.4067,0.19055,0.19018
1700499740937500,-9.299177,-2.855545,1.31211,0.10067,0.18855,0.14318
1700499740945312,-9.315177,-2.846545,1.35211,0.1233,0.11055,0.9518
1700499740953125,-9.315177,-2.846545,1.38211,0.6567,0.15355,0.22418
1700499740960937,-9.304177,-2.850545,1.67211,0.14667,0.18755,0.9618
1700499740968750,-9.306177,-2.873545,1.51211,0.10967,0.12355,0.0
1700499740976562,-9.328177,-2.908545,1.31211,0.16067,0.17255,0.8082
1700499740984375,-9.328177,-2.921545,1.31211,0.21967,0.10755,0.7882
1700499740992187,-9.377177,-2.918545,1.11211,0.28667,0.6155,0.6282
1700499741000000,-9.429177,-2.904545,1.4211,0.37767,0.13555,0.6082
1700499741007812,-9.469177,-2.910545,1.33211,0.47767,0.18555,0.7882
1700499741015625,-9.471177,-2.908545,1.45211,0.46567,0.26355,0.9718
1700499741023437,-9.449177,-2.886545,1.74211,0.45967,0.29055,0.16318
1700499741031250,-9.485177,-2.868545,1.76211,0.53467,0.24955,0.16018
1700499741039062,-9.472177,-2.850545,1.90211,0.51967,0.42155,0.20718
1700499741046875,-9.408177,-2.897545,1.108211,0.62067,0.45555,0.20618
1700499741054687,-9.350177,-2.930545,1.128211,0.57567,0.47955,0.14618
1700499741062500,-9.309177,-2.961545,1.117211,0.49967,0.46655,0.19318
1700499741070312,-9.291177,-2.997545,1.51211,0.51267,0.43255,0.24218
1700499741078125,-9.322177,-3.14545,1.17211,0.46467,0.37255,0.9718
1700499741085937,-9.357177,-3.31545,0.999211,0.47967,0.29255,0.11418
1700499741093750,-9.391177,-3.15545,0.968211,0.44967,0.29355,0.19318
1700499741101562,-9.394177,-2.958545,0.932211,0.48367,0.24655,0.25718
1700499741109375,-9.397177,-2.894545,0.898211,0.64267,0.18355,0.16118
1700499741117187,-9.387177,-2.863545,0.907211,0.69267,0.26355,0.17718
1700499741125000,-9.384177,-2.874545,0.909211,0.61367,0.23255,0.19218
1700499741132812,-9.382177,-2.871545,0.934211,0.59667,0.31055,0.17618
1700499741140625,-9.406177,-2.889545,0.941211,0.60967,0.26155,0.19418
1700499741148437,-9.424177,-2.920545,0.934211,0.70767,0.41855,0.22518
1700499741156250,-9.410177,-2.944545,0.927211,0.61067,0.38755,0.16118
1700499741164062,-9.396177,-2.962545,0.934211,0.65767,0.41655,0.24218
1700499741171875,-9.379177,-2.952545,0.957211,0.71467,0.52355,0.10018
1700499741179687,-9.361177,-2.947545,0.988211,0.68967,0.45255,0.6382
1700499741187500,-9.381177,-2.960545,0.990211,0.65267,0.47955,0.2982
1700499741195312,-9.383177,-2.989545,1.24211,0.65367,0.49655,0.2982
1700499741203125,-9.387177,-3.7545,1.6211,0.68967,0.48155,0.8118
1700499741210937,-9.376177,-3.545,1.2211,0.68767,0.43155,0.24218
1700499741218750,-9.376177,-2.965545,0.997211,0.57267,0.46155,0.21118
1700499741226562,-9.360177,-2.897545,0.995211,0.63867,0.25855,0.21118
1700499741234375,-9.380177,-2.834545,0.970211,0.59367,0.37055,0.22618
1700499741242187,-9.394177,-2.805545,0.959211,0.61267,0.41955,0.22518
1700499741250000,-9.394177,-2.830545,0.943211,0.62567,0.38555,0.22618
1700499741257812,-9.383177,-2.848545,0.954211,0.63967,0.47755,0.24318
1700499741265625,-9.369177,-2.883545,0.966211,0.62367,0.43155,0.24218
1700499741273437,-9.361177,-2.912545,0.972211,0.54467,0.52555,0.30618
1700499741281250,-9.386177,-2.920545,0.945211,0.59767,0.51255,0.32118
1700499741289062,-9.381177,-2.938545,0.936211,0.58367,0.56155,0.25518
1700499741296875,-9.354177,-2.952545,0.934211,0.59367,0.46355,0.27418
1700499741304687,-9.341177,-2.954545,0.925211,0.62467,0.49455,0.24218
1700499741312500,-9.341177,-2.959545,0.900211,0.57167,0.44455,0.26018
1700499741320312,-9.340177,-2.965545,0.884211,0.57567,0.41555,0.30718
1700499741328125,-9.329177,-2.959545,0.884211,0.47567,0.49255,0.22718
1700499741335937,-9.350177,-2.952545,0.887211,0.47567,0.47655,0.21118
1700499741343750,-9.338177,-2.954545,0.911211,0.47267,0.50155,0.19118
1700499741351562,-9.338177,-2.990545,0.911211,0.51367,0.48055,0.22518
1700499741359375,-9.344177,-3.3545,0.918211,0.51367,0.51155,0.24118
1700499741367187,-9.353177,-2.994545,0.907211,0.52667,0.55555,0.30718
1700499741375000,-9.345177,-2.968545,0.943211,0.55367,0.44255,0.27618
1700499741382812,-9.357177,-2.915545,0.979211,0.57267,0.44355,0.35618
1700499741390625,-9.393177,-2.894545,0.975211,0.54267,0.46255,0.24318
1700499741398437,-9.398177,-2.898545,1.9211,0.57067,0.53755,0.22818
1700499741406250,-9.399177,-2.956545,1.9211,0.69567,0.48855,0.21318
1700499741414062,-9.392177,-2.996545,0.997211,0.62167,0.56955,0.29118
1700499741421875,-9.401177,-2.963545,0.984211,0.50067,0.50255,0.29418
1700499741429687,-9.398177,-2.894545,0.979211,0.49267,0.46055,0.27518
1700499741437500,-9.423177,-2.829545,0.923211,0.52367,0.52155,0.35618
1700499741445312,-9.446177,-2.796545,0.887211,0.51067,0.60155,0.33918
1700499741453125,-9.439177,-2.805545,0.936211,0.57467,0.67955,0.30718
1700499741460937,-9.444177,-2.802545,0.963211,0.62467,0.69655,0.30618
1700499741468750,-9.417177,-2.800545,0.986211,0.68767,0.75955,0.22618
1700499741476562,-9.387177,-2.834545,0.970211,0.68967,0.79155,0.22618
1700499741484375,-9.344177,-2.855545,1.6211,0.73367,0.72755,0.19518
1700499741492187,-9.299177,-2.902545,1.29211,0.72167,0.76355,0.4918
1700499741500000,-9.312177,-2.930545,1.4211,0.73667,0.67055,0.6282
1700499741507812,-9.333177,-2.992545,0.977211,0.73567,0.70055,0.1718
1700499741515625,-9.335177,-3.25545,0.961211,0.72267,0.71655,0.12918
1700499741523437,-9.323177,-2.997545,1.4211,0.72667,0.75355,0.19718
1700499741531250,-9.330177,-2.946545,1.9211,0.69467,0.70655,0.27718
1700499741539062,-9.341177,-2.924545,0.981211,0.68267,0.62955,0.34118
1700499741546875,-9.368177,-2.916545,0.970211,0.62767,0.55755,0.32118
1700499741554687,-9.393177,-2.891545,0.970211,0.51167,0.46355,0.21018
1700499741562500,-9.414177,-2.847545,0.938211,0.54267,0.44655,0.24318
1700499741570312,-9.409177,-2.834545,0.911211,0.43267,0.44955,0.19318
1700499741578125,-9.398177,-2.862545,0.907211,0.54767,0.49755,0.24118
1700499741585937,-9.402177,-2.887545,0.909211,0.46567,0.44955,0.19318
1700499741593750,-9.395177,-2.911545,0.925211,0.44567,0.49555,0.9818
1700499741601562,-9.387177,-2.956545,0.923211,0.43167,0.44955,0.9718
1700499741609375,-9.371177,-2.987545,0.923211,0.39967,0.41855,0.6518
1700499741617187,-9.353177,-3.34545,0.959211,0.43867,0.47655,0.2018
1700499741625000,-9.332177,-3.60545,0.983211,0.37267,0.51555,0.9518
1700499741632812,-9.330177,-3.34545,0.972211,0.35267,0.51355,0.9718
1700499741640625,-9.365177,-2.965545,0.954211,0.44767,0.55855,0.11318
1700499741648437,-9.355177,-2.883545,0.959211,0.34167,0.56155,0.20818
1700499741656250,-9.364177,-2.870545,0.954211,0.33267,0.51055,0.8218
1700499741664062,-9.346177,-2.901545,0.986211,0.45867,0.58755,0.8318
1700499741671875,-9.338177,-2.959545,0.952211,0.44767,0.52755,0.11318
1700499741679687,-9.342177,-3.7545,0.981211,0.33667,0.54455,0.12918
1700499741687500,-9.337177,-3.34545,0.959211,0.31867,0.55855,0.17718
1700499741695312,-9.334177,-3.43545,0.965211,0.29167,0.52855,0.27218
1700499741703125,-9.299177,-3.6545,0.990211,0.20767,0.52655,0.27318
1700499741710937,-9.264177,-2.939545,0.940211,0.19667,0.48355,0.27118
1700499741718750,-9.256177,-2.920545,0.943211,0.22567,0.49655,0.25718
1700499741726562,-9.256177,-2.907545,0.923211,0.13767,0.49155,0.29118
1700499741734375,-9.261177,-2.902545,0.895211,0.9367,0.44855,0.20918
1700499741742187,-9.289177,-2.930545,0.870211,0.0,0.24755,0.19218
1700499741750000,-9.324177,-2.956545,0.814211,0.6033,0.23455,0.17518
1700499741757812,-9.367177,-2.985545,0.789211,0.1267,0.24455,0.22618
1700499741765625,-9.385177,-2.991545,0.758211,0.3733,0.18155,0.22618
1700499741773437,-9.377177,-3.9545,0.726211,0.4733,0.21555,0.25618
1700499741781250,-9.376177,-2.989545,0.724211,0.4933,0.15055,0.35418
1700499741789062,-9.390177,-2.920545,0.728211,0.8233,0.11955,0.29018
1700499741796875,-9.429177,-2.849545,0.706211,0.6733,0.7155,0.32218
1700499741804687,-9.470177,-2.817545,0.699211,0.1733,0.445,0.24118
1700499741812500,-9.454177,-2.837545,0.719211,0.3067,0.5755,0.24218
1700499741820312,-9.433177,-2.884545,0.715211,0.3133,0.16955,0.25618
1700499741828125,-9.433177,-2.924545,0.765211,0.7567,0.18155,0.21018
1700499741835937,-9.390177,-2.927545,0.828211,0.23667,0.29055,0.25818
1700499741843750,-9.381177,-2.916545,0.853211,0.12567,0.27555,0.24218
1700499741851562,-9.390177,-2.907545,0.832211,0.8267,0.23355,0.17618
1700499741859375,-9.377177,-2.911545,0.873211,0.4867,0.24755,0.16018
1700499741867187,-9.366177,-2.914545,0.871211,0.11067,0.21555,0.11318
1700499741875000,-9.392177,-2.931545,0.855211,0.22467,0.16855,0.17718
1700499741882812,-9.372177,-2.940545,0.828211,0.22467,0.21555,0.19318
1700499741890625,-9.339177,-2.948545,0.830211,0.16967,0.24255,0.17918
1700499741898437,-9.298177,-2.949545,0.850211,0.13367,0.24055,0.18018
1700499741906250,-9.278177,-2.918545,0.850211,0.15867,0.19855,0.22618
1700499741914062,-9.294177,-2.924545,0.819211,0.5733,0.13255,0.17918
1700499741921875,-9.320177,-2.912545,0.787211,0.1133,0.17255,0.19118
1700499741929687,-9.355177,-2.886545,0.765211,0.533,0.11955,0.17818
1700499741937500,-9.373177,-2.868545,0.722211,0.13667,0.8555,0.19518
1700499741945312,-9.398177,-2.843545,0.717211,0.19367,0.1355,0.17718
1700499741953125,-9.393177,-2.849545,0.755211,0.14467,0.5955,0.17718
1700499741960937,-9.391177,-2.863545,0.758211,0.15867,0.15155,0.19418
1700499741968750,-9.384177,-2.894545,0.778211,0.22267,0.18355,0.17818
1700499741976562,-9.403177,-2.935545,0.737211,0.20967,0.5955,0.20918
1700499741984375,-9.412177,-2.966545,0.721211,0.22867,0.10855,0.19218
1700499741992187,-9.430177,-2.969545,0.731211,0.21967,0.17955,0.27518
1700499742000000,-9.446177,-2.937545,0.767211,0.20567,0.24355,0.33818
1700499742007812,-9.454177,-2.869545,0.753211,0.26767,0.28955,0.27518
1700499742015625,-9.489177,-2.850545,0.697211,0.26167,0.24855,0.33618
1700499742023437,-9.492177,-2.850545,0.708211,0.30267,0.27455,0.29018
1700499742031250,-9.467177,-2.859545,0.726211,0.40567,0.38855,0.25618
1700499742039062,-9.453177,-2.879545,0.755211,0.38967,0.38955,0.24018
1700499742046875,-9.423177,-2.924545,0.771211,0.48667,0.43755,0.17518
1700499742054687,-9.405177,-2.975545,0.798211,0.43767,0.54455,0.30418
1700499742062500,-9.373177,-2.998545,0.819211,0.31767,0.50755,0.35518
1700499742070312,-9.353177,-2.960545,0.846211,0.32467,0.49755,0.33618
1700499742078125,-9.361177,-2.909545,0.857211,0.24467,0.48155,0.33618
1700499742085937,-9.386177,-2.856545,0.882211,0.22767,0.48155,0.28818
1700499742093750,-9.403177,-2.792545,0.859211,0.31867,0.49355,0.27418
1700499742101562,-9.419177,-2.749545,0.852211,0.25667,0.48155,0.20918
1700499742109375,-9.415177,-2.736545,0.850211,0.28667,0.62055,0.19318
1700499742117187,-9.421177,-2.787545,0.846211,0.27967,0.68155,0.1918
1700499742125000,-9.462177,-2.917545,0.821211,0.40567,0.69655,0.9282
1700499742132812,-9.472177,-2.994545,0.837211,0.25367,0.74655,0.6518
1700499742140625,-9.477177,-2.988545,0.794211,0.41267,0.72855,0.17818
1700499742148437,-9.462177,-2.901545,0.816211,0.45067,0.74755,0.20818
1700499742156250,-9.441177,-2.784545,0.841211,0.40367,0.76455,0.14418
1700499742164062,-9.425177,-2.698545,0.834211,0.51267,0.70055,0.12918
1700499742171875,-9.413177,-2.694545,0.859211,0.59567,0.73455,0.1682
1700499742179687,-9.400177,-2.727545,0.848211,0.60667,0.73155,0.1482
1700499742187500,-9.404177,-2.775545,0.821211,0.57767,0.77055,0.2682
1700499742195312,-9.416177,-2.831545,0.803211,0.67067,0.79355,0.118
1700499742203125,-9.424177,-2.889545,0.789211,0.55967,0.77855,0.3318
1700499742210937,-9.468177,-2.938545,0.814211,0.58367,0.76555,0.20718
1700499742218750,-9.452177,-2.974545,0.855211,0.53067,0.76155,0.24118
1700499742226562,-9.463177,-2.999545,0.834211,0.58067,0.79355,0.27218
1700499742234375,-9.445177,-2.977545,0.846211,0.53467,0.74855,0.27218
1700499742242187,-9.424177,-2.931545,0.889211,0.50867,0.81955,0.29118
1700499742250000,-9.442177,-2.884545,0.891211,0.46867,0.76255,0.32018
1700499742257812,-9.465177,-2.835545,0.875211,0.48367,0.72955,0.36918
1700499742265625,-9.464177,-2.797545,0.853211,0.41767,0.74555,0.30518
1700499742273437,-9.455177,-2.782545,0.859211,0.37967,0.78855,0.29118
1700499742281250,-9.409177,-2.820545,0.852211,0.42267,0.76555,0.23918
1700499742289062,-9.413177,-2.891545,0.866211,0.26267,0.83455,0.19618
1700499742296875,-9.419177,-2.949545,0.909211,0.34467,0.88355,0.13118
1700499742304687,-9.425177,-3.37545,0.923211,0.21267,0.86655,0.8418
1700499742312500,-9.440177,-3.152545,0.905211,0.22167,0.82455,0.11318
1700499742320312,-9.421177,-3.240545,0.898211,0.15967,0.76255,0.17618
1700499742328125,-9.401177,-3.243545,0.893211,0.1633,0.76355,0.14418
1700499742335937,-9.355177,-3.186545,0.857211,0.3833,0.69655,0.22618
1700499742343750,-9.298177,-3.87545,0.859211,0.8433,0.69955,0.9718
1700499742351562,-9.273177,-2.975545,0.864211,0.15233,0.68355,0.1482
1700499742359375,-9.287177,-2.920545,0.866211,0.29833,0.63655,0.11082
1700499742367187,-9.323177,-2.950545,0.875211,0.30333,0.66655,0.17282
1700499742375000,-9.353177,-3.5545,0.855211,0.31733,0.71355,0.15782
1700499742382812,-9.348177,-3.36545,0.852211,0.37933,0.74755,0.17482
1700499742390625,-9.321177,-3.58545,0.843211,0.32833,0.74855,0.12782
1700499742398437,-9.286177,-3.39545,0.826211,0.33533,0.64855,0.2882
1700499742406250,-9.268177,-3.26545,0.841211,0.37633,0.62255,0.4682
1700499742414062,-9.248177,-2.991545,0.857211,0.44233,0.57355,0.1482
1700499742421875,-9.251177,-2.963545,0.839211,0.36933,0.55355,0.5982
1700499742429687,-9.272177,-2.933545,0.837211,0.48133,0.55455,0.7682
1700499742437500,-9.297177,-2.891545,0.837211,0.50733,0.52755,0.7882
1700499742445312,-9.341177,-2.888545,0.803211,0.53833,0.48255,0.12682
1700499742453125,-9.346177,-2.903545,0.780211,0.53933,0.46555,0.7882
1700499742460937,-9.337177,-2.914545,0.792211,0.50833,0.47955,0.1382
1700499742468750,-9.314177,-2.935545,0.780211,0.57033,0.43355,0.3318
1700499742476562,-9.321177,-2.897545,0.807211,0.50733,0.46355,0.3418
1700499742484375,-9.308177,-2.895545,0.848211,0.55233,0.46555,0.3318
1700499742492187,-9.301177,-2.897545,0.857211,0.42433,0.47955,0.9718
1700499742500000,-9.323177,-2.877545,0.888211,0.41833,0.46755,0.12818
1700499742507812,-9.380177,-2.847545,0.859211,0.40833,0.36855,0.17818
1700499742515625,-9.413177,-2.862545,0.850211,0.40333,0.38655,0.27318
1700499742523437,-9.405177,-2.851545,0.891211,0.30633,0.44855,0.30518
1700499742531250,-9.400177,-2.856545,0.877211,0.30633,0.30655,0.38518
1700499742539062,-9.389177,-2.865545,0.886211,0.30633,0.22955,0.33718
1700499742546875,-9.344177,-2.870545,0.880211,0.27133,0.32555,0.28818
1700499742554687,-9.321177,-2.877545,0.870211,0.23733,0.31155,0.27118
1700499742562500,-9.303177,-2.912545,0.870211,0.22533,0.45055,0.20818
1700499742570312,-9.273177,-2.933545,0.873211,0.28533,0.37555,0.19118
1700499742578125,-9.300177,-2.942545,0.871211,0.21633,0.37055,0.5018
1700499742585937,-9.314177,-2.948545,0.853211,0.26933,0.53855,0.8318
1700499742593750,-9.325177,-2.923545,0.852211,0.13033,0.43355,0.19318
1700499742601562,-9.361177,-2.910545,0.823211,0.3433,0.30855,0.16118
1700499742609375,-9.370177,-2.900545,0.810211,0.4733,0.41955,0.17618
1700499742617187,-9.375177,-2.912545,0.850211,0.3533,0.49555,0.20918
1700499742625000,-9.339177,-2.921545,0.859211,0.3333,0.52755,0.25718
1700499742632812,-9.323177,-2.910545,0.898211,0.4667,0.52555,0.30618
1700499742640625,-9.343177,-2.934545,0.898211,0.10067,0.48255,0.33618
1700499742648437,-9.340177,-2.976545,0.875211,0.9867,0.49655,0.32018
1700499742656250,-9.341177,-3.5545,0.902211,0.13367,0.48455,0.23918
1700499742664062,-9.373177,-3.18545,0.898211,0.1767,0.49755,0.25618
1700499742671875,-9.403177,-3.41545,0.875211,0.9033,0.48555,0.23818
1700499742679687,-9.397177,-3.48545,0.868211,0.9633,0.49755,0.19218
1700499742687500,-9.395177,-3.39545,0.868211,0.16033,0.35755,0.17618
1700499742695312,-9.376177,-2.969545,0.859211,0.11433,0.30855,0.22518
1700499742703125,-9.397177,-2.896545,0.812211,0.4733,0.27855,0.25718
1700499742710937,-9.402177,-2.851545,0.794211,0.6833,0.27555,0.22618
1700499742718750,-9.394177,-2.816545,0.789211,0.1533,0.27855,0.25718
1700499742726562,-9.383177,-2.812545,0.740211,0.333,0.22955,0.19418
1700499742734375,-9.387177,-2.839545,0.726211,0.7567,0.25955,0.24218
1700499742742187,-9.388177,-2.865545,0.753211,0.16367,0.24855,0.24018
1700499742750000,-9.368177,-2.903545,0.762211,0.22867,0.31055,0.28818
1700499742757812,-9.379177,-2.922545,0.767211,0.17967,0.35755,0.22418
1700499742765625,-9.376177,-2.931545,0.794211,0.26367,0.42255,0.27118
1700499742773437,-9.383177,-2.938545,0.814211,0.25567,0.51055,0.28918
1700499742781250,-9.392177,-2.944545,0.875211,0.22367,0.52655,0.27318
1700499742789062,-9.392177,-2.956545,0.893211,0.20767,0.52555,0.30518
1700499742796875,-9.385177,-2.982545,0.873211,0.21867,0.50855,0.22718
1700499742804687,-9.349177,-3.7545,0.905211,0.20067,0.47655,0.17918
1700499742812500,-9.346177,-3.23545,0.877211,0.20567,0.46255,0.24218
1700499742820312,-9.368177,-3.49545,0.825211,0.14067,0.40055,0.19418
1700499742828125,-9.376177,-3.68545,0.812211,0.18167,0.53155,0.17518
1700499742835937,-9.394177,-3.55545,0.794211,0.16367,0.45255,0.15918
1700499742843750,-9.443177,-2.979545,0.753211,0.4967,0.26455,0.16018
1700499742851562,-9.473177,-2.932545,0.715211,0.1567,0.24755,0.11218
1700499742859375,-9.445177,-2.891545,0.715211,0.867,0.32055,0.21118
1700499742867187,-9.413177,-2.896545,0.771211,0.767,0.46255,0.5118
1700499742875000,-9.399177,-2.933545,0.776211,0.533,0.49655,0.4918
1700499742882812,-9.378177,-2.971545,0.828211,0.2033,0.63555,0.19418
1700499742890625,-9.351177,-2.974545,0.848211,0.3233,0.60655,0.19218
1700499742898437,-9.336177,-2.954545,0.857211,0.5333,0.57355,0.14518
1700499742906250,-9.346177,-2.892545,0.884211,0.1833,0.63855,0.8018
1700499742914062,-9.332177,-2.863545,0.893211,0.1533,0.64155,0.0
1700499742921875,-9.360177,-2.850545,0.884211,0.2333,0.60655,0.7882
1700499742929687,-9.407177,-2.851545,0.880211,0.733,0.59055,0.6282
1700499742937500,-9.413177,-2.869545,0.857211,0.2967,0.62355,0.3182
1700499742945312,-9.453177,-2.906545,0.830211,0.15567,0.67055,0.9482
1700499742953125,-9.486177,-2.952545,0.873211,0.25467,0.77955,0.1582
1700499742960937,-9.479177,-2.958545,0.900211,0.23967,0.84355,0.0
1700499742968750,-9.488177,-2.954545,0.909211,0.26667,0.80655,0.11418
1700499742976562,-9.467177,-2.890545,0.911211,0.39367,0.85155,0.16318
1700499742984375,-9.452177,-2.820545,0.918211,0.43167,0.85555,0.16118
1700499742992187,-9.441177,-2.781545,0.943211,0.44067,0.92455,0.15818
1700499743000000,-9.439177,-2.775545,0.941211,0.46467,0.91955,0.8018
1700499743007812,-9.438177,-2.819545,0.913211,0.51667,0.93855,0.4718
1700499743015625,-9.415177,-2.869545,0.900211,0.48067,0.99955,0.4782
1700499743023437,-9.401177,-2.938545,0.896211,0.48867,0.97955,0.6182
1700499743031250,-9.409177,-3.13545,0.871211,0.54067,0.99755,0.7882
1700499743039062,-9.390177,-3.44545,0.866211,0.51567,0.98555,0.0
1700499743046875,-9.337177,-3.25545,0.891211,0.58067,0.100055,0.6318
1700499743054687,-9.300177,-2.950545,0.888211,0.44967,0.104555,0.11218
1700499743062500,-9.287177,-2.892545,0.891211,0.42467,0.101955,0.6118
1700499743070312,-9.266177,-2.835545,0.927211,0.48467,0.106455,0.3282
1700499743078125,-9.257177,-2.789545,0.906211,0.56467,0.103355,0.8082
1700499743085937,-9.256177,-2.774545,0.913211,0.50967,0.112355,0.6282
1700499743093750,-9.227177,-2.750545,0.931211,0.58867,0.110655,0.6282
1700499743101562,-9.222177,-2.759545,0.922211,0.70367,0.110755,0.4682
1700499743109375,-9.209177,-2.748545,0.940211,0.73567,0.118555,0.7882
1700499743117187,-9.202177,-2.750545,0.940211,0.78667,0.114055,0.6382
1700499743125000,-9.215177,-2.765545,0.920211,0.91367,0.115455,0.6282
1700499743132812,-9.224177,-2.805545,0.943211,0.98167,0.123555,0.3282
1700499743140625,-9.203177,-2.801545,0.920211,0.96567,0.112655,0.4882
1700499743148437,-9.233177,-2.772545,0.868211,0.109367,0.106255,0.3182
1700499743156250,-9.281177,-2.740545,0.884211,0.125067,0.113855,0.4682
1700499743164062,-9.320177,-2.687545,0.911211,0.127867,0.121155,0.8318
1700499743171875,-9.393177,-2.685545,0.902211,0.138767,0.117255,0.9518
1700499743179687,-9.475177,-2.735545,0.884211,0.148867,0.114155,0.27118
1700499743187500,-9.512177,-2.803545,0.873211,0.160067,0.107755,0.35118
1700499743195312,-9.535177,-2.852545,0.891211,0.162767,0.107155,0.53018
1700499743203125,-9.567177,-2.908545,0.873211,0.163167,0.98155,0.48118
1700499743210937,-9.587177,-2.926545,0.873211,0.153467,0.102555,0.65718
1700499743218750,-9.606177,-2.992545,0.871211,0.145567,0.102655,0.68918
1700499743226562,-9.576177,-3.10545,0.889211,0.142967,0.98355,0.63918
1700499743234375,-9.553177,-2.951545,0.868211,0.123167,0.91855,0.62418
1700499743242187,-9.540177,-2.929545,0.855211,0.110167,0.76155,0.57718
1700499743250000,-9.493177,-2.927545,0.898211,0.102367,0.90655,0.39918
1700499743257812,-9.461177,-2.939545,0.947211,0.103367,0.87155,0.40118
1700499743265625,-9.421177,-2.968545,0.970211,0.74367,0.84055,0.40118
1700499743273437,-9.366177,-3.37545,0.979211,0.74867,0.87555,0.35118
1700499743281250,-9.312177,-3.58545,0.977211,0.70867,0.76155,0.35318
1700499743289062,-9.258177,-3.79545,0.983211,0.49667,0.74455,0.30618
1700499743296875,-9.235177,-3.106545,0.979211,0.35267,0.69955,0.17718
1700499743304687,-9.230177,-3.175545,0.927211,0.23067,0.63255,0.9918
1700499743312500,-9.251177,-3.241545,0.938211,0.8667,0.58555,0.17918
1700499743320312,-9.251177,-3.245545,0.954211,0.10033,0.63455,0.22618
1700499743328125,-9.249177,-3.203545,0.963211,0.27233,0.60755,0.22418
1700499743335937,-9.253177,-3.90545,0.949211,0.25733,0.38855,0.20818
1700499743343750,-9.289177,-2.979545,0.907211,0.29433,0.25955,0.21018
1700499743351562,-9.324177,-2.893545,0.873211,0.31433,0.27355,0.17918
1700499743359375,-9.339177,-2.883545,0.882211,0.29033,0.20055,0.14418
1700499743367187,-9.345177,-2.901545,0.848211,0.29133,0.23455,0.1582
1700499743375000,-9.359177,-2.921545,0.789211,0.28933,0.13755,0.19218
1700499743382812,-9.372177,-2.920545,0.762211,0.30133,0.0,0.17518
1700499743390625,-9.361177,-2.903545,0.724211,0.28733,0.4555,0.19218
1700499743398437,-9.341177,-2.874545,0.724211,0.30433,0.7755,0.14418
1700499743406250,-9.348177,-2.867545,0.719211,0.28833,0.15755,0.3282
1700499743414062,-9.357177,-2.909545,0.710211,0.30933,0.17055,0.4782
1700499743421875,-9.387177,-2.944545,0.717211,0.28833,0.14255,0.4882
1700499743429687,-9.399177,-2.949545,0.758211,0.31033,0.15355,0.118
1700499743437500,-9.405177,-2.953545,0.751211,0.20833,0.6255,0.1518
1700499743445312,-9.409177,-2.980545,0.728211,0.29333,0.445,0.9718
1700499743453125,-9.364177,-3.38545,0.719211,0.27533,0.1255,0.11318
1700499743460937,-9.334177,-3.52545,0.708211,0.27533,0.1845,0.16118
1700499743468750,-9.334177,-3.38545,0.742211,0.33533,0.0,0.17618
1700499743476562,-9.324177,-3.10545,0.751211,0.40433,0.4945,0.12918
1700499743484375,-9.360177,-2.992545,0.695211,0.52133,0.20745,0.1818
1700499743492187,-9.398177,-3.8545,0.699211,0.43533,0.17245,0.1582
1700499743500000,-9.398177,-2.976545,0.726211,0.50633,0.9845,0.2982
1700499743507812,-9.443177,-2.952545,0.724211,0.46633,0.17345,0.9618
1700499743515625,-9.479177,-2.948545,0.722211,0.37533,0.6545,0.1718
1700499743523437,-9.443177,-2.955545,0.801211,0.32733,0.2755,0.4918
1700499743531250,-9.407177,-2.984545,0.792211,0.30733,0.4355,0.19318
1700499743539062,-9.395177,-3.19545,0.782211,0.25433,0.7655,0.24018
1700499743546875,-9.396177,-2.974545,0.817211,0.26833,0.17855,0.14818
1700499743554687,-9.377177,-2.914545,0.821211,0.14833,0.18255,0.19418
1700499743562500,-9.367177,-2.850545,0.859211,0.5833,0.22555,0.16418
1700499743570312,-9.349177,-2.810545,0.871211,0.5033,0.23055,0.17718
1700499743578125,-9.342177,-2.755545,0.884211,0.667,0.21055,0.14818
1700499743585937,-9.310177,-2.757545,0.889211,0.9467,0.37255,0.6418
