time,Acceleration X (m/s^2),Acceleration Y (m/s^2),Acceleration Z (m/s^2),Angular Velocity X (rad/s),Angular Velocity Y (rad/s),Angular Velocity Z (rad/s)
1700499608031250,-9.252865,-3.245396,1.041388,-0.056218,,
1700499608039062,-9.227865,-3.237396,1.61388,0.49918,0.61567,0.33161
1700499608046875,-9.190865,-3.244396,1.54388,0.43018,0.59567,0.36561
1700499608054687,-9.169865,-3.247396,1.59388,0.41318,0.56467,0.31761
1700499608062500,-9.149865,-3.271396,1.79388,0.28318,0.58067,0.26961
1700499608070312,-9.173865,-3.306396,1.56388,0.27018,0.53467,0.33361
1700499608085937,-9.227865,-3.308396,1.4388,0.22218,0.47267,0.33261
1700499608093750,-9.247865,-3.299396,1.4388,0.17418,0.45667,0.34961
1700499608101562,-9.271865,-3.296396,0.971388,0.19018,0.41067,0.31661
1700499608109375,-9.274865,-3.287396,0.973388,0.17418,0.41067,0.31661
1700499608132812,-9.244865,-3.318396,0.993388,0.16118,0.52167,0.29961
1700499608140625,-9.233865,-3.320396,1.4388,0.20018,0.43167,0.36161
1700499608148437,-9.217865,-3.330396,1.13388,0.19418,0.39667,0.33161
1700499608156250,-9.215865,-3.330396,0.993388,0.18018,0.38267,0.33061
1700499608164062,-9.201865,-3.370396,0.984388,0.19318,0.41367,0.23561
1700499608171875,-9.223865,-3.396396,0.946388,0.16218,0.25667,0.29961
1700499608179687,-9.254865,-3.409396,0.932388,0.11718,0.21367,0.23461
1700499608187500,-9.265865,-3.397396,0.988388,0.5418,0.40067,0.32961
1700499608195312,-9.256865,-3.387396,1.40388,0.6082,0.44567,0.31461
1700499608203125,-9.293865,-3.375396,1.31388,0.4782,0.33467,0.29961
1700499608210937,-9.295865,-3.337396,1.22388,0.17182,0.38467,0.24961
1700499608218750,-9.273865,-3.286396,1.6388,0.21982,0.35667,0.10461
1700499608226562,-9.259865,-3.245396,1.9388,0.14782,0.44667,0.3739
1700499608234375,-9.238865,-3.236396,1.40388,0.17482,0.49767,0.3939
1700499608242187,-9.227865,-3.243396,1.49388,0.12882,0.49667,0.8639
1700499608250000,-9.249865,-3.291396,1.45388,0.6182,0.52867,0.5539
1700499608257812,-9.259865,-3.362396,1.7388,0.8182,0.63467,0.1061
1700499608265625,-9.301865,-3.381396,1.7388,0.4582,0.65067,0.15361
1700499608273437,-9.298865,-3.315396,1.45388,0.4782,0.66467,0.20261
1700499608281250,-9.276865,-3.220396,1.83388,0.4182,0.69967,0.18461
1700499608289062,-9.253865,-3.154396,1.86388,0.11418,0.64967,0.20261
1700499608296875,-9.272865,-3.125396,1.63388,0.19318,0.57067,0.17161
1700499608304687,-9.269865,-3.128396,1.47388,0.17418,0.63167,0.15561
1700499608312500,-9.258865,-3.150396,1.43388,0.26818,0.62967,0.17261
1700499608320312,-9.252865,-3.210396,1.16388,0.28718,0.74067,0.15561
1700499608328125,-9.251865,-3.285396,1.16388,0.34018,0.60267,0.20261
1700499608335937,-9.250865,-3.320396,1.11388,0.40618,0.66667,0.18561
1700499608343750,-9.239865,-3.329396,1.16388,0.37418,0.69767,0.23361
1700499608351562,-9.233865,-3.299396,1.43388,0.43518,0.77267,0.25161
1700499608359375,-9.252865,-3.254396,1.18388,0.35218,0.69367,0.21961
1700499608367187,-9.266865,-3.234396,1.9388,0.41718,0.63167,0.23561
1700499608375000,-9.275865,-3.223396,0.995388,0.38318,0.66167,0.25261
1700499608382812,-9.273865,-3.219396,1.23388,0.39718,0.72267,0.23761
1700499608390625,-9.236865,-3.234396,1.36388,0.43318,0.70967,0.26761
1700499608398437,-9.211865,-3.257396,1.36388,0.40418,0.72767,0.18661
1700499608406250,-9.189865,-3.295396,1.52388,0.33418,0.70867,0.20461
1700499608414062,-9.158865,-3.348396,1.27388,0.34118,0.66667,0.12161
1700499608421875,-9.131865,-3.351396,1.388,0.29518,0.71467,0.20161
1700499608429687,-9.112865,-3.347396,1.31388,0.17418,0.66267,0.13961
1700499608437500,-9.107865,-3.363396,1.11388,0.12518,0.63167,0.12361
1700499608445312,-9.149865,-3.399396,0.997388,0.1818,0.58867,0.12161
1700499608453125,-9.177865,-3.426396,0.979388,0.6218,0.47867,0.5339
1700499608460937,-9.222865,-3.429396,0.977388,0.7918,0.46267,0.1061
1700499608468750,-9.252865,-3.382396,0.995388,0.5082,0.44667,0.3739
1700499608476562,-9.275865,-3.322396,1.4388,0.8682,0.39767,0.6839
1700499608484375,-9.310865,-3.276396,1.388,0.8782,0.31867,0.6739
1700499608492187,-9.337865,-3.233396,0.966388,0.9782,0.22967,0.5339
1700499608500000,-9.341865,-3.232396,1.388,0.5982,0.46767,0.3939
1700499608507812,-9.324865,-3.242396,1.29388,0.8782,0.58467,0.6739
1700499608515625,-9.281865,-3.258396,1.34388,0.8682,0.47567,0.1939
1700499608523437,-9.233865,-3.312396,1.36388,0.5382,0.58567,0.3639
1700499608531250,-9.194865,-3.361396,1.54388,0.682,0.64667,0.1261
1700499608539062,-9.167865,-3.403396,1.49388,0.9882,0.74367,0.3739
1700499608546875,-9.148865,-3.419396,1.43388,0.382,0.69667,0.2039
1700499608554687,-9.137865,-3.435396,1.63388,0.3482,0.67967,0.4361
1700499608562500,-9.142865,-3.422396,1.72388,0.6882,0.69367,0.13961
1700499608570312,-9.178865,-3.410396,1.70388,0.4882,0.66567,0.12261
1700499608578125,-9.173865,-3.397396,1.47388,0.11282,0.47867,0.5861
1700499608585937,-9.160865,-3.377396,1.29388,0.11182,0.55867,0.639
1700499608593750,-9.151865,-3.361396,1.58388,0.8082,0.60567,0.7039
1700499608601562,-9.149865,-3.353396,1.95388,0.30882,0.63467,0.5339
1700499608609375,-9.152865,-3.355396,1.106388,0.21182,0.65067,0.5339
1700499608617187,-9.152865,-3.371396,1.165388,0.29982,0.67667,0.339
1700499608625000,-9.159865,-3.335396,1.196388,0.27882,0.53667,0.12461
1700499608632812,-9.187865,-3.251396,1.174388,0.31082,0.52267,0.4361
1700499608640625,-9.190865,-3.160396,1.160388,0.33882,0.52767,0.7039
1700499608648437,-9.241865,-3.111396,1.104388,0.29782,0.45967,0.8339
1700499608656250,-9.286865,-3.99396,1.41388,0.23282,0.35167,0.14839
1700499608664062,-9.296865,-3.141396,0.986388,0.18782,0.34967,0.14639
1700499608671875,-9.299865,-3.235396,0.950388,0.4882,0.48167,0.16639
1700499608679687,-9.293865,-3.347396,0.946388,0.7182,0.47667,0.11639
1700499608687500,-9.287865,-3.453396,0.964388,0.3118,0.60367,0.539
1700499608695312,-9.281865,-3.521396,0.975388,0.3582,0.63367,0.2139
1700499608703125,-9.290865,-3.537396,1.4388,0.4082,0.59867,0.1261
1700499608710937,-9.255865,-3.506396,1.20388,0.1882,0.57167,0.2661
1700499608718750,-9.202865,-3.450396,1.40388,0.3582,0.60067,0.13961
1700499608726562,-9.176865,-3.393396,1.52388,0.3918,0.59667,0.12561
1700499608734375,-9.170865,-3.342396,1.65388,0.4418,0.50567,0.17261
1700499608742187,-9.164865,-3.293396,1.86388,0.4618,0.46067,0.10761
1700499608750000,-9.160865,-3.227396,1.95388,0.10918,0.53867,0.5961
1700499608757812,-9.187865,-3.201396,1.90388,0.19918,0.59167,0.4061
1700499608765625,-9.199865,-3.190396,1.101388,0.18018,0.59167,0.2339
1700499608773437,-9.223865,-3.203396,1.83388,0.19318,0.53967,0.13861
1700499608781250,-9.225865,-3.248396,1.61388,0.23718,0.61767,0.439
1700499608789062,-9.198865,-3.290396,1.65388,0.39918,0.63267,0.7561
1700499608796875,-9.190865,-3.328396,1.59388,0.30118,0.69267,0.15661
1700499608804687,-9.189865,-3.376396,1.38388,0.30118,0.64067,0.18361
1700499608812500,-9.209865,-3.409396,1.9388,0.25918,0.60367,0.13861
1700499608820312,-9.229865,-3.447396,1.2388,0.20318,0.66067,0.18961
1700499608828125,-9.240865,-3.456396,1.32388,0.16818,0.67467,0.14161
1700499608835937,-9.227865,-3.449396,1.61388,0.15418,0.70667,0.17361
1700499608843750,-9.227865,-3.414396,1.72388,0.7418,0.69267,0.9261
1700499608851562,-9.237865,-3.379396,1.61388,0.3718,0.62667,0.12661
1700499608859375,-9.213865,-3.348396,1.54388,0.5782,0.56567,0.7761
1700499608867187,-9.213865,-3.339396,1.77388,0.8782,0.56667,0.9261
1700499608875000,-9.231865,-3.332396,1.77388,0.5682,0.47267,0.12561
1700499608882812,-9.250865,-3.325396,1.70388,0.4382,0.50967,0.21761
1700499608890625,-9.262865,-3.291396,1.65388,0.1582,0.49267,0.20361
1700499608898437,-9.263865,-3.256396,1.81388,0.3318,0.50767,0.23561
1700499608906250,-9.246865,-3.223396,1.88388,0.6118,0.48967,0.25261
1700499608914062,-9.252865,-3.210396,1.38388,0.18018,0.52467,0.21861
1700499608921875,-9.228865,-3.204396,1.11388,0.25718,0.47567,0.21961
1700499608929687,-9.221865,-3.206396,1.6388,0.34418,0.44867,0.23361
1700499608937500,-9.239865,-3.221396,0.977388,0.27218,0.55367,0.21961
1700499608945312,-9.252865,-3.245396,0.970388,0.43518,0.64867,0.21961
1700499608953125,-9.264865,-3.289396,0.966388,0.40518,0.68067,0.25061
1700499608960937,-9.277865,-3.311396,0.979388,0.47618,0.69967,0.34461
1700499608968750,-9.280865,-3.307396,0.971388,0.48118,0.72267,0.36461
1700499608976562,-9.256865,-3.282396,0.964388,0.44118,0.64967,0.36161
1700499608984375,-9.238865,-3.274396,0.968388,0.61918,0.61867,0.39361
1700499608992187,-9.251865,-3.287396,0.977388,0.56418,0.63067,0.37961
1700499609000000,-9.254865,-3.308396,0.998388,0.55818,0.64267,0.36561
1700499609007812,-9.255865,-3.332396,1.11388,0.57718,0.61267,0.42961
1700499609015625,-9.264865,-3.349396,1.25388,0.56118,0.69067,0.42961
1700499609023437,-9.259865,-3.367396,1.38388,0.45118,0.67567,0.49261
1700499609031250,-9.226865,-3.368396,1.52388,0.43318,0.61167,0.49361
1700499609039062,-9.177865,-3.344396,1.83388,0.51518,0.72167,0.49261
1700499609046875,-9.128865,-3.309396,1.101388,0.54918,0.67667,0.47661
1700499609054687,-9.126865,-3.287396,1.119388,0.42118,0.70967,0.41161
1700499609062500,-9.148865,-3.282396,1.99388,0.34218,0.64867,0.39461
1700499609070312,-9.184865,-3.297396,1.56388,0.30618,0.53767,0.34761
1700499609078125,-9.206865,-3.304396,1.52388,0.19018,0.50367,0.33361
1700499609085937,-9.202865,-3.301396,1.56388,0.24118,0.55267,0.31561
1700499609093750,-9.211865,-3.319396,1.45388,0.20718,0.48967,0.23661
1700499609101562,-9.222865,-3.332396,1.29388,0.17418,0.52067,0.23661
1700499609109375,-9.232865,-3.342396,1.24388,0.11918,0.54267,0.23361
1700499609117187,-9.246865,-3.345396,1.54388,0.8018,0.58567,0.20361
1700499609125000,-9.253865,-3.336396,1.81388,0.13318,0.47967,0.20161
1700499609132812,-9.300865,-3.309396,1.81388,0.3482,0.48967,0.25261
1700499609140625,-9.298865,-3.295396,1.86388,0.8118,0.52367,0.20361
1700499609148437,-9.278865,-3.307396,1.45388,0.982,0.56367,0.20661
1700499609156250,-9.253865,-3.318396,1.86388,0.4218,0.67467,0.25361
1700499609164062,-9.244865,-3.296396,1.104388,0.3118,0.64767,0.20361
1700499609171875,-9.242865,-3.256396,1.90388,0.2118,0.62067,0.18561
1700499609179687,-9.245865,-3.234396,1.74388,0.10018,0.63467,0.21761
1700499609187500,-9.255865,-3.207396,1.83388,0.9818,0.69567,0.23461
1700499609195312,-9.255865,-3.196396,1.99388,0.16418,0.72867,0.20161
1700499609203125,-9.299865,-3.200396,1.90388,0.22718,0.69667,0.20261
1700499609210937,-9.308865,-3.209396,1.70388,0.18218,0.68267,0.21761
1700499609218750,-9.306865,-3.240396,1.43388,0.25618,0.64667,0.26761
1700499609226562,-9.314865,-3.279396,1.34388,0.31018,0.61967,0.21761
1700499609234375,-9.316865,-3.308396,1.34388,0.26118,0.72867,0.21761
1700499609242187,-9.289865,-3.300396,1.40388,0.33718,0.80467,0.18761
1700499609250000,-9.262865,-3.305396,1.59388,0.39718,0.79967,0.28561
1700499609257812,-9.262865,-3.318396,1.43388,0.37818,0.85567,0.29661
1700499609265625,-9.233865,-3.321396,1.47388,0.38918,0.85167,0.33061
1700499609273437,-9.193865,-3.308396,1.72388,0.48618,0.100867,0.28261
1700499609281250,-9.154865,-3.313396,1.83388,0.44218,0.93267,0.31361
1700499609289062,-9.143865,-3.323396,1.106388,0.46318,0.95267,0.24761
1700499609296875,-9.157865,-3.311396,1.113388,0.38718,0.89867,0.21861
1700499609304687,-9.159865,-3.300396,1.101388,0.38718,0.83667,0.20261
1700499609312500,-9.164865,-3.280396,1.90388,0.41718,0.86667,0.15561
1700499609320312,-9.175865,-3.275396,1.61388,0.34818,0.84867,0.10861
1700499609328125,-9.170865,-3.313396,1.74388,0.41718,0.75867,0.7561
1700499609335937,-9.163865,-3.355396,1.90388,0.23618,0.77267,0.2761
1700499609343750,-9.160865,-3.383396,1.95388,0.20918,0.77667,0.639
1700499609351562,-9.157865,-3.419396,1.81388,0.18018,0.73067,0.961
1700499609359375,-9.159865,-3.447396,1.65388,0.16518,0.73267,0.2339
1700499609367187,-9.147865,-3.452396,1.81388,0.16718,0.71867,0.2439
1700499609375000,-9.152865,-3.459396,1.79388,0.12718,0.72867,0.539
1700499609382812,-9.136865,-3.452396,1.76388,0.8618,0.68467,0.8861
1700499609390625,-9.161865,-3.423396,1.81388,0.7282,0.62567,0.7239
1700499609398437,-9.216865,-3.394396,1.65388,0.1782,0.60267,0.5961
1700499609406250,-9.221865,-3.376396,1.52388,0.6482,0.63467,0.5861
1700499609414062,-9.169865,-3.397396,1.122388,0.6882,0.85167,0.439
1700499609421875,-9.119865,-3.433396,1.149388,0.9982,0.83467,0.13961
1700499609429687,-9.119865,-3.442396,1.176388,0.12782,0.77467,0.15461
1700499609437500,-9.85865,-3.471396,1.196388,0.27882,0.86367,0.20461
1700499609445312,-9.96865,-3.478396,1.199388,0.29582,0.73867,0.20461
1700499609453125,-9.112865,-3.456396,1.199388,0.35882,0.65967,0.26861
1700499609460937,-9.162865,-3.441396,1.147388,0.43782,0.56767,0.20361
1700499609468750,-9.191865,-3.456396,1.101388,0.53482,0.52167,0.18761
1700499609476562,-9.203865,-3.421396,1.104388,0.45882,0.51967,0.14161
1700499609484375,-9.219865,-3.379396,1.102388,0.57382,0.44267,0.6739
1700499609492187,-9.234865,-3.347396,1.81388,0.53082,0.41767,0.5439
1700499609500000,-9.250865,-3.333396,1.25388,0.62682,0.24667,0.7039
1700499609507812,-9.285865,-3.298396,1.31388,0.55082,0.30667,0.8539
1700499609515625,-9.330865,-3.268396,1.36388,0.51582,0.44967,0.11839
1700499609523437,-9.375865,-3.250396,1.52388,0.43582,0.46567,0.13439
1700499609531250,-9.399865,-3.234396,1.29388,0.35082,0.46767,0.13539
1700499609539062,-9.384865,-3.221396,1.36388,0.34182,0.55767,0.16539
1700499609546875,-9.348865,-3.244396,1.65388,0.26482,0.67967,0.13239
1700499609554687,-9.305865,-3.284396,1.110388,0.19682,0.71267,0.8539
1700499609562500,-9.265865,-3.300396,1.147388,0.8782,0.72667,0.13239
1700499609570312,-9.249865,-3.298396,1.160388,0.11682,0.72667,0.2039
1700499609578125,-9.291865,-3.300396,1.149388,0.14582,0.69867,0.3839
1700499609585937,-9.328865,-3.291396,1.147388,0.682,0.67767,0.339
1700499609593750,-9.362865,-3.243396,1.169388,0.11018,0.71167,0.9161
1700499609601562,-9.356865,-3.199396,1.167388,0.15818,0.71167,0.2761
1700499609609375,-9.348865,-3.162396,1.151388,0.20218,0.73867,0.12561
1700499609617187,-9.335865,-3.127396,1.149388,0.31318,0.78367,0.14161
1700499609625000,-9.312865,-3.98396,1.167388,0.51418,0.91367,0.20361
1700499609632812,-9.308865,-3.74396,1.167388,0.62918,0.100767,0.28261
1700499609640625,-9.281865,-3.103396,1.133388,0.69418,0.103867,0.31561
1700499609648437,-9.276865,-3.147396,1.106388,0.88618,0.106867,0.34761
1700499609656250,-9.273865,-3.203396,1.83388,0.96118,0.112667,0.39761
1700499609664062,-9.225865,-3.254396,1.77388,0.95118,0.114567,0.45961
1700499609671875,-9.157865,-3.304396,1.83388,0.98418,0.111467,0.45961
1700499609679687,-9.116865,-3.331396,1.106388,0.96618,0.112867,0.49261
1700499609687500,-9.91865,-3.358396,1.119388,0.95618,0.109967,0.61961
1700499609695312,-9.89865,-3.374396,1.110388,0.95318,0.100567,0.52361
1700499609703125,-9.82865,-3.383396,1.124388,0.90518,0.95867,0.53961
1700499609710937,-9.82865,-3.345396,1.149388,0.84318,0.97467,0.58761
1700499609718750,-9.99865,-3.316396,1.167388,0.72518,0.92667,0.47661
1700499609726562,-9.119865,-3.298396,1.158388,0.69318,0.84867,0.46061
1700499609734375,-9.126865,-3.298396,1.160388,0.71318,0.86667,0.47461
1700499609742187,-9.138865,-3.342396,1.167388,0.66618,0.89867,0.47461
1700499609750000,-9.122865,-3.373396,1.210388,0.60218,0.86767,0.45861
1700499609757812,-9.62865,-3.408396,1.230388,0.46518,0.84667,0.44461
1700499609765625,-9.5865,-3.448396,1.234388,0.42318,0.72567,0.45861
1700499609773437,-9.865,-3.486396,1.219388,0.22618,0.67667,0.42861
1700499609781250,-9.33865,-3.494396,1.165388,0.21018,0.47467,0.37961
1700499609789062,-9.69865,-3.480396,1.133388,0.1618,0.37967,0.42861
1700499609796875,-9.97865,-3.443396,1.144388,0.10082,0.27067,0.23661
1700499609804687,-9.169865,-3.390396,1.156388,0.25482,0.24367,0.18661
1700499609812500,-9.237865,-3.338396,1.176388,0.33682,0.22667,0.23461
1700499609820312,-9.257865,-3.309396,1.167388,0.38182,0.13667,0.13761
1700499609828125,-9.288865,-3.258396,1.149388,0.38682,0.19667,0.7461
1700499609835937,-9.298865,-3.207396,1.129388,0.34482,0.13167,0.1261
1700499609843750,-9.324865,-3.207396,1.104388,0.32582,0.24267,0.3639
1700499609851562,-9.346865,-3.226396,1.131388,0.28982,0.26167,0.5439
1700499609859375,-9.337865,-3.228396,1.162388,0.25482,0.30867,0.4161
1700499609867187,-9.355865,-3.239396,1.149388,0.15982,0.33867,0.10661
1700499609875000,-9.373865,-3.246396,1.93388,0.11582,0.33367,0.18861
1700499609882812,-9.378865,-3.234396,1.111388,0.6582,0.44467,0.18761
1700499609890625,-9.371865,-3.206396,1.104388,0.5082,0.50467,0.30061
1700499609898437,-9.331865,-3.193396,1.151388,0.4518,0.61367,0.26861
1700499609906250,-9.304865,-3.162396,1.165388,0.13218,0.68167,0.24961
1700499609914062,-9.298865,-3.138396,1.149388,0.19218,0.66167,0.29961
1700499609921875,-9.303865,-3.134396,1.160388,0.20818,0.64667,0.31561
1700499609929687,-9.305865,-3.160396,1.153388,0.32518,0.66467,0.26661
1700499609937500,-9.305865,-3.171396,1.160388,0.41718,0.72467,0.25161
1700499609945312,-9.332865,-3.169396,1.131388,0.57818,0.76967,0.38061
1700499609953125,-9.318865,-3.171396,1.171388,0.61418,0.88067,0.45961
1700499609960937,-9.295865,-3.176396,1.189388,0.69618,0.89767,0.44261
1700499609968750,-9.293865,-3.185396,1.165388,0.69818,0.88167,0.53961
1700499609976562,-9.261865,-3.207396,1.190388,0.71218,0.89567,0.58761
1700499609984375,-9.238865,-3.227396,1.198388,0.70418,0.91667,0.56961
1700499609992187,-9.229865,-3.243396,1.201388,0.73918,0.94967,0.56761
1700499610000000,-9.205865,-3.271396,1.205388,0.77118,0.95367,0.63761
1700499610007812,-9.172865,-3.312396,1.194388,0.71618,0.99167,0.60261
1700499610015625,-9.140865,-3.339396,1.214388,0.70918,0.96667,0.58361
1700499610023437,-9.135865,-3.366396,1.232388,0.70518,0.94867,0.55261
1700499610031250,-9.93865,-3.369396,1.250388,0.58618,0.89867,0.50661
1700499610039062,-9.71865,-3.356396,1.235388,0.51618,0.89467,0.49261
1700499610046875,-9.64865,-3.363396,1.248388,0.51418,0.83367,0.34861
1700499610054687,-9.50865,-3.410396,1.228388,0.48018,0.78567,0.33261
1700499610062500,-9.43865,-3.427396,1.196388,0.34018,0.72667,0.28261
1700499610070312,-9.30865,-3.421396,1.178388,0.17418,0.70967,0.20361
1700499610078125,-9.10865,-3.424396,1.185388,0.19418,0.68067,0.17061
1700499610085937,-9.32865,-3.394396,1.194388,0.6618,0.60467,0.8961
1700499610093750,-9.78865,-3.345396,1.196388,0.2682,0.46767,0.2339
1700499610101562,-9.150865,-3.310396,1.205388,0.1182,0.43667,0.10339
1700499610109375,-9.252865,-3.274396,1.210388,0.5482,0.44467,0.6839
1700499610117187,-9.294865,-3.278396,1.210388,0.8882,0.36567,0.5139
1700499610125000,-9.303865,-3.282396,1.189388,0.5018,0.41867,0.5439
1700499610132812,-9.269865,-3.265396,1.162388,0.3182,0.37067,0.539
1700499610140625,-9.241865,-3.232396,1.111388,0.5918,0.22767,0.8439
1700499610148437,-9.228865,-3.219396,1.83388,0.10718,0.22767,0.10039
1700499610156250,-9.257865,-3.245396,1.81388,0.20418,0.30467,0.5239
1700499610164062,-9.307865,-3.286396,1.56388,0.17318,0.36867,0.8439
1700499610171875,-9.379865,-3.310396,1.50388,0.29618,0.47367,0.5039
1700499610179687,-9.396865,-3.345396,1.47388,0.28818,0.46167,0.7561
1700499610187500,-9.387865,-3.356396,1.63388,0.25718,0.55567,0.13861
1700499610195312,-9.369865,-3.341396,1.79388,0.25518,0.61667,0.17161
1700499610203125,-9.302865,-3.332396,1.101388,0.24918,0.69967,0.23261
1700499610210937,-9.241865,-3.327396,1.124388,0.32918,0.76167,0.24861
1700499610218750,-9.197865,-3.294396,1.164388,0.28218,0.74767,0.20061
1700499610226562,-9.182865,-3.282396,1.178388,0.17518,0.72467,0.23561
1700499610234375,-9.209865,-3.257396,1.156388,0.23818,0.67667,0.23661
1700499610242187,-9.225865,-3.237396,1.160388,0.22818,0.54067,0.21861
1700499610250000,-9.225865,-3.214396,1.169388,0.27518,0.68067,0.21861
1700499610257812,-9.196865,-3.210396,1.178388,0.19418,0.71167,0.18661
1700499610265625,-9.194865,-3.210396,1.180388,0.18218,0.65167,0.18561
1700499610273437,-9.180865,-3.201396,1.214388,0.21818,0.71667,0.23261
1700499610281250,-9.154865,-3.220396,1.223388,0.19618,0.71367,0.16961
1700499610289062,-9.157865,-3.273396,1.183388,0.16618,0.69867,0.18561
1700499610296875,-9.172865,-3.321396,1.183388,0.11418,0.64967,0.20261
1700499610304687,-9.178865,-3.374396,1.128388,0.11618,0.61967,0.18561
1700499610312500,-9.159865,-3.423396,1.128388,0.2482,0.60567,0.20061
1700499610320312,-9.132865,-3.468396,1.165388,0.6582,0.66367,0.18761
1700499610328125,-9.130865,-3.488396,1.176388,0.11582,0.61567,0.20361
1700499610335937,-9.121865,-3.493396,1.180388,0.14582,0.53867,0.18761
1700499610343750,-9.119865,-3.484396,1.183388,0.22782,0.53767,0.20361
1700499610351562,-9.163865,-3.461396,1.185388,0.31882,0.49467,0.18561
1700499610359375,-9.220865,-3.445396,1.171388,0.33982,0.42767,0.21961
1700499610367187,-9.237865,-3.392396,1.156388,0.32582,0.22267,0.23661
1700499610375000,-9.244865,-3.331396,1.140388,0.43182,0.27467,0.26661
1700499610382812,-9.252865,-3.263396,1.133388,0.52982,0.19467,0.26661
1700499610390625,-9.284865,-3.209396,1.101388,0.40082,0.19767,0.8961
1700499610398437,-9.275865,-3.205396,1.101388,0.43282,0.21367,0.9061
1700499610406250,-9.271865,-3.196396,1.115388,0.42082,0.28767,0.17161
1700499610414062,-9.286865,-3.176396,1.126388,0.31682,0.34067,0.12061
1700499610421875,-9.307865,-3.136396,1.140388,0.29082,0.41467,0.10661
1700499610429687,-9.335865,-3.100396,1.153388,0.25682,0.48067,0.639
1700499610437500,-9.370865,-3.108396,1.181388,0.0,0.49267,0.12261
1700499610445312,-9.404865,-3.136396,1.196388,0.1482,0.57167,0.15461
1700499610453125,-9.408865,-3.156396,1.192388,0.9918,0.65067,0.13761
1700499610460937,-9.367865,-3.150396,1.196388,0.16218,0.66567,0.15461
1700499610468750,-9.320865,-3.155396,1.174388,0.30718,0.65067,0.12261
1700499610476562,-9.301865,-3.125396,1.158388,0.45418,0.65167,0.15361
1700499610484375,-9.281865,-3.92396,1.156388,0.43518,0.69767,0.7461
1700499610492187,-9.277865,-3.50396,1.196388,0.55018,0.82267,0.16961
1700499610500000,-9.268865,-3.50396,1.180388,0.68218,0.88667,0.21761
1700499610507812,-9.285865,-3.78396,1.137388,0.66618,0.85467,0.23361
1700499610515625,-9.276865,-3.107396,1.142388,0.76318,0.94767,0.34561
1700499610523437,-9.256865,-3.130396,1.151388,0.81418,0.94867,0.36161
1700499610531250,-9.260865,-3.181396,1.129388,0.78918,0.83367,0.34861
1700499610539062,-9.268865,-3.227396,1.129388,0.82118,0.86267,0.49261
1700499610546875,-9.265865,-3.256396,1.147388,0.77118,0.90767,0.54161
1700499610554687,-9.263865,-3.281396,1.172388,0.70918,0.79967,0.54061
1700499610562500,-9.229865,-3.272396,1.185388,0.70218,0.77267,0.65061
1700499610570312,-9.197865,-3.265396,1.171388,0.70718,0.76167,0.61661
1700499610578125,-9.217865,-3.298396,1.153388,0.65918,0.57467,0.55261
1700499610585937,-9.244865,-3.296396,1.146388,0.59518,0.57467,0.55261
1700499610593750,-9.247865,-3.283396,1.135388,0.52218,0.49267,0.50661
1700499610601562,-9.251865,-3.283396,1.122388,0.52118,0.55267,0.57161
1700499610609375,-9.224865,-3.270396,1.122388,0.47718,0.47767,0.60261
1700499610617187,-9.223865,-3.239396,1.88388,0.47918,0.46267,0.60161
1700499610625000,-9.223865,-3.228396,1.79388,0.44318,0.47567,0.58661
1700499610632812,-9.223865,-3.205396,1.79388,0.44718,0.47867,0.60161
1700499610640625,-9.227865,-3.219396,1.95388,0.25018,0.52367,0.53861
1700499610648437,-9.243865,-3.245396,1.106388,0.25318,0.48067,0.45661
1700499610656250,-9.241865,-3.232396,1.135388,0.17718,0.47267,0.47661
1700499610664062,-9.218865,-3.225396,1.144388,0.26518,0.44667,0.44161
1700499610671875,-9.228865,-3.217396,1.120388,0.17918,0.38067,0.44361
1700499610679687,-9.241865,-3.212396,1.115388,0.20218,0.49467,0.40961
1700499610687500,-9.250865,-3.236396,1.117388,0.18318,0.44567,0.42661
1700499610695312,-9.247865,-3.243396,1.124388,0.26918,0.41867,0.37661
1700499610703125,-9.256865,-3.238396,1.142388,0.22018,0.48067,0.39261
1700499610710937,-9.270865,-3.232396,1.160388,0.19618,0.46067,0.37961
1700499610718750,-9.270865,-3.236396,1.176388,0.27818,0.47767,0.31461
1700499610726562,-9.257865,-3.207396,1.185388,0.27618,0.46067,0.29961
1700499610734375,-9.248865,-3.194396,1.183388,0.34318,0.58767,0.29761
1700499610742187,-9.228865,-3.217396,1.167388,0.41818,0.48967,0.33261
1700499610750000,-9.199865,-3.215396,1.174388,0.35818,0.58667,0.34661
1700499610757812,-9.181865,-3.215396,1.189388,0.34018,0.67867,0.36361
1700499610765625,-9.199865,-3.195396,1.203388,0.25518,0.72267,0.33261
1700499610773437,-9.217865,-3.175396,1.203388,0.38618,0.75767,0.23561
1700499610781250,-9.244865,-3.177396,1.199388,0.40318,0.75767,0.25161
1700499610789062,-9.255865,-3.168396,1.208388,0.38618,0.74167,0.20361
1700499610796875,-9.246865,-3.157396,1.196388,0.37118,0.71267,0.12261
1700499610804687,-9.229865,-3.166396,1.205388,0.32918,0.70867,0.3539
1700499610812500,-9.239865,-3.206396,1.178388,0.34518,0.66167,0.5139
1700499610820312,-9.247865,-3.256396,1.153388,0.42918,0.64767,0.2861
1700499610828125,-9.253865,-3.296396,1.135388,0.38818,0.72967,0.4161
1700499610835937,-9.224865,-3.334396,1.117388,0.33418,0.69467,0.4361
1700499610843750,-9.214865,-3.350396,1.117388,0.30518,0.71067,0.15561
1700499610851562,-9.199865,-3.339396,1.122388,0.22618,0.72767,0.13861
1700499610859375,-9.217865,-3.368396,1.115388,0.18618,0.70667,0.15761
1700499610867187,-9.233865,-3.356396,1.131388,0.20518,0.61467,0.15661
1700499610875000,-9.244865,-3.329396,1.126388,0.19218,0.64867,0.12361
1700499610882812,-9.221865,-3.316396,1.137388,0.18218,0.60567,0.15361
1700499610890625,-9.190865,-3.319396,1.128388,0.18618,0.73267,0.20061
1700499610898437,-9.183865,-3.330396,1.135388,0.11318,0.68067,0.15461
1700499610906250,-9.184865,-3.310396,1.137388,0.9918,0.68167,0.16961
1700499610914062,-9.193865,-3.315396,1.138388,0.6582,0.72567,0.18761
1700499610921875,-9.217865,-3.309396,1.171388,0.7582,0.68267,0.20161
1700499610929687,-9.251865,-3.271396,1.187388,0.6182,0.71267,0.23461
1700499610937500,-9.257865,-3.192396,1.228388,0.14582,0.75567,0.28361
1700499610945312,-9.276865,-3.120396,1.241388,0.24982,0.73167,0.24861
1700499610953125,-9.293865,-3.50396,1.205388,0.9782,0.66567,0.7461
1700499610960937,-9.310865,-2.981396,1.174388,0.9882,0.66567,0.2139
1700499610968750,-9.275865,-3.5396,1.160388,0.3318,0.66967,0.10239
1700499610976562,-9.235865,-3.59396,1.151388,0.7518,0.69767,0.14939
1700499610984375,-9.229865,-3.146396,1.142388,0.15818,0.69867,0.14939
1700499610992187,-9.224865,-3.254396,1.149388,0.20018,0.75067,0.7239
1700499611000000,-9.219865,-3.327396,1.110388,0.17818,0.68367,0.2239
1700499611007812,-9.228865,-3.363396,1.70388,0.10918,0.52367,0.1161
1700499611015625,-9.235865,-3.345396,1.65388,0.14418,0.61767,0.17161
1700499611023437,-9.230865,-3.329396,1.76388,0.19818,0.60567,0.16961
1700499611031250,-9.217865,-3.283396,1.115388,0.15018,0.55867,0.15361
1700499611039062,-9.230865,-3.228396,1.99388,0.8218,0.54067,0.20261
1700499611046875,-9.226865,-3.197396,1.92388,0.7918,0.52267,0.18761
1700499611054687,-9.271865,-3.181396,1.72388,0.12718,0.49167,0.18761
1700499611062500,-9.309865,-3.173396,1.56388,0.19618,0.49367,0.21861
1700499611070312,-9.302865,-3.162396,1.74388,0.18018,0.47867,0.20261
1700499611078125,-9.311865,-3.160396,1.68388,0.19218,0.41367,0.17161
1700499611085937,-9.327865,-3.167396,1.86388,0.17518,0.45867,0.25261
1700499611093750,-9.336865,-3.191396,1.72388,0.22818,0.36767,0.33061
1700499611101562,-9.348865,-3.230396,1.79388,0.30818,0.41267,0.37961
1700499611109375,-9.308865,-3.267396,1.113388,0.27418,0.47467,0.34761
1700499611117187,-9.258865,-3.294396,1.111388,0.19218,0.47367,0.34861
1700499611125000,-9.224865,-3.299396,1.113388,0.17718,0.59967,0.36361
1700499611132812,-9.193865,-3.292396,1.142388,0.19618,0.56867,0.39561
1700499611140625,-9.204865,-3.281396,1.153388,0.13918,0.49567,0.39261
1700499611148437,-9.184865,-3.299396,1.153388,0.5618,0.49567,0.31361
1700499611156250,-9.179865,-3.319396,1.137388,0.4382,0.52467,0.29761
1700499611164062,-9.179865,-3.324396,1.128388,0.11082,0.53967,0.26661
1700499611171875,-9.179865,-3.310396,1.151388,0.12082,0.46567,0.21661
1700499611179687,-9.193865,-3.268396,1.199388,0.14782,0.47567,0.12361
1700499611187500,-9.223865,-3.210396,1.210388,0.20882,0.46267,0.12261
1700499611195312,-9.244865,-3.168396,1.248388,0.12782,0.38467,0.9061
1700499611203125,-9.254865,-3.130396,1.226388,0.15982,0.35567,0.3839
1700499611210937,-9.258865,-3.128396,1.205388,0.11482,0.33867,0.5339
1700499611218750,-9.285865,-3.134396,1.183388,0.5582,0.23967,0.2961
1700499611226562,-9.282865,-3.167396,1.167388,0.2082,0.36667,0.2761
1700499611234375,-9.271865,-3.207396,1.153388,0.6882,0.39667,0.12461
1700499611242187,-9.248865,-3.243396,1.167388,0.1418,0.36667,0.12361
1700499611250000,-9.236865,-3.261396,1.144388,0.7882,0.41567,0.15461
1700499611257812,-9.249865,-3.260396,1.101388,0.5982,0.37067,0.18561
1700499611265625,-9.254865,-3.261396,1.99388,0.8182,0.33567,0.17161
1700499611273437,-9.254865,-3.243396,1.99388,0.14382,0.36967,0.9061
1700499611281250,-9.270865,-3.236396,1.140388,0.18182,0.39667,0.9261
1700499611289062,-9.284865,-3.200396,1.140388,0.27582,0.46167,0.7461
1700499611296875,-9.302865,-3.167396,1.185388,0.32482,0.39767,0.13961
1700499611304687,-9.319865,-3.131396,1.194388,0.24382,0.42867,0.18761
1700499611312500,-9.319865,-3.103396,1.205388,0.14882,0.47367,0.23661
1700499611320312,-9.306865,-3.79396,1.226388,0.14882,0.58267,0.22061
1700499611328125,-9.288865,-3.65396,1.232388,0.1618,0.58567,0.25161
1700499611335937,-9.273865,-3.66396,1.208388,0.0,0.48967,0.33161
1700499611343750,-9.283865,-3.97396,1.172388,0.282,0.48967,0.23661
1700499611351562,-9.280865,-3.156396,1.131388,0.0,0.52167,0.31561
1700499611359375,-9.264865,-3.219396,1.142388,0.6318,0.47567,0.23561
1700499611367187,-9.272865,-3.272396,1.102388,0.2518,0.47167,0.22161
1700499611375000,-9.262865,-3.305396,1.86388,0.6718,0.44667,0.21861
1700499611382812,-9.233865,-3.336396,1.88388,0.0,0.49267,0.15461
1700499611390625,-9.228865,-3.338396,1.83388,0.4582,0.38467,0.18661
1700499611398437,-9.239865,-3.334396,1.81388,0.4782,0.42967,0.20261
1700499611406250,-9.235865,-3.334396,1.81388,0.10182,0.39467,0.18861
1700499611414062,-9.249865,-3.334396,1.126388,0.13682,0.44067,0.15761
1700499611421875,-9.271865,-3.309396,1.117388,0.7182,0.42767,0.4461
1700499611429687,-9.297865,-3.265396,1.104388,0.13482,0.31767,0.7661
1700499611437500,-9.300865,-3.205396,1.135388,0.8182,0.47767,0.7461
1700499611445312,-9.272865,-3.141396,1.178388,0.6982,0.45967,0.4461
1700499611453125,-9.256865,-3.85396,1.171388,0.4682,0.52767,0.639
1700499611460937,-9.226865,-3.64396,1.178388,0.11118,0.53967,0.5861
1700499611468750,-9.221865,-3.62396,1.180388,0.19618,0.51167,0.8961
1700499611476562,-9.219865,-3.49396,1.153388,0.17218,0.50667,0.9261
1700499611484375,-9.203865,-3.62396,1.142388,0.33518,0.64767,0.12361
1700499611492187,-9.209865,-3.144396,1.140388,0.35418,0.63567,0.1061
1700499611500000,-9.237865,-3.208396,1.120388,0.34818,0.69367,0.4461
1700499611507812,-9.244865,-3.280396,1.126388,0.29818,0.76667,0.2439
1700499611515625,-9.240865,-3.298396,1.128388,0.22918,0.76167,0.13761
1700499611523437,-9.247865,-3.283396,1.131388,0.19118,0.74267,0.10761
1700499611531250,-9.252865,-3.249396,1.151388,0.17718,0.68167,0.10661
1700499611539062,-9.261865,-3.219396,1.135388,0.18818,0.56867,0.10861
1700499611546875,-9.289865,-3.187396,1.113388,0.17618,0.46267,0.2661
1700499611554687,-9.314865,-3.169396,1.97388,0.18918,0.47767,0.2039
1700499611562500,-9.332865,-3.142396,1.108388,0.14218,0.44767,0.6939
1700499611570312,-9.341865,-3.133396,1.119388,0.13218,0.46667,0.7139
1700499611578125,-9.339865,-3.128396,1.144388,0.27618,0.49667,0.4161
1700499611585937,-9.337865,-3.113396,1.165388,0.35318,0.49167,0.15561
1700499611593750,-9.321865,-3.127396,1.160388,0.46418,0.52167,0.15661
1700499611601562,-9.300865,-3.142396,1.165388,0.42318,0.60467,0.20161
1700499611609375,-9.273865,-3.179396,1.185388,0.49818,0.64767,0.18761
1700499611617187,-9.232865,-3.221396,1.167388,0.45718,0.63667,0.21761
1700499611625000,-9.225865,-3.259396,1.151388,0.45418,0.64967,0.28261
1700499611632812,-9.220865,-3.295396,1.122388,0.43218,0.61467,0.25261
1700499611640625,-9.233865,-3.321396,1.104388,0.41718,0.63167,0.18761
1700499611648437,-9.221865,-3.345396,1.92388,0.25318,0.63067,0.17261
1700499611656250,-9.195865,-3.343396,1.115388,0.17518,0.55367,0.15561
1700499611664062,-9.195865,-3.332396,1.90388,0.19218,0.50667,0.20361
1700499611671875,-9.211865,-3.297396,1.83388,0.17618,0.49367,0.9061
1700499611679687,-9.214865,-3.242396,1.111388,0.10318,0.50467,0.2961
1700499611687500,-9.226865,-3.197396,1.124388,0.5518,0.48867,0.2961
1700499611695312,-9.235865,-3.157396,1.124388,0.19118,0.50967,0.3739
1700499611703125,-9.236865,-3.135396,1.140388,0.17718,0.51067,0.539
1700499611710937,-9.238865,-3.115396,1.146388,0.21118,0.49667,0.5439
1700499611718750,-9.236865,-3.103396,1.167388,0.24418,0.57567,0.5539
1700499611726562,-9.236865,-3.115396,1.167388,0.31718,0.58767,0.13239
1700499611734375,-9.251865,-3.161396,1.162388,0.45518,0.57867,0.13539
1700499611742187,-9.252865,-3.236396,1.165388,0.41818,0.52767,0.10139
1700499611750000,-9.246865,-3.314396,1.153388,0.41818,0.55867,0.5339
1700499611757812,-9.255865,-3.360396,1.97388,0.40118,0.47967,0.5339
1700499611765625,-9.259865,-3.378396,1.79388,0.40118,0.47867,0.2139
1700499611773437,-9.242865,-3.341396,1.117388,0.25318,0.49367,0.8439
1700499611781250,-9.229865,-3.299396,1.97388,0.17518,0.46267,0.539
1700499611789062,-9.251865,-3.272396,1.56388,0.17618,0.38467,0.1061
1700499611796875,-9.287865,-3.278396,1.40388,0.19618,0.41867,0.2239
1700499611804687,-9.328865,-3.271396,1.43388,0.13918,0.42967,0.5239
1700499611812500,-9.340865,-3.237396,1.59388,0.13918,0.42967,0.2039
1700499611820312,-9.337865,-3.197396,1.74388,0.16518,0.48267,0.3939
1700499611828125,-9.314865,-3.167396,1.88388,0.19018,0.47467,0.15661
1700499611835937,-9.275865,-3.169396,1.122388,0.17818,0.58767,0.10661
1700499611843750,-9.242865,-3.201396,1.167388,0.23818,0.61667,0.4361
1700499611851562,-9.191865,-3.257396,1.174388,0.22718,0.60567,0.2561
1700499611859375,-9.171865,-3.304396,1.156388,0.18918,0.52367,0.439
1700499611867187,-9.159865,-3.338396,1.138388,0.19818,0.54967,0.1461
1700499611875000,-9.161865,-3.349396,1.133388,0.17218,0.56867,0.6061
1700499611882812,-9.181865,-3.372396,1.147388,0.9418,0.54067,0.539
1700499611890625,-9.205865,-3.387396,1.144388,0.1582,0.55667,0.4261
1700499611898437,-9.194865,-3.399396,1.126388,0.6482,0.52567,0.539
1700499611906250,-9.146865,-3.422396,1.128388,0.9982,0.54067,0.2139
1700499611914062,-9.90865,-3.438396,1.142388,0.26082,0.52467,0.2139
1700499611921875,-9.66865,-3.416396,1.142388,0.16482,0.52567,0.10139
1700499611929687,-9.73865,-3.392396,1.149388,0.25982,0.52667,0.10139
1700499611937500,-9.107865,-3.367396,1.167388,0.34382,0.44567,0.8439
1700499611945312,-9.143865,-3.322396,1.151388,0.40482,0.44867,0.13339
1700499611953125,-9.195865,-3.290396,1.160388,0.48382,0.40267,0.10239
1700499611960937,-9.247865,-3.285396,1.158388,0.51382,0.37267,0.16739
1700499611968750,-9.255865,-3.302396,1.158388,0.38682,0.35667,0.15039
1700499611976562,-9.237865,-3.331396,1.176388,0.41882,0.27867,0.16639
1700499611984375,-9.229865,-3.343396,1.151388,0.44882,0.37867,0.14639
1700499611992187,-9.215865,-3.341396,1.129388,0.58382,0.24467,0.16539
1700499612000000,-9.204865,-3.324396,1.120388,0.58882,0.20967,0.14739
1700499612007812,-9.191865,-3.286396,1.79388,0.59982,0.22967,0.16539
1700499612015625,-9.225865,-3.261396,1.101388,0.60182,0.21267,0.14839
1700499612023437,-9.255865,-3.216396,1.88388,0.58382,0.21367,0.18139
1700499612031250,-9.260865,-3.185396,1.52388,0.56982,0.22767,0.16439
1700499612039062,-9.257865,-3.172396,1.20388,0.58282,0.19767,0.14939
1700499612046875,-9.309865,-3.169396,0.966388,0.45982,0.13267,0.14739
1700499612054687,-9.371865,-3.197396,0.957388,0.32482,0.21367,0.16539
1700499612062500,-9.398865,-3.214396,0.955388,0.34182,0.24467,0.14939
1700499612070312,-9.426865,-3.240396,0.966388,0.25882,0.29367,0.16639
1700499612078125,-9.440865,-3.269396,0.964388,0.11982,0.47567,0.5139
1700499612085937,-9.397865,-3.279396,1.32388,0.3782,0.50667,0.1261
1700499612093750,-9.343865,-3.261396,1.74388,0.4718,0.60167,0.10761
1700499612101562,-9.310865,-3.282396,1.81388,0.7718,0.61367,0.28461
1700499612109375,-9.260865,-3.301396,1.120388,0.18918,0.69267,0.22061
1700499612117187,-9.215865,-3.343396,1.160388,0.27518,0.69367,0.34761
1700499612125000,-9.179865,-3.355396,1.153388,0.33718,0.63067,0.29961
1700499612132812,-9.164865,-3.335396,1.133388,0.18818,0.58167,0.26961
1700499612140625,-9.155865,-3.324396,1.133388,0.18918,0.64567,0.18861
1700499612148437,-9.170865,-3.310396,1.88388,0.17918,0.50967,0.20261
1700499612156250,-9.179865,-3.304396,1.77388,0.19018,0.55467,0.9161
1700499612164062,-9.209865,-3.299396,1.52388,0.15318,0.47467,0.339
1700499612171875,-9.204865,-3.306396,1.52388,0.16818,0.56667,0.7761
1700499612179687,-9.225865,-3.290396,1.77388,0.7518,0.52167,0.7661
1700499612187500,-9.245865,-3.299396,1.104388,0.5918,0.53767,0.9261
1700499612195312,-9.263865,-3.263396,1.83388,0.15518,0.45867,0.7661
1700499612203125,-9.265865,-3.251396,1.81388,0.11418,0.55667,0.13861
1700499612210937,-9.256865,-3.265396,1.115388,0.20718,0.61667,0.13961
1700499612218750,-9.236865,-3.294396,1.144388,0.17318,0.63067,0.17261
1700499612226562,-9.228865,-3.334396,1.138388,0.18718,0.67567,0.17361
1700499612234375,-9.208865,-3.361396,1.144388,0.17118,0.73767,0.23761
1700499612242187,-9.209865,-3.399396,1.124388,0.23818,0.59867,0.20461
1700499612250000,-9.209865,-3.414396,1.133388,0.18818,0.55067,0.22061
1700499612257812,-9.221865,-3.388396,1.147388,0.17218,0.62867,0.25361
1700499612265625,-9.249865,-3.328396,1.160388,0.16918,0.64267,0.22161
1700499612273437,-9.257865,-3.263396,1.160388,0.21718,0.59467,0.27061
1700499612281250,-9.278865,-3.188396,1.129388,0.21418,0.67167,0.22361
1700499612289062,-9.289865,-3.168396,1.133388,0.21818,0.62767,0.25361
1700499612296875,-9.264865,-3.194396,1.144388,0.31718,0.65967,0.23761
1700499612304687,-9.226865,-3.222396,1.160388,0.49418,0.75367,0.31761
1700499612312500,-9.189865,-3.281396,1.142388,0.58018,0.72667,0.25161
1700499612320312,-9.163865,-3.353396,1.142388,0.45318,0.75867,0.25061
1700499612328125,-9.135865,-3.426396,1.149388,0.42018,0.80367,0.36361
1700499612335937,-9.130865,-3.480396,1.140388,0.43318,0.80067,0.42861
1700499612343750,-9.132865,-3.490396,1.149388,0.35618,0.80267,0.42761
1700499612351562,-9.137865,-3.466396,1.158388,0.20618,0.67467,0.41361
1700499612359375,-9.176865,-3.424396,1.178388,0.13618,0.65667,0.35061
1700499612367187,-9.199865,-3.364396,1.167388,0.5782,0.53067,0.36761
1700499612375000,-9.206865,-3.341396,1.153388,0.8382,0.45867,0.23661
1700499612382812,-9.175865,-3.330396,1.156388,0.6482,0.47667,0.18661
1700499612390625,-9.157865,-3.316396,1.172388,0.10182,0.45767,0.20461
1700499612398437,-9.148865,-3.304396,1.171388,0.20982,0.50767,0.15561
1700499612406250,-9.171865,-3.280396,1.178388,0.22782,0.52367,0.9061
1700499612414062,-9.212865,-3.255396,1.185388,0.32982,0.41067,0.6061
1700499612421875,-9.275865,-3.236396,1.165388,0.23382,0.40967,0.9361
1700499612429687,-9.348865,-3.264396,1.124388,0.11982,0.47367,0.9261
1700499612437500,-9.355865,-3.302396,1.124388,0.12382,0.61067,0.14261
1700499612445312,-9.331865,-3.337396,1.135388,0.22382,0.58667,0.21861
1700499612453125,-9.304865,-3.342396,1.142388,0.14782,0.58467,0.18761
1700499612460937,-9.306865,-3.355396,1.154388,0.10082,0.67667,0.23661
1700499612468750,-9.318865,-3.324396,1.178388,0.3882,0.73767,0.22161
1700499612476562,-9.317865,-3.260396,1.190388,0.6982,0.65867,0.30161
1700499612484375,-9.298865,-3.185396,1.194388,0.3682,0.58367,0.18861
1700499612492187,-9.283865,-3.137396,1.203388,0.10718,0.64367,0.26961
1700499612500000,-9.263865,-3.84396,1.187388,0.22318,0.67767,0.21961
1700499612507812,-9.252865,-3.77396,1.167388,0.24218,0.69467,0.25161
1700499612515625,-9.236865,-3.117396,1.160388,0.40918,0.77567,0.32961
1700499612523437,-9.216865,-3.151396,1.183388,0.39618,0.87567,0.38261
1700499612531250,-9.204865,-3.198396,1.199388,0.55718,0.89167,0.41461
1700499612539062,-9.212865,-3.232396,1.185388,0.60218,0.83667,0.41061
1700499612546875,-9.225865,-3.292396,1.192388,0.64318,0.87767,0.47661
1700499612554687,-9.230865,-3.318396,1.189388,0.58518,0.92967,0.45861
1700499612562500,-9.197865,-3.330396,1.180388,0.43818,0.91267,0.47561
1700499612570312,-9.188865,-3.341396,1.187388,0.45918,0.91467,0.48961
1700499612578125,-9.159865,-3.319396,1.216388,0.40818,0.88267,0.45861
1700499612585937,-9.153865,-3.309396,1.210388,0.43418,0.87967,0.44461
1700499612593750,-9.159865,-3.331396,1.196388,0.40418,0.84967,0.42761
1700499612601562,-9.170865,-3.337396,1.196388,0.35918,0.83667,0.41061
1700499612609375,-9.183865,-3.339396,1.153388,0.39118,0.72567,0.45861
1700499612617187,-9.206865,-3.332396,1.140388,0.34018,0.69367,0.41161
1700499612625000,-9.197865,-3.305396,1.137388,0.23118,0.71167,0.44261
1700499612632812,-9.204865,-3.281396,1.140388,0.27718,0.69567,0.36261
1700499612640625,-9.231865,-3.270396,1.124388,0.19318,0.55267,0.29961
1700499612648437,-9.251865,-3.271396,1.113388,0.24618,0.61867,0.29761
1700499612656250,-9.253865,-3.296396,1.108388,0.21118,0.63167,0.34761
1700499612664062,-9.244865,-3.316396,1.104388,0.19318,0.55267,0.31561
1700499612671875,-9.228865,-3.314396,1.115388,0.17718,0.66367,0.23561
1700499612679687,-9.231865,-3.321396,1.129388,0.23418,0.65867,0.28561
1700499612687500,-9.229865,-3.310396,1.129388,0.17418,0.56767,0.25261
1700499612695312,-9.252865,-3.285396,1.147388,0.23518,0.53367,0.28561
1700499612703125,-9.268865,-3.246396,1.172388,0.16718,0.53067,0.31861
1700499612710937,-9.270865,-3.243396,1.176388,0.28018,0.59367,0.28661
1700499612718750,-9.250865,-3.230396,1.167388,0.29918,0.62767,0.26961
1700499612726562,-9.219865,-3.181396,1.167388,0.17918,0.64867,0.26661
1700499612734375,-9.204865,-3.153396,1.181388,0.27018,0.66167,0.23661
1700499612742187,-9.225865,-3.135396,1.181388,0.36718,0.64567,0.25261
1700499612750000,-9.256865,-3.123396,1.171388,0.36818,0.70967,0.23561
1700499612757812,-9.259865,-3.121396,1.196388,0.39918,0.72367,0.23661
1700499612765625,-9.287865,-3.138396,1.194388,0.48418,0.71067,0.31561
1700499612773437,-9.305865,-3.149396,1.183388,0.57818,0.72267,0.36461
1700499612781250,-9.282865,-3.180396,1.192388,0.61818,0.74367,0.39461
1700499612789062,-9.262865,-3.196396,1.176388,0.69818,0.72667,0.44261
1700499612796875,-9.250865,-3.210396,1.185388,0.64318,0.84667,0.46061
1700499612804687,-9.246865,-3.199396,1.212388,0.53418,0.88067,0.49161
1700499612812500,-9.233865,-3.195396,1.230388,0.53418,0.88067,0.50761
1700499612820312,-9.212865,-3.213396,1.235388,0.53418,0.86467,0.52361
1700499612828125,-9.217865,-3.206396,1.232388,0.54618,0.89367,0.50861
1700499612835937,-9.215865,-3.170396,1.246388,0.42318,0.78767,0.49061
1700499612843750,-9.215865,-3.157396,1.232388,0.42618,0.71167,0.49061
1700499612851562,-9.244865,-3.168396,1.203388,0.40218,0.67567,0.46061
1700499612859375,-9.255865,-3.190396,1.172388,0.46518,0.54967,0.44561
1700499612867187,-9.259865,-3.243396,1.111388,0.36918,0.58067,0.49361
1700499612875000,-9.225865,-3.274396,1.106388,0.35818,0.53767,0.49161
1700499612882812,-9.242865,-3.290396,1.81388,0.37018,0.56667,0.44461
1700499612890625,-9.267865,-3.298396,1.77388,0.25818,0.47267,0.49261
1700499612898437,-9.260865,-3.296396,1.81388,0.25118,0.49467,0.45761
1700499612906250,-9.271865,-3.313396,1.74388,0.19718,0.42867,0.45961
1700499612914062,-9.262865,-3.307396,1.86388,0.18318,0.47567,0.50661
1700499612921875,-9.269865,-3.285396,1.83388,0.21018,0.42567,0.46061
1700499612929687,-9.267865,-3.252396,1.86388,0.19818,0.35067,0.45961
1700499612937500,-9.277865,-3.202396,1.97388,0.16918,0.41567,0.44161
1700499612945312,-9.291865,-3.167396,1.104388,0.24518,0.55267,0.45961
1700499612953125,-9.307865,-3.140396,1.124388,0.20018,0.49367,0.42561
1700499612960937,-9.303865,-3.130396,1.102388,0.20718,0.56467,0.44561
1700499612968750,-9.290865,-3.121396,1.149388,0.19418,0.58367,0.39561
1700499612976562,-9.266865,-3.101396,1.169388,0.17518,0.62867,0.39661
1700499612984375,-9.245865,-3.104396,1.180388,0.28918,0.67767,0.31561
1700499612992187,-9.254865,-3.117396,1.178388,0.34918,0.72167,0.31761
1700499613000000,-9.259865,-3.108396,1.187388,0.34918,0.75367,0.28561
1700499613007812,-9.254865,-3.108396,1.176388,0.46418,0.73967,0.26861
1700499613015625,-9.279865,-3.135396,1.163388,0.50818,0.75267,0.22161
1700499613023437,-9.287865,-3.161396,1.156388,0.56918,0.73467,0.27161
1700499613031250,-9.340865,-3.188396,1.138388,0.48318,0.78867,0.28361
1700499613039062,-9.340865,-3.215396,1.147388,0.58018,0.81967,0.26761
1700499613046875,-9.324865,-3.200396,1.162388,0.58118,0.75667,0.31561
1700499613054687,-9.309865,-3.167396,1.163388,0.59318,0.75467,0.31661
1700499613062500,-9.301865,-3.154396,1.144388,0.70618,0.78567,0.30061
1700499613070312,-9.285865,-3.163396,1.144388,0.68818,0.79967,0.34961
1700499613078125,-9.265865,-3.152396,1.176388,0.71018,0.78767,0.36361
1700499613085937,-9.255865,-3.163396,1.176388,0.74318,0.77267,0.41161
1700499613093750,-9.253865,-3.179396,1.151388,0.67918,0.74067,0.42761
1700499613101562,-9.255865,-3.181396,1.153388,0.67918,0.78767,0.44361
1700499613109375,-9.249865,-3.184396,1.181388,0.67118,0.82967,0.43061
1700499613117187,-9.244865,-3.206396,1.187388,0.62318,0.84467,0.44661
1700499613125000,-9.224865,-3.215396,1.174388,0.55918,0.84667,0.36561
1700499613132812,-9.233865,-3.210396,1.194388,0.49718,0.81567,0.41261
1700499613140625,-9.223865,-3.236396,1.185388,0.47618,0.77767,0.34461
1700499613148437,-9.207865,-3.235396,1.176388,0.44018,0.72767,0.33061
1700499613156250,-9.191865,-3.252396,1.158388,0.36118,0.72867,0.34561
1700499613164062,-9.203865,-3.255396,1.140388,0.27318,0.67767,0.34761
1700499613171875,-9.218865,-3.237396,1.129388,0.19418,0.66367,0.28361
1700499613179687,-9.226865,-3.195396,1.149388,0.17118,0.67567,0.20561
1700499613187500,-9.235865,-3.164396,1.156388,0.20718,0.64667,0.18761
1700499613195312,-9.249865,-3.159396,1.140388,0.21918,0.72267,0.20561
1700499613203125,-9.244865,-3.143396,1.198388,0.19318,0.75867,0.13861
1700499613210937,-9.245865,-3.122396,1.192388,0.18418,0.75467,0.1261
1700499613218750,-9.251865,-3.121396,1.201388,0.25818,0.77667,0.4161
1700499613226562,-9.231865,-3.139396,1.203388,0.23918,0.78867,0.10761
1700499613234375,-9.215865,-3.168396,1.185388,0.20318,0.70967,0.2861
1700499613242187,-9.221865,-3.179396,1.178388,0.25618,0.72867,0.539
1700499613250000,-9.246865,-3.203396,1.171388,0.20618,0.68067,0.3739
1700499613257812,-9.259865,-3.203396,1.137388,0.19818,0.62367,0.3939
1700499613265625,-9.273865,-3.203396,1.104388,0.23718,0.69467,0.2761
1700499613273437,-9.286865,-3.213396,1.110388,0.21018,0.66767,0.961
1700499613281250,-9.301865,-3.242396,1.101388,0.19318,0.65067,0.9061
1700499613289062,-9.317865,-3.243396,1.113388,0.16518,0.61267,0.139
1700499613296875,-9.338865,-3.206396,1.120388,0.21918,0.70867,0.7661
1700499613304687,-9.318865,-3.169396,1.117388,0.24718,0.72267,0.2961
1700499613312500,-9.303865,-3.161396,1.126388,0.17018,0.62967,0.9261
1700499613320312,-9.302865,-3.187396,1.126388,0.28218,0.69267,0.7661
1700499613328125,-9.263865,-3.216396,1.140388,0.32218,0.72867,0.5861
1700499613335937,-9.241865,-3.254396,1.149388,0.19018,0.77167,0.17161
1700499613343750,-9.200865,-3.310396,1.158388,0.18918,0.72567,0.7561
1700499613351562,-9.197865,-3.324396,1.172388,0.15318,0.72267,0.9361
1700499613359375,-9.179865,-3.308396,1.187388,0.12518,0.70967,0.9161
1700499613367187,-9.180865,-3.286396,1.190388,0.13918,0.72367,0.12461
1700499613375000,-9.187865,-3.278396,1.176388,0.5782,0.65867,0.12561
1700499613382812,-9.228865,-3.259396,1.201388,0.7482,0.58167,0.4561
1700499613390625,-9.252865,-3.252396,1.178388,0.9082,0.61267,0.2961
1700499613398437,-9.237865,-3.235396,1.167388,0.9182,0.59767,0.3439
1700499613406250,-9.213865,-3.209396,1.181388,0.10982,0.66067,0.16239
1700499613414062,-9.197865,-3.226396,1.192388,0.4282,0.64667,0.16339
1700499613421875,-9.167865,-3.264396,1.194388,0.8982,0.74167,0.14739
1700499613429687,-9.162865,-3.296396,1.194388,0.5882,0.67767,0.13139
1700499613437500,-9.171865,-3.316396,1.187388,0.4682,0.70567,0.11339
1700499613445312,-9.184865,-3.344396,1.187388,0.7482,0.72367,0.8339
1700499613453125,-9.222865,-3.348396,1.194388,0.7682,0.76967,0.5039
1700499613460937,-9.230865,-3.372396,1.190388,0.12482,0.72267,0.3439
1700499613468750,-9.246865,-3.389396,1.210388,0.33282,0.72367,0.6739
1700499613476562,-9.232865,-3.385396,1.282388,0.34782,0.69167,0.2961
1700499613484375,-9.177865,-3.333396,1.269388,0.39982,0.57967,0.1461
1700499613492187,-9.127865,-3.245396,1.262388,0.49082,0.49067,0.6739
1700499613500000,-9.131865,-3.116396,1.239388,0.45282,0.37067,0.13439
1700499613507812,-9.198865,-3.23396,1.210388,0.39782,0.20867,0.16339
1700499613515625,-9.278865,-2.995396,1.194388,0.41182,0.22567,0.14739
1700499613523437,-9.366865,-2.987396,1.190388,0.34482,0.21167,0.16439
1700499613531250,-9.417865,-3.6396,1.149388,0.17382,0.34767,0.14639
1700499613539062,-9.419865,-3.64396,1.154388,0.12882,0.54867,0.11339
1700499613546875,-9.402865,-3.144396,1.163388,0.5782,0.63067,0.6739
1700499613554687,-9.373865,-3.255396,1.174388,0.3618,0.76967,0.3439
1700499613562500,-9.340865,-3.330396,1.201388,0.9218,0.78767,0.10761
1700499613570312,-9.308865,-3.375396,1.199388,0.19218,0.75767,0.17161
1700499613578125,-9.275865,-3.353396,1.217388,0.15818,0.75567,0.20361
1700499613585937,-9.217865,-3.330396,1.228388,0.10918,0.74067,0.12361
1700499613593750,-9.162865,-3.311396,1.246388,0.9318,0.67867,0.12361
1700499613601562,-9.146865,-3.276396,1.250388,0.4518,0.60067,0.9161
1700499613609375,-9.138865,-3.211396,1.241388,0.11018,0.55667,0.5339
1700499613617187,-9.143865,-3.185396,1.228388,0.6618,0.54267,0.2239
1700499613625000,-9.180865,-3.169396,1.221388,0.8818,0.58367,0.1261
1700499613632812,-9.204865,-3.135396,1.221388,0.7718,0.58767,0.6939
1700499613640625,-9.223865,-3.108396,1.237388,0.1218,0.52367,0.1161
1700499613648437,-9.265865,-3.117396,1.255388,0.18518,0.53767,0.6739
1700499613656250,-9.291865,-3.149396,1.250388,0.11118,0.61967,0.5339
1700499613664062,-9.293865,-3.171396,1.273388,0.14718,0.68267,0.12161
1700499613671875,-9.268865,-3.216396,1.264388,0.19018,0.72567,0.15561
1700499613679687,-9.230865,-3.264396,1.266388,0.13818,0.75367,0.20561
1700499613687500,-9.189865,-3.272396,1.284388,0.15118,0.76267,0.18461
1700499613695312,-9.182865,-3.280396,1.289388,0.15718,0.70767,0.23661
1700499613703125,-9.193865,-3.273396,1.282388,0.16018,0.72567,0.23561
1700499613710937,-9.194865,-3.240396,1.300388,0.18318,0.71967,0.20661
1700499613718750,-9.226865,-3.204396,1.300388,0.17418,0.67867,0.15561
1700499613726562,-9.258865,-3.159396,1.271388,0.19018,0.61867,0.3739
1700499613734375,-9.258865,-3.159396,1.232388,0.17318,0.63267,0.1161
1700499613742187,-9.251865,-3.175396,1.233388,0.21618,0.72367,0.339
1700499613750000,-9.219865,-3.228396,1.228388,0.20518,0.74167,0.9161
1700499613757812,-9.191865,-3.295396,1.253388,0.33718,0.75767,0.18761
1700499613765625,-9.163865,-3.340396,1.251388,0.22118,0.72367,0.18861
1700499613773437,-9.160865,-3.375396,1.248388,0.29018,0.69467,0.26761
1700499613781250,-9.160865,-3.412396,1.230388,0.23118,0.63667,0.21761
1700499613789062,-9.162865,-3.430396,1.230388,0.6618,0.64867,0.25061
1700499613796875,-9.173865,-3.410396,1.255388,0.5118,0.57067,0.29861
1700499613804687,-9.187865,-3.392396,1.257388,0.4182,0.44867,0.21761
1700499613812500,-9.219865,-3.363396,1.264388,0.11482,0.42867,0.17161
1700499613820312,-9.221865,-3.341396,1.291388,0.32382,0.47667,0.12261
1700499613828125,-9.219865,-3.318396,1.286388,0.30082,0.48267,0.861
1700499613835937,-9.181865,-3.346396,1.266388,0.32182,0.44967,0.3839
1700499613843750,-9.120865,-3.375396,1.280388,0.37182,0.46367,0.3739
1700499613851562,-9.86865,-3.385396,1.307388,0.43682,0.52567,0.6939
1700499613859375,-9.82865,-3.383396,1.325388,0.45982,0.45767,0.1261
1700499613867187,-9.87865,-3.367396,1.266388,0.59682,0.30567,0.9061
1700499613875000,-9.120865,-3.344396,1.262388,0.57582,0.20067,0.739
1700499613882812,-9.159865,-3.309396,1.264388,0.63282,0.22667,0.3639
1700499613890625,-9.195865,-3.272396,1.230388,0.72582,0.18267,0.7039
1700499613898437,-9.264865,-3.214396,1.226388,0.74482,0.14867,0.5239
1700499613906250,-9.320865,-3.169396,1.248388,0.68182,0.19667,0.10039
1700499613914062,-9.356865,-3.166396,1.248388,0.56882,0.21267,0.16439
1700499613921875,-9.359865,-3.171396,1.266388,0.60582,0.24067,0.14739
1700499613929687,-9.334865,-3.191396,1.266388,0.47282,0.29067,0.16439
1700499613937500,-9.300865,-3.213396,1.269388,0.37382,0.30767,0.16539
1700499613945312,-9.266865,-3.214396,1.287388,0.34182,0.33867,0.14939
1700499613953125,-9.259865,-3.203396,1.298388,0.26382,0.50867,0.13239
1700499613960937,-9.291865,-3.178396,1.305388,0.13682,0.47667,0.14839
1700499613968750,-9.312865,-3.138396,1.275388,0.5382,0.58667,0.8439
1700499613976562,-9.321865,-3.111396,1.241388,0.11518,0.54467,0.7139
1700499613984375,-9.306865,-3.98396,1.246388,0.13918,0.64867,0.5239
1700499613992187,-9.299865,-3.101396,1.242388,0.25018,0.72567,0.6739
1700499614000000,-9.276865,-3.99396,1.223388,0.41718,0.71367,0.6939
1700499614007812,-9.265865,-3.99396,1.228388,0.38318,0.72867,0.5339
1700499614015625,-9.261865,-3.104396,1.208388,0.63418,0.70867,0.6639
1700499614023437,-9.254865,-3.144396,1.192388,0.66418,0.78467,0.3339
1700499614031250,-9.251865,-3.179396,1.192388,0.73718,0.74267,0.439
1700499614039062,-9.229865,-3.195396,1.219388,0.81218,0.77067,0.1361
1700499614046875,-9.217865,-3.204396,1.242388,0.87818,0.81567,0.18961
1700499614054687,-9.214865,-3.228396,1.223388,0.89918,0.83367,0.25261
1700499614062500,-9.217865,-3.217396,1.223388,0.90118,0.86567,0.26761
1700499614070312,-9.192865,-3.209396,1.196388,0.96518,0.91067,0.41261
1700499614078125,-9.154865,-3.215396,1.210388,0.95818,0.94767,0.40961
1700499614085937,-9.120865,-3.207396,1.253388,0.95618,0.83567,0.47461
1700499614093750,-9.150865,-3.210396,1.223388,0.96218,0.82967,0.49461
1700499614101562,-9.188865,-3.207396,1.248388,0.82118,0.78567,0.44461
1700499614109375,-9.199865,-3.220396,1.226388,0.75618,0.73867,0.39661
1700499614117187,-9.216865,-3.272396,1.214388,0.72318,0.78567,0.38061
1700499614125000,-9.191865,-3.322396,1.226388,0.68918,0.75367,0.36561
1700499614132812,-9.160865,-3.390396,1.225388,0.65218,0.71367,0.34561
1700499614140625,-9.124865,-3.422396,1.271388,0.66218,0.72567,0.33161
1700499614148437,-9.112865,-3.456396,1.264388,0.49718,0.53667,0.25261
1700499614156250,-9.128865,-3.480396,1.235388,0.46618,0.53867,0.20361
1700499614164062,-9.134865,-3.470396,1.250388,0.31018,0.44667,0.26661
1700499614171875,-9.157865,-3.470396,1.223388,0.17718,0.25767,0.18761
1700499614179687,-9.182865,-3.456396,1.235388,0.3318,0.21267,0.9061
1700499614187500,-9.213865,-3.449396,1.232388,0.7682,0.23067,0.5761
1700499614195312,-9.231865,-3.416396,1.255388,0.7782,0.18467,0.3839
1700499614203125,-9.246865,-3.358396,1.264388,0.13182,0.11967,0.10139
1700499614210937,-9.253865,-3.314396,1.235388,0.23182,0.11667,0.5139
1700499614218750,-9.227865,-3.315396,1.257388,0.28482,0.16067,0.9839
1700499614226562,-9.166865,-3.319396,1.266388,0.32282,0.23067,0.10239
1700499614234375,-9.121865,-3.329396,1.271388,0.32282,0.21467,0.8639
1700499614242187,-9.130865,-3.344396,1.259388,0.30982,0.22767,0.6839
1700499614250000,-9.166865,-3.331396,1.264388,0.34182,0.27467,0.5239
1700499614257812,-9.247865,-3.285396,1.282388,0.34382,0.19567,0.5239
1700499614265625,-9.348865,-3.254396,1.277388,0.34782,0.23367,0.2461
1700499614273437,-9.416865,-3.225396,1.280388,0.32582,0.21167,0.6839
1700499614281250,-9.412865,-3.205396,1.266388,0.32782,0.22667,0.5239
1700499614289062,-9.385865,-3.226396,1.235388,0.34682,0.20967,0.11539
1700499614296875,-9.318865,-3.277396,1.241388,0.28982,0.40367,0.13439
1700499614304687,-9.246865,-3.345396,1.253388,0.29182,0.49467,0.3739
1700499614312500,-9.196865,-3.381396,1.280388,0.26282,0.55467,0.439
1700499614320312,-9.183865,-3.399396,1.309388,0.27582,0.57067,0.7561
1700499614328125,-9.185865,-3.397396,1.354388,0.19582,0.58667,0.5961
1700499614335937,-9.170865,-3.364396,1.386388,0.22982,0.61567,0.10761
1700499614343750,-9.152865,-3.317396,1.379388,0.16382,0.55567,0.5861
1700499614351562,-9.155865,-3.298396,1.341388,0.24282,0.52367,0.10761
1700499614359375,-9.178865,-3.255396,1.298388,0.13182,0.47567,0.12361
1700499614367187,-9.181865,-3.220396,1.280388,0.8182,0.47767,0.7461
1700499614375000,-9.183865,-3.213396,1.257388,0.9782,0.46167,0.9061
1700499614382812,-9.190865,-3.206396,1.235388,0.19482,0.47767,0.4261
1700499614390625,-9.207865,-3.219396,1.216388,0.17282,0.43467,0.8861
1700499614398437,-9.237865,-3.208396,1.212388,0.13482,0.42867,0.1939
1700499614406250,-9.230865,-3.209396,1.214388,0.5782,0.51567,0.2439
1700499614414062,-9.245865,-3.205396,1.212388,0.7682,0.57667,0.5539
1700499614421875,-9.259865,-3.232396,1.219388,0.3218,0.57267,0.4261
1700499614429687,-9.266865,-3.243396,1.237388,0.7718,0.55467,0.4361
1700499614437500,-9.270865,-3.227396,1.235388,0.11118,0.60167,0.10761
1700499614445312,-9.259865,-3.223396,1.248388,0.10818,0.64767,0.2761
1700499614453125,-9.250865,-3.203396,1.257388,0.22418,0.61767,0.9161
1700499614460937,-9.269865,-3.181396,1.280388,0.30418,0.61867,0.1061
1700499614468750,-9.278865,-3.158396,1.259388,0.46818,0.66867,0.2239
1700499614476562,-9.271865,-3.172396,1.255388,0.54718,0.66767,0.5339
1700499614484375,-9.235865,-3.192396,1.232388,0.64018,0.64967,0.6839
1700499614492187,-9.191865,-3.246396,1.185388,0.70818,0.66767,0.5339
1700499614500000,-9.166865,-3.307396,1.149388,0.63718,0.56867,0.3539
1700499614507812,-9.157865,-3.324396,1.110388,0.64118,0.67967,0.5961
1700499614515625,-9.161865,-3.333396,1.126388,0.71018,0.72867,0.12261
1700499614523437,-9.177865,-3.315396,1.129388,0.69118,0.64867,0.15561
1700499614531250,-9.200865,-3.293396,1.142388,0.70718,0.74167,0.20361
1700499614539062,-9.204865,-3.305396,1.149388,0.63318,0.71367,0.24961
1700499614546875,-9.199865,-3.363396,1.180388,0.71118,0.74367,0.23461
1700499614554687,-9.185865,-3.390396,1.230388,0.64418,0.67767,0.31561
1700499614562500,-9.158865,-3.409396,1.237388,0.47518,0.68867,0.28661
1700499614570312,-9.142865,-3.433396,1.244388,0.41918,0.69267,0.36361
1700499614578125,-9.115865,-3.442396,1.257388,0.32318,0.64767,0.26761
1700499614585937,-9.76865,-3.454396,1.271388,0.20918,0.63267,0.18761
1700499614593750,-9.54865,-3.456396,1.262388,0.13318,0.44867,0.20161
1700499614601562,-9.47865,-3.454396,1.255388,0.4682,0.41567,0.13861
1700499614609375,-9.86865,-3.447396,1.230388,0.6582,0.24267,0.7561
1700499614617187,-9.124865,-3.438396,1.210388,0.34282,0.22567,0.1161
1700499614625000,-9.144865,-3.442396,1.194388,0.35582,0.27567,0.2139
1700499614632812,-9.176865,-3.426396,1.201388,0.37882,0.23867,0.2961
1700499614640625,-9.193865,-3.447396,1.185388,0.45282,0.22867,0.539
1700499614648437,-9.222865,-3.454396,1.176388,0.54982,0.19467,0.10761
1700499614656250,-9.193865,-3.461396,1.187388,0.68082,0.16267,0.12361
1700499614664062,-9.168865,-3.470396,1.192388,0.79482,0.14767,0.2761
1700499614671875,-9.159865,-3.450396,1.232388,0.80982,0.21167,0.5239
1700499614679687,-9.145865,-3.411396,1.233388,0.89582,0.6767,0.5139
1700499614687500,-9.185865,-3.384396,1.194388,0.84382,0.767,0.10039
1700499614695312,-9.217865,-3.363396,1.181388,0.93782,0.633,0.6939
1700499614703125,-9.268865,-3.342396,1.187388,0.101782,0.1067,0.16539
1700499614710937,-9.322865,-3.319396,1.194388,0.96982,0.533,0.14939
1700499614718750,-9.343865,-3.288396,1.203388,0.90682,0.2467,0.16539
1700499614726562,-9.365865,-3.288396,1.185388,0.82282,0.10567,0.15039
1700499614734375,-9.371865,-3.259396,1.183388,0.69682,0.10267,0.8439
1700499614742187,-9.351865,-3.231396,1.178388,0.60182,0.16367,0.5239
1700499614750000,-9.322865,-3.205396,1.185388,0.60382,0.20967,0.6739
1700499614757812,-9.300865,-3.205396,1.212388,0.42682,0.24067,0.5139
1700499614765625,-9.295865,-3.207396,1.217388,0.33982,0.21267,0.3739
1700499614773437,-9.298865,-3.200396,1.217388,0.29382,0.36767,0.1161
1700499614781250,-9.302865,-3.200396,1.208388,0.25882,0.52367,0.12361
1700499614789062,-9.297865,-3.214396,1.239388,0.10182,0.52167,0.12461
1700499614796875,-9.288865,-3.247396,1.235388,0.7082,0.55067,0.20561
1700499614804687,-9.287865,-3.282396,1.228388,0.6482,0.66367,0.23561
1700499614812500,-9.276865,-3.287396,1.251388,0.7518,0.69067,0.28561
1700499614820312,-9.261865,-3.272396,1.260388,0.17618,0.70867,0.34861
1700499614828125,-9.250865,-3.241396,1.271388,0.17218,0.70567,0.33361
1700499614835937,-9.217865,-3.244396,1.287388,0.18518,0.73667,0.26961
1700499614843750,-9.167865,-3.238396,1.289388,0.27018,0.80067,0.28461
1700499614851562,-9.122865,-3.230396,1.282388,0.24018,0.87967,0.39661
1700499614859375,-9.111865,-3.239396,1.284388,0.36818,0.75367,0.34861
1700499614867187,-9.123865,-3.212396,1.275388,0.33818,0.72367,0.36461
1700499614875000,-9.139865,-3.185396,1.244388,0.31518,0.75167,0.31761
1700499614882812,-9.170865,-3.178396,1.257388,0.45218,0.75667,0.34761
1700499614890625,-9.219865,-3.177396,1.212388,0.39118,0.71267,0.33061
1700499614898437,-9.248865,-3.201396,1.167388,0.44018,0.61967,0.26561
1700499614906250,-9.268865,-3.232396,1.158388,0.49918,0.75767,0.23561
1700499614914062,-9.270865,-3.247396,1.165388,0.56118,0.77267,0.17161
1700499614921875,-9.256865,-3.265396,1.158388,0.68818,0.75567,0.14061
1700499614929687,-9.249865,-3.289396,1.178388,0.71118,0.75967,0.20261
1700499614937500,-9.242865,-3.307396,1.162388,0.71518,0.71567,0.18561
1700499614945312,-9.222865,-3.305396,1.156388,0.76018,0.72767,0.28261
1700499614953125,-9.196865,-3.273396,1.178388,0.69018,0.67767,0.22061
1700499614960937,-9.189865,-3.257396,1.176388,0.74318,0.71067,0.36361
1700499614968750,-9.180865,-3.213396,1.178388,0.81318,0.71467,0.34561
1700499614976562,-9.178865,-3.222396,1.194388,0.77718,0.75867,0.36261
1700499614984375,-9.173865,-3.290396,1.207388,0.76218,0.74267,0.42661
1700499614992187,-9.190865,-3.348396,1.230388,0.69318,0.73967,0.42861
1700499615000000,-9.167865,-3.395396,1.250388,0.72918,0.75767,0.37861
1700499615007812,-9.159865,-3.446396,1.232388,0.63118,0.70967,0.44361
1700499615015625,-9.139865,-3.464396,1.260388,0.46518,0.69167,0.39661
1700499615023437,-9.139865,-3.448396,1.268388,0.42918,0.65167,0.44061
1700499615031250,-9.153865,-3.441396,1.253388,0.32718,0.58567,0.42661
1700499615039062,-9.178865,-3.417396,1.253388,0.29118,0.50567,0.41161
1700499615046875,-9.219865,-3.401396,1.230388,0.19018,0.44067,0.34861
1700499615054687,-9.257865,-3.387396,1.223388,0.11118,0.44267,0.31661
1700499615062500,-9.275865,-3.378396,1.210388,0.4618,0.39567,0.30061
1700499615070312,-9.259865,-3.345396,1.208388,0.7782,0.44467,0.36361
1700499615078125,-9.236865,-3.317396,1.219388,0.6882,0.40967,0.26861
1700499615085937,-9.220865,-3.283396,1.255388,0.7382,0.43267,0.26561
1700499615093750,-9.200865,-3.293396,1.221388,0.13182,0.41167,0.23661
1700499615101562,-9.195865,-3.295396,1.180388,0.12782,0.44467,0.23561
1700499615109375,-9.210865,-3.323396,1.180388,0.20782,0.44667,0.15461
1700499615117187,-9.221865,-3.376396,1.228388,0.27182,0.50867,0.21861
1700499615125000,-9.212865,-3.398396,1.284388,0.27282,0.50867,0.18661
1700499615132812,-9.223865,-3.362396,1.286388,0.33082,0.52767,0.23261
1700499615140625,-9.260865,-3.307396,1.293388,0.29882,0.48067,0.23261
1700499615148437,-9.286865,-3.240396,1.316388,0.26982,0.46267,0.20161
1700499615156250,-9.312865,-3.144396,1.309388,0.28682,0.44767,0.16961
1700499615164062,-9.301865,-3.67396,1.293388,0.17182,0.48067,0.15361
1700499615171875,-9.302865,-3.25396,1.293388,0.982,0.46767,0.4061
1700499615179687,-9.332865,-3.7396,1.300388,0.10018,0.54267,0.12161
1700499615187500,-9.363865,-3.15396,1.298388,0.21218,0.58867,0.13761
1700499615195312,-9.361865,-3.24396,1.271388,0.40218,0.72667,0.15561
1700499615203125,-9.324865,-3.42396,1.289388,0.63518,0.76367,0.15261
1700499615210937,-9.290865,-3.58396,1.264388,0.71318,0.79167,0.24961
1700499615218750,-9.263865,-3.99396,1.223388,0.74618,0.91467,0.39461
1700499615226562,-9.242865,-3.134396,1.192388,0.91218,0.93267,0.45761
1700499615234375,-9.242865,-3.161396,1.189388,0.97118,0.97567,0.47561
1700499615242187,-9.253865,-3.168396,1.192388,0.101618,0.97367,0.49261
1700499615250000,-9.252865,-3.205396,1.180388,0.100818,0.102467,0.60161
1700499615257812,-9.232865,-3.232396,1.194388,0.105618,0.107067,0.60161
1700499615265625,-9.234865,-3.247396,1.216388,0.100918,0.105467,0.66661
1700499615273437,-9.233865,-3.260396,1.221388,0.96418,0.97967,0.61661
1700499615281250,-9.222865,-3.279396,1.255388,0.94018,0.102167,0.61961
1700499615289062,-9.191865,-3.286396,1.273388,0.96018,0.94667,0.60161
1700499615296875,-9.197865,-3.283396,1.244388,0.97818,0.88567,0.53761
1700499615304687,-9.200865,-3.270396,1.241388,0.97118,0.94467,0.47461
1700499615312500,-9.182865,-3.248396,1.252388,0.96218,0.90367,0.40861
1700499615320312,-9.182865,-3.275396,1.212388,0.94118,0.75967,0.39461
1700499615328125,-9.184865,-3.281396,1.196388,0.90718,0.80467,0.41061
1700499615335937,-9.163865,-3.326396,1.189388,0.81418,0.74467,0.44161
1700499615343750,-9.144865,-3.379396,1.192388,0.71518,0.77467,0.42661
1700499615351562,-9.124865,-3.419396,1.153388,0.71518,0.68167,0.39461
1700499615359375,-9.124865,-3.408396,1.146388,0.66918,0.66667,0.37761
1700499615367187,-9.176865,-3.370396,1.185388,0.61818,0.58867,0.28161
1700499615375000,-9.217865,-3.325396,1.196388,0.51418,0.60067,0.21961
1700499615382812,-9.255865,-3.304396,1.203388,0.52418,0.59167,0.21661
1700499615390625,-9.274865,-3.280396,1.210388,0.45718,0.54367,0.15361
1700499615398437,-9.293865,-3.223396,1.239388,0.36818,0.55467,0.9161
1700499615406250,-9.275865,-3.176396,1.250388,0.41918,0.57067,0.17061
1700499615414062,-9.263865,-3.141396,1.228388,0.44518,0.61467,0.14061
1700499615421875,-9.252865,-3.135396,1.248388,0.47918,0.70867,0.18861
1700499615429687,-9.258865,-3.143396,1.278388,0.62718,0.67867,0.20361
1700499615437500,-9.269865,-3.150396,1.266388,0.69118,0.70967,0.21961
1700499615445312,-9.278865,-3.174396,1.280388,0.54618,0.77167,0.21961
1700499615453125,-9.262865,-3.185396,1.273388,0.65018,0.74567,0.23361
1700499615460937,-9.250865,-3.198396,1.259388,0.68118,0.74467,0.23361
1700499615468750,-9.255865,-3.216396,1.239388,0.69418,0.80367,0.31561
1700499615476562,-9.243865,-3.247396,1.235388,0.71618,0.82267,0.37761
1700499615484375,-9.222865,-3.254396,1.257388,0.69918,0.73067,0.26561
1700499615492187,-9.225865,-3.244396,1.253388,0.68918,0.75567,0.22061
1700499615500000,-9.223865,-3.230396,1.214388,0.71218,0.71167,0.29861
1700499615507812,-9.219865,-3.217396,1.244388,0.65918,0.74067,0.28361
1700499615515625,-9.228865,-3.202396,1.278388,0.62318,0.75367,0.25361
1700499615523437,-9.251865,-3.194396,1.287388,0.62918,0.72667,0.23561
1700499615531250,-9.260865,-3.177396,1.298388,0.57718,0.67767,0.23661
1700499615539062,-9.269865,-3.169396,1.287388,0.52018,0.71267,0.26561
1700499615546875,-9.257865,-3.194396,1.286388,0.47418,0.66767,0.29761
1700499615554687,-9.230865,-3.230396,1.284388,0.58018,0.72667,0.25161
1700499615562500,-9.198865,-3.257396,1.293388,0.55218,0.68267,0.21761
1700499615570312,-9.171865,-3.279396,1.273388,0.40718,0.69767,0.28161
1700499615578125,-9.164865,-3.297396,1.284388,0.40218,0.67767,0.28361
1700499615585937,-9.155865,-3.311396,1.278388,0.33818,0.63267,0.21961
1700499615593750,-9.155865,-3.327396,1.248388,0.27018,0.62967,0.25261
1700499615601562,-9.159865,-3.351396,1.232388,0.19318,0.63267,0.21961
1700499615609375,-9.176865,-3.366396,1.219388,0.18118,0.52667,0.13761
1700499615617187,-9.190865,-3.350396,1.230388,0.3118,0.53967,0.10661
1700499615625000,-9.190865,-3.324396,1.269388,0.8382,0.49167,0.7561
1700499615632812,-9.189865,-3.273396,1.291388,0.8382,0.52467,0.5339
1700499615640625,-9.205865,-3.230396,1.273388,0.11582,0.44667,0.5339
1700499615648437,-9.222865,-3.193396,1.264388,0.13282,0.35267,0.6839
1700499615656250,-9.251865,-3.152396,1.255388,0.6082,0.35767,0.5539
1700499615664062,-9.290865,-3.138396,1.205388,0.8382,0.35267,0.3639
1700499615671875,-9.301865,-3.129396,1.190388,0.6582,0.32267,0.539
1700499615679687,-9.300865,-3.160396,1.214388,0.8482,0.43067,0.2039
1700499615687500,-9.291865,-3.198396,1.237388,0.1418,0.50967,0.539
1700499615695312,-9.268865,-3.205396,1.260388,0.11018,0.55667,0.5339
1700499615703125,-9.262865,-3.212396,1.266388,0.14018,0.60167,0.6839
1700499615710937,-9.241865,-3.234396,1.284388,0.3318,0.65167,0.4161
1700499615718750,-9.213865,-3.283396,1.255388,0.14318,0.60267,0.4261
1700499615726562,-9.192865,-3.317396,1.241388,0.16218,0.58967,0.3839
1700499615734375,-9.134865,-3.338396,1.253388,0.12418,0.64867,0.2039
1700499615742187,-9.82865,-3.381396,1.239388,0.12018,0.59967,0.3539
1700499615750000,-9.91865,-3.416396,1.221388,0.2082,0.49267,0.2039
1700499615757812,-9.106865,-3.442396,1.237388,0.382,0.49267,0.2039
1700499615765625,-9.139865,-3.444396,1.250388,0.9482,0.46467,0.2239
1700499615773437,-9.125865,-3.475396,1.239388,0.24482,0.44667,0.6939
1700499615781250,-9.128865,-3.462396,1.275388,0.32382,0.46067,0.12261
1700499615789062,-9.110865,-3.453396,1.321388,0.40682,0.45767,0.20461
1700499615796875,-9.106865,-3.420396,1.316388,0.57982,0.33767,0.7461
1700499615804687,-9.116865,-3.387396,1.332388,0.66182,0.22767,0.1061
1700499615812500,-9.141865,-3.331396,1.338388,0.78682,0.24767,0.3939
1700499615820312,-9.148865,-3.280396,1.338388,0.93282,0.26267,0.8739
1700499615828125,-9.153865,-3.262396,1.334388,0.101482,0.21467,0.10239
1700499615835937,-9.171865,-3.242396,1.302388,0.98082,0.13867,0.16739
1700499615843750,-9.194865,-3.237396,1.255388,0.109482,0.7467,0.15039
1700499615851562,-9.238865,-3.259396,1.210388,0.109782,0.4267,0.18239
1700499615859375,-9.305865,-3.293396,1.169388,0.107882,0.1833,0.19939
1700499615867187,-9.379865,-3.296396,1.151388,0.108182,0.3433,0.31039
1700499615875000,-9.437865,-3.291396,1.151388,0.96982,0.4367,0.32639
1700499615882812,-9.439865,-3.298396,1.176388,0.87982,0.18067,0.30839
1700499615890625,-9.396865,-3.295396,1.210388,0.81782,0.22067,0.31239
1700499615898437,-9.315865,-3.341396,1.255388,0.77082,0.29667,0.19939
1700499615906250,-9.261865,-3.375396,1.284388,0.69282,0.45067,0.19939
1700499615914062,-9.207865,-3.383396,1.289388,0.61982,0.46167,0.16439
1700499615921875,-9.151865,-3.381396,1.289388,0.58082,0.44967,0.15039
1700499615929687,-9.123865,-3.331396,1.295388,0.52982,0.35767,0.15139
1700499615937500,-9.142865,-3.278396,1.300388,0.51982,0.38467,0.16539
1700499615945312,-9.190865,-3.213396,1.293388,0.48482,0.30867,0.15039
1700499615953125,-9.219865,-3.186396,1.282388,0.50282,0.21367,0.13339
1700499615960937,-9.244865,-3.168396,1.287388,0.34382,0.25967,0.16439
1700499615968750,-9.243865,-3.130396,1.266388,0.34082,0.22967,0.14939
1700499615976562,-9.218865,-3.102396,1.273388,0.24682,0.33767,0.14839
1700499615984375,-9.196865,-3.95396,1.287388,0.24582,0.46367,0.16539
1700499615992187,-9.182865,-3.140396,1.289388,0.14882,0.47867,0.14939
1700499616000000,-9.196865,-3.217396,1.280388,0.3082,0.51367,0.13539
1700499616007812,-9.211865,-3.312396,1.278388,0.6682,0.52467,0.2139
1700499616015625,-9.214865,-3.382396,1.266388,0.3718,0.62367,0.2339
1700499616023437,-9.211865,-3.441396,1.278388,0.382,0.72767,0.3639
1700499616031250,-9.197865,-3.467396,1.284388,0.6482,0.57267,0.4261
1700499616039062,-9.166865,-3.472396,1.293388,0.8482,0.53867,0.439
1700499616046875,-9.161865,-3.454396,1.275388,0.6282,0.52767,0.639
1700499616054687,-9.162865,-3.414396,1.286388,0.12782,0.48067,0.639
1700499616062500,-9.178865,-3.372396,1.275388,0.14582,0.41767,0.6939
1700499616070312,-9.172865,-3.321396,1.232388,0.12182,0.35967,0.8839
1700499616078125,-9.179865,-3.306396,1.210388,0.15982,0.32567,0.8639
1700499616085937,-9.173865,-3.292396,1.210388,0.7782,0.29567,0.13539
1700499616093750,-9.166865,-3.282396,1.219388,0.12882,0.44967,0.11839
1700499616101562,-9.184865,-3.259396,1.237388,0.13682,0.45467,0.13739
1700499616109375,-9.220865,-3.270396,1.223388,0.5482,0.32067,0.16439
1700499616117187,-9.238865,-3.281396,1.230388,0.8282,0.40067,0.8539
1700499616125000,-9.231865,-3.261396,1.235388,0.1682,0.40267,0.11839
1700499616132812,-9.231865,-3.243396,1.248388,0.2482,0.42167,0.839
1700499616140625,-9.238865,-3.230396,1.257388,0.11618,0.48267,0.3939
1700499616148437,-9.241865,-3.214396,1.237388,0.17318,0.46167,0.5239
1700499616156250,-9.252865,-3.207396,1.235388,0.21118,0.49667,0.639
1700499616164062,-9.263865,-3.209396,1.230388,0.22918,0.48267,0.2339
1700499616171875,-9.284865,-3.198396,1.228388,0.33618,0.49167,0.12361
1700499616179687,-9.268865,-3.210396,1.230388,0.36818,0.46167,0.5961
1700499616187500,-9.281865,-3.256396,1.232388,0.40618,0.54267,0.13761
1700499616195312,-9.294865,-3.282396,1.230388,0.50018,0.51167,0.1061
1700499616203125,-9.269865,-3.276396,1.235388,0.56418,0.58967,0.3739
1700499616210937,-9.231865,-3.309396,1.226388,0.58318,0.60567,0.8961
1700499616218750,-9.170865,-3.351396,1.205388,0.70618,0.66167,0.23661
1700499616226562,-9.127865,-3.389396,1.208388,0.69418,0.67967,0.26761
1700499616234375,-9.131865,-3.409396,1.208388,0.70918,0.60067,0.31561
1700499616242187,-9.142865,-3.368396,1.237388,0.67318,0.60667,0.40861
1700499616250000,-9.195865,-3.308396,1.223388,0.56918,0.61767,0.45861
1700499616257812,-9.236865,-3.267396,1.187388,0.68318,0.57267,0.34561
1700499616265625,-9.250865,-3.229396,1.187388,0.60418,0.57367,0.32961
1700499616273437,-9.224865,-3.280396,1.194388,0.44518,0.70067,0.28061
1700499616281250,-9.194865,-3.356396,1.194388,0.42718,0.66867,0.28061
1700499616289062,-9.186865,-3.443396,1.187388,0.41718,0.61667,0.18761
1700499616296875,-9.203865,-3.482396,1.198388,0.32618,0.60467,0.20161
1700499616304687,-9.207865,-3.509396,1.228388,0.15018,0.58967,0.15361
1700499616312500,-9.219865,-3.525396,1.217388,0.12618,0.56967,0.10761
1700499616320312,-9.243865,-3.486396,1.234388,0.14218,0.51767,0.11861
1700499616328125,-9.233865,-3.438396,1.228388,0.11618,0.47967,0.10561
1700499616335937,-9.209865,-3.385396,1.219388,0.4282,0.51167,0.16961
1700499616343750,-9.223865,-3.343396,1.205388,0.4482,0.46367,0.12161
1700499616351562,-9.217865,-3.334396,1.194388,0.4382,0.46567,0.7261
1700499616359375,-9.185865,-3.330396,1.189388,0.7582,0.51267,0.8961
1700499616367187,-9.154865,-3.344396,1.230388,0.7982,0.65167,0.4161
1700499616375000,-9.158865,-3.355396,1.228388,0.6282,0.61967,0.8961
1700499616382812,-9.190865,-3.357396,1.237388,0.9982,0.66267,0.15561
1700499616390625,-9.203865,-3.363396,1.235388,0.8382,0.61567,0.18761
1700499616398437,-9.210865,-3.341396,1.248388,0.5982,0.65167,0.18561
1700499616406250,-9.217865,-3.323396,1.253388,0.10882,0.63467,0.24961
1700499616414062,-9.213865,-3.314396,1.264388,0.14882,0.64667,0.13961
1700499616421875,-9.188865,-3.301396,1.284388,0.6482,0.68067,0.9061
1700499616429687,-9.184865,-3.301396,1.287388,0.7982,0.65167,0.5761
1700499616437500,-9.199865,-3.312396,1.271388,0.11282,0.63567,0.639
1700499616445312,-9.222865,-3.332396,1.260388,0.10182,0.61667,0.2039
1700499616453125,-9.246865,-3.344396,1.232388,0.1282,0.59067,0.2561
1700499616460937,-9.223865,-3.373396,1.246388,0.4082,0.63967,0.8761
1700499616468750,-9.216865,-3.387396,1.246388,0.5682,0.65467,0.8761
1700499616476562,-9.219865,-3.363396,1.266388,0.8382,0.72667,0.4361
1700499616484375,-9.222865,-3.350396,1.264388,0.5682,0.64467,0.7661
1700499616492187,-9.237865,-3.320396,1.244388,0.8118,0.54067,0.10661
1700499616500000,-9.238865,-3.301396,1.244388,0.2418,0.66067,0.9361
1700499616507812,-9.254865,-3.269396,1.253388,0.9818,0.72967,0.5761
1700499616515625,-9.252865,-3.245396,1.264388,0.8218,0.71367,0.8961
1700499616523437,-9.238865,-3.250396,1.269388,0.17718,0.78967,0.18661
1700499616531250,-9.245865,-3.256396,1.269388,0.20918,0.69667,0.10661
1700499616539062,-9.276865,-3.256396,1.280388,0.21218,0.71367,0.13761
1700499616546875,-9.265865,-3.247396,1.271388,0.32618,0.73067,0.8961
1700499616554687,-9.270865,-3.263396,1.253388,0.38618,0.75767,0.18761
1700499616562500,-9.265865,-3.292396,1.248388,0.42918,0.80267,0.14061
1700499616570312,-9.266865,-3.329396,1.232388,0.53818,0.93367,0.20061
1700499616578125,-9.223865,-3.367396,1.255388,0.59018,0.101367,0.24761
1700499616585937,-9.151865,-3.395396,1.282388,0.61618,0.99467,0.23361
1700499616593750,-9.91865,-3.402396,1.314388,0.59818,0.99167,0.36361
1700499616601562,-9.30865,-3.401396,1.309388,0.58118,0.83667,0.23461
1700499616609375,-9.1865,-3.384396,1.291388,0.48718,0.85267,0.29861
1700499616617187,-9.15865,-3.368396,1.291388,0.50918,0.70167,0.19961
1700499616625000,-9.49865,-3.334396,1.237388,0.43718,0.64967,0.20261
1700499616632812,-9.81865,-3.307396,1.203388,0.40718,0.48067,0.15361
1700499616640625,-9.112865,-3.296396,1.180388,0.40218,0.47867,0.1061
1700499616648437,-9.125865,-3.302396,1.180388,0.34218,0.54467,0.2339
1700499616656250,-9.132865,-3.322396,1.183388,0.37218,0.57467,0.3839
1700499616664062,-9.156865,-3.361396,1.178388,0.17718,0.69867,0.3839
1700499616671875,-9.200865,-3.420396,1.158388,0.24918,0.57867,0.839
1700499616679687,-9.213865,-3.471396,1.156388,0.20818,0.46267,0.5861
1700499616687500,-9.214865,-3.493396,1.162388,0.17818,0.47867,0.7461
1700499616695312,-9.207865,-3.518396,1.153388,0.19418,0.46367,0.5861
1700499616703125,-9.198865,-3.527396,1.180388,0.9518,0.50967,0.2661
1700499616710937,-9.208865,-3.525396,1.192388,0.5282,0.50567,0.10861
1700499616718750,-9.187865,-3.534396,1.212388,0.7882,0.46467,0.2561
1700499616726562,-9.192865,-3.532396,1.253388,0.14582,0.46167,0.13861
1700499616734375,-9.190865,-3.505396,1.271388,0.28882,0.49267,0.20261
1700499616742187,-9.177865,-3.470396,1.262388,0.32782,0.42567,0.20461
1700499616750000,-9.179865,-3.456396,1.282388,0.33782,0.38267,0.26761
1700499616757812,-9.164865,-3.457396,1.284388,0.32482,0.45967,0.20361
1700499616765625,-9.176865,-3.419396,1.278388,0.32782,0.26867,0.26961
1700499616773437,-9.140865,-3.395396,1.287388,0.33782,0.39867,0.21861
1700499616781250,-9.129865,-3.373396,1.289388,0.36982,0.35167,0.20261
1700499616789062,-9.154865,-3.373396,1.289388,0.40482,0.32167,0.1061
1700499616796875,-9.179865,-3.375396,1.260388,0.42482,0.17967,0.6839
1700499616804687,-9.194865,-3.372396,1.253388,0.50082,0.21267,0.2139
1700499616812500,-9.185865,-3.356396,1.264388,0.54482,0.21667,0.11939
1700499616820312,-9.212865,-3.343396,1.266388,0.45082,0.24567,0.2239
1700499616828125,-9.240865,-3.309396,1.250388,0.51382,0.23067,0.2239
1700499616835937,-9.276865,-3.265396,1.230388,0.50182,0.17967,0.7561
1700499616843750,-9.315865,-3.220396,1.226388,0.37582,0.20767,0.15661
1700499616851562,-9.322865,-3.215396,1.248388,0.32182,0.33667,0.15461
1700499616859375,-9.297865,-3.229396,1.266388,0.24182,0.42967,0.18661
1700499616867187,-9.326865,-3.262396,1.287388,0.14682,0.44367,0.20361
1700499616875000,-9.336865,-3.295396,1.294388,0.12982,0.44367,0.23561
1700499616882812,-9.363865,-3.299396,1.266388,0.14382,0.47567,0.28361
1700499616890625,-9.370865,-3.294396,1.246388,0.7882,0.45967,0.33161
1700499616898437,-9.366865,-3.219396,1.250388,0.6982,0.47967,0.40861
1700499616906250,-9.368865,-3.113396,1.278388,0.1918,0.44367,0.44361
1700499616914062,-9.372865,-3.38396,1.305388,0.11418,0.45867,0.39561
1700499616921875,-9.392865,-3.6396,1.321388,0.27518,0.56767,0.44361
1700499616929687,-9.408865,-2.990396,1.332388,0.61918,0.66767,0.28161
1700499616937500,-9.388865,-3.11396,1.327388,0.78318,0.81667,0.20561
1700499616945312,-9.285865,-3.103396,1.300388,0.95618,0.97967,0.29761
1700499616953125,-9.147865,-3.218396,1.282388,0.96718,0.102267,0.33161
1700499616960937,-9.13865,-3.344396,1.243388,0.107018,0.97667,0.49061
1700499616968750,-8.920865,-3.447396,1.255388,0.102118,0.108567,0.53861
1700499616976562,-8.874865,-3.470396,1.270388,0.96018,0.108567,0.68261
1700499616984375,-8.889865,-3.443396,1.284388,0.90718,0.92567,0.71561
1700499616992187,-8.943865,-3.398396,1.295388,0.68618,0.89867,0.63361
1700499617000000,-8.995865,-3.328396,1.289388,0.67018,0.75967,0.55361
1700499617007812,-9.52865,-3.266396,1.291388,0.51918,0.70867,0.49161
1700499617015625,-9.102865,-3.238396,1.298388,0.47718,0.66767,0.40861
1700499617023437,-9.136865,-3.207396,1.298388,0.46618,0.61567,0.23561
1700499617031250,-9.151865,-3.256396,1.318388,0.34918,0.61367,0.18861
1700499617039062,-9.133865,-3.298396,1.332388,0.30518,0.63367,0.15561
1700499617046875,-9.91865,-3.343396,1.329388,0.24418,0.65167,0.10561
1700499617054687,-9.70865,-3.400396,1.305388,0.17918,0.60567,0.2561
1700499617062500,-9.85865,-3.462396,1.284388,0.8318,0.52667,0.7361
1700499617070312,-9.107865,-3.488396,1.259388,0.4582,0.46467,0.4161
1700499617078125,-9.163865,-3.503396,1.262388,0.6282,0.30767,0.4161
1700499617085937,-9.230865,-3.518396,1.219388,0.8482,0.22667,0.439
1700499617093750,-9.304865,-3.508396,1.160388,0.19682,0.19667,0.6839
1700499617101562,-9.367865,-3.489396,1.149388,0.29082,0.8867,0.8539
1700499617109375,-9.412865,-3.464396,1.149388,0.20982,0.5767,0.6939
1700499617117187,-9.412865,-3.471396,1.178388,0.24482,0.11867,0.5339
1700499617125000,-9.388865,-3.460396,1.187388,0.30882,0.19667,0.439
1700499617132812,-9.327865,-3.427396,1.230388,0.30282,0.30767,0.12161
1700499617140625,-9.267865,-3.399396,1.293388,0.33282,0.38667,0.20161
1700499617148437,-9.219865,-3.334396,1.302388,0.26982,0.47867,0.24961
1700499617156250,-9.192865,-3.244396,1.318388,0.30682,0.52267,0.23561
1700499617164062,-9.233865,-3.173396,1.325388,0.24482,0.48867,0.25261
1700499617171875,-9.265865,-3.110396,1.336388,0.26182,0.47367,0.20461
1700499617179687,-9.295865,-3.54396,1.334388,0.9682,0.44567,0.18661
1700499617187500,-9.315865,-3.60396,1.329388,0.10682,0.54267,0.21761
1700499617195312,-9.308865,-3.83396,1.361388,0.13118,0.66467,0.31461
1700499617203125,-9.294865,-3.121396,1.345388,0.18918,0.67667,0.25261
1700499617210937,-9.282865,-3.187396,1.321388,0.19318,0.71067,0.25161
1700499617218750,-9.250865,-3.245396,1.320388,0.24718,0.74567,0.23361
1700499617226562,-9.216865,-3.286396,1.305388,0.30218,0.77067,0.25261
1700499617234375,-9.189865,-3.273396,1.321388,0.24818,0.70367,0.25461
1700499617242187,-9.210865,-3.242396,1.307388,0.35118,0.72367,0.25261
1700499617250000,-9.210865,-3.193396,1.278388,0.28918,0.66467,0.17161
1700499617257812,-9.204865,-3.179396,1.255388,0.41918,0.72667,0.21961
1700499617265625,-9.192865,-3.226396,1.284388,0.44418,0.78567,0.15761
1700499617273437,-9.167865,-3.269396,1.307388,0.45718,0.78467,0.7761
1700499617281250,-9.106865,-3.310396,1.298388,0.53818,0.89367,0.10961
1700499617289062,-9.29865,-3.386396,1.294388,0.47018,0.75067,0.12661
1700499617296875,-8.971865,-3.460396,1.284388,0.43318,0.70967,0.21961
1700499617304687,-8.962865,-3.493396,1.264388,0.28618,0.69267,0.26861
1700499617312500,-9.2865,-3.473396,1.275388,0.17318,0.58367,0.22061
1700499617320312,-9.70865,-3.423396,1.271388,0.17418,0.48967,0.23661
1700499617328125,-9.125865,-3.371396,1.253388,0.2082,0.50567,0.10861
1700499617335937,-9.184865,-3.324396,1.260388,0.5582,0.39667,0.3539
1700499617343750,-9.184865,-3.297396,1.253388,0.6782,0.27467,0.2039
1700499617351562,-9.164865,-3.289396,1.187388,0.3582,0.22867,0.10039
1700499617359375,-9.167865,-3.355396,1.151388,0.6482,0.21567,0.11839
1700499617367187,-9.171865,-3.415396,1.133388,0.3582,0.22867,0.13339
1700499617375000,-9.154865,-3.468396,1.144388,0.9382,0.34267,0.15139
1700499617382812,-9.121865,-3.493396,1.180388,0.17982,0.29167,0.11739
1700499617390625,-9.118865,-3.517396,1.198388,0.21182,0.29167,0.6939
1700499617398437,-9.136865,-3.492396,1.225388,0.31782,0.27867,0.739
1700499617406250,-9.165865,-3.485396,1.212388,0.31782,0.23267,0.5539
1700499617414062,-9.215865,-3.440396,1.250388,0.37182,0.19767,0.3739
1700499617421875,-9.256865,-3.405396,1.246388,0.42182,0.14967,0.5239
1700499617429687,-9.290865,-3.371396,1.248388,0.46782,0.13467,0.539
1700499617437500,-9.302865,-3.349396,1.262388,0.44582,0.22267,0.3439
1700499617445312,-9.282865,-3.344396,1.284388,0.42282,0.18067,0.6839
1700499617453125,-9.273865,-3.331396,1.255388,0.47082,0.7167,0.6939
1700499617460937,-9.268865,-3.338396,1.232388,0.41882,0.15167,0.5439
1700499617468750,-9.284865,-3.349396,1.235388,0.56882,0.18067,0.10039
1700499617476562,-9.306865,-3.355396,1.251388,0.42282,0.22767,0.10039
1700499617484375,-9.271865,-3.347396,1.251388,0.35882,0.27467,0.8439
1700499617492187,-9.251865,-3.329396,1.260388,0.47482,0.31967,0.13239
1700499617500000,-9.260865,-3.321396,1.269388,0.43282,0.29967,0.6539
1700499617507812,-9.264865,-3.304396,1.255388,0.47982,0.40367,0.739
1700499617515625,-9.240865,-3.318396,1.284388,0.40382,0.52567,0.2661
1700499617523437,-9.226865,-3.314396,1.289388,0.35582,0.50967,0.3739
1700499617531250,-9.188865,-3.297396,1.327388,0.32082,0.51067,0.961
1700499617539062,-9.161865,-3.286396,1.350388,0.30082,0.56167,0.7239
1700499617546875,-9.117865,-3.289396,1.341388,0.18782,0.50067,0.10439
1700499617554687,-9.101865,-3.300396,1.307388,0.20882,0.49667,0.7039
1700499617562500,-9.92865,-3.336396,1.280388,0.14882,0.52467,0.8539
1700499617570312,-9.94865,-3.345396,1.280388,0.13582,0.50667,0.1939
1700499617578125,-9.123865,-3.335396,1.266388,0.9582,0.54267,0.2239
1700499617585937,-9.173865,-3.310396,1.259388,0.9682,0.54067,0.5861
1700499617593750,-9.220865,-3.303396,1.226388,0.8182,0.52367,0.7461
1700499617601562,-9.231865,-3.321396,1.230388,0.17982,0.60167,0.4361
1700499617609375,-9.208865,-3.334396,1.257388,0.16582,0.58567,0.2761
1700499617617187,-9.172865,-3.379396,1.266388,0.8582,0.53967,0.5239
1700499617625000,-9.147865,-3.404396,1.282388,0.8182,0.47967,0.6939
1700499617632812,-9.146865,-3.406396,1.289388,0.9382,0.54467,0.3939
1700499617640625,-9.160865,-3.384396,1.284388,0.6582,0.47967,0.5339
1700499617648437,-9.185865,-3.365396,1.271388,0.7982,0.43467,0.8639
1700499617656250,-9.226865,-3.345396,1.235388,0.6782,0.39867,0.2039
1700499617664062,-9.248865,-3.320396,1.212388,0.7982,0.38567,0.4261
1700499617671875,-9.256865,-3.312396,1.192388,0.4982,0.32067,0.12361
1700499617679687,-9.278865,-3.300396,1.178388,0.6582,0.38467,0.539
1700499617687500,-9.294865,-3.275396,1.180388,0.1282,0.51067,0.15361
1700499617695312,-9.271865,-3.289396,1.203388,0.1518,0.57067,0.17161
1700499617703125,-9.242865,-3.296396,1.239388,0.3818,0.71567,0.13661
1700499617710937,-9.233865,-3.283396,1.248388,0.13118,0.74467,0.16961
1700499617718750,-9.235865,-3.285396,1.248388,0.13518,0.76467,0.5561
1700499617726562,-9.235865,-3.298396,1.282388,0.19218,0.75967,0.4261
1700499617734375,-9.226865,-3.314396,1.287388,0.25618,0.78867,0.18761
1700499617742187,-9.183865,-3.332396,1.296388,0.24318,0.91567,0.17061
1700499617750000,-9.152865,-3.326396,1.336388,0.32418,0.89967,0.18661
1700499617757812,-9.123865,-3.333396,1.341388,0.38718,0.91467,0.20261
1700499617765625,-9.121865,-3.318396,1.338388,0.39218,0.90067,0.29761
1700499617773437,-9.123865,-3.340396,1.313388,0.29718,0.85467,0.32861
1700499617781250,-9.149865,-3.368396,1.316388,0.27618,0.77367,0.31461
1700499617789062,-9.182865,-3.401396,1.278388,0.19518,0.72667,0.28261
1700499617796875,-9.193865,-3.416396,1.248388,0.18318,0.65167,0.26561
1700499617804687,-9.186865,-3.414396,1.241388,0.19918,0.60567,0.20161
1700499617812500,-9.175865,-3.419396,1.221388,0.18318,0.57467,0.18561
1700499617820312,-9.169865,-3.399396,1.232388,0.15418,0.59167,0.19961
1700499617828125,-9.176865,-3.377396,1.223388,0.16718,0.48067,0.18561
1700499617835937,-9.180865,-3.363396,1.219388,0.17318,0.49967,0.19961
1700499617843750,-9.170865,-3.344396,1.219388,0.9918,0.50967,0.18661
1700499617851562,-9.159865,-3.338396,1.219388,0.6118,0.42767,0.22061
1700499617859375,-9.150865,-3.311396,1.232388,0.2582,0.46467,0.23361
1700499617867187,-9.127865,-3.338396,1.226388,0.7982,0.47667,0.25161
1700499617875000,-9.157865,-3.356396,1.248388,0.7282,0.51667,0.30261
1700499617882812,-9.183865,-3.361396,1.237388,0.6182,0.50867,0.23461
1700499617890625,-9.212865,-3.385396,1.241388,0.7682,0.29067,0.25061
1700499617898437,-9.252865,-3.358396,1.223388,0.2682,0.41667,0.26561
1700499617906250,-9.268865,-3.346396,1.235388,0.4082,0.51267,0.20061
1700499617914062,-9.269865,-3.307396,1.262388,0.4918,0.50767,0.25161
1700499617921875,-9.261865,-3.276396,1.278388,0.17618,0.39767,0.20361
1700499617929687,-9.265865,-3.278396,1.259388,0.11918,0.48067,0.18561
1700499617937500,-9.246865,-3.303396,1.257388,0.21518,0.46367,0.31361
1700499617945312,-9.224865,-3.276396,1.257388,0.31318,0.58967,0.29761
1700499617953125,-9.241865,-3.250396,1.262388,0.18018,0.57067,0.31461
1700499617960937,-9.234865,-3.239396,1.273388,0.39118,0.61767,0.39461
1700499617968750,-9.249865,-3.240396,1.298388,0.43318,0.70167,0.42361
1700499617976562,-9.252865,-3.252396,1.296388,0.37118,0.70767,0.46061
1700499617984375,-9.254865,-3.267396,1.284388,0.49318,0.76067,0.44061
1700499617992187,-9.258865,-3.271396,1.293388,0.45718,0.75867,0.45861
1700499618000000,-9.256865,-3.280396,1.300388,0.59918,0.74067,0.42761
1700499618007812,-9.252865,-3.252396,1.287388,0.56418,0.83267,0.41261
1700499618015625,-9.259865,-3.207396,1.264388,0.64618,0.84967,0.44361
1700499618023437,-9.291865,-3.169396,1.268388,0.63518,0.77467,0.44261
1700499618031250,-9.291865,-3.175396,1.275388,0.63918,0.76067,0.47261
1700499618039062,-9.286865,-3.180396,1.289388,0.70218,0.72867,0.52161
1700499618046875,-9.289865,-3.165396,1.302388,0.70018,0.85367,0.42561
1700499618054687,-9.305865,-3.140396,1.305388,0.78118,0.83867,0.37761
1700499618062500,-9.300865,-3.153396,1.289388,0.97518,0.91867,0.34461
1700499618070312,-9.248865,-3.214396,1.298388,0.100218,0.97667,0.36261
1700499618078125,-9.180865,-3.275396,1.273388,0.108018,0.103767,0.37961
1700499618085937,-9.139865,-3.318396,1.239388,0.116418,0.99167,0.45861
1700499618093750,-9.146865,-3.311396,1.212388,0.121318,0.97567,0.50761
1700499618101562,-9.165865,-3.335396,1.217388,0.116518,0.99167,0.52361
1700499618109375,-9.190865,-3.348396,1.214388,0.113118,0.86367,0.60461
1700499618117187,-9.235865,-3.332396,1.201388,0.114918,0.83367,0.61961
1700499618125000,-9.264865,-3.313396,1.223388,0.110218,0.83467,0.60261
1700499618132812,-9.246865,-3.311396,1.235388,0.98018,0.76067,0.61661
1700499618140625,-9.213865,-3.299396,1.260388,0.95518,0.88067,0.60361
1700499618148437,-9.166865,-3.302396,1.266388,0.91918,0.86167,0.62061
1700499618156250,-9.115865,-3.289396,1.282388,0.90518,0.84767,0.58861
1700499618164062,-9.54865,-3.303396,1.338388,0.79318,0.91167,0.58761
1700499618171875,-9.18865,-3.328396,1.343388,0.71418,0.77267,0.50661
1700499618179687,-9.16865,-3.306396,1.356388,0.69618,0.72567,0.44361
1700499618187500,-9.34865,-3.306396,1.352388,0.67818,0.67767,0.41161
1700499618195312,-9.81865,-3.334396,1.296388,0.59718,0.59967,0.34761
1700499618203125,-9.123865,-3.342396,1.309388,0.45018,0.55167,0.38061
1700499618210937,-9.150865,-3.333396,1.305388,0.37718,0.47867,0.36161
1700499618218750,-9.175865,-3.328396,1.298388,0.17918,0.42967,0.31561
1700499618226562,-9.217865,-3.354396,1.262388,0.16418,0.33667,0.29861
1700499618234375,-9.268865,-3.355396,1.205388,0.5218,0.32167,0.25061
1700499618242187,-9.330865,-3.385396,1.183388,0.2282,0.31067,0.21661
1700499618250000,-9.354865,-3.418396,1.185388,0.7682,0.22867,0.17061
1700499618257812,-9.359865,-3.427396,1.178388,0.6282,0.22767,0.17061
1700499618265625,-9.348865,-3.412396,1.201388,0.6882,0.25767,0.1161
1700499618273437,-9.342865,-3.388396,1.208388,0.14482,0.22867,0.4261
1700499618281250,-9.331865,-3.377396,1.242388,0.12982,0.35367,0.2661
1700499618289062,-9.308865,-3.361396,1.287388,0.6482,0.51067,0.2661
1700499618296875,-9.273865,-3.335396,1.282388,0.6182,0.46467,0.7361
1700499618304687,-9.247865,-3.305396,1.291388,0.7882,0.47767,0.20261
1700499618312500,-9.209865,-3.288396,1.309388,0.1718,0.54067,0.12261
1700499618320312,-9.144865,-3.278396,1.300388,0.14618,0.56967,0.28361
1700499618328125,-9.117865,-3.280396,1.287388,0.14618,0.50767,0.29961
1700499618335937,-9.108865,-3.283396,1.289388,0.6218,0.52067,0.28461
1700499618343750,-9.109865,-3.279396,1.291388,0.15718,0.58167,0.33361
1700499618351562,-9.119865,-3.300396,1.320388,0.618,0.54167,0.28161
1700499618359375,-9.150865,-3.304396,1.341388,0.5018,0.60267,0.25061
1700499618367187,-9.180865,-3.304396,1.325388,0.1618,0.55467,0.20361
1700499618375000,-9.153865,-3.282396,1.327388,0.0,0.64967,0.18661
1700499618382812,-9.142865,-3.260396,1.334388,0.6482,0.60167,0.18761
1700499618390625,-9.127865,-3.240396,1.316388,0.7682,0.54167,0.20161
1700499618398437,-9.136865,-3.232396,1.280388,0.13082,0.44467,0.17161
1700499618406250,-9.183865,-3.231396,1.253388,0.14482,0.49167,0.18761
1700499618414062,-9.216865,-3.245396,1.253388,0.10882,0.51267,0.5761
1700499618421875,-9.247865,-3.283396,1.255388,0.21182,0.47767,0.4261
1700499618429687,-9.295865,-3.326396,1.205388,0.15282,0.48567,0.4139
1700499618437500,-9.301865,-3.399396,1.201388,0.14882,0.49167,0.1161
1700499618445312,-9.278865,-3.448396,1.248388,0.7982,0.60467,0.2561
1700499618453125,-9.239865,-3.475396,1.291388,0.11082,0.61967,0.10561
1700499618460937,-9.233865,-3.464396,1.316388,0.15482,0.69967,0.21661
1700499618468750,-9.231865,-3.453396,1.348388,0.25682,0.69467,0.25061
1700499618476562,-9.195865,-3.454396,1.329388,0.27182,0.61667,0.29861
1700499618484375,-9.187865,-3.423396,1.309388,0.33882,0.53867,0.21961
1700499618492187,-9.199865,-3.370396,1.302388,0.30782,0.60067,0.18761
1700499618500000,-9.161865,-3.331396,1.309388,0.32082,0.55567,0.20261
1700499618507812,-9.153865,-3.295396,1.316388,0.32582,0.61567,0.17161
1700499618515625,-9.147865,-3.253396,1.311388,0.30982,0.55367,0.12361
1700499618523437,-9.176865,-3.230396,1.293388,0.29782,0.60667,0.20061
1700499618531250,-9.210865,-3.210396,1.296388,0.30782,0.64767,0.21961
1700499618539062,-9.259865,-3.201396,1.302388,0.27282,0.50867,0.18661
1700499618546875,-9.289865,-3.178396,1.284388,0.20682,0.61867,0.20161
1700499618554687,-9.318865,-3.171396,1.260388,0.18182,0.55167,0.20461
1700499618562500,-9.327865,-3.173396,1.273388,0.6682,0.64667,0.23561
1700499618570312,-9.313865,-3.189396,1.300388,0.7682,0.72967,0.16961
1700499618578125,-9.293865,-3.214396,1.309388,0.4882,0.70967,0.25161
1700499618585937,-9.261865,-3.239396,1.325388,0.2382,0.72267,0.17361
1700499618593750,-9.260865,-3.289396,1.316388,0.1318,0.70867,0.20361
1700499618601562,-9.264865,-3.313396,1.314388,0.8518,0.72967,0.18561
1700499618609375,-9.268865,-3.333396,1.323388,0.718,0.71467,0.24861
1700499618617187,-9.267865,-3.309396,1.350388,0.12818,0.72567,0.26761
1700499618625000,-9.271865,-3.225396,1.368388,0.17118,0.73767,0.28561
1700499618632812,-9.258865,-3.156396,1.357388,0.15118,0.79067,0.36161
1700499618640625,-9.255865,-3.97396,1.339388,0.28518,0.75267,0.34961
1700499618648437,-9.257865,-3.70396,1.334388,0.46418,0.80067,0.33261
1700499618656250,-9.235865,-3.68396,1.334388,0.54718,0.80467,0.21961
1700499618664062,-9.186865,-3.61396,1.305388,0.70418,0.83167,0.34961
1700499618671875,-9.165865,-3.103396,1.269388,0.77018,0.87967,0.33261
1700499618679687,-9.162865,-3.149396,1.253388,0.85118,0.91067,0.33261
1700499618687500,-9.166865,-3.192396,1.260388,0.89718,0.82967,0.39761
1700499618695312,-9.185865,-3.235396,1.275388,0.94818,0.86167,0.49361
1700499618703125,-9.201865,-3.239396,1.291388,0.97118,0.88067,0.57161
1700499618710937,-9.230865,-3.201396,1.300388,0.96118,0.86867,0.58561
1700499618718750,-9.231865,-3.173396,1.302388,0.96918,0.89467,0.60461
1700499618726562,-9.213865,-3.173396,1.323388,0.92118,0.90967,0.65261
1700499618734375,-9.193865,-3.182396,1.307388,0.92418,0.83267,0.71561
1700499618742187,-9.169865,-3.218396,1.300388,0.97518,0.78767,0.69961
1700499618750000,-9.140865,-3.269396,1.320388,0.92318,0.75367,0.71661
1700499618757812,-9.117865,-3.319396,1.332388,0.72118,0.74867,0.67061
1700499618765625,-9.98865,-3.372396,1.343388,0.69218,0.70467,0.58961
1700499618773437,-9.87865,-3.403396,1.361388,0.67418,0.67267,0.57461
1700499618781250,-9.94865,-3.383396,1.395388,0.48018,0.51767,0.49361
1700499618789062,-9.112865,-3.345396,1.384388,0.32418,0.50567,0.45961
1700499618796875,-9.130865,-3.322396,1.368388,0.23218,0.36767,0.45861
1700499618804687,-9.148865,-3.314396,1.341388,0.14218,0.23667,0.41361
1700499618812500,-9.162865,-3.298396,1.330388,0.15518,0.28267,0.33461
1700499618820312,-9.160865,-3.276396,1.300388,0.13818,0.23667,0.23761
1700499618828125,-9.190865,-3.237396,1.275388,0.1682,0.11567,0.25161
1700499618835937,-9.232865,-3.210396,1.280388,0.6382,0.11667,0.23561
1700499618843750,-9.279865,-3.218396,1.284388,0.4582,0.21167,0.23461
1700499618851562,-9.317865,-3.220396,1.278388,0.7382,0.22967,0.28161
1700499618859375,-9.318865,-3.214396,1.260388,0.8782,0.20567,0.25361
1700499618867187,-9.329865,-3.185396,1.257388,0.6982,0.20667,0.25361
1700499618875000,-9.311865,-3.162396,1.287388,0.7782,0.24267,0.26661
1700499618882812,-9.327865,-3.162396,1.289388,0.12018,0.22967,0.31361
1700499618890625,-9.368865,-3.146396,1.298388,0.20018,0.36967,0.34561
1700499618898437,-9.373865,-3.133396,1.323388,0.17618,0.47367,0.34861
1700499618906250,-9.346865,-3.129396,1.327388,0.22818,0.46067,0.33161
1700499618914062,-9.301865,-3.123396,1.343388,0.19418,0.50567,0.34761
1700499618921875,-9.252865,-3.99396,1.339388,0.23918,0.51867,0.39761
1700499618929687,-9.193865,-3.104396,1.368388,0.18518,0.60367,0.42561
1700499618937500,-9.187865,-3.84396,1.368388,0.23318,0.57267,0.37761
1700499618945312,-9.221865,-3.57396,1.316388,0.22818,0.47567,0.34761
1700499618953125,-9.230865,-3.42396,1.329388,0.18318,0.54067,0.39361
1700499618960937,-9.278865,-3.15396,1.307388,0.32218,0.44167,0.44461
1700499618968750,-9.327865,-3.34396,1.280388,0.37418,0.44467,0.39561
1700499618976562,-9.356865,-3.33396,1.284388,0.46918,0.41267,0.34761
1700499618984375,-9.370865,-3.49396,1.278388,0.65718,0.40967,0.36561
1700499618992187,-9.391865,-3.66396,1.228388,0.70318,0.29367,0.31261
1700499619000000,-9.414865,-3.72396,1.151388,0.79318,0.39767,0.42761
1700499619007812,-9.395865,-3.130396,1.149388,0.82518,0.47467,0.49161
1700499619015625,-9.378865,-3.186396,1.151388,0.92418,0.49167,0.52361
1700499619023437,-9.347865,-3.211396,1.156388,0.95418,0.53667,0.52361
1700499619031250,-9.333865,-3.210396,1.131388,0.91618,0.52767,0.55261
1700499619039062,-9.324865,-3.217396,1.117388,0.97918,0.49567,0.55361
1700499619046875,-9.332865,-3.237396,1.138388,0.96018,0.57167,0.52161
1700499619054687,-9.346865,-3.261396,1.185388,0.97318,0.61567,0.58761
1700499619062500,-9.307865,-3.289396,1.201388,0.93818,0.66167,0.58861
1700499619070312,-9.252865,-3.283396,1.230388,0.100318,0.69267,0.62061
1700499619078125,-9.179865,-3.275396,1.234388,0.104418,0.69867,0.56861
1700499619085937,-9.119865,-3.253396,1.234388,0.99518,0.71467,0.52061
1700499619093750,-9.98865,-3.225396,1.239388,0.100418,0.69367,0.53961
1700499619101562,-9.116865,-3.212396,1.223388,0.96618,0.58167,0.49361
1700499619109375,-9.165865,-3.222396,1.196388,0.90418,0.55367,0.41161
1700499619117187,-9.228865,-3.203396,1.219388,0.81118,0.60267,0.42661
1700499619125000,-9.258865,-3.172396,1.246388,0.73918,0.59767,0.41361
1700499619132812,-9.292865,-3.136396,1.241388,0.74318,0.66367,0.34761
1700499619140625,-9.302865,-3.87396,1.275388,0.74018,0.60167,0.18761
1700499619148437,-9.271865,-3.50396,1.316388,0.70318,0.73867,0.22161
1700499619156250,-9.244865,-3.51396,1.325388,0.71718,0.73967,0.2861
1700499619164062,-9.221865,-3.86396,1.330388,0.85018,0.82067,0.9161
1700499619171875,-9.223865,-3.128396,1.361388,0.77018,0.81967,0.7561
1700499619179687,-9.244865,-3.157396,1.325388,0.79118,0.74667,0.2561
1700499619187500,-9.264865,-3.183396,1.282388,0.85318,0.75867,0.10761
1700499619195312,-9.279865,-3.229396,1.259388,0.85518,0.82267,0.13861
1700499619203125,-9.272865,-3.251396,1.284388,0.77918,0.82367,0.26561
1700499619210937,-9.258865,-3.236396,1.289388,0.83018,0.77867,0.23261
1700499619218750,-9.241865,-3.212396,1.286388,0.73118,0.77767,0.23361
1700499619226562,-9.230865,-3.214396,1.264388,0.70018,0.79367,0.21661
1700499619234375,-9.230865,-3.208396,1.246388,0.70718,0.71067,0.18761
1700499619242187,-9.223865,-3.219396,1.228388,0.65018,0.69967,0.18561
1700499619250000,-9.217865,-3.194396,1.219388,0.58718,0.73267,0.13661
1700499619257812,-9.219865,-3.172396,1.239388,0.50718,0.66967,0.21661
1700499619265625,-9.227865,-3.135396,1.271388,0.51518,0.64867,0.15561
1700499619273437,-9.258865,-3.110396,1.282388,0.52218,0.62367,0.10461
1700499619281250,-9.297865,-3.114396,1.269388,0.49918,0.69567,0.21961
1700499619289062,-9.303865,-3.107396,1.271388,0.52918,0.72567,0.18761
1700499619296875,-9.308865,-3.100396,1.287388,0.48318,0.72667,0.20361
1700499619304687,-9.294865,-3.118396,1.291388,0.43318,0.70967,0.18761
1700499619312500,-9.267865,-3.174396,1.275388,0.44918,0.75667,0.20361
1700499619320312,-9.225865,-3.243396,1.287388,0.43418,0.72667,0.18761
1700499619328125,-9.191865,-3.297396,1.289388,0.38318,0.74167,0.12361
1700499619335937,-9.166865,-3.306396,1.271388,0.25818,0.69667,0.15461
1700499619343750,-9.166865,-3.324396,1.259388,0.17618,0.61967,0.3739
1700499619351562,-9.170865,-3.315396,1.239388,0.11618,0.51367,0.5539
1700499619359375,-9.168865,-3.284396,1.201388,0.2118,0.45267,0.3939
1700499619367187,-9.176865,-3.273396,1.181388,0.7182,0.42967,0.11639
1700499619375000,-9.180865,-3.246396,1.180388,0.6982,0.52367,0.5239
1700499619382812,-9.203865,-3.213396,1.162388,0.10182,0.38167,0.439
1700499619390625,-9.257865,-3.185396,1.162388,0.8282,0.43167,0.6939
1700499619398437,-9.287865,-3.180396,1.160388,0.8482,0.55667,0.13339
1700499619406250,-9.305865,-3.165396,1.183388,0.11982,0.47667,0.11639
1700499619414062,-9.294865,-3.138396,1.203388,0.4782,0.46567,0.11839
1700499619421875,-9.267865,-3.147396,1.185388,0.1382,0.43567,0.10339
1700499619429687,-9.246865,-3.163396,1.183388,0.4382,0.46767,0.8739
1700499619437500,-9.205865,-3.188396,1.182388,0.2218,0.46967,0.15239
1700499619445312,-9.171865,-3.246396,1.219388,0.3618,0.48467,0.15139
1700499619453125,-9.138865,-3.330396,1.201388,0.2018,0.43767,0.16739
1700499619460937,-9.104865,-3.364396,1.216388,0.7482,0.46967,0.15239
1700499619468750,-9.90865,-3.398396,1.196388,0.7882,0.45167,0.13539
1700499619476562,-9.111865,-3.371396,1.194388,0.7682,0.39067,0.16839
1700499619484375,-9.138865,-3.342396,1.165388,0.14582,0.30867,0.15039
1700499619492187,-9.177865,-3.330396,1.167388,0.18082,0.30767,0.16539
1700499619500000,-9.208865,-3.312396,1.189388,0.32182,0.24767,0.15039
1700499619507812,-9.217865,-3.298396,1.189388,0.33382,0.26567,0.16839
1700499619515625,-9.224865,-3.290396,1.237388,0.33982,0.26167,0.16639
1700499619523437,-9.233865,-3.267396,1.262388,0.37982,0.25167,0.15239
1700499619531250,-9.232865,-3.243396,1.257388,0.53682,0.22767,0.16439
1700499619539062,-9.203865,-3.237396,1.223388,0.53682,0.21267,0.14839
1700499619546875,-9.174865,-3.180396,1.226388,0.56582,0.19967,0.19839
1700499619554687,-9.186865,-3.131396,1.230388,0.53482,0.23167,0.29439
1700499619562500,-9.249865,-3.108396,1.235388,0.59782,0.26367,0.29439
1700499619570312,-9.343865,-3.149396,1.208388,0.48882,0.24567,0.29339
1700499619578125,-9.407865,-3.212396,1.183388,0.53282,0.34067,0.21439
1700499619585937,-9.444865,-3.280396,1.183388,0.47582,0.38267,0.21239
1700499619593750,-9.411865,-3.355396,1.233388,0.35682,0.44867,0.18139
1700499619601562,-9.372865,-3.431396,1.223388,0.34282,0.50967,0.14939
1700499619609375,-9.313865,-3.463396,1.219388,0.32082,0.59067,0.8639
1700499619617187,-9.244865,-3.464396,1.244388,0.34382,0.49267,0.5239
1700499619625000,-9.195865,-3.448396,1.255388,0.39482,0.58467,0.3539
1700499619632812,-9.160865,-3.417396,1.275388,0.40882,0.55467,0.2039
1700499619640625,-9.165865,-3.368396,1.266388,0.48582,0.52567,0.5339
1700499619648437,-9.179865,-3.304396,1.271388,0.55182,0.47767,0.5339
1700499619656250,-9.196865,-3.210396,1.284388,0.56682,0.46367,0.10139
1700499619664062,-9.190865,-3.162396,1.298388,0.54882,0.48067,0.16639
1700499619671875,-9.167865,-3.120396,1.302388,0.53682,0.46267,0.14939
1700499619679687,-9.201865,-3.98396,1.298388,0.42582,0.50867,0.14839
1700499619687500,-9.248865,-3.102396,1.298388,0.34682,0.53867,0.16339
1700499619695312,-9.270865,-3.123396,1.248388,0.34782,0.47467,0.11539
1700499619703125,-9.309865,-3.145396,1.203388,0.30682,0.44767,0.3739
1700499619710937,-9.324865,-3.191396,1.208388,0.14882,0.44767,0.10139
1700499619718750,-9.314865,-3.255396,1.203388,0.12882,0.60567,0.7039
1700499619726562,-9.276865,-3.298396,1.241388,0.6782,0.72667,0.2761
1700499619734375,-9.247865,-3.309396,1.257388,0.8282,0.71067,0.12361
1700499619742187,-9.250865,-3.333396,1.275388,0.6182,0.71267,0.18661
1700499619750000,-9.280865,-3.338396,1.289388,0.8882,0.73767,0.15761
1700499619757812,-9.311865,-3.319396,1.259388,0.882,0.69867,0.26461
1700499619765625,-9.305865,-3.280396,1.257388,0.4682,0.79067,0.12261
1700499619773437,-9.276865,-3.240396,1.266388,0.1918,0.76167,0.7361
1700499619781250,-9.232865,-3.216396,1.237388,0.12118,0.76567,0.5561
1700499619789062,-9.212865,-3.214396,1.221388,0.7018,0.73167,0.12061
1700499619796875,-9.212865,-3.215396,1.214388,0.16118,0.77367,0.18661
1700499619804687,-9.225865,-3.190396,1.210388,0.23218,0.85767,0.8861
1700499619812500,-9.233865,-3.148396,1.203388,0.29118,0.71167,0.21861
1700499619820312,-9.214865,-3.106396,1.183388,0.30718,0.85467,0.5761
1700499619828125,-9.223865,-3.113396,1.140388,0.41718,0.68067,0.5861
1700499619835937,-9.195865,-3.155396,1.140388,0.48318,0.75967,0.5861
1700499619843750,-9.179865,-3.207396,1.160388,0.57518,0.82067,0.1161
1700499619851562,-9.182865,-3.264396,1.153388,0.67218,0.71167,0.439
1700499619859375,-9.211865,-3.277396,1.176388,0.65718,0.72667,0.4361
1700499619867187,-9.217865,-3.303396,1.178388,0.61118,0.77367,0.17161
1700499619875000,-9.215865,-3.330396,1.183388,0.64618,0.72867,0.18661
1700499619882812,-9.217865,-3.323396,1.196388,0.64818,0.71367,0.20161
1700499619890625,-9.220865,-3.308396,1.185388,0.70618,0.72367,0.28461
1700499619898437,-9.189865,-3.293396,1.185388,0.66118,0.69567,0.25161
1700499619906250,-9.180865,-3.273396,1.214388,0.67318,0.70867,0.20461
1700499619914062,-9.187865,-3.246396,1.226388,0.57618,0.72367,0.22061
1700499619921875,-9.169865,-3.258396,1.226388,0.46318,0.72467,0.18861
1700499619929687,-9.155865,-3.300396,1.269388,0.42918,0.70667,0.22161
1700499619937500,-9.125865,-3.331396,1.302388,0.43518,0.69467,0.26761
1700499619945312,-9.89865,-3.365396,1.295388,0.42218,0.77567,0.25061
1700499619953125,-9.50865,-3.403396,1.286388,0.34618,0.69967,0.21661
1700499619960937,-9.23865,-3.428396,1.282388,0.19618,0.58667,0.25061
1700499619968750,-9.61865,-3.423396,1.282388,0.11518,0.50867,0.25061
1700499619976562,-9.108865,-3.411396,1.284388,0.4482,0.47767,0.28261
1700499619984375,-9.162865,-3.419396,1.269388,0.7882,0.28967,0.20261
1700499619992187,-9.209865,-3.403396,1.260388,0.24282,0.22667,0.10761
1700499620000000,-9.232865,-3.382396,1.239388,0.32982,0.21667,0.18461
1700499620007812,-9.241865,-3.367396,1.253388,0.31682,0.18267,0.18561
1700499620015625,-9.251865,-3.345396,1.266388,0.39182,0.23967,0.14061
1700499620023437,-9.248865,-3.363396,1.266388,0.46982,0.16267,0.17161
1700499620031250,-9.222865,-3.343396,1.273388,0.53682,0.20767,0.18861
1700499620039062,-9.244865,-3.309396,1.253388,0.57582,0.22867,0.20161
1700499620046875,-9.299865,-3.242396,1.253388,0.59182,0.22967,0.16961
1700499620054687,-9.369865,-3.197396,1.246388,0.51082,0.27767,0.7261
1700499620062500,-9.398865,-3.194396,1.250388,0.52982,0.24667,0.2239
1700499620070312,-9.391865,-3.218396,1.259388,0.46182,0.23367,0.3939
1700499620078125,-9.379865,-3.267396,1.271388,0.40182,0.35567,0.7039
1700499620085937,-9.370865,-3.270396,1.266388,0.34182,0.41367,0.2761
1700499620093750,-9.355865,-3.253396,1.253388,0.32682,0.47667,0.439
1700499620101562,-9.366865,-3.241396,1.257388,0.16482,0.46067,0.5961
1700499620109375,-9.378865,-3.210396,1.248388,0.6382,0.57167,0.13861
1700499620117187,-9.367865,-3.179396,1.262388,0.4018,0.68367,0.26461
1700499620125000,-9.318865,-3.144396,1.264388,0.18518,0.76167,0.31261
1700499620132812,-9.278865,-3.125396,1.243388,0.20318,0.80867,0.34461
1700499620140625,-9.259865,-3.85396,1.259388,0.35918,0.82067,0.36261
1700499620148437,-9.246865,-3.62396,1.273388,0.49518,0.95667,0.31661
1700499620156250,-9.241865,-3.57396,1.284388,0.64618,0.103867,0.36361
1700499620164062,-9.236865,-3.86396,1.275388,0.69718,0.102367,0.37861
1700499620171875,-9.242865,-3.125396,1.253388,0.82818,0.97867,0.36161
1700499620179687,-9.208865,-3.175396,1.253388,0.98918,0.108767,0.39361
1700499620187500,-9.183865,-3.222396,1.253388,0.95318,0.114767,0.39561
1700499620195312,-9.138865,-3.271396,1.246388,0.96418,0.109667,0.42961
1700499620203125,-9.97865,-3.296396,1.250388,0.94918,0.114567,0.38061
1700499620210937,-9.90865,-3.298396,1.244388,0.97018,0.103867,0.41161
1700499620218750,-9.85865,-3.301396,1.234388,0.95518,0.102467,0.34661
1700499620226562,-9.91865,-3.371396,1.226388,0.90518,0.92967,0.37861
1700499620234375,-9.112865,-3.444396,1.230388,0.82818,0.96367,0.36161
1700499620242187,-9.114865,-3.461396,1.259388,0.75218,0.82567,0.34461
1700499620250000,-9.128865,-3.429396,1.266388,0.67718,0.72467,0.36361
1700499620257812,-9.138865,-3.380396,1.259388,0.59718,0.72667,0.28361
1700499620265625,-9.147865,-3.346396,1.250388,0.59918,0.68067,0.23461
1700499620273437,-9.161865,-3.308396,1.248388,0.47218,0.55767,0.18561
1700499620281250,-9.173865,-3.295396,1.223388,0.39918,0.47367,0.23661
1700499620289062,-9.202865,-3.266396,1.214388,0.37318,0.46367,0.17061
1700499620296875,-9.227865,-3.236396,1.221388,0.34618,0.46667,0.13661
1700499620304687,-9.258865,-3.245396,1.214388,0.18018,0.55767,0.12161
1700499620312500,-9.270865,-3.254396,1.237388,0.27018,0.50667,0.10861
1700499620320312,-9.287865,-3.275396,1.214388,0.29418,0.52667,0.18561
1700499620328125,-9.280865,-3.311396,1.187388,0.28218,0.60867,0.8761
1700499620335937,-9.277865,-3.342396,1.221388,0.19418,0.52567,0.9061
1700499620343750,-9.281865,-3.359396,1.248388,0.28818,0.60967,0.26261
1700499620351562,-9.297865,-3.342396,1.271388,0.22918,0.60367,0.21761
1700499620359375,-9.304865,-3.310396,1.287388,0.18318,0.62067,0.21761
1700499620367187,-9.305865,-3.266396,1.296388,0.19518,0.66467,0.23461
1700499620375000,-9.297865,-3.213396,1.311388,0.19718,0.71267,0.28261
1700499620382812,-9.246865,-3.192396,1.307388,0.26418,0.71367,0.29761
1700499620390625,-9.223865,-3.176396,1.300388,0.20618,0.76567,0.23061
1700499620398437,-9.200865,-3.160396,1.307388,0.22518,0.74067,0.28361
1700499620406250,-9.199865,-3.168396,1.300388,0.29518,0.80767,0.23361
1700499620414062,-9.198865,-3.162396,1.323388,0.18618,0.75167,0.31761
1700499620421875,-9.199865,-3.168396,1.311388,0.23118,0.77567,0.26561
1700499620429687,-9.217865,-3.190396,1.318388,0.19418,0.75667,0.34761
1700499620437500,-9.219865,-3.246396,1.303388,0.27018,0.78467,0.33261
1700499620445312,-9.209865,-3.303396,1.293388,0.19218,0.73967,0.34861
1700499620453125,-9.204865,-3.333396,1.294388,0.17218,0.73667,0.36561
1700499620460937,-9.199865,-3.336396,1.309388,0.8518,0.71167,0.34661
1700499620468750,-9.170865,-3.331396,1.321388,0.3118,0.72367,0.36461
1700499620476562,-9.141865,-3.335396,1.318388,0.7918,0.69267,0.31661
1700499620484375,-9.118865,-3.351396,1.336388,0.6282,0.67967,0.29861
1700499620492187,-9.116865,-3.358396,1.350388,0.9482,0.61767,0.23461
1700499620500000,-9.109865,-3.351396,1.338388,0.25782,0.60067,0.25161
1700499620507812,-9.127865,-3.353396,1.314388,0.27482,0.50567,0.31561
1700499620515625,-9.125865,-3.371396,1.316388,0.30782,0.49067,0.23561
1700499620523437,-9.124865,-3.391396,1.320388,0.35482,0.42967,0.21961
1700499620531250,-9.103865,-3.354396,1.314388,0.51782,0.47467,0.21961
1700499620539062,-9.112865,-3.360396,1.287388,0.48782,0.28667,0.14061
1700499620546875,-9.154865,-3.335396,1.287388,0.53382,0.21067,0.7561
1700499620554687,-9.222865,-3.288396,1.293388,0.58182,0.22767,0.1061
1700499620562500,-9.261865,-3.245396,1.302388,0.60882,0.21667,0.2339
1700499620570312,-9.293865,-3.200396,1.298388,0.72782,0.21067,0.10761
1700499620578125,-9.309865,-3.176396,1.287388,0.74782,0.16167,0.7661
1700499620585937,-9.327865,-3.160396,1.278388,0.56682,0.21067,0.2761
1700499620593750,-9.377865,-3.159396,1.226388,0.51982,0.36767,0.2039
1700499620601562,-9.403865,-3.179396,1.221388,0.38782,0.47867,0.2139
1700499620609375,-9.403865,-3.198396,1.237388,0.32182,0.47767,0.10661
1700499620617187,-9.398865,-3.216396,1.228388,0.32482,0.45967,0.18761
1700499620625000,-9.380865,-3.232396,1.221388,0.19082,0.52367,0.31461
1700499620632812,-9.360865,-3.224396,1.251388,0.4882,0.67867,0.26761
1700499620640625,-9.333865,-3.202396,1.287388,0.7482,0.74367,0.31361
1700499620648437,-9.329865,-3.173396,1.314388,0.11518,0.77267,0.36261
1700499620656250,-9.316865,-3.160396,1.323388,0.16618,0.72967,0.23361
1700499620664062,-9.290865,-3.134396,1.366388,0.19118,0.92667,0.34861
1700499620671875,-9.241865,-3.90396,1.370388,0.17818,0.89767,0.26661
1700499620679687,-9.192865,-3.62396,1.363388,0.32018,0.89567,0.33261
1700499620687500,-9.185865,-3.74396,1.352388,0.34918,0.89467,0.25261
1700499620695312,-9.176865,-3.89396,1.356388,0.42218,0.94567,0.34661
1700499620703125,-9.178865,-3.118396,1.329388,0.51518,0.92867,0.26761
1700499620710937,-9.198865,-3.133396,1.293388,0.54818,0.89667,0.31561
1700499620718750,-9.224865,-3.173396,1.296388,0.62918,0.86567,0.31561
1700499620726562,-9.225865,-3.228396,1.289388,0.72818,0.88267,0.34661
1700499620734375,-9.193865,-3.279396,1.291388,0.69218,0.91067,0.42861
1700499620742187,-9.185865,-3.343396,1.323388,0.68218,0.96067,0.45861
1700499620750000,-9.183865,-3.359396,1.332388,0.55918,0.89267,0.42961
1700499620757812,-9.174865,-3.377396,1.336388,0.51618,0.84967,0.37961
1700499620765625,-9.154865,-3.377396,1.372388,0.43818,0.83567,0.39461
1700499620773437,-9.109865,-3.387396,1.370388,0.42818,0.79867,0.31761
1700499620781250,-9.80865,-3.370396,1.370388,0.17618,0.72367,0.33261
1700499620789062,-9.73865,-3.345396,1.368388,0.18218,0.72967,0.24961
1700499620796875,-9.67865,-3.336396,1.359388,0.4718,0.67967,0.17161
1700499620804687,-9.105865,-3.336396,1.345388,0.6682,0.55367,0.20361
1700499620812500,-9.153865,-3.313396,1.341388,0.16382,0.49167,0.13961
1700499620820312,-9.176865,-3.266396,1.339388,0.27782,0.44467,0.2761
1700499620828125,-9.226865,-3.188396,1.334388,0.19182,0.35667,0.7039
1700499620835937,-9.256865,-3.130396,1.305388,0.16082,0.24667,0.10239
1700499620843750,-9.252865,-3.108396,1.327388,0.18182,0.39967,0.8439
1700499620851562,-9.285865,-3.123396,1.343388,0.11982,0.46067,0.8439
1700499620859375,-9.332865,-3.133396,1.339388,0.1682,0.47967,0.5339
1700499620867187,-9.341865,-3.153396,1.332388,0.12018,0.52167,0.6739
1700499620875000,-9.340865,-3.181396,1.314388,0.18118,0.62167,0.8961
1700499620882812,-9.324865,-3.200396,1.307388,0.21418,0.63467,0.28161
1700499620890625,-9.311865,-3.236396,1.275388,0.17318,0.69267,0.22061
1700499620898437,-9.301865,-3.249396,1.287388,0.27618,0.72667,0.31461
1700499620906250,-9.271865,-3.205396,1.307388,0.35418,0.77267,0.26761
1700499620914062,-9.260865,-3.174396,1.318388,0.37418,0.74367,0.26661
1700499620921875,-9.234865,-3.133396,1.305388,0.44918,0.72467,0.26761
1700499620929687,-9.198865,-3.95396,1.320388,0.43818,0.74267,0.33061
1700499620937500,-9.187865,-3.62396,1.338388,0.50618,0.71467,0.28161
1700499620945312,-9.181865,-3.58396,1.336388,0.62618,0.73867,0.34861
1700499620953125,-9.212865,-3.55396,1.329388,0.61418,0.72567,0.36361
1700499620960937,-9.257865,-3.75396,1.307388,0.69518,0.72567,0.39561
1700499620968750,-9.277865,-3.117396,1.321388,0.69218,0.78467,0.46061
1700499620976562,-9.267865,-3.163396,1.345388,0.71018,0.78667,0.44461
1700499620984375,-9.266865,-3.191396,1.336388,0.70118,0.74467,0.45761
1700499620992187,-9.264865,-3.230396,1.327388,0.69118,0.76967,0.41261
1700499621000000,-9.221865,-3.241396,1.341388,0.71518,0.74367,0.37861
1700499621007812,-9.194865,-3.259396,1.332388,0.66318,0.74067,0.45961
1700499621015625,-9.204865,-3.277396,1.329388,0.45718,0.68067,0.42661
1700499621023437,-9.229865,-3.261396,1.323388,0.45418,0.63167,0.39561
1700499621031250,-9.258865,-3.249396,1.314388,0.44218,0.61767,0.47461
1700499621039062,-9.268865,-3.218396,1.330388,0.45418,0.53867,0.41161
1700499621046875,-9.264865,-3.179396,1.327388,0.51618,0.51967,0.44461
1700499621054687,-9.280865,-3.150396,1.332388,0.58118,0.61567,0.39561
1700499621062500,-9.277865,-3.108396,1.352388,0.68018,0.66267,0.45961
1700499621070312,-9.269865,-3.52396,1.366388,0.71018,0.73967,0.49261
1700499621078125,-9.253865,-3.32396,1.377388,0.70218,0.74467,0.47361
1700499621085937,-9.256865,-3.26396,1.370388,0.73718,0.75067,0.52661
1700499621093750,-9.249865,-2.997396,1.375388,0.80918,0.75567,0.52361
1700499621101562,-9.254865,-3.6396,1.325388,0.91918,0.69167,0.49261
1700499621109375,-9.295865,-3.58396,1.291388,0.94618,0.58867,0.55361
1700499621117187,-9.305865,-3.129396,1.262388,0.100418,0.64767,0.52361
1700499621125000,-9.300865,-3.162396,1.262388,0.99618,0.72967,0.58461
1700499621132812,-9.291865,-3.193396,1.273388,0.100818,0.74267,0.58661
1700499621140625,-9.272865,-3.205396,1.289388,0.102618,0.72867,0.58561
1700499621148437,-9.264865,-3.207396,1.291388,0.105518,0.69667,0.45861
1700499621156250,-9.263865,-3.209396,1.300388,0.102718,0.77667,0.50461
1700499621164062,-9.257865,-3.198396,1.327388,0.100418,0.72667,0.44261
1700499621171875,-9.255865,-3.178396,1.341388,0.94218,0.74367,0.45861
1700499621179687,-9.242865,-3.148396,1.345388,0.94018,0.72667,0.47461
1700499621187500,-9.218865,-3.162396,1.339388,0.94818,0.67567,0.38161
1700499621195312,-9.182865,-3.187396,1.334388,0.93218,0.61367,0.38161
1700499621203125,-9.172865,-3.204396,1.332388,0.93718,0.66367,0.34761
1700499621210937,-9.181865,-3.253396,1.303388,0.80318,0.58267,0.34961
1700499621218750,-9.196865,-3.297396,1.294388,0.75018,0.54967,0.25461
1700499621226562,-9.202865,-3.303396,1.271388,0.69518,0.47767,0.28261
1700499621234375,-9.220865,-3.303396,1.251388,0.66018,0.46067,0.18761
1700499621242187,-9.227865,-3.279396,1.255388,0.52418,0.47167,0.20661
1700499621250000,-9.227865,-3.245396,1.284388,0.45918,0.49867,0.12061
1700499621257812,-9.228865,-3.210396,1.305388,0.41918,0.50867,0.12261
1700499621265625,-9.235865,-3.190396,1.327388,0.28918,0.44667,0.5861
1700499621273437,-9.244865,-3.168396,1.345388,0.32018,0.35267,0.5961
1700499621281250,-9.245865,-3.131396,1.375388,0.34718,0.49067,0.339
1700499621289062,-9.252865,-3.81396,1.391388,0.41718,0.52567,0.539
1700499621296875,-9.257865,-3.75396,1.397388,0.40018,0.49467,0.8539
1700499621304687,-9.261865,-3.108396,1.384388,0.36318,0.49067,0.6739
1700499621312500,-9.236865,-3.150396,1.391388,0.43018,0.58667,0.5239
1700499621320312,-9.233865,-3.170396,1.375388,0.42818,0.60167,0.6739
1700499621328125,-9.238865,-3.164396,1.314388,0.44518,0.47667,0.5239
1700499621335937,-9.243865,-3.148396,1.298388,0.42618,0.45867,0.239
1700499621343750,-9.240865,-3.157396,1.259388,0.43518,0.48067,0.2139
1700499621351562,-9.233865,-3.168396,1.273388,0.38218,0.56867,0.10861
1700499621359375,-9.213865,-3.173396,1.289388,0.28518,0.50667,0.9261
1700499621367187,-9.208865,-3.192396,1.282388,0.35818,0.52667,0.10561
1700499621375000,-9.237865,-3.206396,1.282388,0.26718,0.55167,0.10861
1700499621382812,-9.264865,-3.223396,1.273388,0.30518,0.47867,0.5861
1700499621390625,-9.294865,-3.258396,1.287388,0.22718,0.55867,0.3839
1700499621398437,-9.303865,-3.255396,1.293388,0.22218,0.61867,0.3739
1700499621406250,-9.247865,-3.260396,1.293388,0.19418,0.60567,0.2239
1700499621414062,-9.164865,-3.280396,1.291388,0.18618,0.56967,0.6739
1700499621421875,-9.108865,-3.296396,1.289388,0.14218,0.55667,0.8539
1700499621429687,-9.83865,-3.314396,1.291388,0.6018,0.47767,0.6839
1700499621437500,-9.118865,-3.340396,1.282388,0.3282,0.38667,0.5439
1700499621445312,-9.199865,-3.355396,1.302388,0.29482,0.32167,0.13239
1700499621453125,-9.256865,-3.318396,1.312388,0.29782,0.30367,0.8339
1700499621460937,-9.270865,-3.265396,1.298388,0.34082,0.29167,0.11739
1700499621468750,-9.239865,-3.192396,1.300388,0.32382,0.24667,0.16639
1700499621476562,-9.195865,-3.135396,1.307388,0.33982,0.27767,0.16639
1700499621484375,-9.166865,-3.54396,1.305388,0.34482,0.22667,0.14839
1700499621492187,-9.160865,-2.974396,1.307388,0.32582,0.22967,0.18139
1700499621500000,-9.205865,-2.976396,1.282388,0.34182,0.21367,0.16539
1700499621507812,-9.254865,-3.22396,1.262388,0.25282,0.22467,0.21139
1700499621515625,-9.295865,-3.72396,1.237388,0.7882,0.23267,0.16639
1700499621523437,-9.309865,-3.144396,1.230388,0.7982,0.37267,0.15039
1700499621531250,-9.295865,-3.204396,1.201388,0.6382,0.43467,0.15039
1700499621539062,-9.260865,-3.264396,1.189388,0.982,0.46967,0.12039
1700499621546875,-9.249865,-3.280396,1.176388,0.4482,0.37367,0.10339
1700499621554687,-9.247865,-3.269396,1.162388,0.518,0.37467,0.10339
1700499621562500,-9.236865,-3.254396,1.165388,0.2782,0.24867,0.5539
