time,Acceleration X (m/s^2),Acceleration Y (m/s^2),Acceleration Z (m/s^2),Angular Velocity X (rad/s),Angular Velocity Y (rad/s),Angular Velocity Z (rad/s)
1700499192031250,-9.238738,-2.888063,1.982999,-0.003776,,
1700499192039062,-9.218738,-2.871063,1.986999,0.5076,0.62857,0.86
1700499192046875,-9.213738,-2.873063,2.9999,0.5376,0.66357,0.1886
1700499192054687,-9.235738,-2.876063,2.11999,0.5576,0.68057,0.1314
1700499192062500,-9.231738,-2.873063,2.25999,0.5276,0.59957,0.1786
1700499192070312,-9.226738,-2.867063,2.20999,0.12276,0.55757,0.2814
1700499192085937,-9.201738,-2.854063,2.9999,0.12476,0.52857,0.386
1700499192093750,-9.177738,-2.866063,2.9999,0.15576,0.55857,0.1986
1700499192101562,-9.176738,-2.872063,2.47999,0.12576,0.56057,0.1114
1700499192109375,-9.184738,-2.877063,2.18999,0.13776,0.44757,0.3586
1700499192132812,-9.221738,-2.907063,2.2999,0.4276,0.46457,0.386
1700499192140625,-9.228738,-2.901063,1.982999,0.5476,0.43057,0.6686
1700499192148437,-9.232738,-2.912063,1.953999,0.7276,0.44757,0.8386
1700499192156250,-9.218738,-2.916063,1.973999,0.324,0.48157,0.2714
1700499192164062,-9.216738,-2.932063,2.9999,0.2424,0.43257,0.5186
1700499192171875,-9.225738,-2.943063,2.7999,0.2224,0.44857,0.3586
1700499192179687,-9.207738,-2.930063,1.998999,0.10424,0.41657,0.5186
1700499192187500,-9.194738,-2.939063,1.989999,0.10524,0.43057,0.3486
1700499192195312,-9.210738,-2.930063,1.996999,0.10524,0.49257,0.286
1700499192203125,-9.201738,-2.910063,2.18999,0.10224,0.47957,0.1214
1700499192210937,-9.199738,-2.897063,2.999,0.13624,0.49257,0.9314
1700499192218750,-9.212738,-2.894063,2.14999,0.13424,0.46457,0.1214
1700499192226562,-9.227738,-2.879063,2.25999,0.15524,0.42857,0.2914
1700499192234375,-9.229738,-2.873063,2.20999,0.12424,0.42857,0.6586
1700499192242187,-9.211738,-2.891063,2.25999,0.4324,0.47557,0.5086
1700499192250000,-9.237738,-2.901063,1.996999,0.924,0.49457,0.11586
1700499192257812,-9.234738,-2.923063,1.987999,0.824,0.44657,0.3486
1700499192265625,-9.235738,-2.937063,1.991999,0.5476,0.49157,0.1314
1700499192273437,-9.250738,-2.945063,1.989999,0.10276,0.47557,0.1886
1700499192281250,-9.247738,-2.954063,1.953999,0.15276,0.55557,0.1314
1700499192289062,-9.259738,-2.943063,1.973999,0.11876,0.47557,0.1314
1700499192296875,-9.266738,-2.929063,1.968999,0.13776,0.44757,0.3586
1700499192304687,-9.255738,-2.914063,1.959999,0.13376,0.41257,0.3386
1700499192312500,-9.244738,-2.919063,1.959999,0.14876,0.42757,0.4986
1700499192320312,-9.226738,-2.912063,1.953999,0.12076,0.41557,0.5086
1700499192328125,-9.228738,-2.919063,1.973999,0.11976,0.50957,0.9886
1700499192335937,-9.226738,-2.926063,1.984999,0.13376,0.45957,0.4986
1700499192343750,-9.243738,-2.936063,1.977999,0.8776,0.43057,0.3486
1700499192351562,-9.249738,-2.944063,1.989999,0.5976,0.57157,0.14114
1700499192359375,-9.243738,-2.939063,2.2999,0.8776,0.58457,0.9314
1700499192367187,-9.234738,-2.927063,1.989999,0.5624,0.50757,0.9314
1700499192375000,-9.213738,-2.917063,2.9999,0.2624,0.58257,0.11014
1700499192382812,-9.193738,-2.902063,2.18999,0.5824,0.49057,0.3014
1700499192390625,-9.206738,-2.892063,1.991999,0.4024,0.55557,0.2914
1700499192398437,-9.236738,-2.884063,1.989999,0.7076,0.48957,0.12614
1700499192406250,-9.259738,-2.884063,1.984999,0.9976,0.54957,0.7914
1700499192414062,-9.260738,-2.888063,1.980999,0.8576,0.55057,0.11014
1700499192421875,-9.262738,-2.901063,1.966999,0.13576,0.50457,0.17414
1700499192429687,-9.269738,-2.894063,1.948999,0.13776,0.61657,0.17314
1700499192437500,-9.259738,-2.909063,1.932999,0.12276,0.61657,0.23714
1700499192445312,-9.243738,-2.916063,1.926999,0.12576,0.63457,0.25214
1700499192453125,-9.248738,-2.930063,1.937999,0.13576,0.73857,0.20614
1700499192460937,-9.212738,-2.927063,1.957999,0.10676,0.71057,0.18914
1700499192468750,-9.224738,-2.922063,1.957999,0.11776,0.70457,0.23914
1700499192476562,-9.232738,-2.932063,1.971999,0.5576,0.69257,0.22214
1700499192484375,-9.230738,-2.921063,1.973999,0.5676,0.61757,0.7714
1700499192492187,-9.219738,-2.912063,1.953999,0.16976,0.58557,0.10914
1700499192500000,-9.216738,-2.912063,1.964999,0.14076,0.58757,0.18914
1700499192507812,-9.209738,-2.918063,1.971999,0.12376,0.58957,0.4414
1700499192515625,-9.214738,-2.921063,1.959999,0.10476,0.61657,0.10914
1700499192523437,-9.219738,-2.912063,1.948999,0.12076,0.60057,0.15814
1700499192531250,-9.230738,-2.898063,1.941999,0.9176,0.64957,0.17314
1700499192539062,-9.226738,-2.886063,1.941999,0.8876,0.66157,0.22214
1700499192546875,-9.220738,-2.893063,1.968999,0.7076,0.61357,0.20614
1700499192554687,-9.251738,-2.919063,1.953999,0.13576,0.53457,0.22314
1700499192562500,-9.270738,-2.935063,1.953999,0.12376,0.55757,0.7614
1700499192570312,-9.286738,-2.931063,1.937999,0.13576,0.47657,0.1314
1700499192578125,-9.280738,-2.934063,1.917999,0.11976,0.45857,0.14214
1700499192585937,-9.294738,-2.927063,1.930999,0.5176,0.42657,0.1786
1700499192593750,-9.265738,-2.906063,1.953999,0.6776,0.45557,0.7914
1700499192601562,-9.235738,-2.903063,1.935999,0.10476,0.53957,0.286
1700499192609375,-9.235738,-2.905063,1.932999,0.13676,0.46257,0.286
1700499192617187,-9.236738,-2.899063,1.921999,0.11776,0.45757,0.6214
1700499192625000,-9.215738,-2.901063,1.923999,0.5576,0.55557,0.286
1700499192632812,-9.241738,-2.895063,1.930999,0.9376,0.51357,0.2714
1700499192640625,-9.270738,-2.902063,1.955999,0.13876,0.54157,0.2814
1700499192648437,-9.276738,-2.901063,1.946999,0.11576,0.61457,0.186
1700499192656250,-9.278738,-2.912063,1.937999,0.13176,0.67657,0.3014
1700499192664062,-9.266738,-2.921063,1.941999,0.11876,0.61457,0.12614
1700499192671875,-9.266738,-2.916063,1.955999,0.11976,0.66257,0.9314
1700499192679687,-9.260738,-2.892063,1.946999,0.13476,0.58257,0.12614
1700499192687500,-9.221738,-2.888063,1.946999,0.12076,0.63457,0.1314
1700499192695312,-9.206738,-2.888063,1.953999,0.10476,0.58757,0.1886
1700499192703125,-9.213738,-2.904063,1.941999,0.13476,0.58557,0.1886
1700499192710937,-9.210738,-2.919063,1.939999,0.11976,0.54057,0.5086
1700499192718750,-9.230738,-2.921063,1.932999,0.11876,0.53757,0.3014
1700499192726562,-9.261738,-2.936063,1.941999,0.13776,0.50957,0.1314
1700499192734375,-9.267738,-2.942063,1.957999,0.12376,0.57557,0.3586
1700499192742187,-9.265738,-2.930063,1.955999,0.10876,0.52957,0.2086
1700499192750000,-9.266738,-2.934063,1.957999,0.11876,0.55357,0.3014
1700499192757812,-9.254738,-2.947063,1.957999,0.15276,0.60057,0.12514
1700499192765625,-9.239738,-2.938063,1.948999,0.13776,0.61657,0.14114
1700499192773437,-9.211738,-2.929063,1.957999,0.14076,0.65057,0.15614
1700499192781250,-9.210738,-2.903063,1.957999,0.12276,0.58657,0.14114
1700499192789062,-9.224738,-2.908063,1.953999,0.15276,0.61757,0.7714
1700499192796875,-9.245738,-2.922063,1.968999,0.2676,0.65257,0.4414
1700499192804687,-9.230738,-2.921063,1.957999,0.7376,0.60257,0.7714
1700499192812500,-9.234738,-2.931063,1.955999,0.13976,0.63557,0.7614
1700499192820312,-9.231738,-2.955063,1.953999,0.6076,0.60457,0.15614
1700499192828125,-9.220738,-2.961063,1.962999,0.12176,0.64957,0.6114
1700499192835937,-9.205738,-2.954063,1.948999,0.13676,0.55557,0.2914
1700499192843750,-9.178738,-2.973063,2.5999,0.8676,0.58457,0.4614
1700499192851562,-9.195738,-2.970063,1.993999,0.3924,0.65057,0.6114
1700499192859375,-9.209738,-2.976063,1.982999,0.776,0.58757,0.1314
1700499192867187,-9.198738,-2.970063,2.2999,0.676,0.58557,0.2914
1700499192875000,-9.198738,-2.974063,1.998999,0.8976,0.52657,0.1986
1700499192882812,-9.188738,-2.967063,2.9999,0.3724,0.44857,0.1214
1700499192890625,-9.189738,-2.948063,2.9999,0.876,0.44757,0.3586
1700499192898437,-9.172738,-2.937063,1.989999,0.3976,0.41457,0.1886
1700499192906250,-9.180738,-2.932063,1.986999,0.3824,0.41757,0.3586
1700499192914062,-9.196738,-2.950063,1.989999,0.3976,0.42957,0.4514
1700499192921875,-9.194738,-2.939063,1.982999,0.3876,0.39957,0.5086
1700499192929687,-9.224738,-2.939063,1.941999,0.476,0.41257,0.3386
1700499192937500,-9.236738,-2.940063,1.944999,0.7276,0.46357,0.3586
1700499192945312,-9.239738,-2.932063,1.957999,0.10276,0.49257,0.6686
1700499192953125,-9.237738,-2.921063,1.950999,0.5676,0.46157,0.1314
1700499192960937,-9.229738,-2.954063,1.971999,0.4176,0.47857,0.4514
1700499192968750,-9.230738,-2.956063,1.984999,0.12176,0.57057,0.10914
1700499192976562,-9.210738,-2.959063,1.984999,0.2176,0.55157,0.11014
1700499192984375,-9.203738,-2.943063,1.966999,0.10424,0.49257,0.9314
1700499192992187,-9.194738,-2.930063,1.971999,0.5576,0.53857,0.7714
1700499193000000,-9.201738,-2.924063,1.991999,0.7076,0.49157,0.286
1700499193007812,-9.194738,-2.928063,1.998999,0.5524,0.53857,0.12514
1700499193015625,-9.197738,-2.946063,2.7999,0.1224,0.52057,0.186
1700499193023437,-9.195738,-2.940063,2.20999,0.6976,0.55257,0.4614
1700499193031250,-9.199738,-2.939063,2.29999,0.8776,0.44457,0.4514
1700499193039062,-9.197738,-2.928063,1.982999,0.3876,0.47657,0.5086
1700499193046875,-9.223738,-2.934063,1.982999,0.7576,0.46357,0.9214
1700499193054687,-9.237738,-2.952063,1.971999,0.6976,0.50457,0.11014
1700499193062500,-9.237738,-2.968063,1.950999,0.5376,0.48857,0.14214
1700499193070312,-9.228738,-2.961063,1.971999,0.2176,0.50357,0.17414
1700499193078125,-9.225738,-2.963063,1.953999,0.2576,0.49257,0.14114
1700499193085937,-9.232738,-2.963063,1.910999,0.4176,0.41257,0.20514
1700499193093750,-9.245738,-2.958063,1.905999,0.3724,0.42957,0.22114
1700499193101562,-9.259738,-2.949063,1.919999,0.7476,0.46157,0.14114
1700499193109375,-9.273738,-2.950063,1.914999,0.7424,0.47357,0.9414
1700499193117187,-9.280738,-2.936063,1.941999,0.2076,0.45757,0.4614
1700499193125000,-9.271738,-2.943063,1.975999,0.13476,0.44157,0.12614
1700499193132812,-9.269738,-2.932063,1.991999,0.6976,0.58157,0.12614
1700499193140625,-9.248738,-2.932063,1.989999,0.7176,0.58457,0.9314
1700499193148437,-9.230738,-2.926063,2.999,0.12076,0.53657,0.20614
1700499193156250,-9.206738,-2.911063,2.16999,0.4076,0.59857,0.27014
1700499193164062,-9.208738,-2.899063,1.977999,0.14076,0.61757,0.23714
1700499193171875,-9.217738,-2.910063,1.973999,0.14076,0.57057,0.25314
1700499193179687,-9.183738,-2.917063,1.964999,0.10876,0.60257,0.22114
1700499193187500,-9.193738,-2.936063,1.930999,0.6976,0.48757,0.20714
1700499193195312,-9.194738,-2.955063,1.930999,0.13576,0.50357,0.25514
1700499193203125,-9.216738,-2.972063,1.921999,0.8876,0.50557,0.22214
1700499193210937,-9.236738,-2.965063,1.935999,0.14076,0.53957,0.23714
1700499193218750,-9.255738,-2.937063,1.957999,0.8776,0.59757,0.23814
1700499193226562,-9.246738,-2.941063,1.966999,0.13676,0.58357,0.20614
1700499193234375,-9.233738,-2.932063,1.991999,0.10476,0.59857,0.19014
1700499193242187,-9.240738,-2.930063,1.955999,0.7076,0.56557,0.20714
1700499193250000,-9.230738,-2.934063,1.975999,0.13676,0.58357,0.22214
1700499193257812,-9.216738,-2.947063,1.973999,0.12376,0.58757,0.14114
1700499193265625,-9.216738,-2.968063,1.966999,0.10476,0.61557,0.19014
1700499193273437,-9.224738,-2.964063,1.980999,0.13376,0.59657,0.20714
1700499193281250,-9.228738,-2.962063,1.989999,0.11676,0.56457,0.19114
1700499193289062,-9.239738,-2.943063,1.968999,0.5676,0.58357,0.22214
1700499193296875,-9.228738,-2.923063,1.989999,0.4276,0.64857,0.20514
1700499193304687,-9.225738,-2.921063,1.987999,0.12276,0.67957,0.22114
1700499193312500,-9.228738,-2.908063,1.984999,0.8876,0.59857,0.22214
1700499193320312,-9.208738,-2.920063,1.977999,0.13376,0.61357,0.12614
1700499193328125,-9.197738,-2.919063,1.971999,0.11976,0.66357,0.6114
1700499193335937,-9.208738,-2.927063,1.953999,0.11776,0.56557,0.15914
1700499193343750,-9.230738,-2.937063,1.937999,0.13476,0.62957,0.11014
1700499193351562,-9.252738,-2.924063,1.921999,0.10876,0.62057,0.10814
1700499193359375,-9.270738,-2.920063,1.932999,0.7576,0.60457,0.12414
1700499193367187,-9.281738,-2.920063,1.914999,0.13776,0.64957,0.9314
1700499193375000,-9.284738,-2.922063,1.928999,0.12076,0.69657,0.4514
1700499193382812,-9.259738,-2.923063,1.991999,0.13676,0.74157,0.12514
1700499193390625,-9.245738,-2.922063,1.998999,0.14076,0.68457,0.4414
1700499193398437,-9.242738,-2.914063,1.987999,0.11976,0.70757,0.20614
1700499193406250,-9.221738,-2.919063,2.2999,0.15376,0.75657,0.18914
1700499193414062,-9.217738,-2.921063,1.989999,0.13576,0.67857,0.7714
1700499193421875,-9.203738,-2.937063,1.975999,0.13476,0.64657,0.9414
1700499193429687,-9.190738,-2.939063,1.975999,0.5576,0.66257,0.14214
1700499193437500,-9.205738,-2.959063,1.950999,0.776,0.59857,0.19014
1700499193445312,-9.225738,-2.966063,1.957999,0.8676,0.52257,0.286
1700499193453125,-9.216738,-2.941063,1.968999,0.2424,0.56857,0.15814
1700499193460937,-9.210738,-2.931063,1.968999,0.8576,0.55057,0.15814
1700499193468750,-9.201738,-2.915063,1.948999,0.13476,0.55357,0.4614
1700499193476562,-9.219738,-2.903063,1.941999,0.3876,0.50757,0.1314
1700499193484375,-9.229738,-2.911063,1.962999,0.1876,0.45757,0.1786
1700499193492187,-9.231738,-2.910063,1.932999,0.11776,0.44357,0.186
1700499193500000,-9.258738,-2.924063,1.910999,0.11676,0.45757,0.1414
1700499193507812,-9.264738,-2.935063,1.939999,0.13276,0.45757,0.6214
1700499193515625,-9.248738,-2.934063,1.971999,0.11776,0.55257,0.4614
1700499193523437,-9.243738,-2.945063,1.980999,0.5476,0.58457,0.7814
1700499193531250,-9.237738,-2.955063,1.989999,0.11676,0.56557,0.9514
1700499193539062,-9.217738,-2.937063,2.999,0.11876,0.64557,0.12614
1700499193546875,-9.235738,-2.916063,2.11999,0.5576,0.57057,0.286
1700499193554687,-9.229738,-2.909063,2.7999,0.11576,0.56557,0.6314
1700499193562500,-9.202738,-2.920063,2.2999,0.11876,0.55057,0.17414
1700499193570312,-9.199738,-2.922063,2.5999,0.5476,0.55157,0.14214
1700499193578125,-9.217738,-2.920063,1.962999,0.10276,0.55057,0.23914
1700499193585937,-9.207738,-2.919063,1.977999,0.7476,0.58657,0.18914
1700499193593750,-9.222738,-2.924063,1.959999,0.7076,0.56557,0.23914
1700499193601562,-9.232738,-2.952063,1.955999,0.5476,0.58257,0.14214
1700499193609375,-9.227738,-2.970063,1.959999,0.5576,0.61557,0.12614
1700499193617187,-9.232738,-2.965063,1.953999,0.10576,0.60057,0.17314
1700499193625000,-9.212738,-2.950063,1.953999,0.8776,0.66257,0.12614
1700499193632812,-9.204738,-2.933063,1.950999,0.9976,0.58157,0.4714
1700499193640625,-9.202738,-2.936063,1.966999,0.11476,0.59557,0.9514
1700499193648437,-9.192738,-2.955063,1.964999,0.8476,0.58357,0.186
1700499193656250,-9.198738,-2.970063,1.968999,0.13376,0.55357,0.3486
1700499193664062,-9.179738,-2.983063,1.991999,0.10676,0.55857,0.1214
1700499193671875,-9.171738,-2.998063,1.980999,0.6976,0.47457,0.186
1700499193679687,-9.191738,-2.997063,1.977999,0.10276,0.41257,0.1414
1700499193687500,-9.200738,-2.999063,1.980999,0.3876,0.44557,0.3486
1700499193695312,-9.203738,-2.988063,1.971999,0.8476,0.48957,0.186
1700499193703125,-9.194738,-2.969063,1.971999,0.6976,0.42557,0.11114
1700499193710937,-9.201738,-2.970063,1.971999,0.8776,0.49057,0.12614
1700499193718750,-9.206738,-2.960063,1.964999,0.2824,0.52057,0.4614
1700499193726562,-9.206738,-2.928063,1.966999,0.2176,0.50657,0.1314
1700499193734375,-9.230738,-2.928063,1.948999,0.2524,0.42657,0.17414
1700499193742187,-9.257738,-2.914063,1.930999,0.13876,0.44557,0.9314
1700499193750000,-9.268738,-2.920063,1.941999,0.10576,0.50857,0.9314
1700499193757812,-9.271738,-2.919063,1.957999,0.12076,0.51957,0.23814
1700499193765625,-9.260738,-2.928063,1.977999,0.10176,0.47057,0.23914
1700499193773437,-9.249738,-2.937063,1.957999,0.13376,0.50357,0.11114
1700499193781250,-9.235738,-2.926063,1.975999,0.8776,0.56857,0.12614
1700499193789062,-9.212738,-2.937063,2.11999,0.10476,0.53857,0.10914
1700499193796875,-9.208738,-2.937063,1.984999,0.11776,0.48857,0.9414
1700499193804687,-9.203738,-2.959063,1.987999,0.15376,0.55357,0.19014
1700499193812500,-9.195738,-2.946063,2.7999,0.13376,0.59757,0.12614
1700499193820312,-9.201738,-2.967063,1.980999,0.10076,0.56457,0.15914
1700499193828125,-9.176738,-2.969063,1.964999,0.5376,0.55057,0.15814
1700499193835937,-9.170738,-2.971063,1.993999,0.10276,0.47257,0.15814
1700499193843750,-9.195738,-2.963063,1.962999,0.13276,0.43957,0.14314
1700499193851562,-9.231738,-2.938063,1.957999,0.11576,0.51857,0.9514
1700499193859375,-9.254738,-2.933063,1.964999,0.15576,0.40057,0.10914
1700499193867187,-9.268738,-2.929063,1.964999,0.11976,0.47557,0.7814
1700499193875000,-9.259738,-2.920063,1.984999,0.10776,0.50857,0.22114
1700499193882812,-9.262738,-2.921063,1.982999,0.13576,0.45757,0.17414
1700499193890625,-9.251738,-2.910063,2.999,0.8976,0.53757,0.20614
1700499193898437,-9.233738,-2.923063,1.982999,0.16976,0.52157,0.19014
1700499193906250,-9.228738,-2.944063,1.955999,0.13476,0.48657,0.23914
1700499193914062,-9.228738,-2.946063,1.957999,0.11876,0.59757,0.20714
1700499193921875,-9.227738,-2.965063,1.953999,0.13676,0.66157,0.20614
1700499193929687,-9.225738,-2.966063,1.964999,0.11976,0.61457,0.15814
1700499193937500,-9.236738,-2.949063,1.977999,0.12376,0.64857,0.25314
1700499193945312,-9.246738,-2.943063,1.991999,0.12076,0.69157,0.27014
1700499193953125,-9.250738,-2.931063,1.987999,0.13876,0.69457,0.22114
1700499193960937,-9.249738,-2.906063,2.7999,0.11776,0.68957,0.23914
1700499193968750,-9.258738,-2.912063,1.989999,0.13576,0.69057,0.27014
1700499193976562,-9.255738,-2.914063,1.977999,0.12176,0.56857,0.19014
1700499193984375,-9.239738,-2.905063,1.975999,0.15276,0.66257,0.17414
1700499193992187,-9.226738,-2.906063,1.944999,0.13676,0.63157,0.17414
1700499194000000,-9.228738,-2.924063,1.937999,0.13576,0.59857,0.19014
1700499194007812,-9.201738,-2.933063,1.968999,0.16776,0.61357,0.20614
1700499194015625,-9.203738,-2.959063,1.950999,0.20176,0.50557,0.22214
1700499194023437,-9.208738,-2.971063,1.973999,0.21376,0.67557,0.11014
1700499194031250,-9.197738,-2.951063,1.986999,0.16676,0.61257,0.20714
1700499194039062,-9.226738,-2.948063,1.941999,0.13676,0.53757,0.15814
1700499194046875,-9.238738,-2.935063,1.955999,0.22276,0.69857,0.18814
1700499194054687,-9.236738,-2.934063,1.989999,0.14076,0.49457,0.15614
1700499194062500,-9.246738,-2.910063,1.975999,0.11976,0.55157,0.17414
1700499194070312,-9.234738,-2.905063,1.980999,0.25476,0.52557,0.20414
1700499194078125,-9.237738,-2.912063,1.984999,0.25176,0.57157,0.12514
1700499194085937,-9.244738,-2.925063,1.987999,0.18576,0.64657,0.17414
1700499194093750,-9.231738,-2.930063,1.980999,0.24676,0.56757,0.7814
1700499194101562,-9.232738,-2.923063,2.7999,0.33176,0.54057,0.4514
1700499194109375,-9.210738,-2.926063,2.9999,0.28176,0.55257,0.14214
1700499194117187,-9.203738,-2.934063,1.993999,0.29976,0.60257,0.12514
1700499194125000,-9.212738,-2.928063,2.9999,0.26676,0.69457,0.15714
1700499194132812,-9.214738,-2.918063,2.7999,0.21976,0.61957,0.10814
1700499194140625,-9.219738,-2.934063,1.993999,0.13776,0.56857,0.19014
1700499194148437,-9.212738,-2.937063,1.991999,0.20276,0.66357,0.20514
1700499194156250,-9.216738,-2.946063,1.996999,0.16976,0.60057,0.17414
1700499194164062,-9.215738,-2.951063,2.2999,0.24776,0.59757,0.19114
1700499194171875,-9.216738,-2.932063,1.998999,0.16876,0.63257,0.7714
1700499194179687,-9.208738,-2.935063,1.962999,0.20176,0.56957,0.10914
1700499194187500,-9.227738,-2.947063,1.955999,0.25476,0.49657,0.7614
1700499194195312,-9.225738,-2.956063,1.973999,0.16876,0.58757,0.3486
1700499194203125,-9.236738,-2.960063,1.975999,0.15476,0.55557,0.9314
1700499194210937,-9.249738,-2.960063,1.978999,0.17376,0.44857,0.14014
1700499194218750,-9.225738,-2.943063,1.996999,0.18476,0.50757,0.4514
1700499194226562,-9.215738,-2.939063,1.991999,0.13476,0.44357,0.6214
1700499194234375,-9.210738,-2.935063,1.989999,0.12076,0.47657,0.7714
1700499194242187,-9.212738,-2.952063,1.982999,0.13676,0.46157,0.1314
1700499194250000,-9.223738,-2.979063,1.959999,0.12076,0.41457,0.1314
1700499194257812,-9.245738,-2.992063,1.959999,0.13576,0.42757,0.9414
1700499194265625,-9.246738,-2.999063,1.971999,0.8476,0.47057,0.19114
1700499194273437,-9.253738,-2.968063,1.971999,0.5076,0.43957,0.9514
1700499194281250,-9.246738,-2.946063,1.973999,0.10276,0.50557,0.7814
1700499194289062,-9.244738,-2.926063,1.980999,0.13476,0.53657,0.4614
1700499194296875,-9.231738,-2.919063,1.973999,0.8576,0.42657,0.9414
1700499194304687,-9.220738,-2.920063,1.937999,0.8376,0.44157,0.1414
1700499194312500,-9.204738,-2.935063,1.946999,0.10076,0.48957,0.186
1700499194320312,-9.195738,-2.944063,1.955999,0.13376,0.45757,0.6214
1700499194328125,-9.208738,-2.946063,1.937999,0.11876,0.50657,0.3014
1700499194335937,-9.215738,-2.974063,1.941999,0.15776,0.44857,0.9214
1700499194343750,-9.236738,-2.978063,1.971999,0.13976,0.47957,0.2814
1700499194351562,-9.247738,-2.969063,1.989999,0.13976,0.49457,0.9214
1700499194359375,-9.247738,-2.985063,1.993999,0.10476,0.47557,0.10914
1700499194367187,-9.232738,-2.981063,2.9999,0.12076,0.47657,0.9314
1700499194375000,-9.213738,-2.974063,2.9999,0.2676,0.44657,0.9314
1700499194382812,-9.207738,-2.961063,2.16999,0.3924,0.51057,0.386
1700499194390625,-9.174738,-2.924063,2.25999,0.5924,0.47557,0.1886
1700499194398437,-9.161738,-2.922063,2.9999,0.2424,0.47757,0.2914
1700499194406250,-9.168738,-2.920063,1.975999,0.8676,0.44357,0.4614
1700499194414062,-9.184738,-2.920063,1.950999,0.8576,0.45757,0.7814
1700499194421875,-9.219738,-2.921063,1.944999,0.4076,0.46157,0.2914
1700499194429687,-9.271738,-2.955063,1.917999,0.15676,0.43357,0.1214
1700499194437500,-9.283738,-2.982063,1.930999,0.12076,0.41257,0.12614
1700499194445312,-9.287738,-3.4063,1.971999,0.13976,0.43057,0.14114
1700499194453125,-9.291738,-2.995063,1.941999,0.12376,0.43057,0.15714
1700499194460937,-9.247738,-2.954063,1.964999,0.13976,0.53957,0.22114
1700499194468750,-9.219738,-2.932063,1.955999,0.11976,0.49057,0.6214
1700499194476562,-9.199738,-2.942063,1.959999,0.10276,0.53757,0.1414
1700499194484375,-9.168738,-2.940063,1.982999,0.13376,0.59957,0.186
1700499194492187,-9.149738,-2.967063,1.989999,0.16576,0.61557,0.1786
1700499194500000,-9.164738,-2.981063,1.993999,0.9076,0.49357,0.10914
1700499194507812,-9.185738,-2.973063,1.975999,0.8476,0.44157,0.7814
1700499194515625,-9.198738,-2.979063,1.948999,0.13776,0.44657,0.7714
1700499194523437,-9.214738,-2.972063,1.946999,0.12076,0.49157,0.7714
1700499194531250,-9.227738,-2.976063,1.946999,0.13976,0.52557,0.12414
1700499194539062,-9.220738,-2.972063,1.964999,0.13776,0.50857,0.10914
1700499194546875,-9.221738,-2.955063,1.975999,0.11776,0.41257,0.4986
1700499194554687,-9.227738,-2.936063,1.968999,0.15576,0.43257,0.1214
1700499194562500,-9.207738,-2.929063,1.964999,0.15676,0.48157,0.1214
1700499194570312,-9.209738,-2.927063,1.946999,0.15576,0.41757,0.386
1700499194578125,-9.203738,-2.923063,1.926999,0.28476,0.47757,0.15714
1700499194585937,-9.207738,-2.929063,1.930999,0.27176,0.47957,0.18814
1700499194593750,-9.199738,-2.935063,1.896999,0.21976,0.41357,0.20514
1700499194601562,-9.220738,-2.954063,1.874999,0.23676,0.46157,0.18914
1700499194609375,-9.227738,-2.960063,1.898999,0.18876,0.46157,0.20514
1700499194617187,-9.240738,-2.967063,1.880999,0.18876,0.44657,0.18914
1700499194625000,-9.260738,-2.998063,1.901999,0.13876,0.45957,0.20514
1700499194632812,-9.244738,-3.2063,1.937999,0.15476,0.56957,0.22114
1700499194640625,-9.257738,-2.996063,1.944999,0.13476,0.50457,0.14214
1700499194648437,-9.240738,-2.982063,1.975999,0.23576,0.61757,0.15714
1700499194656250,-9.212738,-2.952063,1.975999,0.26576,0.56957,0.10914
1700499194664062,-9.228738,-2.954063,1.941999,0.16876,0.50657,0.11014
1700499194671875,-9.181738,-2.933063,1.955999,0.18476,0.59957,0.17414
1700499194679687,-9.163738,-2.945063,1.964999,0.19976,0.48857,0.17414
1700499194687500,-9.200738,-2.972063,1.932999,0.13876,0.47557,0.22114
1700499194695312,-9.209738,-2.992063,1.926999,0.15476,0.49057,0.23814
1700499194703125,-9.224738,-3.10063,1.912999,0.23476,0.49157,0.15714
1700499194710937,-9.255738,-2.997063,1.912999,0.17476,0.46257,0.25314
1700499194718750,-9.251738,-2.987063,1.903999,0.13976,0.44557,0.20514
1700499194726562,-9.236738,-2.980063,1.896999,0.17376,0.46157,0.28514
1700499194734375,-9.196738,-2.984063,1.905999,0.18376,0.45757,0.17414
1700499194742187,-9.195738,-3.3063,1.883999,0.13976,0.46057,0.20514
1700499194750000,-9.212738,-3.4063,1.878999,0.21576,0.47257,0.19014
1700499194757812,-9.227738,-3.19063,1.858999,0.13776,0.42857,0.15814
1700499194765625,-9.237738,-3.29063,1.858999,0.13776,0.42857,0.15714
1700499194773437,-9.242738,-3.25063,1.880999,0.8976,0.44357,0.22214
1700499194781250,-9.243738,-3.25063,1.901999,0.676,0.41057,0.20614
1700499194789062,-9.246738,-3.22063,1.912999,0.4576,0.43157,0.23614
1700499194796875,-9.261738,-3.12063,1.914999,0.12076,0.41157,0.22214
1700499194804687,-9.244738,-3.7063,1.941999,0.4376,0.41457,0.20514
1700499194812500,-9.238738,-2.996063,1.948999,0.5976,0.42857,0.28514
1700499194820312,-9.211738,-2.969063,1.955999,0.324,0.52557,0.20414
1700499194828125,-9.182738,-2.965063,1.977999,0.1376,0.44657,0.31714
1700499194835937,-9.155738,-2.977063,1.939999,0.2776,0.44557,0.18914
1700499194843750,-9.162738,-2.986063,1.905999,0.976,0.49157,0.20514
1700499194851562,-9.191738,-2.994063,1.887999,0.2776,0.41357,0.25314
1700499194859375,-9.226738,-3.12063,1.865999,0.7024,0.42957,0.20514
1700499194867187,-9.246738,-3.27063,1.869999,0.8724,0.41257,0.20514
1700499194875000,-9.266738,-3.75063,1.876999,0.8624,0.47557,0.20514
1700499194882812,-9.268738,-3.80063,1.910999,0.13424,0.39757,0.23714
1700499194890625,-9.273738,-3.58063,1.898999,0.11824,0.39657,0.25314
1700499194898437,-9.260738,-3.33063,1.910999,0.10224,0.42857,0.23714
1700499194906250,-9.240738,-3.4063,1.910999,0.8324,0.39957,0.25314
1700499194914062,-9.232738,-2.979063,1.901999,0.12024,0.48957,0.23814
1700499194921875,-9.233738,-2.965063,1.885999,0.13324,0.41557,0.14014
1700499194929687,-9.229738,-2.967063,1.883999,0.11924,0.49357,0.9314
1700499194937500,-9.199738,-3.63,1.894999,0.9924,0.51457,0.486
1700499194945312,-9.188738,-3.8063,1.896999,0.12124,0.47657,0.4514
1700499194953125,-9.197738,-3.3063,1.912999,0.19824,0.52457,0.15714
1700499194960937,-9.207738,-3.1063,1.905999,0.17024,0.56857,0.12514
1700499194968750,-9.222738,-2.985063,1.926999,0.12024,0.64857,0.7714
1700499194976562,-9.239738,-2.963063,1.946999,0.17124,0.58257,0.15814
1700499194984375,-9.241738,-2.959063,1.910999,0.9124,0.50357,0.14214
1700499194992187,-9.232738,-2.934063,1.903999,0.11924,0.57157,0.7614
1700499195000000,-9.230738,-2.936063,1.878999,0.13824,0.46157,0.3486
1700499195007812,-9.230738,-2.934063,1.851999,0.10524,0.57057,0.6114
1700499195015625,-9.229738,-2.981063,1.878999,0.4224,0.49057,0.3014
1700499195023437,-9.229738,-2.996063,1.883999,0.8724,0.47657,0.12514
1700499195031250,-9.226738,-2.985063,1.874999,0.8524,0.53957,0.22114
1700499195039062,-9.234738,-2.994063,1.887999,0.5724,0.60057,0.12614
1700499195046875,-9.251738,-2.995063,1.883999,0.624,0.60157,0.15714
1700499195054687,-9.258738,-2.983063,1.887999,0.4076,0.58457,0.17414
1700499195062500,-9.258738,-2.958063,1.903999,0.5876,0.68057,0.14114
1700499195070312,-9.261738,-2.929063,1.928999,0.5976,0.64757,0.26914
1700499195078125,-9.257738,-2.927063,1.907999,0.2324,0.63357,0.10914
1700499195085937,-9.250738,-2.902063,1.867999,0.9076,0.63457,0.12514
1700499195093750,-9.212738,-2.921063,1.892999,0.2276,0.73857,0.23814
1700499195101562,-9.223738,-2.945063,1.894999,0.7476,0.71157,0.18914
1700499195109375,-9.264738,-2.930063,1.901999,0.12076,0.61457,0.23814
1700499195117187,-9.263738,-2.947063,1.876999,0.13876,0.59957,0.25414
1700499195125000,-9.267738,-2.964063,1.894999,0.12576,0.69457,0.34914
1700499195132812,-9.277738,-2.940063,1.926999,0.15576,0.71057,0.28514
1700499195140625,-9.257738,-2.927063,1.917999,0.14076,0.70957,0.33314
1700499195148437,-9.243738,-2.929063,1.921999,0.14176,0.66357,0.36514
1700499195156250,-9.259738,-2.936063,1.917999,0.12376,0.69357,0.35014
1700499195164062,-9.263738,-2.938063,1.921999,0.10776,0.67857,0.28514
1700499195171875,-9.261738,-2.933063,1.917999,0.9076,0.80357,0.30114
1700499195179687,-9.235738,-2.914063,1.903999,0.5776,0.77157,0.31814
1700499195187500,-9.226738,-2.894063,1.919999,0.17276,0.74257,0.30114
1700499195195312,-9.214738,-2.887063,1.910999,0.18976,0.66457,0.33314
1700499195203125,-9.221738,-2.891063,1.910999,0.17476,0.75957,0.31614
1700499195210937,-9.233738,-2.917063,1.926999,0.24976,0.83357,0.27014
1700499195218750,-9.252738,-2.925063,1.975999,0.13876,0.81757,0.33414
1700499195226562,-9.262738,-2.909063,1.982999,0.28376,0.89557,0.38214
1700499195234375,-9.264738,-2.914063,1.971999,0.24776,0.83157,0.23914
1700499195242187,-9.248738,-2.910063,1.982999,0.33176,0.75557,0.31814
1700499195250000,-9.230738,-2.914063,1.957999,0.36476,0.66157,0.33414
1700499195257812,-9.212738,-2.916063,1.964999,0.22076,0.82057,0.30114
1700499195265625,-9.199738,-2.906063,1.973999,0.29876,0.80157,0.28614
1700499195273437,-9.223738,-2.909063,1.959999,0.31876,0.82057,0.33314
1700499195281250,-9.256738,-2.928063,1.948999,0.25476,0.86857,0.30014
1700499195289062,-9.265738,-2.940063,1.928999,0.33376,0.85157,0.28514
1700499195296875,-9.289738,-2.927063,1.919999,0.23376,0.81657,0.33414
1700499195304687,-9.288738,-2.935063,1.898999,0.21776,0.83457,0.22214
1700499195312500,-9.281738,-2.924063,1.876999,0.28376,0.81857,0.28614
1700499195320312,-9.268738,-2.922063,1.898999,0.13876,0.86557,0.31714
1700499195328125,-9.271738,-2.905063,1.941999,0.18676,0.92657,0.35014
1700499195335937,-9.252738,-2.893063,1.957999,0.22176,0.91457,0.33314
1700499195343750,-9.217738,-2.890063,1.982999,0.21976,0.92957,0.26914
1700499195351562,-9.201738,-2.879063,2.11999,0.30076,0.99257,0.26914
1700499195359375,-9.190738,-2.877063,2.5999,0.23576,0.86757,0.22114
1700499195367187,-9.174738,-2.892063,2.16999,0.33376,0.89957,0.23714
1700499195375000,-9.172738,-2.901063,2.18999,0.25376,0.91457,0.31714
1700499195382812,-9.176738,-2.915063,1.998999,0.30076,0.78857,0.26914
1700499195390625,-9.183738,-2.932063,1.996999,0.31576,0.85057,0.25314
1700499195398437,-9.192738,-2.926063,1.986999,0.26476,0.81557,0.27114
1700499195406250,-9.201738,-2.926063,1.966999,0.15076,0.89457,0.22214
1700499195414062,-9.214738,-2.914063,1.950999,0.14076,0.80557,0.22114
1700499195421875,-9.205738,-2.903063,1.950999,0.15476,0.82057,0.17314
1700499195429687,-9.223738,-2.898063,1.959999,0.15676,0.80757,0.14014
1700499195437500,-9.213738,-2.886063,1.962999,0.13376,0.73757,0.20714
1700499195445312,-9.195738,-2.886063,1.948999,0.15276,0.72457,0.20614
1700499195453125,-9.195738,-2.897063,1.950999,0.16876,0.74057,0.15814
1700499195460937,-9.204738,-2.902063,1.948999,0.13376,0.70657,0.14314
1700499195468750,-9.229738,-2.904063,1.935999,0.15776,0.69857,0.18814
1700499195476562,-9.257738,-2.900063,1.950999,0.20376,0.72757,0.14114
1700499195484375,-9.267738,-2.911063,1.944999,0.20676,0.68257,0.20414
1700499195492187,-9.248738,-2.918063,1.971999,0.17176,0.69657,0.20514
1700499195500000,-9.212738,-2.925063,1.998999,0.22176,0.66557,0.22014
1700499195507812,-9.200738,-2.931063,1.996999,0.12776,0.66857,0.20314
1700499195515625,-9.194738,-2.926063,2.18999,0.13776,0.64657,0.22214
1700499195523437,-9.204738,-2.924063,2.14999,0.11876,0.64457,0.17414
1700499195531250,-9.215738,-2.926063,2.5999,0.13676,0.66257,0.14214
1700499195539062,-9.191738,-2.914063,1.998999,0.11676,0.64357,0.11114
1700499195546875,-9.184738,-2.918063,1.989999,0.9976,0.59757,0.1514
1700499195554687,-9.208738,-2.914063,1.953999,0.13876,0.54057,0.10914
1700499195562500,-9.208738,-2.912063,1.946999,0.18676,0.58757,0.7714
1700499195570312,-9.230738,-2.925063,1.937999,0.13776,0.53957,0.6114
1700499195578125,-9.246738,-2.921063,1.948999,0.12076,0.49057,0.14214
1700499195585937,-9.255738,-2.925063,1.953999,0.13576,0.50657,0.11014
1700499195593750,-9.254738,-2.934063,1.948999,0.12276,0.52357,0.15714
1700499195601562,-9.270738,-2.927063,1.968999,0.10576,0.49257,0.9314
1700499195609375,-9.239738,-2.908063,1.989999,0.7276,0.44557,0.6114
1700499195617187,-9.226738,-2.888063,1.975999,0.776,0.41457,0.2914
1700499195625000,-9.224738,-2.870063,1.959999,0.5676,0.57057,0.9314
1700499195632812,-9.213738,-2.883063,1.930999,0.7276,0.58657,0.7714
1700499195640625,-9.218738,-2.891063,1.926999,0.5376,0.50557,0.3014
1700499195648437,-9.230738,-2.903063,1.932999,0.12176,0.55557,0.7714
1700499195656250,-9.237738,-2.901063,1.944999,0.11976,0.53757,0.11014
1700499195664062,-9.244738,-2.900063,1.968999,0.7476,0.52457,0.15714
1700499195671875,-9.232738,-2.903063,1.966999,0.1076,0.58757,0.17314
1700499195679687,-9.237738,-2.914063,1.968999,0.4024,0.55357,0.12514
1700499195687500,-9.243738,-2.909063,1.962999,0.4476,0.48057,0.7614
1700499195695312,-9.253738,-2.903063,1.957999,0.3876,0.50657,0.3014
1700499195703125,-9.268738,-2.918063,1.991999,0.15376,0.44457,0.10914
1700499195710937,-9.266738,-2.925063,1.946999,0.12176,0.52157,0.22214
1700499195718750,-9.266738,-2.918063,1.917999,0.10776,0.53957,0.20514
1700499195726562,-9.247738,-2.925063,1.914999,0.12576,0.49357,0.22114
1700499195734375,-9.247738,-2.933063,1.926999,0.9276,0.54157,0.14014
1700499195742187,-9.262738,-2.933063,1.919999,0.1376,0.41957,0.2714
1700499195750000,-9.258738,-2.948063,1.910999,0.324,0.49557,0.12414
1700499195757812,-9.260738,-2.948063,1.944999,0.6176,0.54357,0.10714
1700499195765625,-9.268738,-2.933063,1.959999,0.4276,0.52557,0.10814
1700499195773437,-9.285738,-2.932063,1.953999,0.7776,0.52657,0.18814
1700499195781250,-9.272738,-2.927063,1.937999,0.876,0.53957,0.7714
1700499195789062,-9.250738,-2.923063,1.973999,0.5776,0.56957,0.14114
1700499195796875,-9.236738,-2.913063,1.984999,0.10876,0.58857,0.17214
1700499195804687,-9.228738,-2.919063,1.971999,0.13676,0.58357,0.19014
1700499195812500,-9.220738,-2.909063,1.980999,0.11076,0.63657,0.17214
1700499195820312,-9.211738,-2.911063,1.977999,0.6276,0.65357,0.13914
1700499195828125,-9.214738,-2.909063,1.975999,0.1176,0.71157,0.25314
1700499195835937,-9.205738,-2.905063,1.968999,0.7876,0.68257,0.23614
1700499195843750,-9.211738,-2.918063,1.975999,0.14076,0.71557,0.6014
1700499195851562,-9.231738,-2.936063,1.966999,0.12476,0.65057,0.15614
1700499195859375,-9.243738,-2.936063,1.971999,0.13976,0.61857,0.18914
1700499195867187,-9.252738,-2.938063,1.959999,0.12176,0.58657,0.9314
1700499195875000,-9.267738,-2.937063,1.944999,0.15876,0.62057,0.18814
1700499195882812,-9.270738,-2.927063,1.959999,0.18576,0.66257,0.20614
1700499195890625,-9.238738,-2.922063,1.987999,0.12476,0.68257,0.10814
1700499195898437,-9.230738,-2.936063,1.953999,0.13776,0.66357,0.20514
1700499195906250,-9.213738,-2.960063,1.980999,0.13976,0.68057,0.15714
1700499195914062,-9.202738,-2.969063,1.996999,0.12376,0.63557,0.12414
1700499195921875,-9.209738,-2.999063,1.971999,0.11976,0.63357,0.2914
1700499195929687,-9.209738,-3.25063,1.982999,0.8876,0.64657,0.17414
1700499195937500,-9.231738,-3.27063,1.991999,0.5376,0.66157,0.7814
1700499195945312,-9.240738,-2.989063,1.993999,0.2324,0.67957,0.15714
1700499195953125,-9.234738,-2.963063,2.16999,0.5524,0.66257,0.20514
1700499195960937,-9.234738,-2.927063,2.25999,0.3924,0.67957,0.12514
1700499195968750,-9.214738,-2.916063,2.18999,0.1176,0.66557,0.18814
1700499195976562,-9.206738,-2.892063,2.11999,0.10576,0.68057,0.12514
1700499195984375,-9.183738,-2.903063,1.989999,0.10576,0.66657,0.2814
1700499195992187,-9.201738,-2.923063,1.950999,0.12176,0.67957,0.14114
1700499196000000,-9.212738,-2.932063,1.957999,0.10476,0.69457,0.10914
1700499196007812,-9.227738,-2.951063,1.966999,0.9176,0.72657,0.23714
1700499196015625,-9.225738,-2.967063,1.980999,0.9076,0.71057,0.23714
1700499196023437,-9.239738,-2.966063,2.9999,0.8676,0.72257,0.25414
1700499196031250,-9.254738,-2.945063,2.9999,0.5776,0.67857,0.25314
1700499196039062,-9.232738,-2.939063,2.9999,0.15276,0.72457,0.19014
1700499196046875,-9.197738,-2.909063,2.9999,0.11976,0.65957,0.23814
1700499196054687,-9.193738,-2.899063,1.998999,0.12076,0.69357,0.17414
1700499196062500,-9.194738,-2.926063,2.999,0.13676,0.67857,0.14214
1700499196070312,-9.199738,-2.935063,2.9999,0.8576,0.66057,0.12614
1700499196078125,-9.213738,-2.958063,2.999,0.4176,0.68157,0.6114
1700499196085937,-9.202738,-2.981063,2.5999,0.2324,0.66257,0.20514
1700499196093750,-9.185738,-2.962063,2.11999,0.8776,0.69257,0.17414
1700499196101562,-9.173738,-2.943063,2.14999,0.524,0.68057,0.17314
1700499196109375,-9.190738,-2.928063,2.5999,0.4076,0.63057,0.19014
1700499196117187,-9.234738,-2.932063,1.987999,0.2476,0.64757,0.18914
1700499196125000,-9.261738,-2.925063,1.966999,0.3924,0.61557,0.22114
1700499196132812,-9.264738,-2.932063,1.962999,0.1024,0.72357,0.14214
1700499196140625,-9.247738,-2.938063,1.957999,0.2476,0.67957,0.12514
1700499196148437,-9.212738,-2.945063,1.993999,0.2576,0.67957,0.18914
1700499196156250,-9.192738,-2.953063,2.14999,0.5724,0.72257,0.22214
1700499196164062,-9.188738,-2.936063,2.29999,0.2624,0.61257,0.22314
1700499196171875,-9.186738,-2.944063,2.36999,0.2624,0.59657,0.23914
1700499196179687,-9.172738,-2.928063,2.27999,0.876,0.56957,0.15714
1700499196187500,-9.172738,-2.924063,2.16999,0.13324,0.49157,0.26914
1700499196195312,-9.188738,-2.913063,2.9999,0.8724,0.56857,0.25414
1700499196203125,-9.210738,-2.897063,2.11999,0.13424,0.63157,0.26914
1700499196210937,-9.220738,-2.882063,2.25999,0.7224,0.56757,0.23814
1700499196218750,-9.220738,-2.886063,2.38999,0.8924,0.56657,0.25414
1700499196226562,-9.238738,-2.888063,2.32999,0.2324,0.52057,0.27014
1700499196234375,-9.241738,-2.878063,2.14999,0.1276,0.55657,0.22014
1700499196242187,-9.218738,-2.864063,2.34999,0.2324,0.52157,0.19014
1700499196250000,-9.231738,-2.883063,2.23999,0.10576,0.49057,0.20514
1700499196257812,-9.215738,-2.899063,2.41999,0.8876,0.50557,0.22214
1700499196265625,-9.200738,-2.913063,2.43999,0.5376,0.45557,0.20714
1700499196273437,-9.208738,-2.924063,2.23999,0.10576,0.52257,0.18914
1700499196281250,-9.237738,-2.941063,2.29999,0.7124,0.49157,0.15714
1700499196289062,-9.243738,-2.956063,2.27999,0.8524,0.52457,0.15714
1700499196296875,-9.247738,-2.938063,2.27999,0.6724,0.47857,0.22014
1700499196304687,-9.259738,-2.929063,2.25999,0.724,0.58557,0.15714
1700499196312500,-9.260738,-2.892063,2.23999,0.5524,0.49157,0.17314
1700499196320312,-9.266738,-2.878063,2.27999,0.8524,0.39957,0.17314
1700499196328125,-9.246738,-2.891063,2.36999,0.6924,0.50957,0.18914
1700499196335937,-9.248738,-2.898063,2.50999,0.13524,0.49157,0.17314
1700499196343750,-9.235738,-2.908063,2.79999,0.7224,0.50657,0.17314
1700499196351562,-9.237738,-2.888063,2.68999,0.976,0.53857,0.20514
1700499196359375,-9.242738,-2.883063,2.77999,0.10424,0.56857,0.22214
1700499196367187,-9.227738,-2.881063,2.93999,0.5724,0.62957,0.22214
1700499196375000,-9.229738,-2.883063,2.66999,0.876,0.69257,0.25414
1700499196382812,-9.215738,-2.881063,2.86999,0.9076,0.71057,0.23714
1700499196390625,-9.213738,-2.883063,2.70999,0.9076,0.70957,0.28614
1700499196398437,-9.217738,-2.897063,2.47999,0.12176,0.70957,0.23714
1700499196406250,-9.219738,-2.912063,2.50999,0.10476,0.69357,0.19014
1700499196414062,-9.212738,-2.918063,2.57999,0.12376,0.72757,0.22114
1700499196421875,-9.212738,-2.934063,2.23999,0.13776,0.67857,0.20514
1700499196429687,-9.208738,-2.935063,2.38999,0.11976,0.66157,0.15814
1700499196437500,-9.201738,-2.928063,2.27999,0.13476,0.72357,0.12614
1700499196445312,-9.186738,-2.922063,2.32999,0.6976,0.69157,0.12614
1700499196453125,-9.205738,-2.921063,2.27999,0.7276,0.72757,0.7714
1700499196460937,-9.212738,-2.927063,2.14999,0.9076,0.68157,0.10914
1700499196468750,-9.212738,-2.921063,2.27999,0.5876,0.69657,0.15714
1700499196476562,-9.208738,-2.908063,2.18999,0.13676,0.66257,0.14214
1700499196484375,-9.225738,-2.898063,2.5999,0.5976,0.72757,0.22114
1700499196492187,-9.227738,-2.896063,2.16999,0.10976,0.68257,0.20414
1700499196500000,-9.229738,-2.899063,2.20999,0.8776,0.70757,0.22214
1700499196507812,-9.244738,-2.894063,2.14999,0.13776,0.75757,0.15714
1700499196515625,-9.212738,-2.896063,2.5999,0.12176,0.71257,0.7714
1700499196523437,-9.216738,-2.907063,2.9999,0.13876,0.65057,0.6014
1700499196531250,-9.237738,-2.916063,1.993999,0.12076,0.66457,0.6114
1700499196539062,-9.244738,-2.925063,1.980999,0.13476,0.70857,0.11014
1700499196546875,-9.234738,-2.933063,1.991999,0.12476,0.68157,0.20414
1700499196554687,-9.250738,-2.932063,1.987999,0.12176,0.67857,0.22114
1700499196562500,-9.241738,-2.912063,1.993999,0.10676,0.71057,0.23714
1700499196570312,-9.241738,-2.914063,1.991999,0.13876,0.71057,0.23714
1700499196578125,-9.227738,-2.916063,2.11999,0.15876,0.69757,0.26814
1700499196585937,-9.212738,-2.909063,2.20999,0.12376,0.72857,0.17214
1700499196593750,-9.189738,-2.905063,2.14999,0.14176,0.65157,0.15614
1700499196601562,-9.181738,-2.919063,2.25999,0.12276,0.63357,0.15714
1700499196609375,-9.171738,-2.919063,2.16999,0.12276,0.64957,0.12514
1700499196617187,-9.183738,-2.919063,2.11999,0.13976,0.64957,0.14114
1700499196625000,-9.200738,-2.918063,1.998999,0.12476,0.66757,0.12414
1700499196632812,-9.210738,-2.910063,1.993999,0.21976,0.49557,0.2814
1700499196640625,-9.209738,-2.900063,2.14999,0.14376,0.56157,0.4314
1700499196648437,-9.223738,-2.899063,2.9999,0.15476,0.60257,0.10914
1700499196656250,-9.226738,-2.892063,2.14999,0.13976,0.51057,0.7614
1700499196664062,-9.230738,-2.887063,1.989999,0.13976,0.44657,0.10914
1700499196671875,-9.212738,-2.903063,1.984999,0.12176,0.44557,0.9314
1700499196679687,-9.234738,-2.918063,2.999,0.18876,0.43357,0.386
1700499196687500,-9.241738,-2.918063,2.11999,0.15276,0.49357,0.286
1700499196695312,-9.223738,-2.920063,2.16999,0.12276,0.46357,0.1214
1700499196703125,-9.232738,-2.928063,2.20999,0.15276,0.52357,0.4514
1700499196710937,-9.219738,-2.915063,2.11999,0.20176,0.55357,0.17314
1700499196718750,-9.206738,-2.903063,2.29999,0.17276,0.49257,0.22114
1700499196726562,-9.205738,-2.892063,2.23999,0.25476,0.57257,0.17214
1700499196734375,-9.230738,-2.896063,1.991999,0.20376,0.52457,0.14114
1700499196742187,-9.242738,-2.896063,1.993999,0.23576,0.46157,0.12514
1700499196750000,-9.245738,-2.904063,1.991999,0.15976,0.45057,0.15514
1700499196757812,-9.243738,-2.920063,1.987999,0.15876,0.46457,0.14014
1700499196765625,-9.253738,-2.916063,2.5999,0.25076,0.50757,0.14114
1700499196773437,-9.250738,-2.913063,2.11999,0.20476,0.57157,0.15714
1700499196781250,-9.245738,-2.913063,2.11999,0.19076,0.49457,0.20414
1700499196789062,-9.246738,-2.921063,2.34999,0.28276,0.55357,0.15714
1700499196796875,-9.237738,-2.930063,2.23999,0.20176,0.55557,0.6114
1700499196804687,-9.214738,-2.929063,2.38999,0.10776,0.57157,0.14114
1700499196812500,-9.203738,-2.921063,2.38999,0.17276,0.58857,0.9214
1700499196820312,-9.198738,-2.925063,2.32999,0.20676,0.57357,0.14014
1700499196828125,-9.210738,-2.934063,2.20999,0.13876,0.54057,0.9314
1700499196835937,-9.220738,-2.922063,2.2999,0.14176,0.48057,0.7614
1700499196843750,-9.234738,-2.915063,2.7999,0.12676,0.55857,0.17214
1700499196851562,-9.234738,-2.903063,2.5999,0.9276,0.46257,0.15614
1700499196859375,-9.248738,-2.896063,2.7999,0.13676,0.58757,0.286
1700499196867187,-9.238738,-2.899063,2.34999,0.8576,0.61457,0.9414
1700499196875000,-9.217738,-2.901063,2.29999,0.10576,0.57157,0.2914
1700499196882812,-9.207738,-2.905063,2.36999,0.18976,0.52857,0.2814
1700499196890625,-9.190738,-2.915063,2.59999,0.16976,0.57057,0.12514
1700499196898437,-9.177738,-2.915063,2.47999,0.20076,0.58457,0.12614
1700499196906250,-9.185738,-2.923063,2.47999,0.10876,0.60357,0.14014
1700499196914062,-9.178738,-2.910063,2.38999,0.14176,0.54157,0.15614
1700499196921875,-9.203738,-2.919063,2.999,0.12376,0.50957,0.12414
1700499196929687,-9.210738,-2.918063,1.989999,0.13876,0.55657,0.6014
1700499196937500,-9.212738,-2.921063,1.991999,0.12276,0.54157,0.2814
1700499196945312,-9.227738,-2.922063,1.957999,0.7776,0.47957,0.18814
1700499196953125,-9.234738,-2.934063,1.955999,0.12476,0.54057,0.18914
1700499196960937,-9.250738,-2.934063,1.948999,0.12176,0.58557,0.15714
1700499196968750,-9.269738,-2.962063,1.910999,0.5976,0.60257,0.23714
1700499196976562,-9.264738,-2.984063,1.944999,0.4476,0.66557,0.23614
1700499196984375,-9.240738,-2.964063,1.946999,0.13976,0.63357,0.18914
1700499196992187,-9.234738,-2.969063,1.928999,0.4176,0.61757,0.17314
1700499197000000,-9.223738,-2.950063,1.948999,0.624,0.60057,0.20514
1700499197007812,-9.203738,-2.961063,1.975999,0.5724,0.55257,0.19014
1700499197015625,-9.222738,-2.967063,1.955999,0.13224,0.49557,0.15614
1700499197023437,-9.230738,-2.979063,1.982999,0.7924,0.43657,0.17114
1700499197031250,-9.237738,-3.2063,1.987999,0.14924,0.46257,0.17214
1700499197039062,-9.242738,-2.978063,2.5999,0.15224,0.47957,0.3586
1700499197046875,-9.223738,-2.945063,2.16999,0.12124,0.43057,0.1314
1700499197054687,-9.219738,-2.925063,1.998999,0.13624,0.54057,0.6114
1700499197062500,-9.210738,-2.909063,1.996999,0.11724,0.47957,0.6014
1700499197070312,-9.207738,-2.912063,1.989999,0.10124,0.46257,0.12414
1700499197078125,-9.230738,-2.918063,1.982999,0.11824,0.46257,0.12414
1700499197085937,-9.254738,-2.920063,1.953999,0.6276,0.41757,0.22014
1700499197093750,-9.252738,-2.920063,1.955999,0.424,0.47957,0.12414
1700499197101562,-9.254738,-2.935063,1.937999,0.1824,0.44857,0.20414
1700499197109375,-9.234738,-2.933063,1.948999,0.2776,0.51157,0.6014
1700499197117187,-9.252738,-2.945063,1.977999,0.876,0.52457,0.4514
1700499197125000,-9.250738,-2.974063,1.996999,0.7324,0.53857,0.6114
1700499197132812,-9.248738,-2.968063,1.996999,0.3424,0.60657,0.10714
1700499197140625,-9.225738,-2.936063,2.11999,0.1076,0.57157,0.17314
1700499197148437,-9.212738,-2.943063,2.36999,0.8976,0.58657,0.10914
1700499197156250,-9.216738,-2.932063,2.36999,0.8924,0.63257,0.7714
1700499197164062,-9.208738,-2.910063,2.45999,0.2476,0.61857,0.6114
1700499197171875,-9.225738,-2.918063,2.41999,0.9176,0.70057,0.1114
1700499197179687,-9.190738,-2.926063,2.20999,0.5576,0.66457,0.4514
1700499197187500,-9.175738,-2.970063,2.52999,0.3724,0.63557,0.9214
1700499197195312,-9.177738,-2.970063,2.25999,0.2676,0.55657,0.10814
1700499197203125,-9.175738,-2.963063,2.20999,0.2876,0.63557,0.15614
1700499197210937,-9.186738,-2.954063,2.14999,0.6624,0.60557,0.20414
1700499197218750,-9.211738,-2.938063,2.5999,0.224,0.46457,0.20414
1700499197226562,-9.236738,-2.929063,1.993999,0.6076,0.55757,0.15614
1700499197234375,-9.237738,-2.930063,1.991999,0.7276,0.58457,0.17414
1700499197242187,-9.230738,-2.954063,1.989999,0.5776,0.56957,0.14114
1700499197250000,-9.216738,-2.954063,1.993999,0.7476,0.63257,0.22114
1700499197257812,-9.230738,-2.956063,1.966999,0.13876,0.56957,0.17314
1700499197265625,-9.233738,-2.953063,1.982999,0.9276,0.58757,0.20414
1700499197273437,-9.227738,-2.947063,1.980999,0.9376,0.55657,0.20414
1700499197281250,-9.243738,-2.938063,1.950999,0.10576,0.55257,0.22214
1700499197289062,-9.230738,-2.954063,1.968999,0.8976,0.58557,0.15714
1700499197296875,-9.231738,-2.951063,1.993999,0.9276,0.61957,0.18814
1700499197304687,-9.213738,-2.958063,2.999,0.9476,0.63657,0.22014
1700499197312500,-9.207738,-2.938063,2.7999,0.14176,0.66557,0.23614
1700499197320312,-9.191738,-2.943063,2.27999,0.12476,0.72757,0.25314
1700499197328125,-9.189738,-2.952063,2.11999,0.15776,0.61857,0.23614
1700499197335937,-9.187738,-2.966063,1.993999,0.17276,0.56957,0.30114
1700499197343750,-9.184738,-2.975063,2.16999,0.13976,0.58457,0.25314
1700499197351562,-9.173738,-2.968063,2.2999,0.12576,0.52457,0.26914
1700499197359375,-9.159738,-2.994063,1.977999,0.14376,0.51157,0.22014
1700499197367187,-9.181738,-3.5063,1.984999,0.12476,0.57157,0.20514
1700499197375000,-9.191738,-3.8063,1.998999,0.9076,0.47657,0.22114
1700499197382812,-9.207738,-2.972063,1.987999,0.7376,0.47557,0.22114
1700499197390625,-9.213738,-2.945063,1.977999,0.14276,0.44757,0.20414
1700499197398437,-9.225738,-2.916063,1.980999,0.12476,0.49257,0.22114
1700499197406250,-9.214738,-2.918063,1.964999,0.14276,0.44757,0.22014
1700499197414062,-9.207738,-2.925063,1.977999,0.12776,0.44857,0.20414
1700499197421875,-9.203738,-2.935063,1.991999,0.20376,0.41357,0.22114
1700499197429687,-9.213738,-2.958063,1.973999,0.17476,0.43257,0.20414
1700499197437500,-9.217738,-2.968063,1.977999,0.12976,0.41957,0.21914
1700499197445312,-9.238738,-2.980063,2.2999,0.19076,0.43257,0.17214
1700499197453125,-9.238738,-2.962063,1.993999,0.17376,0.41657,0.17214
1700499197460937,-9.255738,-2.945063,1.989999,0.15276,0.50457,0.22214
1700499197468750,-9.250738,-2.932063,2.5999,0.31476,0.59957,0.23814
1700499197476562,-9.241738,-2.946063,2.9999,0.24976,0.45757,0.23814
1700499197484375,-9.246738,-2.934063,2.11999,0.21876,0.52157,0.23814
1700499197492187,-9.232738,-2.931063,2.9999,0.20676,0.51057,0.22014
1700499197500000,-9.223738,-2.954063,2.20999,0.21976,0.56957,0.23714
1700499197507812,-9.221738,-2.965063,2.29999,0.15476,0.59957,0.27014
1700499197515625,-9.220738,-2.958063,2.27999,0.15676,0.49257,0.26914
1700499197523437,-9.215738,-2.953063,2.5999,0.13076,0.54457,0.29914
1700499197531250,-9.207738,-2.952063,2.14999,0.14176,0.60357,0.26814
1700499197539062,-9.211738,-2.942063,2.23999,0.12776,0.57357,0.25214
1700499197546875,-9.202738,-2.958063,2.18999,0.12776,0.58857,0.28414
1700499197554687,-9.199738,-2.940063,2.20999,0.13676,0.59757,0.28614
1700499197562500,-9.203738,-2.928063,2.11999,0.10576,0.55357,0.20614
1700499197570312,-9.211738,-2.924063,2.16999,0.6976,0.53357,0.22314
1700499197578125,-9.204738,-2.916063,1.998999,0.13376,0.56557,0.20714
1700499197585937,-9.195738,-2.900063,1.982999,0.13576,0.56557,0.23914
1700499197593750,-9.192738,-2.895063,1.968999,0.9076,0.58457,0.25314
1700499197601562,-9.193738,-2.897063,1.973999,0.13776,0.58457,0.22214
1700499197609375,-9.192738,-2.906063,1.971999,0.12276,0.63257,0.20514
1700499197617187,-9.197738,-2.904063,1.966999,0.13576,0.51957,0.22214
1700499197625000,-9.195738,-2.916063,1.944999,0.15176,0.50357,0.20614
1700499197632812,-9.200738,-2.900063,1.939999,0.13676,0.47357,0.22214
1700499197640625,-9.214738,-2.912063,1.937999,0.12576,0.46257,0.22014
1700499197648437,-9.230738,-2.925063,1.928999,0.18676,0.60057,0.20514
1700499197656250,-9.262738,-2.934063,1.917999,0.13476,0.56557,0.22314
1700499197664062,-9.289738,-2.962063,1.901999,0.12476,0.52457,0.20514
1700499197671875,-9.308738,-2.980063,1.885999,0.12176,0.55157,0.23814
1700499197679687,-9.314738,-2.964063,1.896999,0.23776,0.60157,0.30114
1700499197687500,-9.333738,-2.951063,1.908999,0.24976,0.70657,0.33514
1700499197695312,-9.357738,-2.931063,1.923999,0.17776,0.65057,0.38014
1700499197703125,-9.362738,-2.916063,1.912999,0.18976,0.69357,0.39714
1700499197710937,-9.351738,-2.899063,1.928999,0.25376,0.70957,0.38114
1700499197718750,-9.325738,-2.867063,1.950999,0.24976,0.75257,0.41514
1700499197726562,-9.298738,-2.868063,1.978999,0.23876,0.80357,0.39714
1700499197734375,-9.273738,-2.862063,2.7999,0.12776,0.74457,0.36414
1700499197742187,-9.267738,-2.852063,2.25999,0.17176,0.77057,0.38214
1700499197750000,-9.265738,-2.847063,2.45999,0.12176,0.80257,0.28614
1700499197757812,-9.253738,-2.854063,2.50999,0.13976,0.86557,0.33414
1700499197765625,-9.242738,-2.858063,2.68999,0.12476,0.83557,0.33314
1700499197773437,-9.218738,-2.852063,2.45999,0.13776,0.89657,0.27014
1700499197781250,-9.181738,-2.865063,2.32999,0.14176,0.80657,0.28414
1700499197789062,-9.153738,-2.867063,2.20999,0.20876,0.87157,0.23514
1700499197796875,-9.167738,-2.886063,2.5999,0.18976,0.83757,0.22014
1700499197804687,-9.170738,-2.899063,1.991999,0.15576,0.83657,0.22114
1700499197812500,-9.198738,-2.896063,1.964999,0.19076,0.69757,0.20414
1700499197820312,-9.247738,-2.922063,1.923999,0.28876,0.77757,0.25214
1700499197828125,-9.271738,-2.941063,1.941999,0.15876,0.79157,0.25214
1700499197835937,-9.278738,-2.964063,1.955999,0.18876,0.89957,0.25314
1700499197843750,-9.269738,-2.963063,1.950999,0.15876,0.93357,0.23614
1700499197851562,-9.240738,-2.942063,1.977999,0.7776,0.83857,0.23614
1700499197859375,-9.202738,-2.949063,1.996999,0.2876,0.82357,0.22014
1700499197867187,-9.198738,-2.937063,2.7999,0.13776,0.85057,0.18914
1700499197875000,-9.184738,-2.932063,2.9999,0.1276,0.80757,0.20414
1700499197882812,-9.195738,-2.927063,2.999,0.3324,0.73057,0.25214
1700499197890625,-9.198738,-2.903063,1.971999,0.4576,0.71257,0.26814
1700499197898437,-9.196738,-2.901063,1.957999,0.1276,0.72857,0.25214
1700499197906250,-9.189738,-2.891063,1.966999,0.9576,0.71457,0.25214
1700499197914062,-9.199738,-2.892063,1.950999,0.5976,0.64857,0.25314
1700499197921875,-9.207738,-2.871063,1.946999,0.11076,0.58957,0.18814
1700499197929687,-9.228738,-2.885063,1.957999,0.9376,0.63557,0.20414
1700499197937500,-9.228738,-2.896063,1.946999,0.10776,0.58757,0.17314
1700499197945312,-9.219738,-2.896063,1.944999,0.12376,0.58757,0.17314
1700499197953125,-9.221738,-2.900063,1.953999,0.11076,0.55757,0.20414
1700499197960937,-9.230738,-2.900063,1.932999,0.14176,0.60457,0.17214
1700499197968750,-9.225738,-2.891063,1.928999,0.12676,0.54257,0.22014
1700499197976562,-9.232738,-2.892063,1.921999,0.14176,0.46257,0.20414
1700499197984375,-9.221738,-2.887063,1.907999,0.14376,0.41757,0.18814
1700499197992187,-9.216738,-2.894063,1.923999,0.12676,0.55757,0.20414
1700499198000000,-9.214738,-2.911063,1.907999,0.14276,0.55857,0.17214
1700499198007812,-9.198738,-2.927063,1.930999,0.15876,0.57357,0.22014
1700499198015625,-9.206738,-2.929063,1.948999,0.12976,0.52957,0.18714
1700499198023437,-9.222738,-2.922063,1.946999,0.12876,0.43457,0.20314
1700499198031250,-9.218738,-2.902063,1.957999,0.14676,0.51557,0.15514
1700499198039062,-9.223738,-2.896063,1.968999,0.6176,0.44757,0.20414
1700499198046875,-9.223738,-2.896063,1.959999,0.10976,0.43257,0.18814
1700499198054687,-9.219738,-2.898063,1.980999,0.9276,0.49357,0.18814
1700499198062500,-9.214738,-2.885063,1.964999,0.6276,0.49557,0.25214
1700499198070312,-9.228738,-2.881063,1.968999,0.424,0.54057,0.22114
1700499198078125,-9.232738,-2.874063,1.962999,0.1376,0.46357,0.23614
1700499198085937,-9.232738,-2.885063,1.932999,0.9276,0.53957,0.25314
1700499198093750,-9.255738,-2.882063,1.937999,0.1376,0.47857,0.23614
1700499198101562,-9.272738,-2.902063,1.917999,0.9376,0.54157,0.23614
1700499198109375,-9.267738,-2.910063,1.903999,0.8076,0.49757,0.18714
1700499198117187,-9.279738,-2.933063,1.919999,0.324,0.43257,0.17214
1700499198125000,-9.283738,-2.939063,1.917999,0.6176,0.55757,0.20414
1700499198132812,-9.276738,-2.919063,1.946999,0.12576,0.55657,0.23614
1700499198140625,-9.277738,-2.917063,1.955999,0.14076,0.57157,0.23714
1700499198148437,-9.270738,-2.919063,1.980999,0.12676,0.49557,0.17214
1700499198156250,-9.252738,-2.931063,1.996999,0.5224,0.61957,0.17214
1700499198164062,-9.251738,-2.924063,1.984999,0.1624,0.57457,0.21914
1700499198171875,-9.250738,-2.922063,2.9999,0.524,0.57157,0.10814
1700499198179687,-9.243738,-2.913063,2.999,0.8524,0.61957,0.14014
1700499198187500,-9.238738,-2.915063,1.991999,0.3524,0.68357,0.18814
1700499198195312,-9.225738,-2.916063,1.996999,0.8524,0.66557,0.20414
1700499198203125,-9.218738,-2.898063,2.11999,0.1824,0.62057,0.20414
1700499198210937,-9.226738,-2.892063,2.14999,0.12624,0.60957,0.21814
1700499198218750,-9.232738,-2.894063,2.18999,0.14924,0.58757,0.18814
1700499198226562,-9.240738,-2.895063,1.996999,0.11324,0.62257,0.20314
1700499198234375,-9.234738,-2.891063,2.5999,0.11524,0.66857,0.17114
1700499198242187,-9.232738,-2.882063,1.998999,0.13424,0.66757,0.2814
1700499198250000,-9.230738,-2.882063,1.989999,0.9924,0.66757,0.18814
1700499198257812,-9.238738,-2.886063,1.993999,0.11424,0.65357,0.15514
1700499198265625,-9.240738,-2.919063,2.5999,0.11424,0.65257,0.20314
1700499198273437,-9.249738,-2.942063,1.991999,0.2024,0.68257,0.17214
1700499198281250,-9.247738,-2.940063,1.962999,0.3624,0.72857,0.22014
1700499198289062,-9.251738,-2.937063,1.941999,0.13224,0.71257,0.22014
1700499198296875,-9.267738,-2.921063,1.944999,0.11524,0.63657,0.20414
1700499198304687,-9.288738,-2.919063,1.953999,0.13324,0.68057,0.20414
1700499198312500,-9.295738,-2.915063,1.975999,0.11924,0.66457,0.15714
1700499198320312,-9.297738,-2.910063,2.16999,0.13324,0.66557,0.20414
1700499198328125,-9.284738,-2.888063,2.34999,0.13324,0.68157,0.18814
1700499198335937,-9.262738,-2.875063,2.48999,0.11724,0.65057,0.15614
1700499198343750,-9.243738,-2.866063,2.52999,0.9824,0.66857,0.20414
1700499198351562,-9.225738,-2.860063,2.70999,0.5124,0.71557,0.7514
1700499198359375,-9.237738,-2.862063,2.52999,0.11624,0.66757,0.14014
1700499198367187,-9.248738,-2.855063,2.29999,0.9824,0.68357,0.18714
1700499198375000,-9.245738,-2.862063,2.36999,0.3176,0.66957,0.20314
1700499198382812,-9.234738,-2.868063,2.36999,0.4776,0.70057,0.20314
1700499198390625,-9.232738,-2.862063,2.45999,0.9376,0.74557,0.22014
1700499198398437,-9.235738,-2.860063,2.38999,0.7676,0.68257,0.18814
1700499198406250,-9.230738,-2.869063,2.47999,0.9576,0.66757,0.26814
1700499198414062,-9.228738,-2.863063,2.45999,0.1176,0.66557,0.20414
1700499198421875,-9.207738,-2.871063,2.45999,0.6624,0.69857,0.25214
1700499198429687,-9.208738,-2.872063,2.52999,0.2976,0.71257,0.26814
1700499198437500,-9.192738,-2.884063,2.66999,0.7124,0.74157,0.23714
1700499198445312,-9.196738,-2.880063,2.59999,0.0,0.76257,0.28314
1700499198453125,-9.201738,-2.865063,2.70999,0.224,0.74557,0.23614
1700499198460937,-9.215738,-2.836063,2.63999,0.1276,0.77557,0.26814
1700499198468750,-9.214738,-2.829063,2.52999,0.4924,0.70057,0.18714
1700499198476562,-9.219738,-2.840063,2.77999,0.1376,0.72957,0.25214
1700499198484375,-9.206738,-2.854063,2.59999,0.2024,0.68257,0.15614
1700499198492187,-9.218738,-2.852063,2.66999,0.976,0.69457,0.22114
1700499198500000,-9.217738,-2.847063,2.54999,0.6076,0.66657,0.18814
1700499198507812,-9.200738,-2.833063,2.47999,0.10324,0.67957,0.20514
1700499198515625,-9.195738,-2.826063,2.34999,0.5976,0.66557,0.18814
1700499198523437,-9.209738,-2.824063,2.23999,0.7376,0.67857,0.18914
1700499198531250,-9.215738,-2.839063,2.23999,0.13876,0.66457,0.17314
1700499198539062,-9.233738,-2.856063,2.25999,0.9276,0.66757,0.15614
1700499198546875,-9.256738,-2.856063,2.2999,0.13776,0.67857,0.18914
1700499198554687,-9.262738,-2.849063,2.9999,0.12576,0.66657,0.22014
1700499198562500,-9.251738,-2.845063,2.41999,0.14076,0.68157,0.20414
1700499198570312,-9.241738,-2.826063,2.45999,0.16076,0.70057,0.21914
1700499198578125,-9.224738,-2.827063,2.52999,0.12676,0.66657,0.23614
1700499198585937,-9.204738,-2.825063,2.57999,0.14076,0.68157,0.22014
1700499198593750,-9.195738,-2.828063,2.50999,0.12376,0.66557,0.17314
1700499198601562,-9.200738,-2.822063,2.38999,0.13576,0.61657,0.7714
1700499198609375,-9.216738,-2.819063,2.25999,0.12176,0.67857,0.15714
1700499198617187,-9.211738,-2.830063,2.29999,0.13976,0.63557,0.4414
1700499198625000,-9.215738,-2.836063,2.23999,0.12676,0.63557,0.23614
1700499198632812,-9.213738,-2.837063,2.38999,0.10876,0.64957,0.23714
1700499198640625,-9.228738,-2.827063,2.52999,0.14276,0.71457,0.22014
1700499198648437,-9.237738,-2.838063,2.63999,0.12476,0.71257,0.20414
1700499198656250,-9.257738,-2.842063,2.63999,0.14376,0.65157,0.26814
1700499198664062,-9.269738,-2.849063,2.57999,0.12276,0.69557,0.20514
1700499198671875,-9.279738,-2.855063,2.61999,0.12776,0.66857,0.18714
1700499198679687,-9.265738,-2.883063,2.38999,0.14676,0.67357,0.10614
1700499198687500,-9.258738,-2.890063,2.45999,0.12776,0.70157,0.12314
1700499198695312,-9.237738,-2.867063,2.32999,0.10976,0.68357,0.14014
1700499198703125,-9.233738,-2.861063,2.47999,0.13876,0.66457,0.15714
1700499198710937,-9.239738,-2.884063,2.70999,0.12576,0.69757,0.20414
1700499198718750,-9.230738,-2.878063,2.104999,0.19076,0.71457,0.17214
1700499198726562,-9.205738,-2.860063,2.120999,0.14276,0.68457,0.9114
1700499198734375,-9.199738,-2.858063,2.117999,0.14276,0.70057,0.15514
1700499198742187,-9.200738,-2.843063,2.117999,0.12176,0.66657,0.386
1700499198750000,-9.195738,-2.843063,2.106999,0.13876,0.65057,0.9314
1700499198757812,-9.195738,-2.857063,2.93999,0.12276,0.63457,0.9214
1700499198765625,-9.201738,-2.854063,2.86999,0.15576,0.55757,0.6014
1700499198773437,-9.208738,-2.861063,2.79999,0.15576,0.58957,0.4414
1700499198781250,-9.227738,-2.861063,2.61999,0.25076,0.53957,0.6114
1700499198789062,-9.246738,-2.858063,2.57999,0.17376,0.51057,0.14014
1700499198796875,-9.239738,-2.858063,2.93999,0.14276,0.63757,0.14014
1700499198804687,-9.230738,-2.847063,2.84999,0.12576,0.52957,0.486
1700499198812500,-9.242738,-2.847063,2.59999,0.14076,0.55857,0.4414
1700499198820312,-9.248738,-2.851063,2.70999,0.15776,0.62257,0.4314
1700499198828125,-9.266738,-2.869063,2.68999,0.12376,0.62057,0.4414
1700499198835937,-9.259738,-2.873063,2.79999,0.15576,0.63757,0.386
1700499198843750,-9.248738,-2.874063,2.102999,0.25176,0.60457,0.1214
1700499198851562,-9.255738,-2.883063,2.97999,0.20276,0.64757,0.18914
1700499198859375,-9.234738,-2.884063,2.86999,0.20976,0.63857,0.17114
1700499198867187,-9.235738,-2.887063,2.124999,0.15576,0.66657,0.7614
1700499198875000,-9.226738,-2.883063,2.129999,0.12276,0.68257,0.386
1700499198882812,-9.203738,-2.894063,2.120999,0.13676,0.66557,0.1314
1700499198890625,-9.189738,-2.896063,2.120999,0.12576,0.60657,0.4314
1700499198898437,-9.176738,-2.898063,2.117999,0.13976,0.63857,0.5286
1700499198906250,-9.194738,-2.894063,2.120999,0.12276,0.65257,0.3586
1700499198914062,-9.210738,-2.887063,2.113999,0.12376,0.62257,0.5286
1700499198921875,-9.207738,-2.891063,2.120999,0.12576,0.65557,0.3686
1700499198929687,-9.217738,-2.883063,2.111999,0.13076,0.67457,0.5814
1700499198937500,-9.207738,-2.889063,2.111999,0.14176,0.68557,0.4314
1700499198945312,-9.198738,-2.905063,2.102999,0.12576,0.63757,0.5914
1700499198953125,-9.178738,-2.918063,2.127999,0.9376,0.57557,0.5914
1700499198960937,-9.182738,-2.927063,2.120999,0.5976,0.62257,0.6886
1700499198968750,-9.200738,-2.929063,2.108999,0.4376,0.57457,0.1214
1700499198976562,-9.222738,-2.933063,2.95999,0.8524,0.58957,0.4414
1700499198984375,-9.213738,-2.926063,2.108999,0.424,0.62357,0.5286
1700499198992187,-9.205738,-2.909063,2.120999,0.3624,0.66857,0.6014
1700499199000000,-9.207738,-2.895063,2.124999,0.3424,0.71857,0.1114
1700499199007812,-9.208738,-2.883063,2.122999,0.5324,0.62157,0.1214
1700499199015625,-9.213738,-2.879063,2.117999,0.13824,0.66557,0.3486
1700499199023437,-9.212738,-2.896063,2.131999,0.3824,0.76257,0.1986
1700499199031250,-9.201738,-2.903063,2.120999,0.4024,0.69757,0.3586
1700499199039062,-9.196738,-2.905063,2.115999,0.624,0.69957,0.5186
1700499199046875,-9.185738,-2.896063,2.102999,0.3624,0.65457,0.5286
1700499199054687,-9.201738,-2.901063,2.102999,0.976,0.68457,0.6786
1700499199062500,-9.201738,-2.908063,2.75999,0.7276,0.61857,0.2914
1700499199070312,-9.221738,-2.921063,2.70999,0.5576,0.60357,0.5086
1700499199078125,-9.214738,-2.918063,2.90999,0.13876,0.66757,0.386
1700499199085937,-9.212738,-2.929063,2.99999,0.9076,0.55857,0.5186
1700499199093750,-9.207738,-2.942063,2.104999,0.9276,0.57457,0.6014
1700499199101562,-9.227738,-2.947063,2.108999,0.7276,0.61957,0.1986
1700499199109375,-9.210738,-2.936063,2.127999,0.776,0.60257,0.286
1700499199117187,-9.196738,-2.938063,2.120999,0.6924,0.61957,0.10814
1700499199125000,-9.185738,-2.939063,2.108999,0.10424,0.54057,0.1314
1700499199132812,-9.185738,-2.930063,2.108999,0.8724,0.60157,0.15714
1700499199140625,-9.183738,-2.921063,2.102999,0.3724,0.58857,0.7614
1700499199148437,-9.193738,-2.925063,2.104999,0.11624,0.46657,0.1114
1700499199156250,-9.192738,-2.905063,2.115999,0.11724,0.54257,0.4414
1700499199164062,-9.195738,-2.884063,2.113999,0.10324,0.49357,0.10914
1700499199171875,-9.196738,-2.888063,2.122999,0.2124,0.51057,0.6014
1700499199179687,-9.195738,-2.865063,2.97999,0.6924,0.54157,0.12414
1700499199187500,-9.196738,-2.874063,2.77999,0.6724,0.49857,0.2714
1700499199195312,-9.203738,-2.887063,2.86999,0.10124,0.51157,0.6014
1700499199203125,-9.191738,-2.912063,2.95999,0.4576,0.49757,0.4314
1700499199210937,-9.196738,-2.925063,2.86999,0.7676,0.52757,0.7614
1700499199218750,-9.203738,-2.936063,2.115999,0.7576,0.54057,0.14014
1700499199226562,-9.218738,-2.934063,2.104999,0.5976,0.58857,0.9214
1700499199234375,-9.203738,-2.927063,2.95999,0.7476,0.55857,0.386
1700499199242187,-9.198738,-2.925063,2.120999,0.10876,0.59157,0.3686
1700499199250000,-9.184738,-2.922063,2.113999,0.9476,0.59257,0.1114
1700499199257812,-9.191738,-2.927063,2.115999,0.9176,0.54357,0.5186
1700499199265625,-9.193738,-2.920063,2.124999,0.11276,0.48657,0.586
1700499199273437,-9.196738,-2.920063,2.106999,0.9276,0.49757,0.486
1700499199281250,-9.191738,-2.904063,2.93999,0.11176,0.46857,0.486
1700499199289062,-9.168738,-2.900063,2.66999,0.14576,0.46857,0.9014
1700499199296875,-9.178738,-2.899063,2.63999,0.12576,0.49457,0.15614
1700499199304687,-9.168738,-2.896063,2.50999,0.6576,0.42157,0.13814
1700499199312500,-9.182738,-2.905063,2.57999,0.6376,0.46757,0.7514
1700499199320312,-9.198738,-2.900063,2.61999,0.12876,0.46957,0.1014
1700499199328125,-9.214738,-2.905063,2.50999,0.12776,0.41957,0.12314
1700499199335937,-9.216738,-2.920063,2.54999,0.11176,0.43557,0.12314
1700499199343750,-9.207738,-2.911063,2.75999,0.12676,0.45057,0.4314
1700499199351562,-9.198738,-2.905063,2.81999,0.9476,0.43457,0.9114
1700499199359375,-9.194738,-2.899063,2.77999,0.13976,0.46257,0.14114
1700499199367187,-9.199738,-2.895063,2.61999,0.12276,0.46157,0.14114
1700499199375000,-9.218738,-2.893063,2.72999,0.14376,0.44957,0.18714
1700499199382812,-9.229738,-2.902063,2.70999,0.14476,0.49757,0.20314
1700499199390625,-9.258738,-2.901063,2.57999,0.12876,0.49857,0.12314
1700499199398437,-9.245738,-2.900063,2.59999,0.14376,0.51257,0.17214
1700499199406250,-9.232738,-2.902063,2.81999,0.12776,0.49657,0.22014
1700499199414062,-9.217738,-2.874063,2.77999,0.20876,0.46457,0.26814
1700499199421875,-9.211738,-2.886063,2.77999,0.17876,0.43657,0.18714
1700499199429687,-9.211738,-2.907063,2.72999,0.12876,0.43457,0.20314
1700499199437500,-9.230738,-2.907063,2.54999,0.14076,0.47857,0.17214
1700499199445312,-9.215738,-2.924063,2.52999,0.14476,0.45257,0.10714
1700499199453125,-9.216738,-2.933063,2.27999,0.9476,0.43357,0.20414
1700499199460937,-9.229738,-2.951063,2.38999,0.11176,0.46557,0.17114
1700499199468750,-9.232738,-2.936063,2.48999,0.17376,0.47857,0.22114
1700499199476562,-9.212738,-2.914063,2.45999,0.12476,0.44757,0.17214
1700499199484375,-9.227738,-2.895063,2.54999,0.14476,0.42057,0.12314
1700499199492187,-9.258738,-2.895063,2.57999,0.3276,0.49857,0.15514
1700499199500000,-9.277738,-2.913063,2.70999,0.12076,0.58657,0.7714
1700499199507812,-9.274738,-2.928063,2.54999,0.4576,0.52857,0.9114
1700499199515625,-9.247738,-2.939063,2.52999,0.11076,0.59157,0.12314
1700499199523437,-9.229738,-2.933063,2.36999,0.5976,0.57357,0.9214
1700499199531250,-9.202738,-2.941063,2.52999,0.4376,0.58857,0.12414
1700499199539062,-9.193738,-2.934063,2.36999,0.7776,0.55957,0.7514
1700499199546875,-9.192738,-2.942063,2.45999,0.3176,0.54757,0.2614
1700499199554687,-9.195738,-2.947063,2.54999,0.1176,0.43457,0.486
1700499199562500,-9.209738,-2.940063,2.79999,0.2024,0.51257,0.2814
1700499199570312,-9.216738,-2.924063,2.111999,0.5124,0.52957,0.3686
1700499199578125,-9.218738,-2.909063,2.90999,0.8324,0.51357,0.1114
1700499199585937,-9.212738,-2.896063,2.99999,0.5976,0.54357,0.1986
1700499199593750,-9.216738,-2.882063,2.99999,0.1276,0.49757,0.1114
1700499199601562,-9.218738,-2.893063,2.90999,0.2976,0.51457,0.486
1700499199609375,-9.209738,-2.891063,2.70999,0.324,0.52857,0.4314
1700499199617187,-9.164738,-2.894063,2.59999,0.2976,0.51457,0.2714
1700499199625000,-9.185738,-2.896063,2.41999,0.4576,0.48357,0.2086
1700499199632812,-9.180738,-2.903063,2.32999,0.3724,0.52857,0.5186
1700499199640625,-9.193738,-2.902063,2.20999,0.1376,0.46757,0.1114
1700499199648437,-9.227738,-2.895063,2.11999,0.11076,0.45357,0.3786
1700499199656250,-9.239738,-2.898063,2.20999,0.524,0.44957,0.386
1700499199664062,-9.268738,-2.902063,2.18999,0.2676,0.52757,0.386
1700499199671875,-9.266738,-2.902063,2.48999,0.7124,0.57357,0.3586
1700499199679687,-9.243738,-2.891063,2.50999,0.7676,0.51357,0.2086
1700499199687500,-9.216738,-2.891063,2.57999,0.1076,0.59057,0.1986
1700499199695312,-9.198738,-2.898063,2.54999,0.2776,0.57557,0.2086
1700499199703125,-9.198738,-2.923063,2.41999,0.624,0.55857,0.3586
1700499199710937,-9.189738,-2.936063,2.32999,0.7376,0.49557,0.3586
1700499199718750,-9.191738,-2.936063,2.20999,0.5424,0.55657,0.9214
1700499199726562,-9.186738,-2.927063,2.38999,0.1924,0.48357,0.3686
1700499199734375,-9.198738,-2.918063,2.45999,0.11624,0.46657,0.2714
1700499199742187,-9.220738,-2.924063,2.38999,0.3524,0.48357,0.6886
1700499199750000,-9.234738,-2.913063,2.43999,0.14724,0.43657,0.486
1700499199757812,-9.234738,-2.903063,2.50999,0.11924,0.46357,0.4414
1700499199765625,-9.230738,-2.902063,2.18999,0.8524,0.46457,0.4414
1700499199773437,-9.231738,-2.900063,2.2999,0.9924,0.45157,0.1114
1700499199781250,-9.217738,-2.890063,2.11999,0.5424,0.46357,0.1214
1700499199789062,-9.214738,-2.896063,2.999,0.3524,0.43557,0.4314
1700499199796875,-9.208738,-2.899063,2.999,0.976,0.35357,0.4414
1700499199804687,-9.239738,-2.923063,1.998999,0.7376,0.44757,0.2814
1700499199812500,-9.261738,-2.933063,1.987999,0.13976,0.44957,0.1986
1700499199820312,-9.267738,-2.939063,1.989999,0.124,0.54457,0.10714
1700499199828125,-9.245738,-2.933063,2.16999,0.4476,0.57357,0.9214
1700499199835937,-9.233738,-2.933063,2.23999,0.6376,0.45157,0.12314
1700499199843750,-9.214738,-2.927063,2.45999,0.5424,0.58757,0.12514
1700499199851562,-9.196738,-2.918063,2.27999,0.7024,0.48057,0.386
1700499199859375,-9.198738,-2.918063,2.43999,0.1476,0.45157,0.5914
1700499199867187,-9.211738,-2.924063,2.43999,0.6524,0.46957,0.3786
1700499199875000,-9.200738,-2.934063,2.45999,0.5324,0.49557,0.2814
1700499199882812,-9.202738,-2.932063,2.45999,0.2224,0.55857,0.386
1700499199890625,-9.213738,-2.934063,2.54999,0.13424,0.45057,0.5286
1700499199898437,-9.204738,-2.927063,2.43999,0.6076,0.52857,0.486
1700499199906250,-9.214738,-2.925063,2.27999,0.5976,0.46557,0.2086
1700499199914062,-9.204738,-2.922063,2.29999,0.6276,0.46757,0.4314
1700499199921875,-9.196738,-2.929063,2.9999,0.1824,0.46457,0.15614
1700499199929687,-9.195738,-2.934063,1.998999,0.224,0.48157,0.7514
1700499199937500,-9.206738,-2.940063,2.999,0.1824,0.51357,0.5914
1700499199945312,-9.220738,-2.936063,2.11999,0.1924,0.58957,0.15614
1700499199953125,-9.229738,-2.938063,2.27999,0.1176,0.55857,0.6014
1700499199960937,-9.227738,-2.936063,2.999,0.5976,0.57457,0.1214
1700499199968750,-9.232738,-2.936063,2.9999,0.1076,0.58857,0.7614
1700499199976562,-9.229738,-2.940063,2.32999,0.424,0.54357,0.2814
1700499199984375,-9.229738,-2.933063,2.32999,0.7576,0.57357,0.7614
1700499199992187,-9.229738,-2.933063,2.48999,0.1824,0.57557,0.7514
1700499200000000,-9.205738,-2.940063,2.54999,0.2676,0.61957,0.10814
1700499200007812,-9.188738,-2.949063,2.61999,0.1576,0.56057,0.15514
1700499200015625,-9.188738,-2.955063,2.50999,0.1576,0.56057,0.17114
1700499200023437,-9.172738,-2.933063,2.45999,0.3176,0.60857,0.10714
1700499200031250,-9.170738,-2.934063,2.27999,0.6376,0.57657,0.12314
1700499200039062,-9.176738,-2.941063,2.18999,0.4276,0.55657,0.14014
1700499200046875,-9.198738,-2.934063,2.9999,0.7676,0.49557,0.9214
1700499200054687,-9.237738,-2.936063,1.996999,0.14676,0.55057,0.914
1700499200062500,-9.244738,-2.955063,2.999,0.14476,0.49857,0.12314
1700499200070312,-9.227738,-2.967063,2.14999,0.10176,0.45657,0.15314
1700499200078125,-9.257738,-2.970063,2.16999,0.9576,0.45057,0.15514
1700499200085937,-9.237738,-2.975063,2.38999,0.14376,0.58957,0.23614
1700499200093750,-9.226738,-2.969063,2.43999,0.12676,0.62157,0.17214
1700499200101562,-9.231738,-2.971063,2.48999,0.14376,0.54357,0.20414
1700499200109375,-9.217738,-2.964063,2.70999,0.6176,0.60457,0.20414
1700499200117187,-9.209738,-2.958063,2.75999,0.3724,0.68157,0.17214
1700499200125000,-9.189738,-2.954063,2.86999,0.4176,0.60257,0.12514
1700499200132812,-9.175738,-2.963063,2.86999,0.4476,0.74457,0.22014
1700499200140625,-9.165738,-2.956063,2.66999,0.1724,0.70157,0.12314
1700499200148437,-9.172738,-2.957063,2.63999,0.3324,0.68857,0.586
1700499200156250,-9.174738,-2.955063,2.66999,0.3176,0.67157,0.7514
1700499200164062,-9.192738,-2.962063,2.43999,0.4676,0.60857,0.7514
1700499200171875,-9.213738,-2.958063,2.43999,0.1276,0.54457,0.4314
1700499200179687,-9.224738,-2.971063,2.45999,0.1376,0.54357,0.10714
1700499200187500,-9.235738,-2.957063,2.45999,0.1724,0.57557,0.18714
1700499200195312,-9.249738,-2.935063,2.23999,0.13024,0.62157,0.17114
1700499200203125,-9.231738,-2.930063,2.11999,0.8024,0.56057,0.20314
1700499200210937,-9.231738,-2.924063,2.27999,0.11224,0.65457,0.20314
1700499200218750,-9.238738,-2.936063,2.18999,0.2024,0.64957,0.22014
1700499200226562,-9.231738,-2.948063,2.14999,0.1824,0.67057,0.9114
1700499200234375,-9.221738,-2.937063,2.23999,0.4876,0.68757,0.15414
1700499200242187,-9.206738,-2.930063,2.54999,0.9876,0.68857,0.13814
1700499200250000,-9.208738,-2.940063,2.54999,0.7976,0.66957,0.18714
1700499200257812,-9.197738,-2.933063,2.57999,0.11476,0.68657,0.21914
1700499200265625,-9.206738,-2.933063,2.52999,0.9876,0.64057,0.20214
1700499200273437,-9.228738,-2.952063,2.45999,0.11376,0.63957,0.21914
1700499200281250,-9.230738,-2.959063,2.57999,0.1724,0.70057,0.20314
1700499200289062,-9.245738,-2.964063,2.43999,0.2776,0.63357,0.22114
1700499200296875,-9.238738,-2.978063,2.45999,0.9176,0.63357,0.20514
1700499200304687,-9.219738,-2.984063,2.38999,0.4576,0.61957,0.22014
1700499200312500,-9.189738,-2.970063,2.32999,0.10224,0.61657,0.25314
1700499200320312,-9.182738,-2.952063,2.45999,0.224,0.63557,0.23614
1700499200328125,-9.193738,-2.938063,2.20999,0.7976,0.57357,0.25214
1700499200335937,-9.233738,-2.939063,2.16999,0.6376,0.66957,0.20314
1700499200343750,-9.265738,-2.973063,2.32999,0.3724,0.71257,0.14014
1700499200351562,-9.262738,-2.970063,2.16999,0.3524,0.71457,0.18814
1700499200359375,-9.238738,-2.957063,2.18999,0.1924,0.71357,0.20414
1700499200367187,-9.216738,-2.933063,2.54999,0.5124,0.66657,0.22014
1700499200375000,-9.198738,-2.938063,2.38999,0.1824,0.57457,0.20414
1700499200382812,-9.175738,-2.940063,2.41999,0.3124,0.59257,0.21914
1700499200390625,-9.184738,-2.956063,2.54999,0.5024,0.57357,0.20414
1700499200398437,-9.195738,-2.967063,2.59999,0.5124,0.57357,0.20414
1700499200406250,-9.215738,-2.973063,2.66999,0.1676,0.59157,0.21914
1700499200414062,-9.206738,-2.967063,2.86999,0.6176,0.68357,0.20414
1700499200421875,-9.221738,-2.927063,2.90999,0.3724,0.60257,0.22114
1700499200429687,-9.209738,-2.902063,2.59999,0.6624,0.63557,0.23614
1700499200437500,-9.191738,-2.907063,2.57999,0.11524,0.66757,0.22014
1700499200445312,-9.183738,-2.894063,2.81999,0.1824,0.55857,0.20414
1700499200453125,-9.185738,-2.897063,2.61999,0.424,0.61757,0.25314
1700499200460937,-9.199738,-2.904063,2.61999,0.5676,0.64557,0.27014
1700499200468750,-9.194738,-2.908063,2.77999,0.7576,0.63357,0.20514
1700499200476562,-9.198738,-2.916063,2.86999,0.10776,0.66457,0.20514
1700499200484375,-9.200738,-2.938063,2.81999,0.14476,0.63757,0.21914
1700499200492187,-9.195738,-2.965063,2.86999,0.12476,0.60257,0.20514
1700499200500000,-9.204738,-2.974063,2.102999,0.10976,0.61857,0.25214
1700499200507812,-9.211738,-2.961063,2.93999,0.7576,0.57057,0.25314
1700499200515625,-9.184738,-2.949063,2.113999,0.1576,0.68457,0.23514
1700499200523437,-9.177738,-2.936063,2.104999,0.9576,0.69957,0.26814
1700499200531250,-9.171738,-2.934063,2.81999,0.9476,0.61957,0.25214
1700499200539062,-9.171738,-2.923063,2.95999,0.3724,0.61757,0.23714
1700499200546875,-9.175738,-2.925063,2.63999,0.7976,0.62157,0.23514
1700499200554687,-9.200738,-2.932063,2.68999,0.10976,0.64957,0.26814
1700499200562500,-9.204738,-2.927063,2.95999,0.1476,0.58957,0.23614
1700499200570312,-9.204738,-2.927063,2.122999,0.12876,0.57557,0.21914
1700499200578125,-9.207738,-2.922063,2.124999,0.9576,0.62157,0.23514
1700499200585937,-9.198738,-2.923063,2.117999,0.9276,0.60357,0.20414
1700499200593750,-9.202738,-2.917063,2.129999,0.14576,0.68657,0.20314
1700499200601562,-9.211738,-2.920063,2.129999,0.12876,0.60657,0.23514
1700499200609375,-9.209738,-2.913063,2.108999,0.4776,0.62157,0.21914
1700499200617187,-9.216738,-2.911063,2.88999,0.12776,0.68457,0.20314
1700499200625000,-9.208738,-2.913063,2.95999,0.14676,0.67157,0.21914
1700499200632812,-9.218738,-2.898063,2.99999,0.12676,0.66757,0.23614
1700499200640625,-9.214738,-2.896063,2.120999,0.13976,0.68057,0.20514
1700499200648437,-9.214738,-2.918063,2.118999,0.12676,0.63657,0.22014
1700499200656250,-9.203738,-2.925063,2.117999,0.15676,0.66557,0.20414
1700499200664062,-9.198738,-2.922063,2.95999,0.14376,0.60557,0.20414
1700499200671875,-9.209738,-2.922063,2.70999,0.12776,0.62257,0.17114
1700499200679687,-9.211738,-2.917063,2.66999,0.12976,0.65357,0.25114
1700499200687500,-9.208738,-2.917063,2.66999,0.14776,0.63957,0.25114
1700499200695312,-9.205738,-2.921063,2.79999,0.12576,0.71157,0.28514
1700499200703125,-9.207738,-2.920063,2.120999,0.15876,0.72957,0.22014
1700499200710937,-9.196738,-2.900063,2.127999,0.1576,0.66857,0.25214
1700499200718750,-9.209738,-2.902063,2.124999,0.1476,0.60457,0.23614
1700499200726562,-9.204738,-2.900063,2.133999,0.12976,0.73257,0.20314
1700499200734375,-9.203738,-2.889063,2.117999,0.1276,0.69757,0.22014
1700499200742187,-9.201738,-2.892063,2.122999,0.15876,0.66657,0.25214
1700499200750000,-9.197738,-2.890063,2.104999,0.11576,0.67157,0.25014
1700499200757812,-9.200738,-2.903063,2.81999,0.7876,0.68257,0.28414
1700499200765625,-9.185738,-2.907063,2.88999,0.14276,0.68357,0.22014
1700499200773437,-9.195738,-2.909063,2.95999,0.9676,0.63857,0.21914
1700499200781250,-9.207738,-2.909063,2.79999,0.14476,0.63757,0.23514
1700499200789062,-9.229738,-2.901063,2.86999,0.12976,0.68657,0.20314
1700499200796875,-9.233738,-2.895063,2.118999,0.14576,0.67057,0.21914
1700499200804687,-9.229738,-2.897063,2.124999,0.12976,0.62357,0.21914
1700499200812500,-9.227738,-2.897063,2.138999,0.14576,0.67057,0.23514
1700499200820312,-9.220738,-2.892063,2.136999,0.13276,0.67357,0.20214
1700499200828125,-9.206738,-2.894063,2.147999,0.10776,0.68057,0.22114
1700499200835937,-9.181738,-2.894063,2.138999,0.14076,0.66557,0.20414
1700499200843750,-9.173738,-2.898063,2.131999,0.12776,0.68457,0.21914
1700499200851562,-9.180738,-2.909063,2.117999,0.6276,0.63757,0.13914
1700499200859375,-9.200738,-2.907063,2.111999,0.12676,0.58857,0.22014
1700499200867187,-9.201738,-2.894063,2.124999,0.10976,0.66657,0.18814
1700499200875000,-9.211738,-2.893063,2.118999,0.4876,0.63857,0.21914
1700499200882812,-9.212738,-2.894063,2.124999,0.1824,0.63657,0.22014
1700499200890625,-9.207738,-2.893063,2.142999,0.13076,0.62357,0.25114
1700499200898437,-9.212738,-2.901063,2.127999,0.9276,0.57157,0.25314
1700499200906250,-9.228738,-2.900063,2.127999,0.4476,0.57257,0.23614
1700499200914062,-9.230738,-2.907063,2.129999,0.1276,0.64957,0.23614
1700499200921875,-9.222738,-2.913063,2.104999,0.3424,0.56057,0.10714
1700499200929687,-9.213738,-2.915063,2.115999,0.176,0.60957,0.18614
1700499200937500,-9.205738,-2.918063,2.129999,0.6176,0.55657,0.22014
1700499200945312,-9.212738,-2.896063,2.122999,0.1924,0.57357,0.20414
1700499200953125,-9.212738,-2.896063,2.127999,0.10976,0.61957,0.22014
1700499200960937,-9.187738,-2.893063,2.136999,0.11276,0.68557,0.20314
1700499200968750,-9.194738,-2.891063,2.124999,0.14376,0.63757,0.18714
1700499200976562,-9.194738,-2.883063,2.138999,0.12476,0.65057,0.22014
1700499200984375,-9.196738,-2.890063,2.133999,0.14176,0.68257,0.20414
1700499200992187,-9.198738,-2.898063,2.95999,0.13076,0.60857,0.21914
1700499201000000,-9.209738,-2.907063,2.93999,0.14376,0.60557,0.22014
1700499201007812,-9.213738,-2.924063,2.86999,0.12876,0.62257,0.18714
1700499201015625,-9.213738,-2.933063,2.70999,0.17576,0.66857,0.20314
1700499201023437,-9.211738,-2.952063,2.81999,0.12376,0.64957,0.14114
1700499201031250,-9.219738,-2.936063,2.111999,0.8976,0.66457,0.10914
1700499201039062,-9.218738,-2.918063,2.111999,0.14276,0.63557,0.22014
1700499201046875,-9.201738,-2.919063,2.120999,0.12476,0.60257,0.20514
1700499201054687,-9.198738,-2.905063,2.122999,0.14376,0.71357,0.28414
1700499201062500,-9.196738,-2.900063,2.122999,0.12676,0.66757,0.23614
1700499201070312,-9.202738,-2.904063,2.115999,0.11276,0.74757,0.23514
1700499201078125,-9.216738,-2.920063,2.115999,0.14376,0.69957,0.20314
1700499201085937,-9.204738,-2.911063,2.106999,0.12776,0.71657,0.15514
1700499201093750,-9.195738,-2.904063,2.99999,0.14476,0.71757,0.17114
1700499201101562,-9.195738,-2.886063,2.104999,0.14876,0.64257,0.20214
1700499201109375,-9.204738,-2.883063,2.104999,0.13176,0.70557,0.10514
1700499201117187,-9.227738,-2.886063,2.118999,0.14376,0.63757,0.18714
1700499201125000,-9.234738,-2.893063,2.120999,0.19476,0.60757,0.25114
1700499201132812,-9.232738,-2.904063,2.115999,0.12776,0.58957,0.22014
1700499201140625,-9.236738,-2.890063,2.113999,0.22876,0.50057,0.20214
1700499201148437,-9.239738,-2.882063,2.102999,0.23876,0.55957,0.7514
1700499201156250,-9.241738,-2.893063,2.106999,0.28876,0.54557,0.10714
1700499201164062,-9.223738,-2.909063,2.118999,0.30376,0.62257,0.9114
1700499201171875,-9.229738,-2.918063,2.142999,0.28476,0.66857,0.386
1700499201179687,-9.245738,-2.929063,2.129999,0.38276,0.59057,0.7614
1700499201187500,-9.203738,-2.903063,2.115999,0.41376,0.69957,0.386
1700499201195312,-9.205738,-2.923063,2.138999,0.21976,0.66757,0.4414
1700499201203125,-9.227738,-2.931063,2.113999,0.15676,0.68357,0.10814
1700499201210937,-9.214738,-2.921063,2.93999,0.16976,0.66357,0.12514
1700499201218750,-9.207738,-2.923063,2.54999,0.12076,0.68057,0.4514
1700499201226562,-9.185738,-2.923063,2.86999,0.13976,0.69957,0.386
1700499201234375,-9.161738,-2.920063,2.97999,0.15376,0.66357,0.14114
1700499201242187,-9.158738,-2.917063,2.106999,0.14076,0.68357,0.7614
1700499201250000,-9.174738,-2.924063,2.129999,0.11976,0.66457,0.4514
1700499201257812,-9.200738,-2.914063,2.131999,0.14076,0.68257,0.14014
1700499201265625,-9.203738,-2.910063,2.113999,0.12276,0.66557,0.6014
1700499201273437,-9.207738,-2.909063,2.117999,0.5976,0.58957,0.4414
1700499201281250,-9.217738,-2.903063,2.115999,0.7276,0.71357,0.1986
1700499201289062,-9.206738,-2.874063,2.99999,0.4076,0.65057,0.1214
1700499201296875,-9.212738,-2.874063,2.81999,0.10776,0.60757,0.3686
1700499201304687,-9.215738,-2.872063,2.93999,0.10576,0.65057,0.1986
1700499201312500,-9.231738,-2.861063,2.88999,0.13776,0.60157,0.9314
1700499201320312,-9.235738,-2.872063,2.66999,0.12076,0.61657,0.10914
1700499201328125,-9.234738,-2.880063,2.79999,0.13976,0.68457,0.2086
1700499201335937,-9.232738,-2.888063,2.84999,0.14376,0.67057,0.13914
1700499201343750,-9.234738,-2.893063,2.81999,0.18976,0.68457,0.6014
1700499201351562,-9.221738,-2.889063,2.86999,0.13876,0.66757,0.1214
1700499201359375,-9.210738,-2.888063,2.86999,0.15276,0.61857,0.1886
1700499201367187,-9.185738,-2.876063,2.63999,0.18976,0.66957,0.2714
1700499201375000,-9.174738,-2.870063,2.95999,0.17376,0.68457,0.9214
1700499201382812,-9.185738,-2.872063,2.79999,0.13876,0.66657,0.4414
1700499201390625,-9.209738,-2.891063,2.70999,0.15876,0.68557,0.5914
1700499201398437,-9.219738,-2.901063,2.95999,0.12176,0.66457,0.7714
1700499201406250,-9.250738,-2.902063,2.88999,0.12376,0.68357,0.4414
1700499201414062,-9.241738,-2.907063,2.86999,0.10676,0.64957,0.12514
1700499201421875,-9.216738,-2.893063,2.122999,0.14176,0.60657,0.10814
1700499201429687,-9.203738,-2.889063,2.117999,0.22176,0.68357,0.9214
1700499201437500,-9.194738,-2.894063,2.117999,0.14076,0.66657,0.14014
1700499201445312,-9.214738,-2.893063,2.111999,0.12576,0.68357,0.10814
1700499201453125,-9.210738,-2.869063,2.122999,0.14176,0.68457,0.7614
1700499201460937,-9.225738,-2.880063,2.118999,0.12576,0.65257,0.9214
1700499201468750,-9.248738,-2.867063,2.104999,0.12376,0.71257,0.14014
1700499201476562,-9.246738,-2.864063,2.99999,0.14076,0.69957,0.4414
1700499201484375,-9.249738,-2.865063,2.97999,0.18276,0.66357,0.5086
1700499201492187,-9.243738,-2.875063,2.97999,0.14076,0.65457,0.3686
1700499201500000,-9.247738,-2.895063,2.118999,0.10876,0.60857,0.5286
1700499201507812,-9.245738,-2.915063,2.118999,0.22076,0.62257,0.3686
1700499201515625,-9.247738,-2.910063,2.124999,0.17476,0.64057,0.5286
1700499201523437,-9.239738,-2.894063,2.142999,0.18676,0.71357,0.2814
1700499201531250,-9.234738,-2.887063,2.133999,0.12376,0.68457,0.2086
1700499201539062,-9.212738,-2.891063,2.136999,0.23776,0.70157,0.3686
1700499201546875,-9.220738,-2.895063,2.142999,0.24076,0.67157,0.1014
1700499201554687,-9.205738,-2.894063,2.163999,0.25276,0.68357,0.386
1700499201562500,-9.192738,-2.899063,2.149999,0.18676,0.58957,0.5186
1700499201570312,-9.198738,-2.922063,2.138999,0.30176,0.59157,0.5286
1700499201578125,-9.218738,-2.926063,2.142999,0.25476,0.59257,0.3686
1700499201585937,-9.212738,-2.916063,2.140999,0.15276,0.69657,0.1886
1700499201593750,-9.190738,-2.919063,2.154999,0.13876,0.63457,0.4414
1700499201601562,-9.189738,-2.927063,2.138999,0.14176,0.57657,0.3686
1700499201609375,-9.173738,-2.930063,2.154999,0.17176,0.58957,0.4414
1700499201617187,-9.172738,-2.924063,2.165999,0.12276,0.57257,0.2814
1700499201625000,-9.153738,-2.933063,2.165999,0.15376,0.55757,0.3586
1700499201632812,-9.156738,-2.946063,2.156999,0.13776,0.58857,0.386
1700499201640625,-9.187738,-2.941063,2.165999,0.13876,0.58857,0.1214
1700499201648437,-9.182738,-2.936063,2.174999,0.12676,0.60857,0.486
1700499201656250,-9.180738,-2.941063,2.188999,0.10576,0.60457,0.1986
1700499201664062,-9.165738,-2.940063,2.183999,0.6376,0.59557,0.6986
1700499201671875,-9.144738,-2.937063,2.185999,0.7576,0.62257,0.6886
1700499201679687,-9.128738,-2.957063,2.178999,0.14076,0.57757,0.11686
1700499201687500,-9.117738,-2.960063,2.156999,0.9076,0.57457,0.3586
1700499201695312,-9.126738,-2.957063,2.154999,0.12276,0.57457,0.5186
1700499201703125,-9.144738,-2.970063,2.149999,0.12176,0.49557,0.5186
1700499201710937,-9.173738,-2.963063,2.156999,0.10776,0.60657,0.3586
1700499201718750,-9.178738,-2.946063,2.158999,0.3976,0.52557,0.8386
1700499201726562,-9.173738,-2.932063,2.151999,0.9276,0.45157,0.8486
1700499201734375,-9.173738,-2.941063,2.160999,0.10776,0.55957,0.1986
1700499201742187,-9.169738,-2.950063,2.156999,0.8976,0.57457,0.8386
1700499201750000,-9.188738,-2.949063,2.151999,0.12476,0.56057,0.5286
1700499201757812,-9.199738,-2.949063,2.136999,0.7676,0.54557,0.6886
1700499201765625,-9.184738,-2.965063,2.145999,0.4476,0.56157,0.8486
1700499201773437,-9.180738,-2.972063,2.156999,0.8976,0.58957,0.8386
1700499201781250,-9.166738,-2.992063,2.142999,0.10576,0.57357,0.5186
1700499201789062,-9.161738,-2.974063,2.127999,0.7676,0.45157,0.3686
1700499201796875,-9.186738,-2.965063,2.122999,0.10676,0.52757,0.3586
1700499201804687,-9.187738,-2.956063,2.133999,0.12176,0.52657,0.5186
1700499201812500,-9.180738,-2.961063,2.151999,0.13976,0.49557,0.2814
1700499201820312,-9.190738,-2.971063,2.156999,0.9276,0.54457,0.3686
1700499201828125,-9.193738,-2.974063,2.156999,0.9176,0.59057,0.3586
1700499201835937,-9.193738,-2.971063,2.169999,0.14076,0.59057,0.2814
1700499201843750,-9.193738,-2.987063,2.172999,0.12276,0.62057,0.386
1700499201851562,-9.190738,-3.63,2.149999,0.7476,0.60457,0.386
1700499201859375,-9.166738,-2.983063,2.151999,0.13976,0.62257,0.5286
1700499201867187,-9.139738,-2.968063,2.136999,0.15376,0.66757,0.6786
1700499201875000,-9.135738,-2.971063,2.138999,0.12076,0.66557,0.286
1700499201882812,-9.150738,-2.968063,2.133999,0.9076,0.68257,0.2814
1700499201890625,-9.163738,-2.971063,2.115999,0.17476,0.67157,0.2086
1700499201898437,-9.170738,-2.969063,2.129999,0.12476,0.68457,0.4414
1700499201906250,-9.188738,-2.965063,2.122999,0.10876,0.63657,0.12414
1700499201914062,-9.210738,-2.948063,2.127999,0.14376,0.60957,0.1014
1700499201921875,-9.200738,-2.929063,2.154999,0.9176,0.66957,0.2086
1700499201929687,-9.192738,-2.928063,2.154999,0.10476,0.68257,0.3586
1700499201937500,-9.156738,-2.933063,2.181999,0.13576,0.72657,0.1314
1700499201945312,-9.127738,-2.933063,2.169999,0.11976,0.68057,0.286
1700499201953125,-9.123738,-2.950063,2.163999,0.14176,0.67057,0.2086
1700499201960937,-9.134738,-2.970063,2.154999,0.15576,0.68457,0.3686
1700499201968750,-9.167738,-2.968063,2.124999,0.12076,0.63457,0.3486
1700499201976562,-9.166738,-2.981063,2.117999,0.13676,0.63557,0.6786
1700499201984375,-9.174738,-2.996063,2.79999,0.12476,0.68557,0.486
1700499201992187,-9.170738,-3.5063,2.72999,0.13876,0.72957,0.4414
1700499202000000,-9.181738,-3.9063,2.86999,0.12576,0.73157,0.4314
1700499202007812,-9.199738,-3.4063,2.79999,0.14076,0.68457,0.4414
1700499202015625,-9.211738,-2.980063,2.120999,0.9076,0.65157,0.4414
1700499202023437,-9.209738,-2.967063,2.138999,0.9076,0.69957,0.1214
1700499202031250,-9.222738,-2.967063,2.145999,0.10776,0.69857,0.7614
1700499202039062,-9.216738,-3.1063,2.154999,0.4476,0.71757,0.2086
1700499202046875,-9.191738,-3.26063,2.147999,0.11176,0.67157,0.5914
1700499202054687,-9.174738,-3.32063,2.145999,0.5876,0.68257,0.6014
1700499202062500,-9.162738,-3.13063,2.133999,0.7876,0.70157,0.10714
1700499202070312,-9.134738,-2.999063,2.122999,0.14076,0.68457,0.1114
1700499202078125,-9.138738,-2.975063,2.120999,0.16276,0.61257,0.2514
1700499202085937,-9.170738,-2.967063,2.133999,0.1576,0.57757,0.5814
1700499202093750,-9.176738,-2.977063,2.145999,0.4876,0.59557,0.586
1700499202101562,-9.179738,-2.996063,2.156999,0.5776,0.60557,0.1986
1700499202109375,-9.171738,-2.997063,2.154999,0.8076,0.57957,0.1014
1700499202117187,-9.166738,-3.1063,2.197999,0.4276,0.63557,0.6014
1700499202125000,-9.163738,-2.996063,2.190999,0.7676,0.59057,0.2714
1700499202132812,-9.177738,-2.973063,2.188999,0.4476,0.65457,0.2086
1700499202140625,-9.170738,-2.967063,2.185999,0.11076,0.65357,0.9114
1700499202148437,-9.177738,-2.969063,2.181999,0.7776,0.63757,0.10814
1700499202156250,-9.178738,-2.970063,2.174999,0.12076,0.61857,0.1314
1700499202164062,-9.190738,-2.998063,2.145999,0.12576,0.57657,0.3686
1700499202171875,-9.189738,-3.11063,2.145999,0.10976,0.57857,0.8486
1700499202179687,-9.187738,-3.13063,2.106999,0.14076,0.59157,0.5286
1700499202187500,-9.178738,-3.54063,2.75999,0.12276,0.62057,0.386
1700499202195312,-9.185738,-3.60063,2.147999,0.13976,0.71557,0.2086
1700499202203125,-9.207738,-3.62063,2.151999,0.20376,0.69957,0.1214
1700499202210937,-9.212738,-3.57063,2.158999,0.14076,0.72957,0.12414
1700499202218750,-9.194738,-3.40063,2.167999,0.18976,0.71257,0.28514
1700499202226562,-9.199738,-3.9063,2.178999,0.20576,0.69657,0.25314
1700499202234375,-9.173738,-2.970063,2.197999,0.15576,0.63457,0.15714
1700499202242187,-9.146738,-2.970063,2.190999,0.15576,0.63457,0.14114
1700499202250000,-9.137738,-2.979063,2.181999,0.18776,0.68257,0.4414
1700499202257812,-9.114738,-2.997063,2.203999,0.23576,0.68457,0.1986
1700499202265625,-9.100738,-3.3063,2.190999,0.20976,0.65557,0.10714
1700499202273437,-9.103738,-3.11063,2.158999,0.18776,0.60457,0.4414
1700499202281250,-9.120738,-3.37063,2.165999,0.17176,0.66657,0.9214
1700499202289062,-9.160738,-3.45063,2.163999,0.20676,0.62057,0.22014
1700499202296875,-9.181738,-3.41063,2.147999,0.12276,0.64957,0.12514
1700499202304687,-9.170738,-3.39063,2.163999,0.15376,0.66557,0.4514
1700499202312500,-9.174738,-3.61063,2.178999,0.16976,0.67957,0.10914
1700499202320312,-9.165738,-3.61063,2.194999,0.25276,0.60257,0.18914
1700499202328125,-9.149738,-3.74063,2.194999,0.15476,0.63457,0.6014
1700499202335937,-9.151738,-3.78063,2.172999,0.20576,0.63657,0.12414
1700499202343750,-9.142738,-3.78063,2.167999,0.23976,0.65357,0.12314
1700499202351562,-9.144738,-3.81063,2.190999,0.14076,0.63557,0.14014
1700499202359375,-9.139738,-3.71063,2.192999,0.19276,0.59057,0.23514
1700499202367187,-9.147738,-3.61063,2.181999,0.17076,0.57157,0.10914
1700499202375000,-9.169738,-3.67063,2.165999,0.17376,0.62257,0.5914
1700499202382812,-9.173738,-3.80063,2.183999,0.11176,0.57557,0.20314
1700499202390625,-9.186738,-3.64063,2.183999,0.11276,0.59257,0.15514
1700499202398437,-9.176738,-3.60063,2.185999,0.14276,0.68357,0.18814
1700499202406250,-9.147738,-3.52063,2.208999,0.12576,0.66657,0.18814
1700499202414062,-9.138738,-3.45063,2.210999,0.14376,0.69957,0.20314
1700499202421875,-9.100738,-3.35063,2.217999,0.12476,0.68257,0.14014
1700499202429687,-9.113738,-3.36063,2.215999,0.14376,0.65357,0.18714
1700499202437500,-9.117738,-3.38063,2.201999,0.13176,0.64157,0.17014
1700499202445312,-9.106738,-3.52063,2.172999,0.14176,0.69957,0.12414
1700499202453125,-9.119738,-3.56063,2.190999,0.12876,0.66957,0.20314
1700499202460937,-9.117738,-3.43063,2.178999,0.14376,0.68457,0.21914
1700499202468750,-9.117738,-3.41063,2.151999,0.9676,0.65357,0.20314
1700499202476562,-9.135738,-3.47063,2.160999,0.9676,0.68557,0.20314
1700499202484375,-9.140738,-3.41063,2.158999,0.14376,0.65257,0.22014
1700499202492187,-9.154738,-3.59063,2.158999,0.12576,0.57257,0.22014
1700499202500000,-9.158738,-3.63063,2.188999,0.10876,0.57257,0.17214
1700499202507812,-9.127738,-3.59063,2.190999,0.10876,0.57257,0.15614
1700499202515625,-9.124738,-3.56063,2.197999,0.4576,0.65257,0.17214
1700499202523437,-9.138738,-3.41063,2.206999,0.5876,0.63357,0.15714
1700499202531250,-9.124738,-3.60063,2.226999,0.1624,0.56257,0.5814
1700499202539062,-9.118738,-3.66063,2.203999,0.6824,0.44957,0.2814
1700499202546875,-9.122738,-3.54063,2.199999,0.3524,0.46657,0.4314
1700499202554687,-9.123738,-3.42063,2.187999,0.524,0.49457,0.9214
1700499202562500,-9.159738,-3.30063,2.187999,0.10124,0.49457,0.12414
1700499202570312,-9.158738,-3.45063,2.178999,0.3324,0.54357,0.18714
1700499202578125,-9.143738,-3.44063,2.183999,0.9276,0.47657,0.25314
1700499202585937,-9.160738,-3.38063,2.167999,0.4676,0.52657,0.23614
1700499202593750,-9.170738,-3.14063,2.163999,0.1824,0.52657,0.23614
1700499202601562,-9.172738,-2.987063,2.174999,0.3176,0.44957,0.26814
1700499202609375,-9.177738,-2.974063,2.131999,0.0,0.43357,0.23614
1700499202617187,-9.190738,-2.971063,2.156999,0.0,0.48057,0.25214
1700499202625000,-9.170738,-2.993063,2.172999,0.1676,0.48257,0.20314
1700499202632812,-9.184738,-2.980063,2.190999,0.9676,0.43357,0.23614
1700499202640625,-9.188738,-2.969063,2.190999,0.11176,0.43257,0.28414
1700499202648437,-9.142738,-2.970063,2.199999,0.2976,0.44557,0.33314
1700499202656250,-9.143738,-2.976063,2.208999,0.14676,0.43457,0.28314
1700499202664062,-9.159738,-2.974063,2.221999,0.3176,0.46457,0.28414
1700499202671875,-9.157738,-2.968063,2.233999,0.7876,0.43157,0.26814
1700499202679687,-9.153738,-2.972063,2.226999,0.11076,0.47857,0.26814
1700499202687500,-9.142738,-2.966063,2.219999,0.10976,0.41557,0.23614
1700499202695312,-9.155738,-2.959063,2.199999,0.14476,0.46557,0.20414
1700499202703125,-9.162738,-2.968063,2.210999,0.14376,0.41757,0.22014
1700499202710937,-9.154738,-2.960063,2.210999,0.13076,0.46657,0.26714
1700499202718750,-9.165738,-2.966063,2.226999,0.18076,0.51557,0.21814
1700499202726562,-9.175738,-2.972063,2.206999,0.17676,0.46557,0.20414
1700499202734375,-9.174738,-2.989063,2.206999,0.12976,0.46657,0.21914
1700499202742187,-9.177738,-2.985063,2.221999,0.14376,0.41757,0.20414
1700499202750000,-9.178738,-2.975063,2.203999,0.14876,0.46857,0.28214
1700499202757812,-9.176738,-2.982063,2.212999,0.13076,0.48257,0.26714
1700499202765625,-9.184738,-2.971063,2.226999,0.17976,0.46557,0.34714
1700499202773437,-9.170738,-2.947063,2.248999,0.14576,0.51257,0.26714
1700499202781250,-9.139738,-2.936063,2.246999,0.16276,0.45157,0.23514
1700499202789062,-9.137738,-2.905063,2.224999,0.14576,0.48157,0.23514
1700499202796875,-9.156738,-2.899063,2.226999,0.15976,0.41757,0.23614
1700499202804687,-9.164738,-2.898063,2.242999,0.19476,0.46657,0.25114
1700499202812500,-9.153738,-2.917063,2.212999,0.17576,0.49557,0.20414
1700499202820312,-9.144738,-2.934063,2.228999,0.16176,0.60557,0.30014
1700499202828125,-9.143738,-2.954063,2.242999,0.27476,0.55957,0.31514
1700499202835937,-9.133738,-2.970063,2.253999,0.22376,0.55657,0.34814
1700499202843750,-9.126738,-2.966063,2.235999,0.17776,0.63557,0.36414
1700499202851562,-9.139738,-2.965063,2.203999,0.14376,0.66757,0.30014
1700499202859375,-9.143738,-2.976063,2.210999,0.12876,0.63557,0.33214
1700499202867187,-9.168738,-2.974063,2.203999,0.14476,0.62057,0.33214
1700499202875000,-9.170738,-2.974063,2.187999,0.15876,0.61957,0.22014
1700499202882812,-9.184738,-2.967063,2.167999,0.12776,0.61957,0.30014
1700499202890625,-9.188738,-2.976063,2.185999,0.15776,0.68057,0.28514
1700499202898437,-9.159738,-2.987063,2.208999,0.20676,0.68257,0.23614
1700499202906250,-9.147738,-2.992063,2.221999,0.20876,0.63757,0.20314
1700499202914062,-9.134738,-2.990063,2.230999,0.12676,0.58857,0.22014
1700499202921875,-9.126738,-2.970063,2.237999,0.14176,0.51057,0.20414
1700499202929687,-9.110738,-2.964063,2.210999,0.12676,0.44757,0.22014
1700499202937500,-9.106738,-2.951063,2.201999,0.22276,0.46257,0.28514
1700499202945312,-9.128738,-2.936063,2.187999,0.14776,0.45257,0.25114
1700499202953125,-9.140738,-2.919063,2.165999,0.14376,0.44857,0.25214
1700499202960937,-9.129738,-2.922063,2.149999,0.12476,0.47557,0.28514
1700499202968750,-9.140738,-2.917063,2.154999,0.19276,0.47957,0.28414
1700499202976562,-9.160738,-2.914063,2.156999,0.17476,0.41857,0.14014
1700499202984375,-9.181738,-2.917063,2.154999,0.22076,0.36957,0.10814
1700499202992187,-9.200738,-2.931063,2.156999,0.17676,0.40357,0.18714
1700499203000000,-9.233738,-2.977063,2.149999,0.30676,0.37357,0.17114
1700499203007812,-9.228738,-3.8063,2.160999,0.25976,0.37357,0.21914
1700499203015625,-9.230738,-3.4063,2.165999,0.24176,0.41857,0.20314
1700499203023437,-9.235738,-2.972063,2.138999,0.32576,0.40657,0.21814
1700499203031250,-9.199738,-2.967063,2.136999,0.32276,0.40357,0.21914
1700499203039062,-9.175738,-2.936063,2.131999,0.22776,0.42057,0.25114
1700499203046875,-9.153738,-2.934063,2.129999,0.19376,0.41957,0.21914
1700499203054687,-9.163738,-2.936063,2.138999,0.21076,0.45357,0.12214
1700499203062500,-9.202738,-2.949063,2.154999,0.17676,0.49657,0.22014
1700499203070312,-9.201738,-2.952063,2.158999,0.13276,0.47057,0.18614
1700499203078125,-9.190738,-2.946063,2.183999,0.17976,0.45257,0.20314
1700499203085937,-9.190738,-2.935063,2.178999,0.17976,0.43657,0.21914
1700499203093750,-9.180738,-2.927063,2.176999,0.12876,0.45057,0.18714
1700499203101562,-9.148738,-2.918063,2.176999,0.13076,0.42057,0.20314
1700499203109375,-9.135738,-2.928063,2.151999,0.4676,0.41657,0.25214
1700499203117187,-9.135738,-2.939063,2.160999,0.6476,0.46657,0.20314
1700499203125000,-9.144738,-2.937063,2.158999,0.14476,0.40157,0.25214
1700499203132812,-9.188738,-2.936063,2.106999,0.4876,0.48157,0.26714
1700499203140625,-9.215738,-2.960063,2.81999,0.7876,0.46457,0.18814
1700499203148437,-9.241738,-2.988063,2.93999,0.14676,0.45257,0.15414
1700499203156250,-9.279738,-3.11063,2.104999,0.13176,0.48357,0.25114
1700499203164062,-9.292738,-3.4063,2.102999,0.10376,0.47157,0.26514
1700499203171875,-9.275738,-2.992063,2.111999,0.11176,0.46557,0.18714
1700499203179687,-9.251738,-2.993063,2.93999,0.14276,0.46357,0.20414
1700499203187500,-9.221738,-2.977063,2.108999,0.8076,0.49757,0.20314
1700499203195312,-9.198738,-2.977063,2.104999,0.376,0.46857,0.25014
1700499203203125,-9.192738,-2.984063,2.127999,0.8124,0.51257,0.18714
1700499203210937,-9.199738,-2.984063,2.129999,0.1824,0.57457,0.15614
1700499203218750,-9.186738,-2.994063,2.90999,0.10024,0.44757,0.17214
1700499203226562,-9.199738,-2.973063,2.75999,0.1576,0.41957,0.17114
1700499203234375,-9.231738,-2.957063,2.52999,0.8076,0.48157,0.21914
1700499203242187,-9.231738,-2.966063,2.59999,0.9724,0.48157,0.20314
1700499203250000,-9.217738,-2.972063,2.111999,0.4724,0.51457,0.18714
1700499203257812,-9.192738,-2.982063,2.120999,0.6324,0.54557,0.17114
1700499203265625,-9.161738,-2.980063,2.117999,0.16224,0.52857,0.15514
1700499203273437,-9.143738,-2.969063,2.120999,0.11324,0.46857,0.5814
1700499203281250,-9.147738,-2.944063,2.122999,0.10324,0.42957,0.10914
1700499203289062,-9.153738,-2.927063,2.117999,0.12924,0.48157,0.21914
1700499203296875,-9.171738,-2.907063,2.99999,0.6424,0.43657,0.12314
1700499203304687,-9.182738,-2.927063,2.88999,0.11524,0.48157,0.10714
1700499203312500,-9.185738,-2.934063,2.95999,0.524,0.57257,0.10814
1700499203320312,-9.184738,-2.954063,2.79999,0.1724,0.49657,0.22014
1700499203328125,-9.176738,-2.964063,2.59999,0.1976,0.59557,0.17014
1700499203335937,-9.179738,-2.978063,2.54999,0.0,0.46357,0.28414
1700499203343750,-9.188738,-2.993063,2.77999,0.6624,0.58957,0.20414
1700499203351562,-9.183738,-3.15063,2.66999,0.6424,0.52957,0.17114
1700499203359375,-9.196738,-3.4063,2.50999,0.9524,0.51457,0.20314
1700499203367187,-9.199738,-2.991063,2.79999,0.11224,0.43557,0.17114
1700499203375000,-9.202738,-2.971063,2.72999,0.8224,0.41857,0.12314
1700499203382812,-9.206738,-2.946063,2.86999,0.12824,0.43757,0.9014
1700499203390625,-9.190738,-2.931063,2.88999,0.11224,0.51657,0.4214
1700499203398437,-9.195738,-2.929063,2.79999,0.6824,0.59057,0.4314
1700499203406250,-9.191738,-2.933063,2.95999,0.9924,0.54457,0.4314
1700499203414062,-9.208738,-2.941063,2.84999,0.4924,0.48657,0.5386
1700499203421875,-9.196738,-2.957063,2.66999,0.8024,0.54757,0.2614
1700499203429687,-9.206738,-2.944063,2.61999,0.7976,0.46857,0.7514
1700499203437500,-9.220738,-2.937063,2.52999,0.6476,0.49857,0.13914
1700499203445312,-9.220738,-2.940063,2.72999,0.3324,0.52857,0.12314
1700499203453125,-9.244738,-2.939063,2.63999,0.12976,0.56157,0.15514
1700499203460937,-9.243738,-2.951063,2.52999,0.12576,0.52457,0.23714
1700499203468750,-9.255738,-2.950063,2.63999,0.11176,0.57557,0.20314
1700499203476562,-9.251738,-2.946063,2.54999,0.12576,0.58957,0.12414
1700499203484375,-9.246738,-2.941063,2.41999,0.1676,0.57757,0.17114
1700499203492187,-9.245738,-2.929063,2.63999,0.9376,0.60457,0.17214
1700499203500000,-9.238738,-2.912063,2.63999,0.3276,0.65457,0.17114
1700499203507812,-9.222738,-2.906063,2.59999,0.11476,0.67057,0.26714
1700499203515625,-9.234738,-2.902063,2.54999,0.12676,0.68357,0.20414
1700499203523437,-9.234738,-2.905063,2.97999,0.9276,0.71257,0.20414
1700499203531250,-9.222738,-2.918063,2.86999,0.10976,0.71457,0.17214
1700499203539062,-9.238738,-2.931063,2.104999,0.12476,0.71557,0.7614
1700499203546875,-9.238738,-2.948063,2.124999,0.10976,0.68357,0.17214
1700499203554687,-9.229738,-2.955063,2.133999,0.14176,0.66857,0.14014
1700499203562500,-9.231738,-2.953063,2.145999,0.12776,0.71557,0.22014
1700499203570312,-9.229738,-2.931063,2.133999,0.14176,0.71357,0.18814
1700499203578125,-9.208738,-2.933063,2.131999,0.12876,0.66957,0.20314
1700499203585937,-9.198738,-2.928063,2.127999,0.12376,0.68057,0.22114
1700499203593750,-9.187738,-2.923063,2.95999,0.14176,0.66657,0.20414
1700499203601562,-9.183738,-2.916063,2.102999,0.12476,0.68157,0.23614
1700499203609375,-9.193738,-2.911063,2.97999,0.14376,0.65357,0.17114
1700499203617187,-9.198738,-2.904063,2.127999,0.9576,0.67157,0.10714
1700499203625000,-9.209738,-2.905063,2.131999,0.9376,0.68357,0.15614
1700499203632812,-9.216738,-2.907063,2.145999,0.12576,0.66857,0.14014
1700499203640625,-9.218738,-2.925063,2.178999,0.9276,0.68257,0.14014
1700499203648437,-9.207738,-2.920063,2.190999,0.7676,0.73057,0.6014
1700499203656250,-9.201738,-2.910063,2.190999,0.9076,0.68257,0.2814
1700499203664062,-9.181738,-2.901063,2.185999,0.10676,0.68057,0.12514
1700499203671875,-9.165738,-2.908063,2.192999,0.12476,0.66757,0.14014
1700499203679687,-9.155738,-2.928063,2.190999,0.14276,0.68357,0.17214
1700499203687500,-9.155738,-2.932063,2.187999,0.11176,0.70057,0.15514
1700499203695312,-9.184738,-2.938063,2.176999,0.2976,0.76057,0.20414
1700499203703125,-9.199738,-2.948063,2.172999,0.11476,0.73357,0.28314
1700499203710937,-9.219738,-2.973063,2.176999,0.7876,0.69857,0.23614
1700499203718750,-9.226738,-2.968063,2.179999,0.6276,0.77757,0.22014
1700499203726562,-9.217738,-2.946063,2.174999,0.9476,0.69957,0.18714
1700499203734375,-9.175738,-2.934063,2.187999,0.7676,0.68257,0.14014
1700499203742187,-9.148738,-2.927063,2.192999,0.7776,0.67157,0.3686
1700499203750000,-9.146738,-2.939063,2.199999,0.1176,0.71657,0.5286
1700499203757812,-9.152738,-2.945063,2.212999,0.2876,0.71757,0.5286
1700499203765625,-9.141738,-2.961063,2.215999,0.2024,0.67057,0.3686
1700499203773437,-9.154738,-2.969063,2.215999,0.424,0.71757,0.5286
1700499203781250,-9.167738,-2.970063,2.221999,0.3976,0.68057,0.286
1700499203789062,-9.159738,-2.963063,2.215999,0.1276,0.66857,0.9214
1700499203796875,-9.151738,-2.934063,2.210999,0.7676,0.68257,0.12414
1700499203804687,-9.166738,-2.929063,2.192999,0.14276,0.66957,0.9114
1700499203812500,-9.153738,-2.923063,2.197999,0.2976,0.68357,0.15614
1700499203820312,-9.140738,-2.930063,2.201999,0.10976,0.66857,0.10814
1700499203828125,-9.151738,-2.934063,2.203999,0.3724,0.69857,0.6014
1700499203835937,-9.137738,-2.941063,2.219999,0.4476,0.70057,0.2714
1700499203843750,-9.143738,-2.947063,2.203999,0.1924,0.63957,0.2086
1700499203851562,-9.157738,-2.938063,2.219999,0.8524,0.65457,0.5286
1700499203859375,-9.173738,-2.941063,2.199999,0.4376,0.60757,0.5286
1700499203867187,-9.168738,-2.965063,2.199999,0.2876,0.62357,0.3686
1700499203875000,-9.165738,-2.978063,2.210999,0.2876,0.70257,0.2086
1700499203882812,-9.168738,-2.985063,2.208999,0.12576,0.65457,0.486
1700499203890625,-9.159738,-2.974063,2.217999,0.5524,0.71357,0.1214
1700499203898437,-9.182738,-2.972063,2.221999,0.1076,0.69857,0.2814
1700499203906250,-9.170738,-2.974063,2.212999,0.5224,0.73057,0.10814
1700499203914062,-9.161738,-2.965063,2.206999,0.2024,0.65257,0.4414
1700499203921875,-9.148738,-2.970063,2.201999,0.524,0.52557,0.12414
1700499203929687,-9.137738,-2.968063,2.206999,0.3424,0.54357,0.14014
1700499203937500,-9.114738,-2.966063,2.226999,0.7876,0.45057,0.13914
1700499203945312,-9.87738,-2.945063,2.219999,0.11576,0.56557,0.7414
1700499203953125,-9.126738,-2.937063,2.185999,0.4676,0.42057,0.4314
1700499203960937,-9.137738,-2.952063,2.181999,0.4376,0.52757,0.2814
1700499203968750,-9.139738,-2.970063,2.217999,0.1376,0.48157,0.5914
1700499203976562,-9.132738,-2.969063,2.230999,0.3224,0.59357,0.9114
1700499203984375,-9.143738,-2.963063,2.239999,0.6476,0.53057,0.12314
1700499203992187,-9.137738,-2.959063,2.246999,0.7876,0.56057,0.7514
1700499204000000,-9.135738,-2.960063,2.237999,0.4076,0.57157,0.2914
1700499204007812,-9.135738,-2.950063,2.260999,0.2776,0.52657,0.9214
1700499204015625,-9.122738,-2.962063,2.237999,0.5876,0.46357,0.7614
1700499204023437,-9.126738,-2.989063,2.226999,0.12076,0.49157,0.7714
1700499204031250,-9.147738,-3.28063,2.206999,0.7676,0.44857,0.7614
1700499204039062,-9.181738,-3.19063,2.233999,0.9176,0.43257,0.10814
1700499204046875,-9.190738,-3.9063,2.188999,0.9476,0.43657,0.1114
1700499204054687,-9.170738,-2.998063,2.199999,0.9376,0.52957,0.486
1700499204062500,-9.162738,-2.979063,2.226999,0.7576,0.47957,0.6014
1700499204070312,-9.174738,-2.980063,2.208999,0.17876,0.48357,0.18714
1700499204078125,-9.152738,-2.976063,2.217999,0.10976,0.45057,0.4314
1700499204085937,-9.141738,-2.975063,2.224999,0.7776,0.41657,0.20414
1700499204093750,-9.135738,-2.965063,2.226999,0.7976,0.48057,0.23614
1700499204101562,-9.132738,-2.965063,2.251999,0.6476,0.46657,0.20314
1700499204109375,-9.141738,-2.977063,2.242999,0.6176,0.43357,0.12414
1700499204117187,-9.141738,-2.983063,2.251999,0.11176,0.42057,0.10714
1700499204125000,-9.121738,-2.981063,2.269999,0.12676,0.43557,0.7514
1700499204132812,-9.113738,-2.973063,2.246999,0.5876,0.47757,0.15714
1700499204140625,-9.114738,-2.970063,2.230999,0.9476,0.43557,0.7514
1700499204148437,-9.130738,-2.968063,2.201999,0.11376,0.38857,0.18714
1700499204156250,-9.134738,-2.959063,2.208999,0.9576,0.38957,0.10714
1700499204164062,-9.143738,-2.963063,2.194999,0.11176,0.45157,0.10714
1700499204171875,-9.162738,-2.970063,2.201999,0.9276,0.41557,0.18814
1700499204179687,-9.143738,-2.969063,2.206999,0.9776,0.32757,0.13914
1700499204187500,-9.134738,-2.962063,2.217999,0.14876,0.43957,0.15414
1700499204195312,-9.123738,-2.949063,2.224999,0.13276,0.39257,0.12214
1700499204203125,-9.126738,-2.941063,2.210999,0.14576,0.42057,0.13914
1700499204210937,-9.131738,-2.946063,2.215999,0.14276,0.40157,0.20414
1700499204218750,-9.112738,-2.950063,2.206999,0.12876,0.42157,0.10714
1700499204226562,-9.101738,-2.951063,2.181999,0.17476,0.43457,0.9214
1700499204234375,-9.77738,-2.935063,2.165999,0.12676,0.37357,0.4314
1700499204242187,-9.79738,-2.924063,2.156999,0.7976,0.21857,0.5386
1700499204250000,-9.119738,-2.941063,2.136999,0.17576,0.24957,0.2086
1700499204257812,-9.161738,-2.988063,2.136999,0.12576,0.20057,0.486
1700499204265625,-9.199738,-3.9063,2.142999,0.14376,0.21757,0.2086
1700499204273437,-9.241738,-3.3063,2.133999,0.12876,0.20257,0.4314
1700499204281250,-9.253738,-2.975063,2.136999,0.12876,0.20157,0.7514
1700499204289062,-9.231738,-2.968063,2.147999,0.16176,0.23357,0.7514
1700499204296875,-9.231738,-2.960063,2.160999,0.19276,0.16957,0.13914
1700499204304687,-9.204738,-2.938063,2.165999,0.20976,0.21657,0.17114
1700499204312500,-9.195738,-2.933063,2.158999,0.14776,0.26457,0.20314
1700499204320312,-9.180738,-2.936063,2.149999,0.16076,0.24657,0.22014
1700499204328125,-9.150738,-2.934063,2.154999,0.17976,0.24957,0.20314
1700499204335937,-9.146738,-2.943063,2.138999,0.17876,0.23157,0.21914
1700499204343750,-9.137738,-2.944063,2.122999,0.14376,0.26157,0.20414
1700499204351562,-9.137738,-2.936063,2.115999,0.14876,0.31257,0.21814
1700499204359375,-9.150738,-2.933063,2.99999,0.13476,0.23657,0.20214
1700499204367187,-9.175738,-2.929063,2.106999,0.9676,0.29457,0.20314
1700499204375000,-9.173738,-2.920063,2.97999,0.14576,0.28057,0.10714
1700499204382812,-9.195738,-2.931063,2.113999,0.12876,0.23257,0.12314
1700499204390625,-9.214738,-2.920063,2.140999,0.19376,0.29457,0.18714
1700499204398437,-9.203738,-2.914063,2.122999,0.30476,0.27757,0.14014
1700499204406250,-9.220738,-2.935063,2.106999,0.29176,0.15557,0.12314
1700499204414062,-9.230738,-2.972063,2.95999,0.33976,0.28157,0.7414
1700499204421875,-9.237738,-2.993063,2.97999,0.30676,0.26357,0.15514
1700499204429687,-9.230738,-3.4063,2.81999,0.37176,0.32557,0.20314
1700499204437500,-9.235738,-3.2063,2.66999,0.27276,0.26057,0.25214
1700499204445312,-9.242738,-2.982063,2.61999,0.19376,0.35657,0.25114
1700499204453125,-9.260738,-2.973063,2.99999,0.28876,0.49557,0.23614
1700499204460937,-9.246738,-2.970063,2.102999,0.19276,0.46557,0.20314
1700499204468750,-9.237738,-2.984063,2.102999,0.15976,0.52757,0.17214
1700499204476562,-9.210738,-2.973063,2.122999,0.25676,0.51357,0.13914
1700499204484375,-9.202738,-2.958063,2.97999,0.19176,0.43357,0.18814
1700499204492187,-9.190738,-2.942063,2.70999,0.21076,0.48257,0.20314
1700499204500000,-9.190738,-2.953063,2.63999,0.20976,0.46657,0.21914
1700499204507812,-9.199738,-2.964063,2.59999,0.22576,0.52757,0.26814
1700499204515625,-9.211738,-2.967063,2.59999,0.14276,0.52657,0.22014
1700499204523437,-9.244738,-2.973063,2.61999,0.15976,0.58957,0.23614
1700499204531250,-9.250738,-2.997063,2.54999,0.22376,0.65257,0.18814
1700499204539062,-9.225738,-3.8063,2.52999,0.17676,0.59157,0.17114
1700499204546875,-9.224738,-2.995063,2.75999,0.14176,0.60457,0.15614
1700499204554687,-9.219738,-2.969063,2.63999,0.12676,0.62157,0.18814
1700499204562500,-9.222738,-2.962063,2.47999,0.22476,0.55857,0.20414
1700499204570312,-9.232738,-2.952063,2.18999,0.17176,0.61757,0.22114
1700499204578125,-9.260738,-2.966063,2.9999,0.20676,0.66857,0.15614
1700499204585937,-9.270738,-2.973063,2.16999,0.25076,0.72557,0.15714
1700499204593750,-9.244738,-2.997063,2.14999,0.22276,0.66557,0.25214
1700499204601562,-9.237738,-3.2063,2.9999,0.14276,0.68357,0.18814
1700499204609375,-9.204738,-2.994063,2.16999,0.12476,0.66557,0.18814
1700499204617187,-9.181738,-3.14063,2.43999,0.13976,0.66657,0.10814
1700499204625000,-9.187738,-3.33063,2.18999,0.10976,0.63557,0.17214
1700499204632812,-9.186738,-3.41063,2.23999,0.824,0.74257,0.10914
1700499204640625,-9.184738,-3.3063,2.47999,0.624,0.63457,0.10914
1700499204648437,-9.177738,-2.977063,2.41999,0.5424,0.60357,0.7614
1700499204656250,-9.166738,-2.963063,2.34999,0.2776,0.60257,0.18914
1700499204664062,-9.180738,-2.941063,2.20999,0.8876,0.63357,0.6114
1700499204671875,-9.180738,-2.919063,2.9999,0.9076,0.46357,0.4414
1700499204679687,-9.197738,-2.919063,1.984999,0.13776,0.50657,0.17314
1700499204687500,-9.231738,-2.926063,1.966999,0.10976,0.51357,0.2714
1700499204695312,-9.250738,-2.963063,1.971999,0.7276,0.53757,0.14114
1700499204703125,-9.252738,-2.976063,2.9999,0.13676,0.52157,0.14214
1700499204710937,-9.234738,-2.994063,2.20999,0.9076,0.49057,0.23814
1700499204718750,-9.204738,-3.3063,2.20999,0.13876,0.47657,0.17314
1700499204726562,-9.179738,-2.982063,2.11999,0.9676,0.43457,0.22014
1700499204734375,-9.172738,-2.992063,1.998999,0.9276,0.55757,0.17214
1700499204742187,-9.166738,-3.10063,1.986999,0.2124,0.50957,0.15614
1700499204750000,-9.201738,-2.996063,2.9999,0.5324,0.51057,0.10814
1700499204757812,-9.231738,-2.954063,1.982999,0.6824,0.44657,0.17214
1700499204765625,-9.252738,-2.926063,1.977999,0.6924,0.55757,0.12414
1700499204773437,-9.245738,-2.904063,1.989999,0.11724,0.55857,0.6014
1700499204781250,-9.242738,-2.910063,1.996999,0.4324,0.56657,0.11014
1700499204789062,-9.236738,-2.923063,2.9999,0.12376,0.55657,0.14014
1700499204796875,-9.230738,-2.923063,1.982999,0.8976,0.47657,0.10914
1700499204804687,-9.227738,-2.956063,1.987999,0.13776,0.46057,0.17314
1700499204812500,-9.208738,-2.982063,2.9999,0.12676,0.46357,0.23614
1700499204820312,-9.224738,-3.14063,1.998999,0.13976,0.47657,0.23714
1700499204828125,-9.224738,-3.3063,2.23999,0.12476,0.55457,0.25314
1700499204835937,-9.210738,-3.24063,2.66999,0.12776,0.51157,0.23614
1700499204843750,-9.210738,-3.31063,2.72999,0.14376,0.57257,0.26814
1700499204851562,-9.195738,-3.16063,2.79999,0.12376,0.58657,0.22114
1700499204859375,-9.179738,-3.8063,2.61999,0.13976,0.58657,0.18914
1700499204867187,-9.155738,-3.6063,2.66999,0.10876,0.52457,0.18914
1700499204875000,-9.128738,-3.1063,2.52999,0.12676,0.50957,0.25214
1700499204882812,-9.125738,-2.977063,2.29999,0.9576,0.46357,0.31614
1700499204890625,-9.121738,-2.968063,2.29999,0.3076,0.44857,0.20414
1700499204898437,-9.141738,-2.977063,2.25999,0.224,0.44757,0.22014
1700499204906250,-9.157738,-2.983063,2.7999,0.2876,0.43157,0.17214
1700499204914062,-9.159738,-2.975063,2.9999,0.4476,0.41557,0.18814
1700499204921875,-9.193738,-2.994063,2.11999,0.4576,0.43257,0.17214
1700499204929687,-9.215738,-3.5063,2.23999,0.1076,0.46157,0.14114
1700499204937500,-9.235738,-3.4063,2.41999,0.3176,0.44957,0.22014
1700499204945312,-9.241738,-3.10063,2.63999,0.9576,0.55857,0.22014
1700499204953125,-9.241738,-3.14063,2.52999,0.11376,0.56057,0.23514
1700499204960937,-9.218738,-3.12063,2.59999,0.14076,0.55357,0.33314
1700499204968750,-9.199738,-3.18063,2.68999,0.14576,0.57357,0.36414
1700499204976562,-9.208738,-3.5063,2.63999,0.10976,0.55557,0.26914
1700499204984375,-9.202738,-3.3063,2.59999,0.7676,0.50957,0.22114
1700499204992187,-9.196738,-3.13063,2.52999,0.8076,0.62157,0.26814
1700499205000000,-9.196738,-3.31063,2.66999,0.6376,0.68457,0.21914
1700499205007812,-9.201738,-3.20063,2.63999,0.12576,0.61857,0.25214
1700499205015625,-9.208738,-3.13063,2.36999,0.6076,0.68157,0.23614
1700499205023437,-9.208738,-3.14063,2.25999,0.7576,0.68057,0.25314
1700499205031250,-9.192738,-3.9063,2.52999,0.11076,0.72857,0.30014
1700499205039062,-9.188738,-3.63,2.43999,0.12676,0.61957,0.23614
1700499205046875,-9.195738,-2.987063,2.25999,0.10876,0.68157,0.22014
1700499205054687,-9.212738,-2.986063,2.52999,0.14376,0.69857,0.26814
1700499205062500,-9.210738,-3.4063,2.66999,0.9476,0.66757,0.23614
1700499205070312,-9.206738,-3.7063,2.54999,0.12476,0.64957,0.22114
1700499205078125,-9.208738,-3.63,2.45999,0.14176,0.61957,0.20414
1700499205085937,-9.192738,-3.5063,2.57999,0.14176,0.60357,0.22014
1700499205093750,-9.183738,-2.986063,2.81999,0.12976,0.57657,0.20314
1700499205101562,-9.173738,-2.986063,2.120999,0.5876,0.63257,0.23714
1700499205109375,-9.173738,-2.978063,2.147999,0.12676,0.63557,0.22014
1700499205117187,-9.186738,-2.976063,2.142999,0.9576,0.57557,0.20314
1700499205125000,-9.195738,-2.976063,2.129999,0.1924,0.58757,0.22014
1700499205132812,-9.210738,-2.982063,2.106999,0.3224,0.58957,0.28414
1700499205140625,-9.206738,-2.993063,2.104999,0.3076,0.62057,0.25214
1700499205148437,-9.195738,-3.63,2.95999,0.10976,0.63557,0.20414
1700499205156250,-9.177738,-2.979063,2.106999,0.4376,0.67957,0.25314
1700499205164062,-9.135738,-2.968063,2.120999,0.2776,0.66457,0.28514
1700499205171875,-9.158738,-2.966063,2.149999,0.4276,0.67757,0.33414
1700499205179687,-9.160738,-2.941063,2.156999,0.6076,0.58657,0.31714
1700499205187500,-9.194738,-2.933063,2.129999,0.4076,0.63057,0.23814
1700499205195312,-9.207738,-2.949063,2.108999,0.11524,0.60257,0.30114
1700499205203125,-9.220738,-2.956063,2.118999,0.2024,0.69457,0.34914
1700499205210937,-9.207738,-2.943063,2.131999,0.8824,0.74057,0.25414
1700499205218750,-9.203738,-2.921063,2.140999,0.1176,0.71257,0.23714
1700499205226562,-9.180738,-2.912063,2.129999,0.9276,0.69657,0.26914
1700499205234375,-9.170738,-2.901063,2.117999,0.2776,0.66457,0.22114
1700499205242187,-9.187738,-2.916063,2.124999,0.3624,0.68257,0.18814
1700499205250000,-9.194738,-2.934063,2.102999,0.624,0.66357,0.18914
1700499205257812,-9.218738,-2.956063,2.108999,0.7776,0.68157,0.25214
1700499205265625,-9.222738,-2.954063,2.118999,0.2876,0.66557,0.23614
1700499205273437,-9.216738,-2.933063,2.122999,0.3076,0.71357,0.26814
1700499205281250,-9.210738,-2.918063,2.136999,0.7776,0.71057,0.38114
1700499205289062,-9.232738,-2.906063,2.138999,0.9476,0.71457,0.22014
1700499205296875,-9.221738,-2.905063,2.140999,0.7676,0.71257,0.23714
1700499205304687,-9.207738,-2.907063,2.151999,0.13976,0.82157,0.20514
1700499205312500,-9.202738,-2.918063,2.154999,0.12676,0.77657,0.22014
1700499205320312,-9.180738,-2.919063,2.163999,0.14076,0.72757,0.22114
1700499205328125,-9.173738,-2.911063,2.138999,0.14476,0.71557,0.25114
1700499205335937,-9.167738,-2.899063,2.113999,0.12576,0.71357,0.23614
1700499205343750,-9.161738,-2.888063,2.124999,0.6176,0.69657,0.31714
1700499205351562,-9.188738,-2.904063,2.138999,0.10776,0.69457,0.31714
1700499205359375,-9.180738,-2.912063,2.154999,0.9576,0.69857,0.30014
1700499205367187,-9.169738,-2.901063,2.163999,0.14476,0.68257,0.33214
1700499205375000,-9.172738,-2.868063,2.160999,0.15676,0.72657,0.31714
1700499205382812,-9.197738,-2.861063,2.154999,0.12776,0.74457,0.30014
1700499205390625,-9.199738,-2.854063,2.138999,0.14276,0.69757,0.31614
1700499205398437,-9.203738,-2.869063,2.131999,0.16076,0.74557,0.31614
1700499205406250,-9.225738,-2.895063,2.127999,0.20976,0.68357,0.34814
1700499205414062,-9.211738,-2.916063,2.122999,0.19276,0.72957,0.31614
1700499205421875,-9.198738,-2.930063,2.142999,0.17276,0.71057,0.30114
1700499205429687,-9.194738,-2.921063,2.163999,0.27276,0.69657,0.38014
1700499205437500,-9.187738,-2.905063,2.167999,0.14276,0.66457,0.34914
1700499205445312,-9.169738,-2.903063,2.169999,0.12576,0.74357,0.28514
1700499205453125,-9.194738,-2.919063,2.163999,0.14176,0.71157,0.30114
1700499205460937,-9.218738,-2.929063,2.154999,0.18976,0.72757,0.26914
1700499205468750,-9.198738,-2.934063,2.149999,0.25576,0.73057,0.22014
1700499205476562,-9.187738,-2.941063,2.122999,0.15876,0.68257,0.23614
1700499205484375,-9.184738,-2.932063,2.95999,0.12676,0.66657,0.25214
1700499205492187,-9.190738,-2.937063,2.90999,0.13876,0.67857,0.23714
1700499205500000,-9.207738,-2.934063,2.118999,0.12476,0.71257,0.25314
1700499205507812,-9.223738,-2.925063,2.140999,0.12676,0.65057,0.25214
1700499205515625,-9.214738,-2.908063,2.138999,0.13976,0.58657,0.20514
1700499205523437,-9.194738,-2.892063,2.149999,0.12476,0.61857,0.22114
1700499205531250,-9.190738,-2.886063,2.154999,0.13976,0.66457,0.20514
1700499205539062,-9.181738,-2.877063,2.172999,0.12376,0.64957,0.20514
1700499205546875,-9.171738,-2.872063,2.169999,0.11276,0.68457,0.21914
1700499205554687,-9.185738,-2.878063,2.154999,0.14276,0.65257,0.20414
1700499205562500,-9.185738,-2.891063,2.133999,0.14476,0.65257,0.30014
1700499205570312,-9.183738,-2.899063,2.117999,0.12476,0.64857,0.28514
1700499205578125,-9.189738,-2.918063,2.117999,0.11376,0.62257,0.28314
1700499205585937,-9.192738,-2.928063,2.104999,0.14076,0.71157,0.28514
1700499205593750,-9.189738,-2.918063,2.104999,0.12876,0.65357,0.23514
1700499205601562,-9.193738,-2.918063,2.99999,0.11376,0.59157,0.25114
1700499205609375,-9.196738,-2.921063,2.84999,0.15676,0.61957,0.17214
1700499205617187,-9.184738,-2.918063,2.111999,0.11076,0.62157,0.15614
1700499205625000,-9.196738,-2.921063,2.117999,0.524,0.63357,0.17314
1700499205632812,-9.209738,-2.909063,2.124999,0.4576,0.63557,0.20414
1700499205640625,-9.207738,-2.898063,2.138999,0.1276,0.58857,0.18814
1700499205648437,-9.221738,-2.891063,2.138999,0.12676,0.62057,0.20414
1700499205656250,-9.208738,-2.881063,2.149999,0.5976,0.61757,0.22114
1700499205664062,-9.192738,-2.887063,2.140999,0.8324,0.57357,0.18814
1700499205671875,-9.176738,-2.892063,2.156999,0.6824,0.63457,0.20414
1700499205679687,-9.158738,-2.876063,2.140999,0.5124,0.63757,0.9114
