time,Acceleration X (m/s^2),Acceleration Y (m/s^2),Acceleration Z (m/s^2),Angular Velocity X (rad/s),Angular Velocity Y (rad/s),Angular Velocity Z (rad/s)
1700499444960937,-10.066192,-1.263393,1.152016,-0.352126,,
1700499444968750,-10.64192,-1.225393,1.181016,-1.853529,0.368326,0.334779
1700499444976562,-10.34192,-1.245393,1.234016,-1.867329,0.374626,0.338079
1700499444984375,-9.986192,-1.290393,1.268016,-1.890429,0.376426,0.322579
1700499444992187,-9.995192,-1.327393,1.277016,-1.887529,0.375726,0.305479
1700499445000000,-9.988192,-1.329393,1.341016,-1.887829,0.372526,0.295779
1700499445015625,-10.27192,-1.480393,1.360016,-1.898929,0.350126,0.259179
1700499445023437,-10.42192,-1.548393,1.362016,-1.885529,0.347726,0.241679
1700499445031250,-10.61192,-1.606393,1.394016,-1.866229,0.339226,0.206679
1700499445039062,-10.138192,-1.616393,1.385016,-1.845229,0.335126,0.190479
1700499445062500,-10.270192,-1.615393,1.455016,-1.809329,0.351126,0.151479
1700499445070312,-10.285192,-1.617393,1.421016,-1.797229,0.359926,0.146879
1700499445078125,-10.306192,-1.567393,1.428016,-1.795729,0.353226,0.145079
1700499445085937,-10.284192,-1.554393,1.469016,-1.786529,0.366326,0.156179
1700499445093750,-10.202192,-1.598393,1.458016,-1.794029,0.379726,0.159979
1700499445101562,-10.70192,-1.629393,1.439016,-1.775729,0.389926,0.167879
1700499445109375,-9.980192,-1.641393,1.414016,-1.760329,0.385226,0.170979
1700499445117187,-9.927192,-1.650393,1.428016,-1.744929,0.379726,0.184779
1700499445125000,-9.810192,-1.630393,1.481016,-1.731029,0.386526,0.192679
1700499445132812,-9.677192,-1.583393,1.478016,-1.720329,0.386626,0.195779
1700499445140625,-9.609192,-1.583393,1.433016,-1.722029,0.383326,0.189279
1700499445148437,-9.563192,-1.617393,1.394016,-1.721929,0.376526,0.190679
1700499445156250,-9.704192,-1.560393,1.405016,-1.715929,0.353826,0.176079
1700499445164062,-9.774192,-1.360393,1.524016,-1.694729,0.349326,0.167879
1700499445171875,-9.673192,-1.344393,1.523016,-1.722229,0.367526,0.167079
1700499445179687,-9.635192,-1.451393,1.353016,-1.748529,0.370726,0.152879
1700499445187500,-9.769192,-1.425393,1.289016,-1.743829,0.352826,0.144879
1700499445195312,-10.117192,-1.298393,1.343016,-1.757829,0.337826,0.128779
1700499445203125,-10.579192,-1.196393,1.377016,-1.780729,0.329226,0.122479
1700499445210937,-10.649192,-1.211393,1.438016,-1.804029,0.358326,0.101379
1700499445218750,-10.445192,-1.389393,1.352016,-1.831929,0.411426,0.99279
1700499445226562,-10.296192,-1.523393,1.180016,-1.838129,0.426926,0.91979
1700499445234375,-10.145192,-1.620393,1.127016,-1.839629,0.411726,0.91679
1700499445242187,-10.266192,-1.735393,1.36016,-1.854729,0.388126,0.88279
1700499445250000,-10.448192,-1.693393,1.36016,-1.844029,0.377126,0.78579
1700499445257812,-10.465192,-1.607393,1.61016,-1.838329,0.397326,0.72479
1700499445265625,-10.403192,-1.644393,0.954016,-1.856629,0.415426,0.74579
1700499445273437,-10.323192,-1.727393,0.838016,-1.862829,0.407026,0.69679
1700499445281250,-10.104192,-1.834393,0.811016,-1.862729,0.395126,0.70879
1700499445289062,-9.737192,-1.970393,0.778016,-1.862829,0.396826,0.70979
1700499445296875,-9.344192,-2.131393,0.667016,-1.847429,0.393626,0.75479
1700499445304687,-9.80192,-2.226393,0.523016,-1.824029,0.365026,0.92179
1700499445312500,-8.971192,-2.227393,0.448016,-1.806629,0.322126,0.119379
1700499445320312,-8.963192,-2.191393,0.403016,-1.766229,0.273326,0.141779
1700499445328125,-8.910192,-2.187393,0.339016,-1.732529,0.241726,0.148579
1700499445335937,-8.844192,-2.194393,0.221016,-1.701629,0.234626,0.173279
1700499445343750,-8.899192,-2.181393,0.47016,-1.655229,0.221526,0.196679
1700499445351562,-9.79192,-2.142393,0.40984,-1.616829,0.179726,0.203179
1700499445359375,-9.200192,-2.58393,0.52984,-1.567729,0.143526,0.209879
1700499445367187,-9.234192,-2.19393,0.91984,-1.532629,0.144126,0.214479
1700499445375000,-9.300192,-2.24393,0.232984,-1.490029,0.145026,0.210979
1700499445382812,-9.493192,-1.955393,0.332984,-1.442529,0.125626,0.216479
1700499445390625,-9.751192,-1.823393,0.315984,-1.404329,0.111426,0.216079
1700499445398437,-9.968192,-1.668393,0.279984,-1.376929,0.118726,0.214379
1700499445406250,-10.139192,-1.563393,0.274984,-1.354229,0.132926,0.209879
1700499445414062,-10.311192,-1.434393,0.288984,-1.330229,0.144126,0.194179
1700499445421875,-10.491192,-1.320393,0.245984,-1.329029,0.158326,0.175579
1700499445429687,-10.619192,-1.249393,0.175984,-1.335729,0.174026,0.153779
1700499445437500,-10.667192,-1.261393,0.109984,-1.352529,0.189726,0.140479
1700499445445312,-10.667192,-1.284393,0.39984,-1.363629,0.195226,0.121679
1700499445453125,-10.766192,-1.305393,0.6016,-1.374929,0.196126,0.88679
1700499445460937,-10.884192,-1.285393,0.74016,-1.398229,0.199626,0.69879
1700499445468750,-10.872192,-1.330393,0.159016,-1.419529,0.204726,0.62479
1700499445476562,-10.831192,-1.468393,0.144016,-1.441129,0.212026,0.68579
1700499445484375,-10.785192,-1.518393,0.121016,-1.453129,0.204826,0.74879
1700499445492187,-10.726192,-1.532393,0.159016,-1.458929,0.206126,0.86179
1700499445500000,-10.626192,-1.598393,0.139016,-1.479829,0.197826,0.112779
1700499445507812,-10.504192,-1.580393,0.128016,-1.479329,0.197126,0.136579
1700499445515625,-10.431192,-1.476393,0.139016,-1.486229,0.207226,0.177779
1700499445523437,-10.399192,-1.334393,0.172016,-1.499229,0.197126,0.215579
1700499445531250,-10.330192,-1.226393,0.211016,-1.516929,0.200326,0.255079
1700499445539062,-10.292192,-1.161393,0.225016,-1.542429,0.209726,0.292979
1700499445546875,-10.170192,-1.96393,0.238016,-1.552729,0.210226,0.316579
1700499445554687,-10.6192,-1.42393,0.259016,-1.562829,0.210726,0.345079
1700499445562500,-9.896192,0.935393,0.243016,-1.568729,0.206926,0.354579
1700499445570312,-9.891192,0.833393,0.258016,-1.568429,0.193226,0.365479
1700499445578125,-9.936192,0.699393,0.283016,-1.571129,0.185926,0.377879
1700499445585937,-9.906192,0.529393,0.342016,-1.575629,0.181726,0.390179
1700499445593750,-9.792192,0.383393,0.363016,-1.587929,0.192726,0.398179
1700499445601562,-9.757192,0.346393,0.300016,-1.613529,0.192426,0.401879
1700499445609375,-9.757192,0.335393,0.273016,-1.620929,0.161926,0.402879
1700499445617187,-9.650192,0.359393,0.316016,-1.633029,0.136726,0.399279
1700499445625000,-9.582192,0.407393,0.248016,-1.645229,0.128226,0.394579
1700499445632812,-9.699192,0.405393,0.148016,-1.633229,0.102226,0.374879
1700499445640625,-9.870192,0.332393,0.123016,-1.620929,0.76026,0.366579
1700499445648437,-9.976192,0.365393,0.96016,-1.618229,0.62826,0.351779
1700499445656250,-10.25192,0.478393,0.26984,-1.618429,0.46926,0.332679
1700499445664062,-10.18192,0.587393,0.158984,-1.598829,0.45826,0.324479
1700499445671875,-10.89192,0.622393,0.281984,-1.568529,0.32826,0.296079
1700499445679687,-10.206192,0.600393,0.324984,-1.545929,0.21526,0.285879
1700499445687500,-10.270192,0.649393,0.363984,-1.524629,0.24326,0.274979
1700499445695312,-10.280192,0.689393,0.438984,-1.508029,0.25226,0.262379
1700499445703125,-10.219192,0.704393,0.493984,-1.474929,0.49626,0.253079
1700499445710937,-10.119192,0.736393,0.547984,-1.452329,0.55426,0.243479
1700499445718750,-10.52192,0.788393,0.613984,-1.443129,0.44126,0.238479
1700499445726562,-10.89192,0.824393,0.629984,-1.421629,0.38126,0.236879
1700499445734375,-10.101192,0.861393,0.606984,-1.400629,0.38326,0.233279
1700499445742187,-10.24192,0.898393,0.604984,-1.377629,0.39126,0.233379
1700499445750000,-9.980192,0.919393,0.631984,-1.348929,0.55126,0.223979
1700499445757812,-9.969192,0.941393,0.672984,-1.332129,0.50526,0.223879
1700499445765625,-10.59192,0.971393,0.654984,-1.326229,0.39226,0.210879
1700499445773437,-10.248192,0.943393,0.625984,-1.298529,0.19926,0.208979
1700499445781250,-10.301192,0.819393,0.538984,-1.263529,0.29026,0.210379
1700499445789062,-10.206192,0.827393,0.558984,-1.268229,0.35526,0.208879
1700499445796875,-10.178192,0.909393,0.684984,-1.254429,0.38726,0.219879
1700499445804687,-10.292192,0.835393,0.686984,-1.232529,0.10426,0.230379
1700499445812500,-10.391192,0.702393,0.605984,-1.214229,0.3826,0.234779
1700499445820312,-10.421192,0.653393,0.612984,-1.215729,0.10526,0.236479
1700499445828125,-10.417192,0.680393,0.696984,-1.211129,0.20926,0.238479
1700499445835937,-10.437192,0.679393,0.705984,-1.200329,0.14026,0.242779
1700499445843750,-10.528192,0.643393,0.678984,-1.186829,0.12926,0.233279
1700499445851562,-10.548192,0.619393,0.645984,-1.181029,0.21426,0.228379
1700499445859375,-10.442192,0.630393,0.652984,-1.182729,0.45226,0.221079
1700499445867187,-10.383192,0.666393,0.689984,-1.164629,0.49626,0.210179
1700499445875000,-10.364192,0.680393,0.680984,-1.157129,0.51726,0.200679
1700499445882812,-10.339192,0.687393,0.620984,-1.152829,0.65726,0.189879
1700499445890625,-10.342192,0.653393,0.561984,-1.128629,0.76326,0.188279
1700499445898437,-10.401192,0.606393,0.513984,-1.128629,0.86226,0.193279
1700499445906250,-10.458192,0.600393,0.449984,-1.130229,0.95926,0.194879
1700499445914062,-10.472192,0.568393,0.393984,-1.110429,0.111826,0.193779
1700499445921875,-10.453192,0.467393,0.336984,-1.93629,0.126926,0.203379
1700499445929687,-10.370192,0.388393,0.268984,-1.102729,0.144826,0.211579
1700499445937500,-10.305192,0.360393,0.243984,-1.107229,0.156426,0.216679
1700499445945312,-10.220192,0.268393,0.166984,-1.96529,0.168226,0.224779
1700499445953125,-10.10192,0.230393,0.73984,-1.105429,0.186426,0.236579
1700499445960937,-9.747192,0.250393,0.63984,-1.119329,0.202326,0.241379
1700499445968750,-9.541192,0.236393,0.45984,-1.135829,0.205226,0.249579
1700499445976562,-9.549192,0.132393,0.31016,-1.131329,0.193326,0.250679
1700499445984375,-9.682192,0.33393,0.165016,-1.147829,0.176126,0.253679
1700499445992187,-9.861192,0.19607,0.281016,-1.164729,0.172526,0.247279
1700499446000000,-10.188192,0.135607,0.356016,-1.175829,0.179526,0.230079
1700499446007812,-10.518192,0.328607,0.481016,-1.180429,0.178526,0.219379
1700499446015625,-10.720192,0.404607,0.633016,-1.210029,0.187126,0.192779
1700499446023437,-10.776192,0.340607,0.754016,-1.234929,0.217926,0.168479
1700499446031250,-10.667192,0.161607,0.796016,-1.257129,0.243826,0.134379
1700499446039062,-10.474192,0.11393,0.814016,-1.259429,0.265526,0.95579
1700499446046875,-10.389192,0.144393,0.846016,-1.259429,0.239526,0.76279
1700499446054687,-10.472192,0.224393,0.908016,-1.255129,0.217226,0.50779
1700499446062500,-10.627192,0.270393,1.20016,-1.255629,0.202626,0.26479
1700499446070312,-10.699192,0.332393,1.115016,-1.262229,0.205426,0.3221
1700499446078125,-10.745192,0.431393,1.170016,-1.258229,0.216326,0.26821
1700499446085937,-10.744192,0.485393,1.177016,-1.255229,0.208626,0.39521
1700499446093750,-10.774192,0.491393,1.216016,-1.246229,0.206026,0.53721
1700499446101562,-10.825192,0.513393,1.243016,-1.240329,0.191226,0.62021
1700499446109375,-10.818192,0.578393,1.268016,-1.260229,0.202826,0.66321
1700499446117187,-10.799192,0.634393,1.252016,-1.257229,0.205126,0.75521
1700499446125000,-10.744192,0.668393,1.198016,-1.239029,0.188626,0.79321
1700499446132812,-10.708192,0.695393,1.162016,-1.235929,0.182126,0.82621
1700499446140625,-10.682192,0.726393,1.125016,-1.235829,0.163526,0.81521
1700499446148437,-10.539192,0.791393,1.68016,-1.237129,0.165126,0.74921
1700499446156250,-10.341192,0.873393,0.984016,-1.227929,0.174926,0.63821
1700499446164062,-10.191192,0.915393,0.887016,-1.206529,0.178526,0.59221
1700499446171875,-10.166192,0.882393,0.827016,-1.190929,0.179826,0.40421
1700499446179687,-10.210192,0.801393,0.846016,-1.188029,0.179726,0.40521
1700499446187500,-10.172192,0.755393,0.900016,-1.186529,0.194926,0.38621
1700499446195312,-10.152192,0.762393,0.843016,-1.188129,0.218326,0.34921
1700499446203125,-10.123192,0.681393,0.861016,-1.186829,0.243426,0.36121
1700499446210937,-10.18192,0.593393,0.961016,-1.195929,0.257126,0.38621
1700499446218750,-9.949192,0.554393,0.984016,-1.217229,0.281726,0.31621
1700499446226562,-9.842192,0.514393,1.23016,-1.235929,0.303026,0.36121
1700499446234375,-9.757192,0.472393,1.32016,-1.255929,0.314326,0.37321
1700499446242187,-9.760192,0.411393,1.77016,-1.287829,0.324026,0.35121
1700499446250000,-9.790192,0.355393,1.152016,-1.321329,0.322926,0.30321
1700499446257812,-9.720192,0.329393,1.234016,-1.365429,0.332026,0.24921
1700499446265625,-9.721192,0.277393,1.271016,-1.398929,0.334126,0.15421
1700499446273437,-9.896192,0.204393,1.284016,-1.435329,0.329926,0.8821
1700499446281250,-10.33192,0.165393,1.363016,-1.480929,0.315526,0.7221
1700499446289062,-10.14192,0.230393,1.432016,-1.525229,0.316226,0.10221
1700499446296875,-10.8192,0.292393,1.382016,-1.565029,0.333926,0.12721
1700499446304687,-10.40192,0.296393,1.359016,-1.583529,0.328826,0.23821
1700499446312500,-10.55192,0.349393,1.375016,-1.612529,0.306726,0.33521
1700499446320312,-10.55192,0.485393,1.383016,-1.649129,0.301026,0.36621
1700499446328125,-10.96192,0.588393,1.369016,-1.655229,0.300226,0.51921
1700499446335937,-10.83192,0.666393,1.364016,-1.667929,0.297326,0.74021
1700499446343750,-10.101192,0.807393,1.358016,-1.677329,0.295426,0.83721
1700499446351562,-10.165192,0.927393,1.354016,-1.683629,0.284426,0.101121
1700499446359375,-10.84192,-1.35393,1.409016,-1.693029,0.284526,0.113821
1700499446367187,-9.964192,-1.270393,1.388016,-1.696029,0.298726,0.120921
1700499446375000,-9.865192,-1.440393,1.329016,-1.673329,0.304426,0.127321
1700499446382812,-10.14192,-1.470393,1.336016,-1.656429,0.286326,0.126121
1700499446390625,-10.325192,-1.375393,1.384016,-1.630429,0.252726,0.124221
1700499446398437,-10.281192,-1.417393,1.530016,-1.639529,0.265926,0.119121
1700499446406250,-10.84192,-1.625393,1.476016,-1.653229,0.307426,0.106921
1700499446414062,-9.935192,-1.744393,1.342016,-1.630229,0.303926,0.97821
1700499446421875,-9.874192,-1.693393,1.319016,-1.599429,0.275226,0.81521
1700499446429687,-9.864192,-1.665393,1.360016,-1.580529,0.264926,0.59621
1700499446437500,-9.882192,-1.653393,1.358016,-1.574129,0.265726,0.37721
1700499446445312,-9.916192,-1.629393,1.312016,-1.555929,0.263926,0.31821
1700499446453125,-9.962192,-1.569393,1.282016,-1.546329,0.260326,0.14421
1700499446460937,-9.962192,-1.540393,1.291016,-1.526129,0.259926,0.5879
1700499446468750,-10.65192,-1.486393,1.261016,-1.501529,0.256926,0.15279
1700499446476562,-10.146192,-1.361393,1.280016,-1.473829,0.257826,0.41579
1700499446484375,-10.202192,-1.243393,1.288016,-1.455229,0.261526,0.51279
1700499446492187,-10.284192,-1.83393,1.290016,-1.424429,0.268826,0.62479
1700499446500000,-10.386192,0.878393,1.317016,-1.403229,0.283726,0.68579
1700499446507812,-10.521192,0.755393,1.310016,-1.407729,0.288426,0.75079
1700499446515625,-10.611192,0.621393,1.323016,-1.393929,0.295226,0.81379
1700499446523437,-10.536192,0.524393,1.380016,-1.386329,0.312326,0.83479
1700499446531250,-10.347192,0.524393,1.357016,-1.389629,0.335826,0.80779
1700499446539062,-10.179192,0.539393,1.282016,-1.382229,0.347626,0.77579
1700499446546875,-10.23192,0.547393,1.228016,-1.379029,0.339026,0.83579
1700499446554687,-9.828192,0.611393,1.177016,-1.365129,0.341426,0.83979
1700499446562500,-9.643192,0.684393,1.94016,-1.356029,0.337826,0.86679
1700499446570312,-9.580192,0.687393,0.961016,-1.333029,0.320326,0.81779
1700499446578125,-9.576192,0.642393,0.900016,-1.316429,0.310826,0.70279
1700499446585937,-9.708192,0.569393,0.836016,-1.299729,0.291226,0.63379
1700499446593750,-9.820192,0.530393,0.811016,-1.284429,0.283526,0.56979
1700499446601562,-9.828192,0.594393,0.793016,-1.283529,0.296426,0.28879
1700499446609375,-9.852192,0.693393,0.711016,-1.268329,0.290626,0.14579
1700499446617187,-9.959192,0.702393,0.676016,-1.247329,0.286826,0.2921
1700499446625000,-10.146192,0.667393,0.691016,-1.232429,0.271826,0.13221
1700499446632812,-10.265192,0.656393,0.706016,-1.215529,0.261126,0.21121
1700499446640625,-10.243192,0.737393,0.716016,-1.205229,0.291526,0.25521
1700499446648437,-10.186192,0.804393,0.690016,-1.186629,0.300326,0.15621
1700499446656250,-10.168192,0.768393,0.711016,-1.159129,0.288426,0.6921
1700499446664062,-10.168192,0.727393,0.782016,-1.156129,0.293426,0.5321
1700499446671875,-10.179192,0.773393,0.791016,-1.155929,0.293626,0.3521
1700499446679687,-10.171192,0.875393,0.791016,-1.136229,0.287126,0.5621
1700499446687500,-10.211192,0.935393,0.789016,-1.125829,0.290126,0.25821
1700499446695312,-10.331192,0.965393,0.802016,-1.104329,0.250526,0.34621
1700499446703125,-10.380192,-1.19393,0.835016,-1.90929,0.236026,0.51021
1700499446710937,-10.372192,-1.111393,0.821016,-1.78929,0.230526,0.69921
1700499446718750,-10.244192,-1.195393,0.794016,-1.63929,0.219526,0.84521
1700499446726562,-10.58192,-1.249393,0.762016,-1.42529,0.215226,0.87721
1700499446734375,-10.192,-1.285393,0.724016,-1.33229,0.189526,0.79121
1700499446742187,-10.55192,-1.256393,0.732016,-1.14229,0.156026,0.62321
1700499446750000,-10.66192,-1.244393,0.769016,0.992729,0.137126,0.47421
1700499446757812,-10.83192,-1.211393,0.755016,0.987729,0.135226,0.31521
1700499446765625,-10.73192,-1.144393,0.728016,0.985729,0.132426,0.4821
1700499446773437,-10.20192,-1.164393,0.680016,0.982229,0.124626,0.21579
1700499446781250,-9.931192,-1.209393,0.617016,0.969629,0.115126,0.51079
1700499446789062,-9.838192,-1.193393,0.564016,0.956829,0.99526,0.74379
1700499446796875,-9.856192,-1.68393,0.495016,0.938029,0.95526,0.102579
1700499446804687,-10.33192,0.840393,0.486016,0.934629,0.92826,0.125879
1700499446812500,-10.256192,0.605393,0.513016,0.949629,0.93426,0.144879
1700499446820312,-10.353192,0.480393,0.546016,0.979829,0.106026,0.158279
1700499446828125,-10.285192,0.440393,0.547016,-1.19629,0.123226,0.163379
1700499446835937,-10.210192,0.464393,0.501016,-1.37929,0.144926,0.164179
1700499446843750,-10.217192,0.497393,0.476016,-1.60729,0.145826,0.168879
1700499446851562,-10.277192,0.556393,0.503016,-1.79029,0.140326,0.168879
1700499446859375,-10.370192,0.540393,0.574016,-1.80229,0.145026,0.181779
1700499446867187,-10.478192,0.486393,0.594016,-1.77229,0.158426,0.186779
1700499446875000,-10.566192,0.468393,0.594016,-1.79229,0.168726,0.170979
1700499446882812,-10.546192,0.462393,0.626016,-1.82429,0.181026,0.160379
1700499446890625,-10.431192,0.539393,0.640016,-1.79729,0.203426,0.148279
1700499446898437,-10.228192,0.687393,0.597016,-1.70929,0.212626,0.132679
1700499446906250,-10.67192,0.815393,0.561016,-1.54429,0.206726,0.118079
1700499446914062,-10.104192,0.817393,0.572016,-1.28629,0.183026,0.93979
1700499446921875,-10.222192,0.798393,0.647016,-1.1329,0.165626,0.80779
1700499446929687,-10.191192,0.889393,0.713016,0.990929,0.181726,0.67179
1700499446937500,-10.91192,-1.393,0.688016,0.983429,0.194026,0.62679
1700499446945312,-10.4192,-1.10393,0.695016,0.956029,0.208126,0.61279
1700499446953125,-9.954192,-1.45393,0.702016,0.945329,0.188026,0.58979
1700499446960937,-9.824192,-1.96393,0.755016,0.942229,0.187926,0.62179
1700499446968750,-9.753192,-1.157393,0.753016,0.934529,0.189326,0.71479
1700499446976562,-9.837192,-1.131393,0.726016,0.903829,0.166026,0.80179
1700499446984375,-9.956192,-1.31393,0.769016,0.888529,0.157426,0.85879
1700499446992187,-10.34192,0.950393,0.835016,0.871629,0.154226,0.92079
1700499447000000,-10.11192,0.905393,0.864016,0.867029,0.155626,0.98279
1700499447007812,-9.946192,0.925393,0.807016,0.866829,0.162726,0.98779
1700499447015625,-9.857192,0.962393,0.775016,0.868429,0.159626,0.94079
1700499447023437,-9.893192,0.963393,0.753016,0.857729,0.142826,0.93379
1700499447031250,-10.27192,0.960393,0.757016,0.843829,0.126626,0.91679
1700499447039062,-10.27192,0.979393,0.791016,0.827329,0.128926,0.81979
1700499447046875,-9.953192,-1.70393,0.769016,0.819929,0.134626,0.69579
1700499447054687,-9.984192,-1.139393,0.694016,0.803429,0.136626,0.62879
1700499447062500,-10.150192,-1.67393,0.721016,0.772929,0.119326,0.53079
1700499447070312,-10.460192,0.942393,0.796016,0.762229,0.104526,0.47979
1700499447078125,-10.630192,0.938393,0.875016,0.766729,0.106026,0.52779
1700499447085937,-10.593192,-1.8393,0.873016,0.754729,0.129826,0.51579
1700499447093750,-10.518192,0.995393,0.825016,0.739429,0.135326,0.50079
1700499447101562,-10.437192,0.924393,0.853016,0.734829,0.133126,0.60779
1700499447109375,-10.363192,0.926393,0.880016,0.748329,0.127726,0.67279
1700499447117187,-10.354192,0.942393,0.873016,0.758629,0.128626,0.84779
1700499447125000,-10.409192,0.881393,0.884016,0.759929,0.121626,0.94179
1700499447132812,-10.430192,0.832393,0.909016,0.770629,0.117726,0.97179
1700499447140625,-10.337192,0.856393,0.918016,0.785829,0.124426,0.92779
1700499447148437,-10.212192,0.884393,0.889016,0.805729,0.127326,0.92979
1700499447156250,-10.125192,0.891393,0.859016,0.816429,0.125126,0.97579
1700499447164062,-10.96192,0.889393,0.851016,0.833129,0.124226,0.103679
1700499447171875,-10.115192,0.874393,0.886016,0.849529,0.117526,0.108879
1700499447179687,-10.49192,0.873393,0.909016,0.864829,0.122026,0.110579
1700499447187500,-9.935192,0.927393,0.864016,0.886129,0.127826,0.120079
1700499447195312,-9.837192,0.913393,0.839016,0.892229,0.124426,0.118579
1700499447203125,-9.815192,0.897393,0.837016,0.904129,0.123426,0.135879
1700499447210937,-9.796192,0.924393,0.851016,0.928329,0.104026,0.144979
1700499447218750,-9.806192,0.906393,0.851016,0.928129,0.105326,0.156079
1700499447226562,-9.846192,0.813393,0.878016,0.934129,0.103426,0.159379
1700499447234375,-9.856192,0.713393,0.907016,0.939829,0.104926,0.170679
1700499447242187,-9.827192,0.711393,0.920016,0.954829,0.95526,0.186279
1700499447250000,-9.802192,0.722393,0.923016,0.969929,0.91226,0.197179
1700499447257812,-9.843192,0.664393,0.925016,0.981929,0.83926,0.206579
1700499447265625,-9.883192,0.532393,0.995016,0.980229,0.77026,0.212779
1700499447273437,-9.834192,0.470393,1.64016,-1.1529,0.74526,0.217479
1700499447281250,-9.693192,0.487393,1.23016,-1.21629,0.80926,0.209579
1700499447289062,-9.557192,0.520393,0.977016,-1.33629,0.85726,0.214779
1700499447296875,-9.611192,0.550393,0.943016,-1.38429,0.60926,0.198379
1700499447304687,-9.887192,0.540393,0.955016,-1.36829,0.24226,0.189579
1700499447312500,-10.59192,0.547393,1.57016,-1.41629,0.21326,0.175479
1700499447320312,-10.172192,0.639393,1.64016,-1.55629,0.43626,0.161979
1700499447328125,-10.519192,0.622393,0.995016,-1.42329,0.51526,0.140179
1700499447335937,-10.810192,0.531393,1.100016,-1.33329,0.52226,0.127479
1700499447343750,-10.831192,0.616393,1.257016,-1.49029,0.63026,0.102679
1700499447351562,-10.741192,0.749393,1.298016,-1.45229,0.102726,0.75079
1700499447359375,-10.654192,0.790393,1.271016,-1.37929,0.116826,0.62779
1700499447367187,-10.525192,0.831393,1.287016,-1.35029,0.112026,0.54579
1700499447375000,-10.426192,0.933393,1.342016,-1.27529,0.94126,0.41479
1700499447382812,-10.398192,0.969393,1.360016,-1.20029,0.101526,0.32379
1700499447390625,-10.340192,0.914393,1.370016,-1.1729,0.91526,0.34979
1700499447398437,-10.266192,0.832393,1.370016,-1.4629,0.90726,0.50579
1700499447406250,-10.262192,0.824393,1.326016,-1.23929,0.75126,0.61779
1700499447414062,-10.326192,0.778393,1.290016,-1.37229,0.56926,0.84979
1700499447421875,-10.420192,0.696393,1.262016,-1.37129,0.63026,0.99179
1700499447429687,-10.506192,0.627393,1.210016,-1.52029,0.56626,0.120979
1700499447437500,-10.594192,0.574393,1.143016,-1.63929,0.64626,0.132579
1700499447445312,-10.687192,0.514393,1.68016,-1.80529,0.65726,0.140579
1700499447453125,-10.636192,0.475393,1.38016,-1.104829,0.77026,0.144279
1700499447460937,-10.627192,0.465393,0.958016,-1.117029,0.97026,0.146479
1700499447468750,-10.673192,0.381393,0.901016,-1.126429,0.96626,0.143179
1700499447476562,-10.563192,0.309393,0.924016,-1.144829,0.109926,0.138879
1700499447484375,-10.320192,0.338393,0.904016,-1.169629,0.131626,0.128379
1700499447492187,-10.109192,0.437393,0.785016,-1.191129,0.151826,0.119679
1700499447500000,-10.5192,0.549393,0.695016,-1.211329,0.135526,0.92579
1700499447507812,-10.113192,0.642393,0.642016,-1.225229,0.107426,0.73279
1700499447515625,-10.267192,0.634393,0.708016,-1.229929,0.101526,0.54379
1700499447523437,-10.326192,0.675393,0.740016,-1.231929,0.117326,0.34179
1700499447531250,-10.244192,0.805393,0.681016,-1.244829,0.149926,0.8179
1700499447539062,-10.159192,0.953393,0.616016,-1.255829,0.177126,0.2121
1700499447546875,-10.168192,-1.84393,0.596016,-1.259129,0.187426,0.11421
1700499447554687,-10.219192,-1.177393,0.657016,-1.260629,0.203826,0.1621
1700499447562500,-10.234192,-1.273393,0.707016,-1.256029,0.229026,0.3679
1700499447570312,-10.188192,-1.285393,0.730016,-1.234629,0.257626,0.15179
1700499447578125,-10.174192,-1.233393,0.787016,-1.236029,0.285826,0.31679
1700499447585937,-10.229192,-1.129393,0.869016,-1.238929,0.305026,0.50979
1700499447593750,-10.252192,-1.61393,0.988016,-1.251129,0.312126,0.66379
1700499447601562,-10.172192,-1.67393,1.67016,-1.269329,0.338326,0.76579
1700499447609375,-10.132192,-1.81393,1.69016,-1.279829,0.342726,0.89479
1700499447617187,-10.121192,-1.21393,1.124016,-1.284329,0.352826,0.91379
1700499447625000,-10.113192,0.965393,1.231016,-1.301029,0.350126,0.100679
1700499447632812,-10.67192,0.982393,1.295016,-1.326929,0.356726,0.96479
1700499447640625,-10.23192,-1.47393,1.297016,-1.333029,0.358126,0.99679
1700499447648437,-10.14192,-1.81393,1.315016,-1.331429,0.356426,0.101279
1700499447656250,-10.21192,-1.64393,1.374016,-1.332629,0.352626,0.115479
1700499447664062,-10.41192,-1.47393,1.443016,-1.331329,0.349226,0.110379
1700499447671875,-10.26192,-1.75393,1.486016,-1.344729,0.347226,0.118579
1700499447679687,-9.987192,-1.87393,1.513016,-1.335529,0.357526,0.123679
1700499447687500,-10.4192,-1.11393,1.563016,-1.330729,0.352026,0.134479
1700499447695312,-10.57192,0.906393,1.629016,-1.332129,0.343426,0.140579
1700499447703125,-10.5192,0.906393,1.684016,-1.341229,0.344426,0.148379
1700499447710937,-9.884192,0.963393,1.682016,-1.350429,0.349426,0.145379
1700499447718750,-9.827192,0.979393,1.648016,-1.352029,0.350626,0.149979
1700499447726562,-9.974192,0.858393,1.661016,-1.339629,0.319626,0.140079
1700499447734375,-10.129192,0.716393,1.745016,-1.339729,0.302326,0.140879
1700499447742187,-10.84192,0.729393,1.836016,-1.380729,0.301726,0.139779
1700499447750000,-9.977192,0.799393,1.797016,-1.402129,0.307926,0.141679
1700499447757812,-9.868192,0.823393,1.748016,-1.419029,0.314426,0.138679
1700499447765625,-9.758192,0.858393,1.757016,-1.444929,0.293926,0.132079
1700499447773437,-9.746192,0.916393,1.762016,-1.458529,0.276526,0.136479
1700499447781250,-9.857192,0.941393,1.764016,-1.469129,0.258226,0.129979
1700499447789062,-9.904192,0.956393,1.780016,-1.478329,0.251326,0.125079
1700499447796875,-9.829192,-1.61393,1.775016,-1.498129,0.264926,0.121079
1700499447804687,-9.752192,-1.222393,1.703016,-1.516529,0.271326,0.119779
1700499447812500,-9.755192,-1.341393,1.648016,-1.519429,0.250626,0.123879
1700499447820312,-9.854192,-1.403393,1.664016,-1.508829,0.246026,0.120579
1700499447828125,-9.964192,-1.435393,1.701016,-1.499629,0.242826,0.120379
1700499447835937,-10.16192,-1.401393,1.744016,-1.492029,0.262926,0.125479
1700499447843750,-9.960192,-1.370393,1.792016,-1.478629,0.302126,0.123179
1700499447851562,-9.862192,-1.412393,1.792016,-1.486029,0.309626,0.140679
1700499447859375,-9.808192,-1.449393,1.808016,-1.484229,0.319626,0.150479
1700499447867187,-9.909192,-1.329393,1.887016,-1.473429,0.309226,0.159479
1700499447875000,-10.15192,-1.145393,2.10016,-1.465629,0.300626,0.167079
1700499447882812,-9.902192,-1.142393,2.117016,-1.496129,0.323226,0.175679
1700499447890625,-9.886192,-1.154393,2.64016,-1.503529,0.328026,0.185479
1700499447898437,-9.935192,-1.39393,2.117016,-1.495929,0.312526,0.189479
1700499447906250,-10.36192,0.958393,2.192016,-1.517029,0.301826,0.195779
1700499447914062,-10.42192,0.957393,2.251016,-1.540129,0.292626,0.192279
1700499447921875,-9.972192,-1.13393,2.258016,-1.549029,0.297926,0.192879
1700499447929687,-9.912192,-1.95393,2.188016,-1.558229,0.287726,0.189479
1700499447937500,-9.902192,-1.155393,2.108016,-1.559829,0.275826,0.187479
1700499447945312,-9.890192,-1.209393,2.79016,-1.550329,0.230626,0.188079
1700499447953125,-9.839192,-1.273393,2.49016,-1.545829,0.218826,0.186079
1700499447960937,-9.825192,-1.323393,1.945016,-1.524329,0.206226,0.181179
1700499447968750,-9.829192,-1.321393,1.849016,-1.502929,0.181526,0.178879
1700499447976562,-9.834192,-1.341393,1.733016,-1.488829,0.156426,0.184679
1700499447984375,-9.892192,-1.373393,1.616016,-1.468929,0.148326,0.189079
1700499447992187,-9.966192,-1.321393,1.532016,-1.442829,0.137026,0.191979
1700499448000000,-10.67192,-1.215393,1.443016,-1.419829,0.133826,0.199479
1700499448007812,-10.170192,-1.120393,1.372016,-1.401429,0.134326,0.202779
1700499448015625,-10.216192,-1.77393,1.319016,-1.380029,0.132726,0.208779
1700499448023437,-10.239192,-1.32393,1.269016,-1.372329,0.137626,0.215079
1700499448031250,-10.324192,0.954393,1.217016,-1.346429,0.128026,0.212979
1700499448039062,-10.467192,0.883393,1.155016,-1.328029,0.125026,0.216079
1700499448046875,-10.538192,0.860393,1.121016,-1.329729,0.120126,0.209579
1700499448054687,-10.485192,0.896393,1.85016,-1.311629,0.124526,0.193879
1700499448062500,-10.420192,0.917393,1.7016,-1.295029,0.133726,0.184579
1700499448070312,-10.335192,0.969393,0.926016,-1.277029,0.131026,0.173279
1700499448078125,-10.270192,-1.52393,0.858016,-1.262029,0.128226,0.163479
1700499448085937,-10.283192,-1.105393,0.805016,-1.245229,0.125326,0.161779
1700499448093750,-10.281192,-1.134393,0.787016,-1.225429,0.122426,0.159979
1700499448101562,-10.166192,-1.184393,0.765016,-1.214929,0.130826,0.158279
1700499448109375,-10.44192,-1.258393,0.692016,-1.208929,0.153526,0.149679
1700499448117187,-9.969192,-1.258393,0.646016,-1.183029,0.157326,0.152679
1700499448125000,-9.925192,-1.180393,0.662016,-1.167429,0.150826,0.162079
1700499448132812,-9.877192,-1.154393,0.671016,-1.178429,0.158526,0.163479
1700499448140625,-9.811192,-1.184393,0.642016,-1.184329,0.161626,0.171579
1700499448148437,-9.766192,-1.176393,0.624016,-1.182729,0.176026,0.185979
1700499448156250,-9.762192,-1.157393,0.627016,-1.185429,0.161226,0.187679
1700499448164062,-9.721192,-1.195393,0.632016,-1.186929,0.159226,0.190679
1700499448171875,-9.679192,-1.246393,0.635016,-1.183729,0.157026,0.202979
1700499448179687,-9.697192,-1.264393,0.617016,-1.166829,0.149026,0.204379
1700499448187500,-9.826192,-1.260393,0.591016,-1.157629,0.127526,0.200779
1700499448195312,-10.1192,-1.225393,0.605016,-1.149829,0.109026,0.203479
1700499448203125,-10.166192,-1.202393,0.623016,-1.129929,0.95626,0.207579
1700499448210937,-10.405192,-1.161393,0.596016,-1.100829,0.94626,0.210679
1700499448218750,-10.690192,-1.11393,0.600016,-1.80929,0.73326,0.208579
1700499448226562,-10.737192,0.921393,0.695016,-1.74729,0.73426,0.210179
1700499448234375,-10.494192,0.935393,0.741016,-1.68929,0.95326,0.208879
1700499448242187,-10.238192,0.942393,0.691016,-1.59929,0.100226,0.210179
1700499448250000,-10.117192,0.984393,0.611016,-1.71829,0.74926,0.211579
1700499448257812,-10.143192,-1.66393,0.584016,-1.70129,0.46526,0.207779
1700499448265625,-10.248192,-1.90393,0.586016,-1.67029,0.8626,0.194579
1700499448273437,-10.315192,-1.107393,0.532016,-1.62529,0.8826,0.188179
1700499448281250,-10.337192,-1.148393,0.443016,-1.58229,0.8974,0.170379
1700499448289062,-10.271192,-1.176393,0.364016,-1.44429,0.28874,0.168179
1700499448296875,-10.210192,-1.196393,0.307016,-1.37029,0.31774,0.158579
1700499448304687,-10.226192,-1.187393,0.225016,-1.33929,0.26874,0.163379
1700499448312500,-10.288192,-1.122393,0.195016,-1.45829,0.32074,0.169979
1700499448320312,-10.320192,-1.115393,0.179016,-1.60829,0.34474,0.180979
1700499448328125,-10.321192,-1.184393,0.136016,-1.66729,0.30174,0.196879
1700499448335937,-10.314192,-1.190393,0.120016,-1.63429,0.14474,0.222279
1700499448343750,-10.292192,-1.146393,0.106016,-1.62929,0.12274,0.253779
1700499448351562,-10.295192,-1.90393,0.94016,-1.65529,0.1574,0.282479
1700499448359375,-10.305192,-1.37393,0.103016,-1.58929,0.9026,0.315679
1700499448367187,-10.305192,0.985393,0.106016,-1.64729,0.11126,0.340779
1700499448375000,-10.335192,0.849393,0.133016,-1.56829,0.31026,0.356979
1700499448382812,-10.293192,0.722393,0.176016,-1.52329,0.50426,0.369579
1700499448390625,-10.248192,0.707393,0.165016,-1.64629,0.67226,0.368679
1700499448398437,-10.200192,0.730393,0.185016,-1.59929,0.65626,0.370179
1700499448406250,-10.155192,0.731393,0.208016,-1.60129,0.67426,0.363879
1700499448414062,-10.137192,0.704393,0.235016,-1.49729,0.63126,0.346279
1700499448421875,-10.103192,0.669393,0.276016,-1.37629,0.69026,0.338679
1700499448429687,-10.83192,0.685393,0.274016,-1.33129,0.64426,0.329179
1700499448437500,-10.51192,0.686393,0.273016,-1.33229,0.65126,0.316779
1700499448445312,-10.4192,0.633393,0.303016,-1.10729,0.71226,0.300979
1700499448453125,-9.975192,0.593393,0.315016,-1.7829,0.59626,0.294279
1700499448460937,-9.969192,0.577393,0.303016,0.998829,0.56826,0.282979
1700499448468750,-9.976192,0.551393,0.310016,0.992629,0.48526,0.284479
1700499448476562,-10.62192,0.512393,0.312016,0.983629,0.37326,0.274679
1700499448484375,-10.56192,0.492393,0.353016,0.974629,0.36126,0.266779
1700499448492187,-9.974192,0.540393,0.337016,0.977729,0.33126,0.258879
1700499448500000,-9.932192,0.586393,0.301016,0.959729,0.24826,0.251879
1700499448507812,-9.887192,0.576393,0.306016,0.946129,0.20826,0.237779
1700499448515625,-9.910192,0.530393,0.340016,0.938429,0.17926,0.234579
1700499448523437,-9.943192,0.539393,0.348016,0.929029,0.6826,0.233179
1700499448531250,-10.53192,0.564393,0.324016,0.909629,0.5774,0.213579
1700499448539062,-10.10192,0.547393,0.408016,0.888429,0.9674,0.197679
1700499448546875,-9.830192,0.634393,0.433016,0.885529,0.2574,0.191579
1700499448554687,-9.822192,0.720393,0.335016,0.868929,0.12174,0.183179
1700499448562500,-10.36192,0.630393,0.360016,0.841329,0.53874,0.183579
1700499448570312,-10.245192,0.580393,0.460016,0.818229,0.86474,0.178279
1700499448578125,-10.293192,0.706393,0.463016,0.815329,0.86374,0.171779
1700499448585937,-10.312192,0.825393,0.367016,0.785029,0.80474,0.165379
1700499448593750,-10.472192,0.705393,0.310016,0.730129,0.84474,0.164879
1700499448601562,-10.740192,0.542393,0.375016,0.693329,0.106974,0.165979
1700499448609375,-10.816192,0.533393,0.458016,0.693629,0.95174,0.158079
1700499448617187,-10.709192,0.622393,0.456016,0.669429,0.57474,0.155679
1700499448625000,-10.541192,0.624393,0.417016,0.646829,0.31774,0.152779
1700499448632812,-10.404192,0.559393,0.444016,0.619329,0.15874,0.154779
1700499448640625,-10.420192,0.521393,0.510016,0.602829,0.474,0.153179
1700499448648437,-10.514192,0.490393,0.637016,0.581429,0.25426,0.153879
1700499448656250,-10.593192,0.446393,0.744016,0.569429,0.49226,0.155879
1700499448664062,-10.683192,0.345393,0.833016,0.542129,0.64926,0.154379
1700499448671875,-10.625192,0.248393,0.965016,0.525529,0.100526,0.156679
1700499448679687,-10.488192,0.202393,1.51016,0.513329,0.124426,0.158879
1700499448687500,-10.316192,0.171393,1.131016,0.499929,0.131026,0.155279
1700499448695312,-10.173192,0.147393,1.218016,0.481529,0.135026,0.156979
1700499448703125,-10.49192,0.164393,1.286016,0.480129,0.138426,0.153879
1700499448710937,-9.930192,0.242393,1.336016,0.469629,0.131026,0.136479
1700499448718750,-9.866192,0.306393,1.368016,0.448729,0.134026,0.114379
1700499448726562,-9.936192,0.296393,1.414016,0.421329,0.113126,0.102579
1700499448734375,-9.984192,0.259393,1.491016,0.388029,0.97626,0.86279
1700499448742187,-9.877192,0.303393,1.573016,0.376129,0.99926,0.73579
1700499448750000,-9.655192,0.398393,1.576016,0.362929,0.112426,0.54579
1700499448757812,-9.426192,0.489393,1.526016,0.332229,0.114926,0.57779
1700499448765625,-9.377192,0.416393,1.499016,0.300029,0.81526,0.63079
1700499448773437,-9.484192,0.228393,1.560016,0.258129,0.54826,0.89279
1700499448781250,-9.557192,0.125393,1.616016,0.254529,0.38626,0.117179
1700499448789062,-9.576192,0.88393,1.573016,0.237529,0.27926,0.133879
1700499448796875,-9.752192,0.8607,1.488016,0.207829,0.9826,0.154279
1700499448804687,-10.40192,0.225607,1.465016,0.168029,0.17274,0.168779
1700499448812500,-10.342192,0.449607,1.526016,0.149529,0.20474,0.176579
1700499448820312,-10.556192,0.573607,1.551016,0.136029,0.18374,0.166779
1700499448828125,-10.709192,0.631607,1.496016,0.122529,0.4826,0.151879
1700499448835937,-10.820192,0.678607,1.477016,0.109429,0.21026,0.128379
1700499448843750,-10.936192,0.675607,1.496016,0.114529,0.22126,0.95379
1700499448851562,-11.17192,0.651607,1.532016,0.112129,0.38626,0.64279
1700499448859375,-11.1192,0.619607,1.596016,0.111329,0.45626,0.17279
1700499448867187,-10.900192,0.523607,1.603016,0.110929,0.74326,0.34221
1700499448875000,-10.819192,0.375607,1.540016,0.111729,0.70826,0.76921
1700499448882812,-10.790192,0.266607,1.524016,0.86729,0.64726,0.127721
1700499448890625,-10.741192,0.191607,1.577016,0.78029,0.53026,0.165721
1700499448898437,-10.614192,0.116607,1.595016,0.76929,0.67426,0.185821
1700499448906250,-10.417192,0.44393,1.532016,0.89629,0.83126,0.209021
1700499448914062,-10.199192,0.256393,1.443016,0.91329,0.85326,0.221421
1700499448921875,-10.89192,0.346393,1.364016,0.68529,0.79126,0.226621
1700499448929687,-10.35192,0.350393,1.359016,0.68529,0.72626,0.228221
1700499448937500,-9.941192,0.421393,1.346016,0.82329,0.77126,0.228221
1700499448945312,-9.919192,0.588393,1.234016,0.92729,0.83826,0.221321
1700499448953125,-9.895192,0.691393,1.123016,0.90929,0.78526,0.211921
1700499448960937,-9.876192,0.715393,1.78016,0.86229,0.71226,0.199721
1700499448968750,-9.917192,0.741393,1.48016,0.87329,0.75426,0.174321
1700499448976562,-9.968192,0.807393,1.16016,0.102029,0.75226,0.138121
1700499448984375,-9.990192,0.842393,0.994016,0.92229,0.74126,0.101921
1700499448992187,-9.986192,0.806393,1.23016,0.88629,0.69226,0.66021
1700499449000000,-10.25192,0.761393,1.5016,0.91229,0.91826,0.37021
1700499449007812,-10.123192,0.691393,1.3016,0.101329,0.91826,0.821
1700499449015625,-10.187192,0.666393,1.30016,0.113029,0.97226,0.27779
1700499449023437,-10.176192,0.698393,1.52016,0.111029,0.101626,0.51579
1700499449031250,-10.196192,0.674393,1.82016,0.112329,0.118726,0.80179
1700499449039062,-10.347192,0.574393,1.118016,0.112129,0.116426,0.94179
1700499449046875,-10.493192,0.429393,1.237016,0.111929,0.117326,0.109679
1700499449054687,-10.542192,0.225393,1.425016,0.126829,0.140426,0.124879
1700499449062500,-10.464192,0.77393,1.525016,0.145229,0.179926,0.135279
1700499449070312,-10.377192,0.8607,1.554016,0.179029,0.217426,0.143979
1700499449078125,-10.316192,0.67607,1.591016,0.207729,0.229826,0.158679
1700499449085937,-10.241192,0.175607,1.713016,0.240929,0.225326,0.173179
1700499449093750,-10.188192,0.281607,1.822016,0.256029,0.246426,0.184779
1700499449101562,-10.244192,0.414607,1.891016,0.284929,0.251526,0.203679
1700499449109375,-10.396192,0.627607,1.933016,0.304429,0.250826,0.216579
1700499449117187,-10.411192,0.705607,2.40016,0.353029,0.247526,0.229279
1700499449125000,-10.258192,0.638607,2.77016,0.388129,0.268526,0.233179
1700499449132812,-10.147192,0.608607,2.34016,0.421729,0.278026,0.232079
1700499449140625,-10.125192,0.658607,2.17016,0.427829,0.273226,0.225779
1700499449148437,-10.132192,0.688607,2.79016,0.449229,0.243926,0.221779
1700499449156250,-10.106192,0.613607,2.99016,0.470329,0.230726,0.215779
1700499449164062,-10.33192,0.525607,2.109016,0.476729,0.236126,0.203379
1700499449171875,-9.971192,0.501607,2.89016,0.475429,0.234426,0.196779
1700499449179687,-9.969192,0.516607,2.88016,0.476829,0.217626,0.196479
1700499449187500,-9.937192,0.502607,2.120016,0.475129,0.216026,0.199679
1700499449195312,-9.841192,0.415607,2.161016,0.476829,0.214626,0.191879
1700499449203125,-9.815192,0.371607,2.150016,0.467429,0.209326,0.204279
1700499449210937,-9.869192,0.481607,2.202016,0.432229,0.194426,0.211379
1700499449218750,-9.950192,0.636607,2.293016,0.425929,0.199226,0.224179
1700499449226562,-9.983192,0.737607,2.366016,0.432029,0.193926,0.222379
1700499449234375,-9.894192,0.749607,2.407016,0.439629,0.203526,0.228879
1700499449242187,-9.777192,0.781607,2.405016,0.433429,0.219926,0.244879
1700499449250000,-9.726192,0.876607,2.414016,0.428529,0.204526,0.254079
1700499449257812,-9.759192,0.953607,2.448016,0.433029,0.188926,0.259779
1700499449265625,-9.818192,1.607,2.461016,0.428129,0.163626,0.267279
1700499449273437,-9.863192,1.89607,2.513016,0.424929,0.157126,0.267379
1700499449281250,-9.862192,1.209607,2.522016,0.426229,0.144726,0.279479
1700499449289062,-9.877192,1.305607,2.517016,0.424529,0.133026,0.280879
1700499449296875,-9.907192,1.314607,2.519016,0.430529,0.126326,0.282579
1700499449304687,-9.891192,1.312607,2.519016,0.435429,0.116626,0.263279
1700499449312500,-9.846192,1.313607,2.535016,0.429429,0.110826,0.250879
1700499449320312,-9.810192,1.315607,2.533016,0.426729,0.113326,0.228779
1700499449328125,-9.827192,1.257607,2.510016,0.441229,0.109426,0.187679
1700499449335937,-9.858192,1.204607,2.524016,0.424829,0.99026,0.160579
1700499449343750,-9.864192,1.179607,2.579016,0.411629,0.105926,0.126179
1700499449351562,-9.868192,1.150607,2.633016,0.401929,0.119526,0.80679
1700499449359375,-9.980192,1.188607,2.631016,0.406929,0.120426,0.52379
1700499449367187,-10.114192,1.237607,2.684016,0.396929,0.116626,0.20479
1700499449375000,-10.194192,1.248607,2.742016,0.394229,0.111626,0.12321
1700499449382812,-10.129192,1.191607,2.775016,0.414729,0.139026,0.40121
1700499449390625,-9.919192,1.30607,2.738016,0.430029,0.144126,0.46021
1700499449398437,-9.682192,0.808607,2.625016,0.422629,0.149026,0.46321
1700499449406250,-9.569192,0.626607,2.526016,0.405629,0.122426,0.45421
1700499449414062,-9.609192,0.550607,2.487016,0.382629,0.77826,0.51121
1700499449421875,-9.666192,0.581607,2.519016,0.355029,0.42926,0.52221
1700499449429687,-9.720192,0.536607,2.473016,0.338029,0.26426,0.47821
1700499449437500,-9.752192,0.439607,2.333016,0.331929,0.3026,0.51621
1700499449445312,-9.838192,0.398607,2.216016,0.305829,0.39674,0.62021
1700499449453125,-9.881192,0.381607,2.125016,0.281529,0.60774,0.70621
1700499449460937,-10.83192,0.428607,2.2016,0.249329,0.95174,0.74621
1700499449468750,-10.289192,0.454607,1.897016,0.234129,0.113474,0.78421
1700499449476562,-10.311192,0.372607,1.811016,0.233929,0.133474,0.78721
1700499449484375,-10.256192,0.278607,1.667016,0.220129,0.129774,0.77121
1700499449492187,-10.153192,0.228607,1.522016,0.195929,0.125874,0.80421
1700499449500000,-10.140192,0.238607,1.371016,0.185229,0.138274,0.94621
1700499449507812,-10.179192,0.279607,1.285016,0.167029,0.144474,0.99621
1700499449515625,-10.322192,0.289607,1.203016,0.162729,0.154274,0.111221
1700499449523437,-10.423192,0.257607,1.153016,0.150529,0.145674,0.109521
1700499449531250,-10.532192,0.260607,1.98016,0.135329,0.131774,0.109121
1700499449539062,-10.506192,0.304607,1.87016,0.112729,0.110774,0.118421
1700499449546875,-10.469192,0.271607,1.59016,0.102029,0.90674,0.110121
1700499449554687,-10.363192,0.178607,1.42016,0.92829,0.82774,0.97621
1700499449562500,-10.231192,0.51607,1.3016,0.72729,0.83874,0.92721
1700499449570312,-10.16192,0.61393,0.962016,0.57529,0.69174,0.80121
1700499449578125,-9.836192,0.128393,0.906016,0.25529,0.78574,0.82221
1700499449585937,-9.750192,0.120393,0.851016,0.17471,0.84974,0.66821
1700499449593750,-9.973192,0.61393,0.789016,0.49571,0.109474,0.69221
1700499449601562,-10.132192,0.23393,0.831016,0.78271,0.130274,0.87321
1700499449609375,-10.61192,0.37393,0.872016,0.99371,0.125874,0.101521
1700499449617187,-10.73192,0.85393,0.726016,0.114371,0.106074,0.116621
1700499449625000,-10.130192,0.35393,0.630016,0.149171,0.97974,0.134021
1700499449632812,-10.286192,0.107607,0.657016,0.182571,0.123674,0.149021
1700499449640625,-10.436192,0.178607,0.702016,0.194271,0.129474,0.171521
1700499449648437,-10.477192,0.188607,0.706016,0.210971,0.106374,0.181621
1700499449656250,-10.391192,0.166607,0.698016,0.225571,0.80374,0.200321
1700499449664062,-10.297192,0.101607,0.650016,0.228071,0.64474,0.223821
1700499449671875,-10.217192,0.102607,0.707016,0.255371,0.75074,0.238321
1700499449679687,-10.189192,0.139607,0.764016,0.268871,0.74074,0.254021
1700499449687500,-10.235192,0.229607,0.837016,0.271371,0.48574,0.267921
1700499449695312,-10.298192,0.282607,0.892016,0.266571,0.40074,0.275721
1700499449703125,-10.233192,0.305607,0.976016,0.241971,0.21574,0.284521
1700499449710937,-10.163192,0.261607,1.30016,0.225271,0.15174,0.282521
1700499449718750,-10.128192,0.182607,1.73016,0.202371,0.11774,0.290021
1700499449726562,-10.222192,0.109607,1.131016,0.186871,0.18374,0.302721
1700499449734375,-10.405192,0.98607,1.247016,0.174771,0.23574,0.302621
1700499449742187,-10.480192,0.76607,1.385016,0.170171,0.16874,0.302421
1700499449750000,-10.453192,0.40393,1.450016,0.144171,0.4774,0.292821
1700499449757812,-10.414192,0.228393,1.389016,0.127471,0.14626,0.282921
1700499449765625,-10.347192,0.342393,1.403016,0.150471,0.6126,0.272421
1700499449773437,-10.161192,0.491393,1.483016,0.141571,0.10226,0.253421
1700499449781250,-10.28192,0.654393,1.490016,0.163271,0.15326,0.239121
1700499449789062,-10.57192,0.652393,1.472016,0.187671,0.19126,0.234421
1700499449796875,-10.145192,0.564393,1.531016,0.206171,0.9326,0.229921
1700499449804687,-10.267192,0.589393,1.579016,0.204871,0.10874,0.228821
1700499449812500,-10.323192,0.619393,1.629016,0.209171,0.9274,0.233721
1700499449820312,-10.324192,0.554393,1.687016,0.226071,0.1274,0.241021
1700499449828125,-10.309192,0.514393,1.676016,0.204571,0.29926,0.235621
1700499449835937,-10.297192,0.565393,1.681016,0.186371,0.29126,0.226121
1700499449843750,-10.304192,0.554393,1.699016,0.179071,0.23126,0.207321
1700499449851562,-10.313192,0.535393,1.729016,0.163971,0.28826,0.193121
1700499449859375,-10.285192,0.533393,1.715016,0.144371,0.39526,0.177021
1700499449867187,-10.220192,0.548393,1.665016,0.129571,0.46826,0.153021
1700499449875000,-10.120192,0.515393,1.624016,0.116271,0.47126,0.124621
1700499449882812,-10.96192,0.458393,1.585016,0.92271,0.38926,0.102721
1700499449890625,-10.111192,0.379393,1.558016,0.71671,0.26826,0.63521
1700499449898437,-10.87192,0.278393,1.569016,0.47571,0.24326,0.49021
1700499449906250,-10.86192,0.240393,1.525016,0.14671,0.27426,0.15621
1700499449914062,-10.120192,0.215393,1.464016,0.9329,0.22626,0.8079
1700499449921875,-10.168192,0.182393,1.469016,0.41129,0.14326,0.23579
1700499449929687,-10.172192,0.225393,1.480016,0.72929,0.22026,0.32079
1700499449937500,-10.153192,0.317393,1.428016,0.91329,0.38326,0.35579
1700499449945312,-10.134192,0.353393,1.391016,0.103529,0.43326,0.34379
1700499449953125,-10.132192,0.360393,1.366016,0.109529,0.34726,0.35879
1700499449960937,-10.158192,0.390393,1.357016,0.111129,0.42826,0.37379
1700499449968750,-10.220192,0.400393,1.350016,0.111129,0.52826,0.40779
1700499449976562,-10.276192,0.376393,1.355016,0.105129,0.49426,0.38879
1700499449984375,-10.314192,0.306393,1.371016,0.98829,0.52926,0.45479
1700499449992187,-10.314192,0.234393,1.412016,0.109529,0.59026,0.50179
1700499450000000,-10.308192,0.169393,1.425016,0.105029,0.62326,0.51679
1700499450007812,-10.262192,0.83393,1.457016,0.114129,0.60626,0.50179
1700499450015625,-10.176192,0.46393,1.498016,0.129429,0.68726,0.50579
1700499450023437,-10.107192,0.9393,1.500016,0.152229,0.66626,0.50679
1700499450031250,-10.105192,0.30607,1.500016,0.158329,0.49626,0.50379
1700499450039062,-10.57192,0.34607,1.505016,0.176529,0.35626,0.51579
1700499450046875,-9.954192,0.54393,1.477016,0.188329,0.15026,0.59279
1700499450054687,-9.853192,0.167393,1.393016,0.197529,0.1826,0.49679
1700499450062500,-9.812192,0.230393,1.334016,0.210929,0.28574,0.52479
1700499450070312,-9.884192,0.225393,1.266016,0.199029,0.62074,0.38579
1700499450078125,-10.23192,0.186393,1.248016,0.185229,0.74674,0.33779
1700499450085937,-10.122192,0.191393,1.225016,0.180929,0.72474,0.17979
1700499450093750,-10.117192,0.251393,1.168016,0.168929,0.73574,0.9979
1700499450101562,-10.95192,0.232393,1.125016,0.162829,0.66674,0.10179
1700499450109375,-10.102192,0.209393,1.75016,0.159929,0.64474,0.779
1700499450117187,-10.73192,0.189393,1.73016,0.158529,0.52974,0.2379
1700499450125000,-10.66192,0.198393,1.54016,0.157029,0.44374,0.1079
1700499450132812,-10.155192,0.140393,1.58016,0.143329,0.35574,0.1279
1700499450140625,-10.166192,0.110393,1.72016,0.152929,0.23674,0.12821
1700499450148437,-10.176192,0.113393,1.76016,0.159129,0.9274,0.29321
1700499450156250,-10.148192,0.158393,1.65016,0.161129,0.1974,0.48221
1700499450164062,-10.118192,0.208393,1.57016,0.166029,0.0,0.64121
1700499450171875,-10.38192,0.257393,1.66016,0.169729,0.13226,0.99821
1700499450179687,-9.883192,0.308393,1.68016,0.180829,0.25726,0.123121
1700499450187500,-9.795192,0.354393,1.50016,0.193329,0.36126,0.138521
1700499450195312,-9.817192,0.362393,1.32016,0.198529,0.31926,0.168721
1700499450203125,-9.930192,0.373393,1.32016,0.204629,0.10026,0.175521
1700499450210937,-10.74192,0.416393,1.16,0.215329,0.6774,0.182121
1700499450218750,-10.144192,0.473393,0.966016,0.212329,0.12974,0.189921
1700499450226562,-10.185192,0.450393,0.920016,0.193929,0.29474,0.190521
1700499450234375,-10.277192,0.353393,0.870016,0.183329,0.35774,0.193821
1700499450242187,-10.400192,0.276393,0.854016,0.175429,0.52674,0.187921
1700499450250000,-10.539192,0.248393,0.847016,0.184329,0.66074,0.186321
1700499450257812,-10.569192,0.223393,0.853016,0.189029,0.60974,0.192521
1700499450265625,-10.564192,0.218393,0.822016,0.190829,0.57274,0.201921
1700499450273437,-10.535192,0.239393,0.783016,0.198829,0.43274,0.220421
1700499450281250,-10.449192,0.333393,0.756016,0.209829,0.32974,0.234421
1700499450289062,-10.439192,0.438393,0.738016,0.214829,0.19174,0.250021
1700499450296875,-10.424192,0.527393,0.740016,0.212129,0.6374,0.270021
1700499450304687,-10.334192,0.689393,0.729016,0.191329,0.13426,0.293421
1700499450312500,-10.227192,0.851393,0.707016,0.167229,0.11126,0.309421
1700499450320312,-10.126192,0.989393,0.712016,0.138329,0.5826,0.325221
1700499450328125,-10.44192,-1.63393,0.746016,0.101729,0.6874,0.327421
1700499450335937,-10.18192,-1.115393,0.776016,0.49829,0.17274,0.329421
1700499450343750,-10.2192,-1.144393,0.790016,0.571,0.36874,0.324121
1700499450351562,-9.949192,-1.166393,0.808016,0.54271,0.61474,0.312421
1700499450359375,-9.854192,-1.222393,0.815016,0.107871,0.70474,0.304921
1700499450367187,-9.749192,-1.232393,0.797016,0.159971,0.90174,0.294821
1700499450375000,-9.666192,-1.210393,0.804016,0.216771,0.111374,0.279921
1700499450382812,-9.715192,-1.293393,0.760016,0.259671,0.124174,0.270821
1700499450390625,-9.854192,-1.357393,0.738016,0.324171,0.148874,0.253021
1700499450398437,-9.968192,-1.265393,0.831016,0.397471,0.159174,0.248921
1700499450406250,-9.958192,-1.193393,0.918016,0.456771,0.143074,0.247621
1700499450414062,-9.917192,-1.183393,0.897016,0.511671,0.129974,0.245921
1700499450421875,-9.893192,-1.148393,0.895016,0.577071,0.130074,0.254321
1700499450429687,-9.828192,-1.122393,0.947016,0.636571,0.136874,0.257921
1700499450437500,-9.730192,-1.129393,0.993016,0.694371,0.130874,0.258421
1700499450445312,-9.646192,-1.99393,0.977016,0.752271,0.143074,0.260621
1700499450453125,-9.577192,-1.43393,0.985016,0.811571,0.144274,0.276521
1700499450460937,-9.473192,-1.44393,1.36016,0.867871,0.159974,0.282221
1700499450468750,-9.445192,-1.78393,1.15016,0.915171,0.180474,0.290821
1700499450476562,-9.532192,-1.30393,1.29016,0.974671,0.195774,0.294521
1700499450484375,-9.678192,0.940393,1.101016,1.20371,0.210974,0.307721
1700499450492187,-9.862192,0.926393,1.151016,1.67371,0.214474,0.322221
1700499450500000,-10.68192,0.904393,1.194016,1.96071,0.219674,0.342921
1700499450507812,-10.266192,0.851393,1.314016,1.140071,0.211274,0.358621
1700499450515625,-10.426192,0.892393,1.411016,1.171371,0.193174,0.383921
1700499450523437,-10.542192,-1.7393,1.495016,1.184771,0.175374,0.399321
1700499450531250,-10.607192,-1.72393,1.632016,1.214471,0.156974,0.432421
1700499450539062,-10.608192,-1.127393,1.760016,1.242971,0.128474,0.453921
1700499450546875,-10.543192,-1.248393,1.867016,1.247171,0.112974,0.464821
1700499450554687,-10.505192,-1.409393,1.968016,1.268371,0.113774,0.475921
1700499450562500,-10.524192,-1.514393,2.68016,1.289471,0.114474,0.488721
1700499450570312,-10.537192,-1.565393,2.194016,1.299771,0.113674,0.506121
1700499450578125,-10.444192,-1.710393,2.314016,1.307371,0.107774,0.516821
1700499450585937,-10.266192,-1.947393,2.354016,1.310071,0.96174,0.520021
1700499450593750,-10.153192,-2.163393,2.345016,1.325271,0.95374,0.529521
1700499450601562,-10.197192,-2.261393,2.343016,1.360471,0.119674,0.530121
1700499450609375,-10.283192,-2.292393,2.384016,1.374771,0.150074,0.515021
1700499450617187,-10.197192,-2.430393,2.453016,1.393071,0.153574,0.507521
1700499450625000,-9.964192,-2.619393,2.455016,1.391771,0.145674,0.493021
1700499450632812,-9.799192,-2.755393,2.371016,1.431971,0.155674,0.468221
1700499450640625,-9.720192,-2.835393,2.313016,1.442871,0.183374,0.455121
1700499450648437,-9.613192,-2.915393,2.286016,1.458571,0.211874,0.443021
1700499450656250,-9.522192,-2.974393,2.256016,1.486571,0.225774,0.416821
1700499450664062,-9.469192,-3.12393,2.156016,1.511471,0.258174,0.394021
1700499450671875,-9.442192,-3.26393,2.51016,1.525971,0.267574,0.356421
1700499450679687,-9.442192,-3.15393,1.971016,1.551071,0.290074,0.322321
1700499450687500,-9.484192,-2.949393,1.889016,1.567071,0.319974,0.285421
1700499450695312,-9.516192,-2.883393,1.812016,1.572271,0.329774,0.249621
1700499450703125,-9.587192,-2.816393,1.718016,1.578871,0.330674,0.221221
1700499450710937,-9.707192,-2.725393,1.654016,1.591971,0.338674,0.177321
1700499450718750,-9.854192,-2.572393,1.635016,1.597171,0.352874,0.150721
1700499450726562,-9.915192,-2.436393,1.642016,1.586871,0.335774,0.118821
1700499450734375,-9.884192,-2.335393,1.614016,1.571971,0.327274,0.91921
1700499450742187,-9.892192,-2.241393,1.580016,1.556971,0.304974,0.67721
1700499450750000,-9.941192,-2.113393,1.566016,1.536071,0.301374,0.42321
1700499450757812,-10.29192,-2.1393,1.588016,1.516771,0.302574,0.16921
1700499450765625,-10.77192,-1.904393,1.627016,1.487971,0.292474,0.3779
1700499450773437,-10.54192,-1.811393,1.666016,1.468171,0.269774,0.15379
1700499450781250,-10.5192,-1.743393,1.661016,1.444071,0.265874,0.32979
1700499450789062,-9.990192,-1.676393,1.672016,1.421271,0.261474,0.37979
1700499450796875,-9.943192,-1.664393,1.702016,1.392571,0.257074,0.44779
1700499450804687,-9.870192,-1.656393,1.731016,1.375671,0.250974,0.46379
1700499450812500,-9.921192,-1.622393,1.706016,1.365371,0.266574,0.58979
1700499450820312,-10.30192,-1.524393,1.713016,1.351771,0.278874,0.61779
1700499450828125,-10.84192,-1.424393,1.781016,1.342771,0.279074,0.66779
1700499450835937,-9.998192,-1.403393,1.844016,1.316771,0.271374,0.68579
1700499450843750,-9.957192,-1.400393,1.809016,1.305971,0.261874,0.70079
1700499450851562,-9.953192,-1.364393,1.795016,1.293771,0.278974,0.66579
1700499450859375,-9.833192,-1.368393,1.806016,1.270571,0.285274,0.46179
1700499450867187,-9.698192,-1.456393,1.790016,1.257071,0.295274,0.44779
1700499450875000,-9.750192,-1.494393,1.725016,1.255371,0.313874,0.36279
1700499450882812,-9.889192,-1.437393,1.710016,1.256971,0.335274,0.29579
1700499450890625,-9.955192,-1.434393,1.729016,1.246371,0.345374,0.26379
1700499450898437,-9.818192,-1.520393,1.706016,1.232571,0.348874,0.21679
1700499450906250,-9.629192,-1.574393,1.617016,1.243171,0.340174,0.20279
1700499450914062,-9.706192,-1.568393,1.470016,1.246171,0.347074,0.19879
1700499450921875,-9.936192,-1.465393,1.417016,1.255771,0.395674,0.25179
1700499450929687,-9.997192,-1.405393,1.474016,1.246671,0.406774,0.35679
1700499450937500,-9.876192,-1.408393,1.417016,1.236371,0.391874,0.49079
1700499450945312,-9.863192,-1.358393,1.244016,1.249971,0.366874,0.57179
1700499450953125,-9.978192,-1.239393,1.118016,1.259471,0.385374,0.66379
1700499450960937,-10.78192,-1.172393,1.122016,1.237071,0.411974,0.86279
1700499450968750,-10.132192,-1.180393,1.88016,1.227871,0.412474,0.90979
1700499450976562,-10.146192,-1.184393,0.970016,1.217271,0.391074,0.99379
1700499450984375,-10.164192,-1.202393,0.808016,1.231171,0.387574,0.107379
1700499450992187,-10.200192,-1.170393,0.737016,1.232871,0.396474,0.118179
1700499451000000,-10.260192,-1.100393,0.726016,1.245371,0.403374,0.130579
1700499451007812,-10.277192,-1.21393,0.669016,1.242071,0.381774,0.130879
1700499451015625,-10.307192,0.979393,0.550016,1.234471,0.346574,0.134979
1700499451023437,-10.372192,0.863393,0.477016,1.237371,0.350074,0.134679
1700499451031250,-10.442192,0.767393,0.456016,1.229771,0.349774,0.128679
1700499451039062,-10.360192,0.763393,0.454016,1.214271,0.344974,0.120779
1700499451046875,-10.247192,0.788393,0.395016,1.200371,0.312674,0.113979
1700499451054687,-10.102192,0.803393,0.349016,1.198771,0.302574,0.112779
1700499451062500,-9.948192,0.789393,0.313016,1.181971,0.297774,0.111379
1700499451070312,-9.866192,0.786393,0.274016,1.186571,0.306174,0.112679
1700499451078125,-9.759192,0.805393,0.256016,1.174371,0.304974,0.114279
1700499451085937,-9.630192,0.844393,0.222016,1.174571,0.300474,0.126879
1700499451093750,-9.498192,0.872393,0.179016,1.174571,0.292374,0.133279
1700499451101562,-9.398192,0.898393,0.143016,1.167071,0.287474,0.136779
1700499451109375,-9.413192,0.940393,0.72016,1.180671,0.292174,0.131679
1700499451117187,-9.517192,0.972393,0.0,1.183871,0.292074,0.136579
1700499451125000,-9.676192,0.970393,0.36984,1.194271,0.300074,0.125079
1700499451132812,-9.869192,0.934393,0.86984,1.207571,0.285574,0.106479
1700499451140625,-10.101192,0.869393,0.121984,1.222771,0.279574,0.95679
1700499451148437,-10.431192,0.755393,0.162984,1.235871,0.261674,0.72279
1700499451156250,-10.726192,0.680393,0.140984,1.237071,0.254374,0.56579
1700499451164062,-10.859192,0.714393,0.119984,1.220071,0.242274,0.44479
1700499451171875,-10.856192,0.785393,0.96984,1.223971,0.204174,0.15379
1700499451179687,-10.841192,0.847393,0.125984,1.214171,0.191674,0.11221
1700499451187500,-10.887192,0.849393,0.137984,1.215171,0.187174,0.42721
1700499451195312,-11.13192,0.867393,0.98984,1.190371,0.193574,0.64721
1700499451203125,-11.119192,0.947393,0.80984,1.179571,0.188074,0.76921
1700499451210937,-11.135192,-1.106393,0.57984,1.163971,0.187874,0.94321
1700499451218750,-11.71192,-1.295393,0.88984,1.142471,0.172674,0.101521
1700499451226562,-10.950192,-1.433393,0.93984,1.139271,0.162174,0.110521
1700499451234375,-10.830192,-1.505393,0.62984,1.129871,0.162474,0.118721
1700499451242187,-10.787192,-1.560393,0.35984,1.133071,0.163774,0.116921
1700499451250000,-10.767192,-1.556393,0.11016,1.149771,0.168374,0.121921
1700499451257812,-10.547192,-1.575393,0.82016,1.128671,0.167474,0.110621
1700499451265625,-10.102192,-1.640393,0.119016,1.119671,0.153274,0.93021
1700499451273437,-9.702192,-1.631393,0.110016,1.127771,0.145474,0.67521
1700499451281250,-9.471192,-1.602393,0.99016,1.120371,0.159874,0.52221
1700499451289062,-9.375192,-1.652393,0.67016,1.105771,0.203174,0.29421
1700499451296875,-9.390192,-1.718393,0.40016,1.107571,0.223974,0.15921
1700499451304687,-9.430192,-1.717393,0.15016,1.130671,0.239174,0.5521
1700499451312500,-9.430192,-1.744393,0.16984,1.154971,0.254674,0.23121
1700499451320312,-9.447192,-1.810393,0.114984,1.162371,0.264374,0.34521
1700499451328125,-9.490192,-1.862393,0.169984,1.189871,0.280074,0.41121
1700499451335937,-9.617192,-1.826393,0.198984,1.223171,0.297474,0.56121
1700499451343750,-9.701192,-1.812393,0.196984,1.253671,0.316374,0.67521
1700499451351562,-9.712192,-1.863393,0.230984,1.276471,0.307474,0.69121
1700499451359375,-9.761192,-1.880393,0.280984,1.297571,0.294874,0.78421
1700499451367187,-9.814192,-1.860393,0.317984,1.326471,0.296874,0.91021
1700499451375000,-9.815192,-1.901393,0.333984,1.336971,0.295174,0.94421
1700499451382812,-9.726192,-2.5393,0.357984,1.358271,0.307774,0.101021
1700499451390625,-9.712192,-2.82393,0.419984,1.380971,0.296774,0.108721
1700499451398437,-9.767192,-2.118393,0.455984,1.402271,0.311474,0.114021
1700499451406250,-9.808192,-2.171393,0.473984,1.420571,0.307674,0.114121
1700499451414062,-9.818192,-2.230393,0.460984,1.460271,0.299974,0.112421
1700499451421875,-9.738192,-2.306393,0.466984,1.475371,0.286274,0.113921
1700499451429687,-9.706192,-2.351393,0.507984,1.507171,0.279874,0.128021
1700499451437500,-9.705192,-2.416393,0.519984,1.522171,0.283874,0.143921
1700499451445312,-9.695192,-2.507393,0.491984,1.543271,0.284974,0.155321
1700499451453125,-9.664192,-2.605393,0.479984,1.584171,0.280374,0.166621
1700499451460937,-9.586192,-2.678393,0.452984,1.612971,0.275974,0.174421
1700499451468750,-9.451192,-2.753393,0.420984,1.640271,0.264974,0.182221
1700499451476562,-9.712192,-2.709393,0.527984,1.681471,0.282774,0.183021
1700499451484375,-10.174192,-2.552393,0.468984,1.722871,0.334074,0.182821
1700499451492187,-9.984192,-2.688393,0.317984,1.719871,0.337474,0.184521
1700499451500000,-9.642192,-2.821393,0.362984,1.751871,0.300474,0.169821
1700499451507812,-9.734192,-2.620393,0.479984,1.808771,0.309874,0.149821
1700499451515625,-9.885192,-2.462393,0.436984,1.822971,0.357274,0.135121
1700499451523437,-9.920192,-2.564393,0.340984,1.812871,0.377274,0.107321
1700499451531250,-9.976192,-2.590393,0.301984,1.843771,0.374274,0.82321
1700499451539062,-10.24192,-2.405393,0.304984,1.885171,0.363574,0.69521
1700499451546875,-10.63192,-2.195393,0.257984,1.890171,0.376174,0.46321
1700499451554687,-10.194192,-2.64393,0.266984,1.893871,0.400874,0.15321
1700499451562500,-10.247192,-1.996393,0.180984,1.902171,0.407274,0.25379
1700499451570312,-10.636192,-1.867393,0.292984,1.916371,0.432374,0.37579
1700499451578125,-11.66192,-1.556393,0.352984,1.959171,0.454874,0.35379
1700499451585937,-11.232192,-1.356393,0.269984,1.954771,0.475274,0.36479
1700499451593750,-11.128192,-1.296393,0.339984,1.954571,0.458574,0.35079
1700499451601562,-11.85192,-1.80393,0.394984,1.974471,0.437274,0.54079
1700499451609375,-11.111192,0.742393,0.370984,1.973371,0.422674,0.75079
1700499451617187,-11.125192,0.515393,0.234984,1.932571,0.406074,0.104179
1700499451625000,-11.22192,0.407393,0.86984,1.877971,0.358274,0.140079
1700499451632812,-10.768192,0.410393,0.20016,1.833971,0.286674,0.179679
1700499451640625,-10.495192,0.484393,0.62016,1.792971,0.226774,0.212479
1700499451648437,-10.341192,0.532393,0.135016,1.770671,0.201574,0.251179
1700499451656250,-10.291192,0.540393,0.299016,1.752571,0.177674,0.273779
1700499451664062,-10.186192,0.602393,0.438016,1.737271,0.150974,0.274579
1700499451671875,-10.77192,0.732393,0.477016,1.726371,0.127874,0.273379
1700499451679687,-10.106192,0.771393,0.470016,1.751771,0.121274,0.248079
1700499451687500,-10.202192,0.729393,0.531016,1.780171,0.125574,0.207079
1700499451695312,-10.156192,0.740393,0.643016,1.788671,0.142674,0.168679
1700499451703125,-10.58192,0.830393,0.669016,1.792671,0.139674,0.133979
1700499451710937,-9.925192,0.899393,0.678016,1.791971,0.123274,0.101279
1700499451718750,-9.832192,0.924393,0.683016,1.791271,0.128874,0.64779
1700499451726562,-9.873192,0.938393,0.707016,1.795671,0.139274,0.42879
1700499451734375,-9.920192,0.973393,0.776016,1.782971,0.138174,0.8379
1700499451742187,-9.916192,-1.55393,0.815016,1.755071,0.131574,0.10521
1700499451750000,-9.880192,-1.200393,0.793016,1.728671,0.131174,0.35521
1700499451757812,-9.893192,-1.348393,0.749016,1.715071,0.139574,0.38521
1700499451765625,-9.969192,-1.439393,0.724016,1.714871,0.153774,0.59121
1700499451773437,-10.44192,-1.528393,0.713016,1.696371,0.155674,0.67021
1700499451781250,-10.85192,-1.550393,0.688016,1.688771,0.154374,0.62321
1700499451789062,-10.59192,-1.588393,0.627016,1.676871,0.156974,0.46521
1700499451796875,-10.16192,-1.644393,0.543016,1.655871,0.152974,0.28921
1700499451804687,-10.21192,-1.683393,0.484016,1.642671,0.163274,0.5279
1700499451812500,-10.97192,-1.658393,0.434016,1.644871,0.167874,0.43079
1700499451820312,-10.172192,-1.604393,0.388016,1.632071,0.166474,0.90579
1700499451828125,-10.225192,-1.577393,0.342016,1.612971,0.170274,0.136279
1700499451835937,-10.277192,-1.553393,0.299016,1.596771,0.150674,0.180679
1700499451843750,-10.344192,-1.449393,0.267016,1.602071,0.139074,0.229679
1700499451851562,-10.373192,-1.300393,0.291016,1.584271,0.120474,0.263379
1700499451859375,-10.405192,-1.143393,0.298016,1.573971,0.86574,0.295579
1700499451867187,-10.402192,-1.23393,0.339016,1.560471,0.69274,0.318079
1700499451875000,-10.349192,0.920393,0.393016,1.536371,0.46474,0.333179
1700499451882812,-10.312192,0.784393,0.443016,1.514871,0.39074,0.336279
1700499451890625,-10.277192,0.659393,0.493016,1.496471,0.19474,0.341379
1700499451898437,-10.243192,0.520393,0.568016,1.478371,0.16274,0.341879
1700499451906250,-10.229192,0.375393,0.640016,1.475071,0.7874,0.338779
1700499451914062,-10.169192,0.274393,0.708016,1.447471,0.1826,0.332879
1700499451921875,-10.98192,0.195393,0.733016,1.425971,0.10226,0.322279
1700499451929687,-10.74192,0.117393,0.779016,1.412271,0.9926,0.322279
1700499451937500,-10.95192,0.50393,0.822016,1.401771,0.2374,0.328379
1700499451945312,-10.109192,0.3393,0.894016,1.389671,0.4174,0.330179
1700499451953125,-10.46192,0.29607,0.952016,1.361871,0.3626,0.323879
1700499451960937,-9.990192,0.50607,0.958016,1.343571,0.16926,0.322979
1700499451968750,-9.990192,0.63607,0.972016,1.338871,0.13926,0.311979
1700499451976562,-9.956192,0.69607,1.49016,1.325071,0.12226,0.304179
1700499451984375,-9.947192,0.87607,1.136016,1.311171,0.7426,0.291579
1700499451992187,-10.34192,0.156607,1.183016,1.314171,0.4426,0.285279
1700499452000000,-10.119192,0.220607,1.261016,1.300071,0.11226,0.272779
1700499452007812,-10.35192,0.201607,1.336016,1.277171,0.10926,0.266579
1700499452015625,-9.886192,0.73607,1.345016,1.261771,0.28126,0.257979
1700499452023437,-9.769192,0.15607,1.355016,1.275271,0.31426,0.254279
1700499452031250,-9.689192,0.90607,1.405016,1.279971,0.11326,0.255479
1700499452039062,-9.648192,0.120607,1.432016,1.257171,0.774,0.253879
1700499452046875,-9.648192,0.109607,1.450016,1.258771,0.14274,0.255179
1700499452054687,-9.667192,0.140607,1.461016,1.257371,0.32674,0.253179
1700499452062500,-9.662192,0.268607,1.466016,1.261771,0.32474,0.248379
1700499452070312,-9.617192,0.347607,1.468016,1.245271,0.56674,0.255879
1700499452078125,-9.545192,0.338607,1.441016,1.216571,0.67874,0.265179
1700499452085937,-9.470192,0.301607,1.400016,1.193871,0.76674,0.266879
1700499452093750,-9.534192,0.357607,1.365016,1.184971,0.94174,0.277479
1700499452101562,-9.723192,0.469607,1.356016,1.174571,0.103274,0.293179
1700499452109375,-9.874192,0.533607,1.394016,1.142871,0.107774,0.307579
1700499452117187,-9.987192,0.521607,1.381016,1.120071,0.101574,0.309479
1700499452125000,-10.89192,0.516607,1.326016,1.100071,0.84974,0.303679
1700499452132812,-10.205192,0.598607,1.308016,1.87671,0.86874,0.298779
1700499452140625,-10.349192,0.675607,1.348016,1.84371,0.99474,0.274979
1700499452148437,-10.471192,0.646607,1.396016,1.53571,0.84474,0.262979
1700499452156250,-10.579192,0.594607,1.383016,1.34871,0.70874,0.245979
1700499452164062,-10.632192,0.534607,1.399016,1.23771,0.58374,0.222779
1700499452171875,-10.618192,0.480607,1.410016,1.6571,0.54274,0.199479
1700499452179687,-10.616192,0.458607,1.444016,0.998571,0.45374,0.179179
1700499452187500,-10.720192,0.496607,1.476016,0.992071,0.40274,0.166479
1700499452195312,-10.720192,0.529607,1.547016,0.981271,0.26674,0.160579
1700499452203125,-10.576192,0.519607,1.624016,0.958271,0.16374,0.148679
1700499452210937,-10.401192,0.489607,1.640016,0.938171,0.1574,0.142579
1700499452218750,-10.253192,0.476607,1.629016,0.915271,0.5574,0.144179
1700499452226562,-10.189192,0.466607,1.620016,0.895471,0.14374,0.142479
1700499452234375,-10.194192,0.475607,1.638016,0.887971,0.34774,0.142079
1700499452242187,-10.300192,0.484607,1.609016,0.875871,0.58674,0.143079
1700499452250000,-10.398192,0.469607,1.579016,0.853171,0.67274,0.141779
1700499452257812,-10.437192,0.467607,1.547016,0.845671,0.75874,0.143279
1700499452265625,-10.434192,0.420607,1.499016,0.828671,0.82474,0.130579
1700499452273437,-10.405192,0.333607,1.399016,0.816271,0.82374,0.119579
1700499452281250,-10.374192,0.314607,1.315016,0.820871,0.88474,0.113479
1700499452289062,-10.381192,0.332607,1.246016,0.828371,0.99574,0.98879
1700499452296875,-10.397192,0.369607,1.190016,0.824971,0.104574,0.85979
1700499452304687,-10.433192,0.397607,1.121016,0.820371,0.97874,0.84579
1700499452312500,-10.436192,0.426607,1.46016,0.817171,0.102574,0.76679
1700499452320312,-10.350192,0.433607,1.7016,0.805071,0.104374,0.75179
1700499452328125,-10.158192,0.404607,0.943016,0.789671,0.89274,0.71079
1700499452335937,-9.963192,0.383607,0.834016,0.780671,0.84674,0.79179
1700499452343750,-9.821192,0.368607,0.730016,0.774771,0.94474,0.98979
1700499452351562,-9.722192,0.357607,0.671016,0.758071,0.101474,0.100679
1700499452359375,-9.613192,0.354607,0.621016,0.755371,0.98874,0.119579
1700499452367187,-9.522192,0.371607,0.553016,0.749371,0.94574,0.130479
1700499452375000,-9.428192,0.405607,0.468016,0.743571,0.91574,0.143479
1700499452382812,-9.338192,0.419607,0.382016,0.730171,0.90874,0.162479
1700499452390625,-9.302192,0.448607,0.272016,0.721171,0.86374,0.172079
1700499452398437,-9.373192,0.503607,0.154016,0.732171,0.96774,0.185979
1700499452406250,-9.525192,0.577607,0.44016,0.732471,0.121274,0.202579
1700499452414062,-9.767192,0.601607,0.110984,0.740371,0.127574,0.209079
1700499452421875,-10.45192,0.625607,0.272984,0.749371,0.144274,0.200479
1700499452429687,-10.322192,0.695607,0.413984,0.776671,0.156474,0.184379
1700499452437500,-10.543192,0.745607,0.541984,0.793171,0.167074,0.165179
1700499452445312,-10.710192,0.754607,0.682984,0.808071,0.164574,0.147679
1700499452453125,-10.883192,0.743607,0.819984,0.825871,0.167974,0.117679
1700499452460937,-11.101192,0.764607,0.919984,0.843671,0.174474,0.81279
1700499452468750,-11.343192,0.810607,0.953984,0.865671,0.169274,0.40179
1700499452476562,-11.477192,0.821607,0.949984,0.866571,0.159274,0.1079
1700499452484375,-11.481192,0.785607,0.963984,0.862471,0.127174,0.46921
1700499452492187,-11.428192,0.700607,0.980984,0.861571,0.107374,0.87621
1700499452500000,-11.336192,0.596607,0.987984,0.862471,0.85374,0.126321
1700499452507812,-11.233192,0.494607,0.946984,0.860471,0.76074,0.151321
1700499452515625,-11.50192,0.349607,0.918984,0.855271,0.64974,0.181021
1700499452523437,-10.824192,0.211607,0.907984,0.841271,0.49174,0.197621
1700499452531250,-10.602192,0.75607,0.899984,0.842771,0.47574,0.197721
1700499452539062,-10.461192,0.6393,0.892984,0.855171,0.49674,0.183821
1700499452546875,-10.383192,0.33393,0.858984,0.860271,0.59174,0.155721
1700499452554687,-10.211192,0.79393,0.815984,0.871571,0.59774,0.125621
1700499452562500,-9.963192,0.145393,0.806984,0.887471,0.57574,0.84721
1700499452570312,-9.750192,0.140393,0.805984,0.912371,0.56874,0.50421
1700499452578125,-9.640192,0.86393,0.814984,0.929771,0.61374,0.12821
1700499452585937,-9.620192,0.64393,0.810984,0.944171,0.75774,0.19779
1700499452593750,-9.638192,0.52393,0.812984,0.976671,0.84674,0.45979
1700499452601562,-9.684192,0.16393,0.828984,1.5771,0.85974,0.53679
1700499452609375,-9.673192,0.27607,0.817984,1.34871,0.75574,0.63279
1700499452617187,-9.659192,0.16607,0.837984,1.74271,0.66074,0.56879
1700499452625000,-9.751192,0.51393,0.883984,1.102971,0.64374,0.33279
1700499452632812,-9.857192,0.119393,0.883984,1.155971,0.87574,0.8779
1700499452640625,-9.922192,0.111393,0.832984,1.208671,0.78774,0.23121
1700499452648437,-9.879192,0.116393,0.812984,1.267571,0.62674,0.54521
1700499452656250,-9.824192,0.197393,0.844984,1.312971,0.54074,0.74921
1700499452664062,-9.821192,0.249393,0.837984,1.365771,0.51774,0.105121
1700499452671875,-9.795192,0.345393,0.823984,1.405071,0.71974,0.132721
1700499452679687,-9.793192,0.476393,0.839984,1.454871,0.73374,0.156821
1700499452687500,-9.856192,0.569393,0.909984,1.510871,0.87674,0.190521
1700499452695312,-9.927192,0.663393,0.966984,1.569771,0.110474,0.224521
1700499452703125,-10.36192,0.802393,-1.50984,1.629071,0.131874,0.245721
1700499452710937,-10.89192,0.901393,-1.106984,1.688271,0.146874,0.263921
1700499452718750,-10.152192,0.958393,-1.197984,1.752271,0.150374,0.269121
1700499452726562,-10.271192,0.965393,-1.286984,1.807071,0.151074,0.269721
1700499452734375,-10.371192,0.995393,-1.350984,1.860571,0.161774,0.265421
1700499452742187,-10.404192,-1.41393,-1.409984,1.905071,0.154874,0.245121
1700499452750000,-10.475192,-1.31393,-1.493984,1.955671,0.147574,0.229521
1700499452757812,-10.529192,0.986393,-1.537984,1.997071,0.135874,0.207521
1700499452765625,-10.496192,0.957393,-1.539984,2.32471,0.134174,0.188821
1700499452773437,-10.465192,0.934393,-1.519984,2.52671,0.112474,0.166221
1700499452781250,-10.408192,0.894393,-1.516984,2.80271,0.92774,0.145721
1700499452789062,-10.398192,0.845393,-1.510984,2.83271,0.86074,0.142521
1700499452796875,-10.442192,0.773393,-1.462984,2.106471,0.86074,0.126821
1700499452804687,-10.411192,0.707393,-1.387984,2.109371,0.70574,0.131121
1700499452812500,-10.248192,0.669393,-1.332984,2.106471,0.56374,0.115221
1700499452820312,-10.140192,0.628393,-1.319984,2.105071,0.46474,0.107121
1700499452828125,-10.98192,0.542393,-1.255984,2.114271,0.64874,0.105921
1700499452835937,-9.972192,0.502393,-1.135984,2.105371,0.55374,0.93021
1700499452843750,-9.823192,0.495393,-1.91984,2.94771,0.45674,0.87921
1700499452851562,-9.692192,0.387393,-1.53984,2.85671,0.51374,0.81921
1700499452859375,-9.738192,0.202393,0.994984,2.86071,0.68474,0.67921
1700499452867187,-9.978192,0.43393,0.924984,2.72471,0.95674,0.66821
1700499452875000,-10.270192,0.98607,0.849984,2.60571,0.126574,0.61221
1700499452882812,-10.487192,0.235607,0.795984,2.43971,0.144974,0.65921
1700499452890625,-10.590192,0.308607,0.763984,2.28771,0.147174,0.61221
1700499452898437,-10.619192,0.337607,0.804984,2.14971,0.153074,0.60121
1700499452906250,-10.587192,0.363607,0.781984,2.171,0.172574,0.41521
1700499452914062,-10.577192,0.392607,0.752984,1.988371,0.167674,0.28221
1700499452921875,-10.587192,0.454607,0.738984,1.983671,0.163374,0.22121
1700499452929687,-10.592192,0.529607,0.684984,1.968871,0.152774,0.1879
1700499452937500,-10.516192,0.613607,0.584984,1.952171,0.130074,0.16679
1700499452945312,-10.414192,0.616607,0.543984,1.923271,0.107874,0.32879
1700499452953125,-10.419192,0.629607,0.525984,1.904971,0.89874,0.38179
1700499452960937,-10.435192,0.641607,0.440984,1.888471,0.77774,0.58879
1700499452968750,-10.497192,0.665607,0.336984,1.881071,0.62874,0.68979
1700499452976562,-10.551192,0.686607,0.249984,1.865871,0.33474,0.85479
1700499452984375,-10.609192,0.719607,0.181984,1.855071,0.1674,0.87979
1700499452992187,-10.611192,0.738607,0.81984,1.838371,0.10626,0.100679
1700499453000000,-10.567192,0.693607,0.14016,1.827371,0.36026,0.90279
1700499453007812,-10.517192,0.649607,0.93016,1.810171,0.55126,0.68879
1700499453015625,-10.496192,0.613607,0.150016,1.815771,0.74626,0.45579
1700499453023437,-10.496192,0.579607,0.241016,1.795571,0.83626,0.24079
1700499453031250,-10.508192,0.506607,0.338016,1.790171,0.87926,0.13921
1700499453039062,-10.493192,0.409607,0.433016,1.775871,0.101026,0.49621
1700499453046875,-10.422192,0.326607,0.527016,1.763071,0.123926,0.80421
1700499453054687,-10.346192,0.283607,0.616016,1.754571,0.140326,0.121121
1700499453062500,-10.262192,0.234607,0.716016,1.720471,0.151026,0.153621
1700499453070312,-10.173192,0.166607,0.807016,1.691071,0.149826,0.181821
1700499453078125,-10.79192,0.89607,0.908016,1.660171,0.153426,0.205121
1700499453085937,-9.946192,0.31607,1.6016,1.630871,0.141626,0.224121
1700499453093750,-9.839192,0.52393,1.36016,1.582071,0.114326,0.236921
1700499453101562,-9.790192,0.175393,1.68016,1.539571,0.89826,0.235521
1700499453109375,-9.748192,0.288393,1.68016,1.497171,0.50226,0.232921
1700499453117187,-9.743192,0.353393,1.72016,1.470371,0.13726,0.212821
1700499453125000,-9.760192,0.402393,1.52016,1.433171,0.20474,0.175521
1700499453132812,-9.823192,0.414393,0.956016,1.392771,0.38074,0.134721
1700499453140625,-9.891192,0.440393,0.879016,1.344671,0.57374,0.97021
1700499453148437,-9.968192,0.475393,0.806016,1.309071,0.71574,0.51321
1700499453156250,-10.29192,0.498393,0.726016,1.285371,0.77174,0.7321
1700499453164062,-10.54192,0.452393,0.642016,1.263271,0.79574,0.38379
1700499453171875,-10.95192,0.406393,0.531016,1.239171,0.79474,0.61979
1700499453179687,-10.136192,0.368393,0.437016,1.212471,0.83174,0.99879
1700499453187500,-10.123192,0.334393,0.394016,1.205171,0.87674,0.123379
1700499453195312,-10.97192,0.263393,0.323016,1.188771,0.90374,0.142279
1700499453203125,-10.130192,0.131393,0.273016,1.182771,0.77474,0.153679
1700499453210937,-10.173192,0.39607,0.248016,1.178271,0.76574,0.164479
1700499453218750,-10.214192,0.167607,0.263016,1.158671,0.66674,0.169879
1700499453226562,-10.310192,0.269607,0.256016,1.129771,0.65874,0.174779
1700499453234375,-10.395192,0.371607,0.274016,1.111271,0.57774,0.170279
1700499453242187,-10.426192,0.446607,0.301016,1.86871,0.46374,0.170879
1700499453250000,-10.436192,0.518607,0.328016,1.68271,0.29374,0.155579
1700499453257812,-10.455192,0.571607,0.351016,1.45271,0.21074,0.151379
1700499453265625,-10.414192,0.567607,0.387016,1.6871,0.1874,0.146979
1700499453273437,-10.370192,0.528607,0.404016,0.976371,0.4326,0.145779
1700499453281250,-10.363192,0.508607,0.399016,0.956471,0.9026,0.142779
1700499453289062,-10.390192,0.507607,0.427016,0.944171,0.6926,0.142679
1700499453296875,-10.400192,0.508607,0.456016,0.915271,0.11926,0.137079
1700499453304687,-10.399192,0.497607,0.481016,0.889171,0.11526,0.130779
1700499453312500,-10.422192,0.496607,0.486016,0.872171,0.29626,0.126479
1700499453320312,-10.408192,0.459607,0.510016,0.846271,0.32926,0.120579
1700499453328125,-10.316192,0.385607,0.540016,0.827671,0.36226,0.109579
1700499453335937,-10.238192,0.333607,0.568016,0.815271,0.44426,0.105079
1700499453343750,-10.176192,0.276607,0.570016,0.799971,0.37726,0.97279
1700499453351562,-10.192192,0.258607,0.605016,0.781371,0.51326,0.85079
1700499453359375,-10.233192,0.261607,0.666016,0.758471,0.44426,0.75579
1700499453367187,-10.230192,0.248607,0.730016,0.742971,0.62626,0.71279
1700499453375000,-10.241192,0.220607,0.755016,0.727671,0.71026,0.70179
1700499453382812,-10.311192,0.217607,0.785016,0.698671,0.63726,0.65379
1700499453390625,-10.388192,0.180607,0.842016,0.687771,0.67126,0.55979
1700499453398437,-10.478192,0.143607,0.887016,0.667971,0.63726,0.51479
1700499453406250,-10.570192,0.114607,0.915016,0.652571,0.69926,0.48279
1700499453414062,-10.593192,0.59607,0.917016,0.634271,0.81826,0.45879
1700499453421875,-10.531192,0.12393,0.919016,0.623671,0.79826,0.47479
1700499453429687,-10.414192,0.107393,0.921016,0.614571,0.78226,0.46079
1700499453437500,-10.270192,0.193393,0.895016,0.611471,0.67726,0.47279
1700499453445312,-10.199192,0.246393,0.865016,0.610071,0.61126,0.48879
1700499453453125,-10.253192,0.251393,0.856016,0.610071,0.55726,0.51779
1700499453460937,-10.248192,0.269393,0.888016,0.600871,0.43726,0.46579
1700499453468750,-10.216192,0.326393,0.865016,0.593371,0.43926,0.46979
1700499453476562,-10.263192,0.359393,0.817016,0.603971,0.52626,0.45579
1700499453484375,-10.279192,0.357393,0.820016,0.596171,0.55526,0.43779
1700499453492187,-10.295192,0.357393,0.850016,0.596171,0.52226,0.43679
1700499453500000,-10.292192,0.366393,0.843016,0.600671,0.72726,0.42679
1700499453507812,-10.266192,0.345393,0.827016,0.594471,0.87826,0.41479
1700499453515625,-10.204192,0.343393,0.822016,0.582371,0.90626,0.46279
1700499453523437,-10.196192,0.337393,0.806016,0.573371,0.85526,0.49579
1700499453531250,-10.180192,0.310393,0.813016,0.576571,0.91226,0.69879
1700499453539062,-10.169192,0.303393,0.800016,0.564471,0.89126,0.72979
1700499453546875,-10.153192,0.268393,0.764016,0.546371,0.79326,0.89879
1700499453554687,-10.167192,0.243393,0.738016,0.549871,0.79226,0.105979
1700499453562500,-10.172192,0.220393,0.715016,0.537871,0.77926,0.126279
1700499453570312,-10.145192,0.180393,0.676016,0.521471,0.70526,0.137479
1700499453578125,-10.112192,0.152393,0.633016,0.524671,0.71826,0.151579
1700499453585937,-10.123192,0.134393,0.564016,0.520371,0.68026,0.162779
1700499453593750,-10.156192,0.82393,0.530016,0.515971,0.68926,0.176779
1700499453601562,-10.174192,0.42393,0.519016,0.517671,0.70426,0.184779
1700499453609375,-10.179192,0.18393,0.490016,0.517671,0.69826,0.192279
1700499453617187,-10.182192,0.2393,0.446016,0.525671,0.70326,0.197579
1700499453625000,-10.174192,0.62607,0.421016,0.523971,0.70426,0.191079
1700499453632812,-10.174192,0.103607,0.380016,0.523671,0.69026,0.179879
1700499453640625,-10.177192,0.108607,0.322016,0.523771,0.69626,0.173979
1700499453648437,-10.202192,0.152607,0.304016,0.523571,0.56126,0.167179
1700499453656250,-10.212192,0.188607,0.281016,0.523571,0.51326,0.160779
1700499453664062,-10.261192,0.185607,0.218016,0.523271,0.44926,0.149479
1700499453671875,-10.245192,0.148607,0.190016,0.524871,0.40126,0.146379
1700499453679687,-10.224192,0.65607,0.111016,0.523471,0.38526,0.148079
1700499453687500,-10.287192,0.64607,0.26016,0.531271,0.28126,0.158679
1700499453695312,-10.382192,0.191607,0.12984,0.549771,0.28026,0.169579
1700499453703125,-10.426192,0.246607,0.46984,0.548571,0.24326,0.182279
1700499453710937,-10.485192,0.265607,0.124984,0.559471,0.27126,0.201079
1700499453718750,-10.504192,0.332607,0.149984,0.571971,0.36926,0.217079
1700499453726562,-10.482192,0.411607,0.180984,0.559671,0.37926,0.221579
1700499453734375,-10.489192,0.424607,0.265984,0.573471,0.39826,0.226279
1700499453742187,-10.446192,0.410607,0.299984,0.573571,0.33026,0.226179
1700499453750000,-10.512192,0.448607,0.344984,0.582371,0.30326,0.210179
1700499453757812,-10.631192,0.501607,0.363984,0.594471,0.6626,0.187879
1700499453765625,-10.696192,0.504607,0.354984,0.589771,0.226,0.176779
1700499453773437,-10.697192,0.502607,0.357984,0.589371,0.9526,0.153479
1700499453781250,-10.652192,0.456607,0.374984,0.584471,0.17626,0.148479
1700499453789062,-10.572192,0.365607,0.379984,0.593371,0.11926,0.131179
1700499453796875,-10.567192,0.359607,0.383984,0.597871,0.5626,0.121479
1700499453804687,-10.669192,0.358607,0.369984,0.596271,0.4374,0.116479
1700499453812500,-10.617192,0.312607,0.322984,0.609771,0.4974,0.100779
1700499453820312,-10.381192,0.208607,0.280984,0.621671,0.8426,0.99079
1700499453828125,-10.156192,0.126607,0.307984,0.633971,0.25526,0.102679
1700499453835937,-9.988192,0.44607,0.314984,0.644471,0.15926,0.91279
1700499453843750,-9.942192,0.4393,0.304984,0.668971,0.2926,0.93979
1700499453851562,-9.953192,0.7393,0.270984,0.696371,0.9474,0.84179
1700499453859375,-9.912192,0.41393,0.243984,0.718971,0.1526,0.74879
1700499453867187,-9.812192,0.92393,0.257984,0.740071,0.6026,0.59279
1700499453875000,-9.771192,0.115393,0.291984,0.776571,0.5626,0.49579
1700499453882812,-9.775192,0.110393,0.291984,0.808371,0.10174,0.34779
1700499453890625,-9.721192,0.147393,0.280984,0.823571,0.15874,0.23779
1700499453898437,-9.579192,0.217393,0.290984,0.846071,0.18474,0.9179
1700499453906250,-9.574192,0.234393,0.368984,0.887271,0.29474,0.8479
1700499453914062,-9.722192,0.161393,0.391984,0.914471,0.50274,0.7921
1700499453921875,-9.831192,0.160393,0.375984,0.934371,0.71274,0.14721
1700499453929687,-9.808192,0.227393,0.393984,0.960271,0.70374,0.21021
1700499453937500,-9.782192,0.252393,0.473984,0.989171,0.79874,0.24721
1700499453945312,-9.762192,0.254393,0.548984,1.10471,0.87574,0.31321
1700499453953125,-9.743192,0.301393,0.582984,1.39371,0.95174,0.34821
1700499453960937,-9.817192,0.351393,0.654984,1.71471,0.116574,0.34021
1700499453968750,-9.963192,0.310393,0.705984,1.109671,0.127074,0.38921
1700499453976562,-10.29192,0.301393,0.739984,1.130671,0.119674,0.53421
1700499453984375,-9.973192,0.369393,0.766984,1.167071,0.110174,0.59621
1700499453992187,-9.848192,0.442393,0.816984,1.203571,0.91974,0.68721
1700499454000000,-9.770192,0.508393,0.875984,1.239771,0.92274,0.87921
1700499454007812,-9.760192,0.572393,0.909984,1.285071,0.93874,0.110421
1700499454015625,-9.812192,0.614393,0.895984,1.321371,0.105674,0.132921
1700499454023437,-10.212192,0.511393,0.946984,1.377471,0.108574,0.153721
1700499454031250,-10.665192,0.351393,0.908984,1.416671,0.131974,0.184521
1700499454039062,-10.517192,0.416393,0.791984,1.439271,0.122274,0.200021
1700499454046875,-10.18192,0.589393,0.836984,1.457271,0.68274,0.199121
1700499454054687,-9.965192,0.518393,-1.12984,1.518371,0.65674,0.188521
1700499454062500,-10.126192,0.347393,0.921984,1.543171,0.100774,0.178221
1700499454070312,-10.305192,0.327393,0.782984,1.544971,0.104674,0.164121
1700499454078125,-10.389192,0.305393,0.705984,1.561771,0.74074,0.158721
1700499454085937,-10.304192,0.257393,0.678984,1.581371,0.43374,0.158221
1700499454093750,-10.204192,0.260393,0.685984,1.593471,0.38174,0.159921
1700499454101562,-10.245192,0.206393,0.616984,1.602671,0.54674,0.161921
1700499454109375,-10.373192,0.95393,0.512984,1.638971,0.60374,0.175021
1700499454117187,-10.522192,0.33393,0.446984,1.637471,0.64974,0.181221
1700499454125000,-10.651192,0.10607,0.419984,1.644571,0.62174,0.208121
1700499454132812,-10.752192,0.53607,0.401984,1.664271,0.77774,0.227321
1700499454140625,-10.770192,0.51607,0.353984,1.682571,0.97274,0.234121
1700499454148437,-10.760192,0.42607,0.380984,1.691471,0.103374,0.247021
1700499454156250,-10.808192,0.46607,0.394984,1.711471,0.123474,0.242921
1700499454164062,-10.869192,0.71607,0.371984,1.738871,0.134674,0.246621
1700499454171875,-10.875192,0.112607,0.308984,1.739171,0.126374,0.231921
1700499454179687,-10.793192,0.137607,0.260984,1.748471,0.102174,0.208121
1700499454187500,-10.633192,0.151607,0.215984,1.756471,0.84174,0.183921
1700499454195312,-10.461192,0.167607,0.153984,1.741671,0.58874,0.148621
1700499454203125,-10.353192,0.206607,0.89984,1.740571,0.51774,0.120221
1700499454210937,-10.305192,0.246607,0.23984,1.734971,0.36774,0.79121
1700499454218750,-10.244192,0.213607,0.6016,1.721871,0.24474,0.48621
1700499454226562,-10.171192,0.174607,0.10016,1.722371,0.21074,0.9321
1700499454234375,-10.174192,0.222607,0.28016,1.741471,0.20074,0.28779
1700499454242187,-10.232192,0.335607,0.69016,1.750971,0.21274,0.55079
1700499454250000,-10.256192,0.429607,0.119016,1.767871,0.18074,0.67579
1700499454257812,-10.236192,0.479607,0.157016,1.757471,0.5174,0.82279
1700499454265625,-10.237192,0.547607,0.192016,1.761971,0.6726,0.80879
1700499454273437,-10.320192,0.628607,0.210016,1.760271,0.20326,0.74879
1700499454281250,-10.413192,0.708607,0.292016,1.747471,0.32426,0.52879
1700499454289062,-10.497192,0.748607,0.392016,1.725671,0.43226,0.26679
1700499454296875,-10.545192,0.751607,0.464016,1.703671,0.57526,0.7521
1700499454304687,-10.524192,0.665607,0.535016,1.676971,0.82326,0.49121
1700499454312500,-10.470192,0.542607,0.597016,1.647171,0.99926,0.88021
1700499454320312,-10.375192,0.419607,0.682016,1.617271,0.102826,0.139821
1700499454328125,-10.306192,0.299607,0.766016,1.590671,0.110826,0.183421
1700499454335937,-10.254192,0.154607,0.807016,1.559471,0.116426,0.219421
1700499454343750,-10.230192,0.22607,0.865016,1.536071,0.115526,0.252321
1700499454351562,-10.168192,0.159393,0.938016,1.509671,0.111126,0.280521
1700499454359375,-10.100192,0.372393,0.954016,1.483671,0.111026,0.289721
1700499454367187,-10.75192,0.532393,0.961016,1.469871,0.105726,0.294621
1700499454375000,-10.32192,0.685393,0.998016,1.463971,0.91926,0.286921
1700499454382812,-9.967192,0.837393,1.19016,1.446071,0.89026,0.266421
1700499454390625,-9.914192,0.918393,1.3016,1.445171,0.69526,0.238421
1700499454398437,-9.946192,0.922393,0.992016,1.438271,0.49626,0.205721
1700499454406250,-9.987192,0.886393,0.987016,1.423771,0.25826,0.165321
1700499454414062,-9.978192,0.837393,0.967016,1.404771,0.2026,0.124721
1700499454421875,-9.946192,0.753393,0.932016,1.395071,0.3374,0.72621
1700499454429687,-9.920192,0.626393,0.909016,1.381971,0.11874,0.38221
1700499454437500,-9.930192,0.529393,0.839016,1.347671,0.29774,0.8679
1700499454445312,-10.15192,0.464393,0.788016,1.311771,0.36574,0.38879
1700499454453125,-10.121192,0.381393,0.756016,1.304771,0.46174,0.70379
1700499454460937,-10.231192,0.276393,0.733016,1.274771,0.41374,0.100379
1700499454468750,-10.275192,0.173393,0.721016,1.255171,0.32374,0.119679
1700499454476562,-10.242192,0.109393,0.680016,1.227871,0.19674,0.128079
1700499454484375,-10.286192,0.44393,0.623016,1.200571,0.18974,0.137779
1700499454492187,-10.389192,0.66607,0.621016,1.199171,0.22674,0.142379
1700499454500000,-10.429192,0.151607,0.675016,1.174671,0.14874,0.144179
1700499454507812,-10.470192,0.221607,0.705016,1.151671,0.6526,0.143179
1700499454515625,-10.496192,0.268607,0.723016,1.125671,0.22926,0.142179
1700499454523437,-10.478192,0.290607,0.766016,1.105771,0.41026,0.142779
1700499454531250,-10.456192,0.294607,0.800016,1.91771,0.48026,0.128879
1700499454539062,-10.407192,0.267607,0.830016,1.79371,0.54326,0.125679
1700499454546875,-10.366192,0.232607,0.850016,1.61071,0.49326,0.119579
1700499454554687,-10.345192,0.247607,0.901016,1.60871,0.42326,0.115879
1700499454562500,-10.303192,0.241607,0.955016,1.54871,0.47426,0.116279
1700499454570312,-10.191192,0.219607,0.996016,1.25771,0.45426,0.110079
1700499454578125,-10.62192,0.182607,0.999016,1.11971,0.46926,0.105479
1700499454585937,-10.47192,0.110607,0.969016,1.11871,0.35826,0.89579
1700499454593750,-10.21192,0.66607,0.983016,1.10171,0.14026,0.80979
1700499454601562,-9.983192,0.22607,0.994016,1.11771,0.9426,0.78079
1700499454609375,-10.61192,0.55393,0.917016,1.7071,0.2474,0.72779
1700499454617187,-10.198192,0.30393,0.885016,1.13271,0.6774,0.66779
1700499454625000,-10.193192,0.2393,0.945016,1.11571,0.5274,0.61779
1700499454632812,-10.138192,0.39393,0.935016,1.9971,0.23326,0.64079
1700499454640625,-10.118192,0.37393,0.885016,1.9671,0.28726,0.53179
1700499454648437,-10.121192,0.39607,0.915016,1.11171,0.35126,0.57779
1700499454656250,-10.117192,0.53607,0.967016,1.2171,0.42026,0.59979
1700499454664062,-10.102192,0.109607,1.10016,0.985271,0.48326,0.56979
1700499454671875,-10.105192,0.187607,1.44016,0.971671,0.49426,0.63279
1700499454679687,-10.92192,0.242607,1.67016,0.936571,0.52126,0.63679
1700499454687500,-10.33192,0.253607,1.101016,0.906071,0.56026,0.68379
1700499454695312,-10.94192,0.278607,1.103016,0.883171,0.55626,0.68579
1700499454703125,-10.188192,0.306607,1.105016,0.854371,0.34926,0.68479
1700499454710937,-10.299192,0.305607,1.119016,0.822471,0.36026,0.70379
1700499454718750,-10.387192,0.320607,1.135016,0.799471,0.35426,0.68779
1700499454726562,-10.410192,0.286607,1.142016,0.773571,0.41926,0.64479
1700499454734375,-10.438192,0.200607,1.94016,0.741471,0.39826,0.58479
1700499454742187,-10.437192,0.128607,1.74016,0.719871,0.51626,0.47879
1700499454750000,-10.485192,0.136607,1.90016,0.703071,0.46126,0.46179
1700499454757812,-10.498192,0.147607,1.74016,0.693771,0.56126,0.41679
1700499454765625,-10.403192,0.99607,1.85016,0.675271,0.69626,0.34279
1700499454773437,-10.428192,0.97607,1.44016,0.667671,0.74326,0.37579
1700499454781250,-10.451192,0.144607,1.65016,0.650771,0.71026,0.28279
1700499454789062,-10.373192,0.99607,1.103016,0.624771,0.65626,0.23479
1700499454796875,-10.255192,0.26607,1.76016,0.615471,0.77626,0.12879
1700499454804687,-10.278192,0.26607,1.12016,0.604671,0.76126,0.5079
1700499454812500,-10.246192,0.41607,1.21016,0.591071,0.62226,0.8079
1700499454820312,-10.160192,0.8607,1.28016,0.575871,0.60326,0.8179
1700499454828125,-10.53192,0.8393,0.994016,0.568371,0.46726,0.7979
1700499454835937,-9.998192,0.21393,0.915016,0.551771,0.45826,0.18979
1700499454843750,-9.980192,0.14393,0.858016,0.545871,0.18026,0.30779
1700499454851562,-10.14192,0.3607,0.819016,0.547771,0.7474,0.41279
1700499454859375,-10.30192,0.22607,0.762016,0.535771,0.4774,0.50879
1700499454867187,-10.31192,0.71607,0.719016,0.523671,0.3574,0.58879
1700499454875000,-10.20192,0.93607,0.637016,0.523771,0.2374,0.68279
1700499454882812,-10.2192,0.105607,0.564016,0.525371,0.5874,0.71179
1700499454890625,-10.29192,0.83607,0.505016,0.522371,0.5974,0.72879
1700499454898437,-10.81192,0.94607,0.459016,0.522471,0.7774,0.77679
1700499454906250,-10.158192,0.131607,0.432016,0.534471,0.2374,0.72779
1700499454914062,-10.190192,0.115607,0.418016,0.548071,0.8726,0.62279
1700499454921875,-10.217192,0.63607,0.361016,0.546371,0.5626,0.51079
1700499454929687,-10.335192,0.62607,0.325016,0.564471,0.6326,0.41479
1700499454937500,-10.494192,0.120607,0.336016,0.573371,0.7226,0.24179
1700499454945312,-10.642192,0.188607,0.338016,0.582371,0.7926,0.14779
1700499454953125,-10.754192,0.262607,0.349016,0.589471,0.23726,0.4021
1700499454960937,-10.764192,0.281607,0.358016,0.590771,0.36326,0.17721
1700499454968750,-10.639192,0.282607,0.360016,0.575371,0.52926,0.22021
1700499454976562,-10.454192,0.317607,0.370016,0.569071,0.71426,0.26321
1700499454984375,-10.268192,0.369607,0.379016,0.556971,0.78826,0.12121
1700499454992187,-10.178192,0.421607,0.347016,0.528271,0.76426,0.3921
1700499455000000,-10.120192,0.445607,0.342016,0.514971,0.70026,0.21079
1700499455007812,-10.112192,0.480607,0.335016,0.483471,0.58726,0.41779
1700499455015625,-10.153192,0.525607,0.326016,0.473071,0.57826,0.57579
1700499455023437,-10.168192,0.498607,0.262016,0.445971,0.44826,0.76379
1700499455031250,-10.224192,0.441607,0.186016,0.426171,0.31726,0.85179
1700499455039062,-10.307192,0.397607,0.117016,0.426471,0.3326,0.86279
1700499455046875,-10.418192,0.380607,0.53016,0.425271,0.27074,0.92079
1700499455054687,-10.560192,0.361607,0.16984,0.426771,0.39074,0.93179
1700499455062500,-10.701192,0.346607,0.87984,0.424071,0.55974,0.99479
1700499455070312,-10.769192,0.378607,0.140984,0.431571,0.63974,0.91279
1700499455078125,-10.719192,0.369607,0.153984,0.434771,0.62474,0.97579
1700499455085937,-10.604192,0.336607,0.201984,0.423871,0.60474,0.86779
1700499455093750,-10.585192,0.305607,0.253984,0.426871,0.61974,0.81979
1700499455101562,-10.671192,0.311607,0.260984,0.426771,0.60174,0.77279
1700499455109375,-10.575192,0.240607,0.210984,0.420571,0.65074,0.70879
1700499455117187,-10.240192,0.60607,0.175984,0.403471,0.33374,0.65279
1700499455125000,-9.905192,0.82393,0.236984,0.407871,0.11174,0.59479
1700499455132812,-9.673192,0.157393,0.245984,0.424571,0.10274,0.51679
1700499455140625,-9.622192,0.190393,0.220984,0.426071,0.37274,0.47679
1700499455148437,-9.587192,0.302393,0.142984,0.424571,0.48774,0.42879
1700499455156250,-9.463192,0.456393,0.126984,0.429071,0.44574,0.30579
1700499455164062,-9.314192,0.562393,0.178984,0.445271,0.32274,0.14579
1700499455171875,-9.295192,0.616393,0.237984,0.474471,0.54974,0.12479
1700499455179687,-9.386192,0.653393,0.240984,0.483671,0.81174,0.4079
1700499455187500,-9.450192,0.744393,0.230984,0.500371,0.100574,0.5821
1700499455195312,-9.404192,0.851393,0.255984,0.524671,0.86674,0.5621
1700499455203125,-9.287192,0.957393,0.305984,0.556771,0.97674,0.7621
1700499455210937,-9.317192,-1.27393,0.405984,0.589071,0.109574,0.8979
1700499455218750,-9.480192,-1.18393,0.414984,0.636471,0.125774,0.14479
1700499455226562,-9.544192,-1.22393,0.368984,0.673171,0.129974,0.15879
1700499455234375,-9.539192,-1.49393,0.393984,0.703371,0.104074,0.12979
1700499455242187,-9.595192,-1.61393,0.491984,0.741171,0.91174,0.1879
1700499455250000,-9.967192,-1.2393,0.592984,0.786471,0.112474,0.30321
1700499455257812,-10.658192,0.815393,0.594984,0.836371,0.156974,0.72621
1700499455265625,-10.959192,0.773393,0.459984,0.864971,0.169674,0.107221
1700499455273437,-10.780192,0.907393,0.495984,0.885471,0.127374,0.145821
1700499455281250,-10.935192,0.801393,0.691984,0.940871,0.109574,0.193321
1700499455289062,-11.230192,0.581393,0.691984,0.972371,0.137574,0.233421
1700499455296875,-11.472192,0.484393,0.541984,0.955271,0.155674,0.255821
1700499455304687,-11.519192,0.484393,0.420984,0.957771,0.121374,0.272521
1700499455312500,-11.397192,0.445393,0.405984,0.939171,0.67774,0.274321
1700499455320312,-11.239192,0.423393,0.405984,0.908871,0.37074,0.256021
1700499455328125,-11.108192,0.420393,0.329984,0.881571,0.21774,0.235221
1700499455335937,-10.981192,0.386393,0.177984,0.852971,0.18274,0.213021
1700499455343750,-10.810192,0.351393,0.97984,0.799971,0.19926,0.180221
1700499455351562,-10.616192,0.310393,0.45984,0.752971,0.48526,0.158621
1700499455359375,-10.460192,0.268393,0.11016,0.703171,0.58226,0.129721
1700499455367187,-10.303192,0.269393,0.93016,0.656171,0.66226,0.105721
1700499455375000,-10.149192,0.296393,0.139016,0.610871,0.79126,0.73721
1700499455382812,-10.17192,0.389393,0.130016,0.571671,0.96126,0.50821
1700499455390625,-9.927192,0.489393,0.114016,0.537071,0.94626,0.25321
1700499455398437,-9.886192,0.469393,0.139016,0.523971,0.89226,0.13779
1700499455406250,-9.915192,0.337393,0.214016,0.529071,0.89626,0.46779
1700499455414062,-9.985192,0.153393,0.255016,0.518871,0.86726,0.73579
1700499455421875,-10.99192,0.11607,0.286016,0.505671,0.90426,0.105379
1700499455429687,-10.236192,0.163607,0.327016,0.492371,0.83826,0.133379
1700499455437500,-10.329192,0.320607,0.349016,0.480571,0.81226,0.150779
1700499455445312,-10.330192,0.416607,0.369016,0.459571,0.76626,0.171279
1700499455453125,-10.243192,0.522607,0.385016,0.438471,0.78926,0.185579
1700499455460937,-10.199192,0.616607,0.392016,0.423571,0.76626,0.200079
1700499455468750,-10.208192,0.730607,0.407016,0.397871,0.69026,0.209579
1700499455476562,-10.221192,0.736607,0.444016,0.359571,0.64626,0.207779
1700499455484375,-10.247192,0.679607,0.429016,0.336471,0.65826,0.199879
1700499455492187,-10.254192,0.651607,0.421016,0.322471,0.66626,0.178179
1700499455500000,-10.231192,0.627607,0.424016,0.296271,0.56726,0.159279
1700499455507812,-10.167192,0.545607,0.417016,0.280771,0.50926,0.134379
1700499455515625,-10.104192,0.450607,0.388016,0.269671,0.50826,0.118179
1700499455523437,-10.58192,0.393607,0.345016,0.260271,0.48426,0.94879
1700499455531250,-10.12192,0.411607,0.359016,0.253671,0.28626,0.72079
1700499455539062,-9.938192,0.414607,0.347016,0.251971,0.24126,0.57879
1700499455546875,-9.859192,0.399607,0.349016,0.236871,0.25726,0.58279
1700499455554687,-9.871192,0.464607,0.333016,0.230771,0.20326,0.61179
1700499455562500,-9.988192,0.566607,0.328016,0.231171,0.3474,0.70279
1700499455570312,-10.75192,0.638607,0.378016,0.209871,0.9174,0.74979
1700499455578125,-10.111192,0.625607,0.383016,0.187271,0.8474,0.87779
1700499455585937,-10.147192,0.592607,0.342016,0.175271,0.674,0.100679
1700499455593750,-10.217192,0.604607,0.317016,0.164771,0.3074,0.111679
1700499455601562,-10.317192,0.602607,0.315016,0.141871,0.1226,0.114979
1700499455609375,-10.416192,0.558607,0.317016,0.131171,0.7174,0.110179
1700499455617187,-10.482192,0.554607,0.317016,0.134171,0.4674,0.97879
1700499455625000,-10.508192,0.555607,0.315016,0.126071,0.8726,0.85279
1700499455632812,-10.542192,0.540607,0.301016,0.104471,0.5826,0.64979
1700499455640625,-10.530192,0.482607,0.315016,0.99571,0.13026,0.49379
1700499455648437,-10.461192,0.418607,0.317016,0.91571,0.28626,0.34079
1700499455656250,-10.399192,0.342607,0.313016,0.85271,0.25426,0.22879
1700499455664062,-10.339192,0.286607,0.316016,0.82071,0.33726,0.21379
1700499455671875,-10.319192,0.265607,0.338016,0.83671,0.44126,0.21879
1700499455679687,-10.321192,0.267607,0.384016,0.79071,0.47226,0.23479
1700499455687500,-10.280192,0.257607,0.411016,0.68471,0.50326,0.25179
1700499455695312,-10.220192,0.251607,0.408016,0.68671,0.55326,0.33479
1700499455703125,-10.188192,0.261607,0.420016,0.68671,0.63126,0.42779
1700499455710937,-10.163192,0.261607,0.432016,0.56671,0.59026,0.53779
1700499455718750,-10.140192,0.233607,0.443016,0.59971,0.61826,0.71179
1700499455726562,-10.126192,0.233607,0.429016,0.55771,0.52826,0.85279
1700499455734375,-10.138192,0.246607,0.434016,0.45371,0.50326,0.100979
1700499455742187,-10.146192,0.261607,0.427016,0.54471,0.49926,0.108579
1700499455750000,-10.176192,0.258607,0.418016,0.39671,0.54426,0.124879
1700499455757812,-10.169192,0.256607,0.422016,0.38171,0.50726,0.129379
1700499455765625,-10.172192,0.251607,0.422016,0.47271,0.59626,0.124779
1700499455773437,-10.235192,0.268607,0.418016,0.59471,0.51326,0.126079
1700499455781250,-10.333192,0.280607,0.440016,0.60871,0.61626,0.121579
1700499455789062,-10.370192,0.298607,0.452016,0.59371,0.61926,0.117079
1700499455796875,-10.365192,0.300607,0.474016,0.72971,0.75926,0.112679
1700499455804687,-10.374192,0.299607,0.466016,0.75471,0.83126,0.93479
1700499455812500,-10.386192,0.313607,0.472016,0.78671,0.76926,0.92179
1700499455820312,-10.361192,0.331607,0.515016,0.84471,0.84026,0.81079
1700499455828125,-10.315192,0.326607,0.554016,0.79771,0.95726,0.78179
1700499455835937,-10.259192,0.322607,0.556016,0.75271,0.109326,0.78779
1700499455843750,-10.245192,0.327607,0.563016,0.75071,0.107626,0.75379
1700499455851562,-10.225192,0.325607,0.591016,0.73571,0.104026,0.76779
1700499455859375,-10.207192,0.355607,0.620016,0.58271,0.100226,0.74979
1700499455867187,-10.221192,0.383607,0.643016,0.59571,0.102726,0.59579
1700499455875000,-10.226192,0.409607,0.688016,0.59571,0.99626,0.54779
1700499455882812,-10.212192,0.420607,0.706016,0.38171,0.92626,0.51679
1700499455890625,-10.190192,0.399607,0.699016,0.35171,0.92826,0.47079
1700499455898437,-10.167192,0.417607,0.715016,0.24471,0.79626,0.37479
1700499455906250,-10.174192,0.458607,0.736016,0.11971,0.75626,0.33979
1700499455914062,-10.181192,0.415607,0.738016,0.1529,0.75626,0.35979
1700499455921875,-10.173192,0.362607,0.711016,0.21129,0.69726,0.45379
1700499455929687,-10.157192,0.378607,0.698016,0.15229,0.69726,0.41879
1700499455937500,-10.181192,0.393607,0.697016,0.22529,0.62826,0.51579
1700499455945312,-10.240192,0.395607,0.704016,0.37629,0.63926,0.59679
1700499455953125,-10.266192,0.387607,0.688016,0.37429,0.63326,0.73679
1700499455960937,-10.257192,0.417607,0.689016,0.40529,0.55926,0.79479
1700499455968750,-10.210192,0.450607,0.704016,0.50929,0.58526,0.95379
1700499455976562,-10.157192,0.475607,0.684016,0.62929,0.58426,0.98879
1700499455984375,-10.134192,0.481607,0.642016,0.62629,0.59726,0.110079
1700499455992187,-10.141192,0.500607,0.631016,0.64229,0.52926,0.108279
1700499456000000,-10.144192,0.515607,0.629016,0.70229,0.50926,0.114579
1700499456007812,-10.144192,0.526607,0.615016,0.85429,0.47726,0.106879
1700499456015625,-10.141192,0.536607,0.606016,0.82529,0.49026,0.109679
1700499456023437,-10.131192,0.587607,0.608016,0.84129,0.50926,0.103579
1700499456031250,-10.143192,0.613607,0.601016,0.87129,0.40826,0.103379
1700499456039062,-10.122192,0.623607,0.599016,0.87429,0.42626,0.95279
1700499456046875,-10.83192,0.620607,0.586016,0.84429,0.39626,0.87379
1700499456054687,-10.88192,0.651607,0.565016,0.66129,0.38326,0.87279
1700499456062500,-10.166192,0.697607,0.551016,0.61529,0.18626,0.80579
1700499456070312,-10.217192,0.746607,0.560016,0.63129,0.10526,0.70979
1700499456078125,-10.212192,0.749607,0.576016,0.63529,0.25826,0.61679
1700499456085937,-10.208192,0.795607,0.535016,0.63529,0.34926,0.52779
1700499456093750,-10.207192,0.869607,0.521016,0.63729,0.40126,0.44879
1700499456101562,-10.264192,0.932607,0.519016,0.65629,0.47326,0.30779
1700499456109375,-10.354192,1.13607,0.498016,0.70329,0.47826,0.16779
1700499456117187,-10.410192,1.114607,0.516016,0.87329,0.53026,0.4379
1700499456125000,-10.371192,1.122607,0.552016,0.115229,0.66926,0.18621
1700499456132812,-10.299192,0.997607,0.512016,0.131029,0.84226,0.41821
1700499456140625,-10.268192,0.847607,0.453016,0.149529,0.71026,0.59321
1700499456148437,-10.238192,0.746607,0.444016,0.155629,0.66426,0.68621
1700499456156250,-10.243192,0.671607,0.499016,0.151329,0.59626,0.73921
1700499456164062,-10.299192,0.630607,0.526016,0.155929,0.54426,0.75721
1700499456171875,-10.310192,0.596607,0.556016,0.134429,0.59926,0.72321
1700499456179687,-10.264192,0.542607,0.547016,0.140529,0.51226,0.71021
1700499456187500,-10.241192,0.522607,0.497016,0.118929,0.54426,0.53821
1700499456195312,-10.214192,0.537607,0.527016,0.115729,0.42626,0.49321
1700499456203125,-10.172192,0.443607,0.520016,0.117029,0.33926,0.41521
1700499456210937,-10.117192,0.420607,0.483016,0.99929,0.43626,0.20921
1700499456218750,-10.147192,0.427607,0.456016,0.78229,0.25026,0.7321
1700499456226562,-10.202192,0.352607,0.445016,0.65729,0.9426,0.7879
1700499456234375,-10.249192,0.239607,0.447016,0.51629,0.826,0.25079
1700499456242187,-10.285192,0.262607,0.438016,0.10229,0.2474,0.43479
1700499456250000,-10.312192,0.412607,0.429016,0.25071,0.6126,0.56079
1700499456257812,-10.338192,0.562607,0.404016,0.37471,0.8826,0.76279
1700499456265625,-10.295192,0.656607,0.408016,0.37671,0.2126,0.81179
1700499456273437,-10.263192,0.710607,0.410016,0.37571,0.1926,0.80979
1700499456281250,-10.217192,0.783607,0.403016,0.40571,0.12326,0.78079
1700499456289062,-10.153192,0.918607,0.432016,0.40371,0.6026,0.65379
1700499456296875,-10.161192,1.167607,0.500016,0.35571,0.6874,0.47779
1700499456304687,-10.170192,1.557607,0.656016,0.12471,0.16574,0.28879
1700499456312500,-10.82192,1.910607,0.831016,0.51629,0.20874,0.19879
1700499456320312,-9.859192,2.181607,0.933016,0.150829,0.31274,0.10679
1700499456328125,-9.498192,2.585607,1.96016,0.257729,0.49274,0.9221
1700499456335937,-9.141192,3.33607,1.314016,0.399129,0.114574,0.9721
1700499456343750,-8.806192,3.414607,1.457016,0.589029,0.219774,0.6021
1700499456351562,-8.514192,3.767607,1.586016,0.797229,0.335374,0.5721
1700499456359375,-8.456192,4.56607,1.567016,-1.46529,0.463574,0.5221
1700499456367187,-8.694192,3.842607,1.308016,-1.324629,0.593474,0.9021
1700499456375000,-9.167192,2.828607,0.734016,-1.603329,0.700574,0.14621
1700499456382812,-9.594192,1.639607,0.133016,-1.751029,0.780674,0.29621
1700499456390625,-10.47192,0.787607,0.240984,-1.766229,0.827074,0.50721
1700499456398437,-10.427192,0.219607,0.523984,-1.729929,0.833074,0.59321
1700499456406250,-10.707192,0.200393,0.739984,-1.669029,0.803074,0.57421
1700499456414062,-10.937192,0.431393,0.891984,-1.567229,0.753774,0.58621
1700499456421875,-11.66192,0.485393,0.973984,-1.456229,0.687574,0.56321
1700499456429687,-11.72192,0.536393,0.984984,-1.337729,0.614274,0.57021
1700499456437500,-11.65192,0.721393,-1.75984,-1.240629,0.540074,0.54621
1700499456445312,-11.70192,0.929393,-1.155984,-1.114329,0.479474,0.60021
1700499456453125,-11.57192,-1.15393,-1.97984,0.968729,0.410874,0.67721
1700499456460937,-11.30192,0.977393,-1.41984,0.819529,0.346774,0.68721
1700499456468750,-11.29192,-1.45393,-1.93984,0.690429,0.276774,0.71221
1700499456476562,-10.989192,-1.215393,-1.154984,0.562929,0.216774,0.75621
1700499456484375,-10.912192,-1.181393,-1.86984,0.406029,0.169674,0.70821
1700499456492187,-10.855192,-1.60393,0.989984,0.260029,0.105674,0.74921
1700499456500000,-10.822192,-1.34393,0.982984,0.136729,0.69274,0.78121
1700499456507812,-10.748192,0.932393,0.916984,0.5929,0.26374,0.76621
1700499456515625,-10.668192,0.651393,0.773984,0.111371,0.11326,0.68621
1700499456523437,-10.607192,0.428393,0.694984,0.199671,0.61326,0.54021
1700499456531250,-10.553192,0.398393,0.691984,0.249871,0.94126,0.50521
1700499456539062,-10.497192,0.359393,0.669984,0.324671,0.110726,0.42721
1700499456546875,-10.520192,0.160393,0.578984,0.406971,0.130226,0.28821
1700499456554687,-10.572192,0.15607,0.508984,0.451371,0.157926,0.15721
1700499456562500,-10.517192,0.108607,0.481984,0.484971,0.183126,0.1321
1700499456570312,-10.421192,0.219607,0.460984,0.512571,0.199626,0.19179
1700499456578125,-10.333192,0.316607,0.428984,0.535471,0.214626,0.30179
1700499456585937,-10.341192,0.335607,0.454984,0.557371,0.217926,0.52479
1700499456593750,-10.406192,0.328607,0.463984,0.569671,0.212626,0.63179
1700499456601562,-10.420192,0.339607,0.440984,0.595871,0.221126,0.77379
1700499456609375,-10.412192,0.367607,0.422984,0.618771,0.238226,0.85679
1700499456617187,-10.404192,0.382607,0.440984,0.645871,0.255326,0.80679
1700499456625000,-10.391192,0.388607,0.469984,0.665671,0.265826,0.83979
1700499456632812,-10.428192,0.406607,0.449984,0.688571,0.271526,0.82479
1700499456640625,-10.420192,0.397607,0.426984,0.715871,0.278826,0.79179
1700499456656250,-10.478192,0.611607,0.297984,0.785471,0.301826,0.52779
1700499456664062,-10.484192,0.698607,0.243984,0.786471,0.331126,0.32779
1700499456671875,-10.432192,0.755607,0.202984,0.793771,0.348726,0.17379
1700499456679687,-10.396192,0.712607,0.197984,0.793371,0.363026,0.2721
1700499456687500,-10.405192,0.579607,0.267984,0.791371,0.377026,0.21421
1700499456695312,-10.441192,0.523607,0.270984,0.829371,0.381626,0.27721
1700499456703125,-10.496192,0.624607,0.186984,0.859571,0.409726,0.41421
1700499456710937,-10.515192,0.652607,0.136984,0.880771,0.430726,0.45621
1700499456718750,-10.431192,0.693607,0.106984,0.901671,0.472926,0.46821
1700499456726562,-10.248192,0.876607,0.42984,0.927471,0.495126,0.43421
1700499456734375,-10.107192,0.994607,0.66016,0.927671,0.508026,0.27421
1700499456742187,-9.990192,0.957607,0.114016,0.906871,0.494626,0.679
1700499456750000,-9.915192,0.906607,0.180016,0.927471,0.483526,0.41479
1700499456757812,-10.8192,0.863607,0.232016,0.919071,0.483226,0.87079
1700499456765625,-10.143192,0.800607,0.221016,0.913871,0.464726,0.130879
1700499456773437,-10.36192,0.947607,0.373016,0.940071,0.462926,0.147979
1700499456781250,-9.904192,1.198607,0.518016,0.930971,0.481326,0.150279
