time,Acceleration X (m/s^2),Acceleration Y (m/s^2),Acceleration Z (m/s^2),Angular Velocity X (rad/s),Angular Velocity Y (rad/s),Angular Velocity Z (rad/s)
1698343511695312,-9.824855,1.063802,-0.221154,,,
1698343511703125,-9.820855,1.85802,0.189154,0.18507,0.92347,0.125138
1698343511710937,-9.816855,1.82802,0.205154,0.20007,0.78747,0.123438
1698343511718750,-9.821855,1.109802,0.210154,0.19547,0.77147,0.124938
1698343511726562,-9.832855,1.135802,0.207154,0.18967,0.75347,0.126338
1698343511734375,-9.835855,1.157802,0.208154,0.20337,0.73547,0.123238
1698343511750000,-9.836855,1.195802,0.212154,0.20737,0.65347,0.123238
1698343511757812,-9.854855,1.207802,0.228154,0.20127,0.72247,0.123438
1698343511765625,-9.854855,1.219802,0.233154,0.20177,0.66747,0.124638
1698343511773437,-9.842855,1.239802,0.230154,0.21107,0.71747,0.120038
1698343511796875,-9.857855,1.268802,0.231154,0.21097,0.65347,0.113738
1698343511804687,-9.861855,1.289802,0.235154,0.20967,0.70347,0.112138
1698343511812500,-9.877855,1.266802,0.237154,0.21267,0.67547,0.101238
1698343511820312,-9.859855,1.264802,0.231154,0.21147,0.77847,0.95038
1698343511828125,-9.861855,1.255802,0.237154,0.21287,0.72847,0.93438
1698343511835937,-9.895855,1.284802,0.224154,0.21137,0.74547,0.93438
1698343511843750,-9.864855,1.286802,0.197154,0.21297,0.79747,0.90438
1698343511851562,-9.850855,1.277802,0.215154,0.21427,0.82747,0.100038
1698343511859375,-9.851855,1.278802,0.208154,0.21337,0.87647,0.93638
1698343511867187,-9.818855,1.279802,0.169154,0.20867,0.88347,0.84238
1698343511875000,-9.761855,1.267802,0.178154,0.20707,0.85247,0.79538
1698343511882812,-9.745855,1.263802,0.192154,0.21027,0.71247,0.87038
1698343511890625,-9.745855,1.245802,0.178154,0.19637,0.71847,0.83838
1698343511898437,-9.749855,1.247802,0.199154,0.19637,0.63247,0.85238
1698343511906250,-9.795855,1.254802,0.208154,0.18567,0.57047,0.80338
1698343511914062,-9.817855,1.268802,0.208154,0.17687,0.64147,0.72438
1698343511921875,-9.827855,1.257802,0.221154,0.17357,0.50947,0.70638
1698343511929687,-9.834855,1.257802,0.240154,0.16467,0.54947,0.59738
1698343511937500,-9.841855,1.266802,0.247154,0.16457,0.49947,0.58038
1698343511945312,-9.852855,1.263802,0.265154,0.16297,0.50247,0.53338
1698343511953125,-9.862855,1.254802,0.292154,0.15977,0.48947,0.50238
1698343511960937,-9.868855,1.255802,0.308154,0.15247,0.45647,0.46838
1698343511968750,-9.871855,1.261802,0.311154,0.14457,0.56147,0.47238
1698343511976562,-9.863855,1.264802,0.324154,0.14197,0.57447,0.48638
1698343511984375,-9.883855,1.286802,0.317154,0.13487,0.60847,0.45338
1698343511992187,-9.888855,1.303802,0.317154,0.13457,0.66147,0.43938
1698343512000000,-9.864855,1.316802,0.310154,0.13627,0.68047,0.37738
1698343512007812,-9.852855,1.318802,0.303154,0.12877,0.66247,0.40738
1698343512015625,-9.848855,1.331802,0.297154,0.13457,0.71447,0.39438
1698343512023437,-9.828855,1.326802,0.281154,0.13897,0.81247,0.47538
1698343512031250,-9.819855,1.328802,0.279154,0.14057,0.72647,0.48938
1698343512039062,-9.821855,1.330802,0.260154,0.14037,0.67847,0.45738
1698343512046875,-9.821855,1.326802,0.247154,0.14047,0.72747,0.47338
1698343512054687,-9.835855,1.342802,0.267154,0.14067,0.70947,0.48838
1698343512062500,-9.838855,1.359802,0.251154,0.14027,0.67947,0.45738
1698343512070312,-9.842855,1.379802,0.247154,0.14037,0.67847,0.47338
1698343512078125,-9.840855,1.373802,0.242154,0.13897,0.71047,0.48838
1698343512085937,-9.792855,1.362802,0.247154,0.14237,0.77547,0.47338
1698343512093750,-9.782855,1.384802,0.251154,0.15167,0.68847,0.47138
1698343512101562,-9.802855,1.392802,0.249154,0.14787,0.71047,0.49038
1698343512109375,-9.786855,1.428802,0.245154,0.16007,0.67247,0.50538
1698343512117187,-9.781855,1.403802,0.274154,0.15877,0.57147,0.47138
1698343512125000,-9.811855,1.422802,0.270154,0.16487,0.55347,0.48738
1698343512132812,-9.818855,1.435802,0.270154,0.16047,0.60447,0.47138
1698343512140625,-9.820855,1.436802,0.299154,0.16507,0.60247,0.48738
1698343512148437,-9.820855,1.429802,0.304154,0.16337,0.53747,0.47038
1698343512156250,-9.823855,1.430802,0.311154,0.15247,0.54047,0.48638
1698343512164062,-9.824855,1.427802,0.322154,0.16047,0.52147,0.43838
1698343512171875,-9.829855,1.395802,0.329154,0.16497,0.43947,0.39038
1698343512179687,-9.835855,1.371802,0.345154,0.16187,0.60447,0.47238
1698343512187500,-9.856855,1.387802,0.349154,0.16337,0.60647,0.44138
1698343512195312,-9.863855,1.400802,0.336154,0.16467,0.57147,0.48838
1698343512203125,-9.852855,1.391802,0.345154,0.16467,0.60647,0.45738
1698343512210937,-9.851855,1.375802,0.372154,0.16467,0.62247,0.47338
1698343512218750,-9.856855,1.386802,0.347154,0.16467,0.67447,0.45938
1698343512226562,-9.856855,1.393802,0.356154,0.16477,0.58747,0.48838
1698343512234375,-9.845855,1.399802,0.352154,0.16457,0.64047,0.47438
1698343512242187,-9.829855,1.401802,0.327154,0.16477,0.70647,0.49138
1698343512250000,-9.818855,1.404802,0.324154,0.16467,0.65447,0.52138
1698343512257812,-9.809855,1.417802,0.327154,0.16307,0.70647,0.50738
1698343512265625,-9.807855,1.446802,0.315154,0.16467,0.70247,0.56938
1698343512273437,-9.800855,1.465802,0.317154,0.16327,0.67947,0.66138
1698343512281250,-9.811855,1.462802,0.318154,0.16777,0.58247,0.58238
1698343512289062,-9.810855,1.490802,0.306154,0.16597,0.56547,0.62938
1698343512296875,-9.808855,1.495802,0.306154,0.16437,0.54947,0.62938
1698343512304687,-9.805855,1.511802,0.320154,0.16927,0.60247,0.52038
1698343512312500,-9.792855,1.512802,0.316154,0.16597,0.65347,0.56938
1698343512320312,-9.790855,1.516802,0.341154,0.16887,0.56747,0.59938
1698343512328125,-9.806855,1.526802,0.329154,0.16887,0.60247,0.56838
1698343512335937,-9.795855,1.541802,0.325154,0.16607,0.60147,0.58338
1698343512343750,-9.782855,1.568802,0.345154,0.16307,0.55347,0.51938
1698343512351562,-9.766855,1.563802,0.352154,0.16307,0.58847,0.50438
1698343512359375,-9.788855,1.569802,0.350154,0.16937,0.65147,0.52038
1698343512367187,-9.810855,1.572802,0.363154,0.16967,0.55147,0.47038
1698343512375000,-9.819855,1.593802,0.359154,0.17357,0.57147,0.48938
1698343512382812,-9.822855,1.594802,0.372154,0.17417,0.55447,0.40938
1698343512390625,-9.829855,1.572802,0.377154,0.17117,0.63947,0.41038
1698343512398437,-9.824855,1.576802,0.372154,0.17157,0.70847,0.31738
1698343512406250,-9.826855,1.601802,0.366154,0.17317,0.64347,0.25338
1698343512414062,-9.838855,1.592802,0.361154,0.17747,0.65947,0.27038
1698343512421875,-9.827855,1.562802,0.375154,0.16367,0.71647,0.22338
1698343512429687,-9.821855,1.554802,0.377154,0.17017,0.72747,0.25438
1698343512437500,-9.824855,1.558802,0.359154,0.17017,0.71547,0.16038
1698343512445312,-9.856855,1.572802,0.352154,0.16837,0.67947,0.23838
1698343512453125,-9.845855,1.569802,0.343154,0.16697,0.79747,0.24038
1698343512460937,-9.819855,1.583802,0.331154,0.18247,0.79247,0.22538
1698343512468750,-9.836855,1.589802,0.325154,0.16677,0.88347,0.24338
1698343512476562,-9.838855,1.605802,0.309154,0.17307,0.81347,0.24138
1698343512484375,-9.822855,1.617802,0.297154,0.18247,0.84247,0.25738
1698343512492187,-9.817855,1.607802,0.313154,0.18557,0.94447,0.22838
1698343512500000,-9.806855,1.628802,0.288154,0.19007,0.93947,0.30738
1698343512507812,-9.740855,1.640802,0.268154,0.19017,0.87247,0.27438
1698343512515625,-9.689855,1.613802,0.282154,0.18797,0.79547,0.25938
1698343512523437,-9.712855,1.605802,0.307154,0.18947,0.69147,0.28838
1698343512531250,-9.735855,1.605802,0.284154,0.18477,0.67747,0.27238
1698343512539062,-9.736855,1.622802,0.293154,0.17907,0.62547,0.25338
1698343512546875,-9.750855,1.615802,0.304154,0.18987,0.58947,0.23738
1698343512554687,-9.752855,1.602802,0.311154,0.18667,0.60947,0.22238
1698343512562500,-9.787855,1.601802,0.334154,0.18857,0.55647,0.20438
1698343512570312,-9.811855,1.591802,0.348154,0.17267,0.58247,0.19038
1698343512578125,-9.800855,1.588802,0.345154,0.18067,0.56847,0.4838
1698343512585937,-9.818855,1.591802,0.379154,0.18697,0.60247,0.2862
1698343512593750,-9.827855,1.595802,0.377154,0.17297,0.63747,0.5038
1698343512601562,-9.822855,1.580802,0.388154,0.18547,0.63347,0.4938
1698343512609375,-9.827855,1.578802,0.407154,0.18077,0.62047,0.238
1698343512617187,-9.838855,1.551802,0.404154,0.18387,0.63747,0.2762
1698343512625000,-9.867855,1.566802,0.416154,0.18737,0.70047,0.1262
1698343512632812,-9.866855,1.571802,0.397154,0.18767,0.81547,0.2038
1698343512640625,-9.869855,1.551802,0.388154,0.18137,0.88547,0.638
1698343512648437,-9.869855,1.539802,0.384154,0.17957,0.75147,0.3638
1698343512656250,-9.857855,1.512802,0.368154,0.18277,0.93847,0.2262
1698343512664062,-9.841855,1.485802,0.381154,0.18277,0.100047,0.8838
1698343512671875,-9.825855,1.471802,0.365154,0.17037,0.95547,0.5538
1698343512679687,-9.825855,1.462802,0.356154,0.18107,0.92047,0.4038
1698343512687500,-9.825855,1.462802,0.343154,0.17787,0.93847,0.5638
1698343512695312,-9.819855,1.470802,0.311154,0.17167,0.95847,0.2538
1698343512703125,-9.816855,1.482802,0.308154,0.17167,0.96747,0.18138
1698343512710937,-9.777855,1.487802,0.295154,0.16897,0.93147,0.19538
1698343512718750,-9.750855,1.455802,0.299154,0.16427,0.95047,0.19638
1698343512726562,-9.745855,1.450802,0.308154,0.16567,0.93147,0.24238
1698343512734375,-9.746855,1.485802,0.279154,0.16377,0.93347,0.26038
1698343512742187,-9.756855,1.505802,0.277154,0.16197,0.88247,0.30638
1698343512750000,-9.769855,1.510802,0.279154,0.15757,0.91747,0.27538
1698343512757812,-9.764855,1.538802,0.277154,0.15177,0.79747,0.30238
1698343512765625,-9.778855,1.547802,0.281154,0.13957,0.78347,0.28538
1698343512773437,-9.785855,1.538802,0.283154,0.14097,0.71647,0.28438
1698343512781250,-9.785855,1.555802,0.302154,0.13937,0.66447,0.33038
1698343512789062,-9.792855,1.574802,0.306154,0.14117,0.68247,0.26738
1698343512796875,-9.797855,1.605802,0.309154,0.13967,0.73147,0.31538
1698343512804687,-9.790855,1.607802,0.322154,0.14247,0.68047,0.33038
1698343512812500,-9.814855,1.613802,0.334154,0.14367,0.68447,0.30038
1698343512820312,-9.823855,1.629802,0.316154,0.14237,0.71647,0.31638
1698343512828125,-9.829855,1.636802,0.322154,0.14707,0.69847,0.28438
1698343512835937,-9.811855,1.638802,0.313154,0.14867,0.73547,0.22238
1698343512843750,-9.787855,1.626802,0.316154,0.15437,0.78247,0.30338
1698343512851562,-9.796855,1.617802,0.318154,0.14827,0.80247,0.27238
1698343512859375,-9.802855,1.629802,0.311154,0.14687,0.73347,0.28538
1698343512867187,-9.791855,1.624802,0.293154,0.15617,0.84847,0.28838
1698343512875000,-9.762855,1.615802,0.300154,0.14387,0.86847,0.30438
1698343512882812,-9.747855,1.606802,0.290154,0.14557,0.83247,0.31838
1698343512890625,-9.752855,1.615802,0.279154,0.14257,0.80147,0.27038
1698343512898437,-9.755855,1.626802,0.275154,0.14387,0.74947,0.31638
1698343512906250,-9.759855,1.628802,0.272154,0.14847,0.76447,0.33338
1698343512914062,-9.755855,1.624802,0.279154,0.13767,0.68447,0.31538
1698343512921875,-9.753855,1.624802,0.288154,0.14377,0.71747,0.30038
1698343512929687,-9.777855,1.631802,0.290154,0.14407,0.64847,0.28238
1698343512937500,-9.789855,1.642802,0.279154,0.13947,0.60047,0.25038
1698343512945312,-9.774855,1.643802,0.302154,0.14047,0.67047,0.28538
1698343512953125,-9.772855,1.625802,0.318154,0.13507,0.68447,0.25138
1698343512960937,-9.793855,1.631802,0.320154,0.12727,0.63847,0.21938
1698343512968750,-9.794855,1.626802,0.318154,0.12397,0.69047,0.23638
1698343512976562,-9.791855,1.634802,0.329154,0.13037,0.70447,0.22038
1698343512984375,-9.780855,1.619802,0.339154,0.11927,0.72647,0.23738
1698343512992187,-9.771855,1.647802,0.341154,0.11517,0.72347,0.25138
1698343513000000,-9.787855,1.657802,0.336154,0.11627,0.67647,0.22038
1698343513007812,-9.782855,1.656802,0.336154,0.11507,0.72447,0.23538
1698343513015625,-9.787855,1.647802,0.325154,0.10897,0.70947,0.21938
1698343513023437,-9.784855,1.643802,0.334154,0.11237,0.74347,0.17238
1698343513031250,-9.803855,1.669802,0.325154,0.10137,0.81147,0.23638
1698343513039062,-9.802855,1.660802,0.316154,0.10767,0.79447,0.18938
1698343513046875,-9.794855,1.653802,0.320154,0.11337,0.71147,0.18938
1698343513054687,-9.787855,1.662802,0.318154,0.11507,0.79747,0.14338
1698343513062500,-9.789855,1.655802,0.316154,0.10917,0.74947,0.7938
1698343513070312,-9.762855,1.634802,0.320154,0.10887,0.80047,0.11238
1698343513078125,-9.773855,1.633802,0.332154,0.11367,0.74847,0.9538
1698343513085937,-9.794855,1.643802,0.318154,0.10557,0.66647,0.14138
1698343513093750,-9.812855,1.640802,0.318154,0.11057,0.86647,0.11338
1698343513101562,-9.794855,1.626802,0.332154,0.11657,0.83047,0.14438
1698343513109375,-9.798855,1.608802,0.332154,0.11347,0.76247,0.19038
1698343513117187,-9.829855,1.614802,0.329154,0.10587,0.69547,0.20338
1698343513125000,-9.796855,1.626802,0.332154,0.11647,0.84147,0.27038
1698343513132812,-9.785855,1.639802,0.341154,0.10267,0.82847,0.26938
1698343513140625,-9.798855,1.629802,0.320154,0.9657,0.72447,0.36038
1698343513148437,-9.796855,1.637802,0.314154,0.9627,0.82747,0.36338
1698343513156250,-9.759855,1.622802,0.325154,0.9047,0.90547,0.45738
1698343513164062,-9.732855,1.610802,0.336154,0.9177,0.83747,0.48838
1698343513171875,-9.698855,1.606802,0.345154,0.8727,0.73747,0.46938
1698343513179687,-9.716855,1.599802,0.375154,0.6717,0.71047,0.46838
1698343513187500,-9.758855,1.602802,0.375154,0.6757,0.67347,0.48238
1698343513195312,-9.793855,1.604802,0.375154,0.6717,0.72447,0.51638
1698343513203125,-9.798855,1.600802,0.407154,0.6417,0.72547,0.51538
1698343513210937,-9.818855,1.592802,0.425154,0.4897,0.71147,0.51438
1698343513218750,-9.834855,1.571802,0.425154,0.4127,0.83247,0.51738
1698343513226562,-9.840855,1.563802,0.436154,0.4477,0.89747,0.47038
1698343513234375,-9.838855,1.556802,0.454154,0.2777,0.101747,0.55038
1698343513242187,-9.843855,1.574802,0.445154,0.1387,0.103647,0.58238
1698343513250000,-9.843855,1.582802,0.441154,0.1837,0.112147,0.58438
1698343513257812,-9.852855,1.569802,0.434154,0.627,0.114047,0.56838
1698343513265625,-9.857855,1.587802,0.425154,0.53,0.123247,0.66138
1698343513273437,-9.867855,1.617802,0.411154,0.113,0.121747,0.72538
1698343513281250,-9.868855,1.641802,0.393154,0.743,0.130347,0.74338
1698343513289062,-9.840855,1.671802,0.361154,0.613,0.140447,0.76138
1698343513296875,-9.815855,1.655802,0.327154,0.773,0.147547,0.73238
1698343513304687,-9.821855,1.640802,0.343154,0.133,0.141947,0.74638
1698343513312500,-9.823855,1.653802,0.316154,0.453,0.142247,0.73138
1698343513320312,-9.816855,1.658802,0.291154,0.753,0.145347,0.80938
1698343513328125,-9.805855,1.688802,0.281154,0.553,0.148447,0.77738
1698343513335937,-9.785855,1.692802,0.243154,0.573,0.150047,0.82538
1698343513343750,-9.757855,1.680802,0.250154,0.743,0.150047,0.84138
1698343513351562,-9.751855,1.713802,0.238154,0.463,0.146647,0.88838
1698343513359375,-9.736855,1.750802,0.209154,0.603,0.145247,0.82538
1698343513367187,-9.745855,1.787802,0.202154,0.433,0.141547,0.83938
1698343513375000,-9.728855,1.790802,0.184154,0.917,0.138247,0.80938
1698343513382812,-9.705855,1.815802,0.172154,0.273,0.139847,0.82338
1698343513390625,-9.719855,1.842802,0.170154,0.743,0.128147,0.83638
1698343513398437,-9.735855,1.857802,0.168154,0.763,0.136947,0.79238
1698343513406250,-9.731855,1.882802,0.161154,0.593,0.127047,0.71138
1698343513414062,-9.735855,1.887802,0.161154,0.733,0.128447,0.75738
1698343513421875,-9.717855,1.911802,0.168154,0.947,0.123447,0.66338
1698343513429687,-9.720855,1.906802,0.166154,0.1837,0.115247,0.61638
1698343513437500,-9.747855,1.900802,0.189154,0.1877,0.110247,0.55138
1698343513445312,-9.752855,1.895802,0.189154,0.1417,0.112547,0.45838
1698343513453125,-9.757855,1.915802,0.193154,0.1397,0.114247,0.49038
1698343513460937,-9.754855,1.927802,0.180154,0.1727,0.112547,0.44238
1698343513468750,-9.757855,1.926802,0.187154,0.1557,0.114547,0.41238
1698343513476562,-9.751855,1.925802,0.194154,0.2137,0.109847,0.36538
1698343513484375,-9.752855,1.927802,0.200154,0.3107,0.109147,0.36438
1698343513492187,-9.744855,1.939802,0.173154,0.2007,0.116447,0.36638
1698343513500000,-9.728855,1.949802,0.178154,0.2467,0.116747,0.28838
1698343513507812,-9.732855,1.946802,0.175154,0.3237,0.106147,0.31738
1698343513515625,-9.739855,1.968802,0.157154,0.3867,0.109547,0.25538
1698343513523437,-9.726855,1.984802,0.159154,0.4347,0.109547,0.22438
1698343513531250,-9.717855,1.959802,0.150154,0.4177,0.117847,0.28838
1698343513539062,-9.692855,1.959802,0.155154,0.4317,0.105947,0.30238
1698343513546875,-9.683855,1.967802,0.134154,0.4597,0.105847,0.35038
1698343513554687,-9.665855,1.968802,0.128154,0.5467,0.98747,0.44438
1698343513562500,-9.694855,1.974802,0.132154,0.5947,0.98247,0.49038
1698343513570312,-9.726855,1.966802,0.114154,0.6107,0.98147,0.49038
1698343513578125,-9.714855,1.990802,0.109154,0.6737,0.101347,0.47538
1698343513585937,-9.681855,1.998802,0.109154,0.7007,0.91047,0.53738
1698343513593750,-9.683855,1.989802,0.118154,0.7447,0.89047,0.61538
1698343513601562,-9.706855,1.985802,0.128154,0.7167,0.92647,0.53738
1698343513609375,-9.712855,1.994802,0.125154,0.7597,0.83747,0.64538
1698343513617187,-9.679855,2.37802,0.121154,0.7327,0.84147,0.53538
1698343513625000,-9.652855,2.59802,0.128154,0.6877,0.70947,0.46838
1698343513632812,-9.648855,2.116802,0.123154,0.7007,0.67747,0.46838
1698343513640625,-9.653855,2.169802,0.98154,0.8427,0.67347,0.42138
1698343513648437,-9.668855,2.206802,0.114154,0.8867,0.57847,0.29438
1698343513656250,-9.670855,2.217802,0.101154,0.9537,0.65147,0.7638
1698343513664062,-9.666855,2.221802,0.126154,0.9197,0.57147,0.4338
1698343513671875,-9.633855,2.197802,0.132154,0.10907,0.55247,0.3462
1698343513679687,-9.656855,2.145802,0.162154,0.11977,0.51947,0.8162
1698343513687500,-9.689855,2.155802,0.160154,0.12307,0.42247,0.20962
1698343513695312,-9.667855,2.156802,0.158154,0.13047,0.43847,0.19262
1698343513703125,-9.685855,2.114802,0.185154,0.14247,0.42147,0.22262
1698343513710937,-9.675855,2.147802,0.167154,0.13787,0.35747,0.25562
1698343513718750,-9.624855,2.147802,0.144154,0.15957,0.36847,0.30162
1698343513726562,-9.640855,2.158802,0.171154,0.16547,0.28347,0.27162
1698343513734375,-9.674855,2.217802,0.135154,0.18257,0.22747,0.28862
1698343513742187,-9.685855,2.195802,0.126154,0.20867,0.18947,0.35062
1698343513750000,-9.686855,2.178802,0.165154,0.22027,0.15847,0.36462
1698343513757812,-9.683855,2.154802,0.167154,0.22967,0.18847,0.36462
1698343513765625,-9.697855,2.116802,0.169154,0.24477,0.12247,0.44262
1698343513773437,-9.686855,2.66802,0.189154,0.26507,0.13447,0.50462
1698343513781250,-9.675855,2.61802,0.212154,0.26067,0.16947,0.53662
1698343513789062,-9.683855,2.53802,0.200154,0.27897,0.8047,0.52162
1698343513796875,-9.686855,2.41802,0.228154,0.28657,0.2947,0.53762
1698343513804687,-9.649855,2.48802,0.214154,0.29567,0.10753,0.52462
1698343513812500,-9.624855,2.54802,0.180154,0.30947,0.12753,0.53962
1698343513820312,-9.559855,2.150802,0.117154,0.32407,0.16053,0.52162
1698343513828125,-9.479855,2.321802,0.39154,0.35457,0.42653,0.40062
1698343513835937,-9.446855,2.399802,0.10846,0.40317,0.51053,0.25862
1698343513843750,-9.432855,2.393802,0.3154,0.44887,0.70853,0.21262
1698343513851562,-9.436855,2.318802,0.60154,0.49097,0.100053,0.19962
1698343513859375,-9.437855,2.261802,0.137154,0.53527,0.124753,0.18662
1698343513867187,-9.464855,2.200802,0.199154,0.57137,0.157253,0.18962
1698343513875000,-9.508855,2.109802,0.287154,0.61137,0.175153,0.22362
1698343513882812,-9.556855,2.47802,0.365154,0.63647,0.193453,0.27062
1698343513890625,-9.637855,2.31802,0.424154,0.65807,0.205753,0.30462
1698343513898437,-9.725855,2.33802,0.456154,0.68087,0.215153,0.21162
1698343513906250,-9.753855,1.999802,0.508154,0.69197,0.214153,0.16462
1698343513914062,-9.791855,1.952802,0.585154,0.70997,0.211453,0.6762
1698343513921875,-9.848855,1.934802,0.606154,0.72327,0.206453,0.4862
1698343513929687,-9.858855,1.954802,0.590154,0.72917,0.191853,0.6538
1698343513937500,-9.842855,1.974802,0.626154,0.74727,0.174153,0.21138
1698343513945312,-9.862855,2.2802,0.633154,0.76737,0.163853,0.37038
1698343513953125,-9.857855,1.962802,0.624154,0.77617,0.161053,0.49838
1698343513960937,-9.851855,1.893802,0.674154,0.79477,0.146753,0.56438
1698343513968750,-9.843855,1.875802,0.694154,0.79587,0.140253,0.66138
1698343513976562,-9.863855,1.834802,0.697154,0.80797,0.126853,0.66538
1698343513984375,-9.863855,1.841802,0.699154,0.79867,0.126653,0.68138
1698343513992187,-9.870855,1.888802,0.683154,0.79567,0.111953,0.77838
1698343514000000,-9.830855,1.892802,0.683154,0.79707,0.110453,0.84138
1698343514007812,-9.766855,1.902802,0.667154,0.79557,0.96853,0.82838
1698343514015625,-9.715855,1.961802,0.633154,0.79987,0.92553,0.98738
1698343514023437,-9.715855,2.4802,0.608154,0.79987,0.95053,0.114238
1698343514031250,-9.703855,2.18802,0.606154,0.80927,0.93953,0.118938
1698343514039062,-9.664855,1.993802,0.603154,0.80607,0.94353,0.129938
1698343514046875,-9.660855,1.993802,0.626154,0.80907,0.96153,0.133038
1698343514054687,-9.684855,2.36802,0.606154,0.80277,0.99153,0.131438
1698343514062500,-9.660855,2.73802,0.576154,0.80257,0.102253,0.128338
1698343514070312,-9.635855,2.160802,0.585154,0.80297,0.94353,0.131538
1698343514078125,-9.569855,2.304802,0.502154,0.81017,0.108053,0.137638
1698343514085937,-9.564855,2.360802,0.504154,0.82617,0.108353,0.150538
1698343514093750,-9.583855,2.396802,0.534154,0.84457,0.113653,0.144238
1698343514101562,-9.585855,2.349802,0.575154,0.86267,0.129153,0.144038
1698343514109375,-9.604855,2.292802,0.629154,0.86907,0.140653,0.132738
1698343514117187,-9.617855,2.262802,0.656154,0.86957,0.140753,0.127938
1698343514125000,-9.650855,2.256802,0.684154,0.88787,0.154353,0.121438
1698343514132812,-9.682855,2.245802,0.707154,0.87867,0.158953,0.115038
1698343514140625,-9.725855,2.226802,0.729154,0.87127,0.158553,0.108638
1698343514148437,-9.714855,2.221802,0.722154,0.87297,0.144753,0.99638
1698343514156250,-9.721855,2.231802,0.734154,0.86817,0.139353,0.98138
1698343514164062,-9.730855,2.243802,0.727154,0.86997,0.134653,0.101338
1698343514171875,-9.723855,2.273802,0.718154,0.86907,0.127853,0.91938
1698343514179687,-9.721855,2.254802,0.741154,0.87017,0.125853,0.92138
1698343514187500,-9.718855,2.224802,0.752154,0.87037,0.122853,0.95238
1698343514195312,-9.716855,2.214802,0.752154,0.86877,0.117553,0.93838
1698343514203125,-9.704855,2.217802,0.734154,0.85217,0.115653,0.93638
1698343514210937,-9.694855,2.249802,0.743154,0.84437,0.106453,0.84538
1698343514218750,-9.719855,2.277802,0.761154,0.83977,0.110053,0.92238
1698343514226562,-9.766855,2.267802,0.761154,0.83557,0.96853,0.93938
1698343514234375,-9.768855,2.291802,0.786154,0.82797,0.89853,0.90938
1698343514242187,-9.759855,2.299802,0.784154,0.82077,0.83053,0.87738
1698343514250000,-9.759855,2.287802,0.802154,0.81887,0.89253,0.83038
1698343514257812,-9.762855,2.278802,0.816154,0.81117,0.75953,0.91138
1698343514265625,-9.744855,2.256802,0.800154,0.79867,0.61353,0.80538
1698343514273437,-9.737855,2.257802,0.811154,0.78537,0.58053,0.80438
1698343514281250,-9.732855,2.288802,0.805154,0.77017,0.47853,0.85238
1698343514289062,-9.714855,2.313802,0.768154,0.75377,0.40753,0.82038
1698343514296875,-9.705855,2.299802,0.773154,0.74617,0.33853,0.80538
1698343514304687,-9.692855,2.332802,0.723154,0.72487,0.24653,0.74338
1698343514312500,-9.670855,2.359802,0.709154,0.72337,0.26253,0.72738
1698343514320312,-9.676855,2.352802,0.707154,0.70377,0.14053,0.69738
1698343514328125,-9.659855,2.364802,0.684154,0.69867,0.8253,0.65338
1698343514335937,-9.622855,2.365802,0.677154,0.68547,0.1547,0.69938
1698343514343750,-9.618855,2.364802,0.663154,0.67637,0.1153,0.60438
1698343514351562,-9.634855,2.392802,0.645154,0.65367,0.5553,0.55438
1698343514359375,-9.657855,2.405802,0.643154,0.65357,0.4547,0.55638
1698343514367187,-9.643855,2.384802,0.645154,0.65197,0.1647,0.49438
1698343514375000,-9.631855,2.369802,0.675154,0.63877,0.3847,0.36638
1698343514382812,-9.636855,2.392802,0.673154,0.61757,0.2847,0.30238
1698343514390625,-9.673855,2.401802,0.652154,0.60217,0.6547,0.31838
1698343514398437,-9.720855,2.397802,0.657154,0.58727,0.19247,0.17838
1698343514406250,-9.713855,2.382802,0.663154,0.55997,0.23247,0.12938
1698343514414062,-9.714855,2.331802,0.666154,0.55417,0.28547,0.6738
1698343514421875,-9.708855,2.323802,0.657154,0.52967,0.34647,0.1062
1698343514429687,-9.688855,2.330802,0.634154,0.50857,0.40547,0.13662
1698343514437500,-9.688855,2.354802,0.616154,0.49667,0.54347,0.16662
1698343514445312,-9.724855,2.372802,0.586154,0.47997,0.65147,0.22762
1698343514453125,-9.706855,2.350802,0.572154,0.45867,0.69347,0.30662
1698343514460937,-9.642855,2.307802,0.570154,0.43297,0.76747,0.36962
1698343514468750,-9.594855,2.286802,0.577154,0.41167,0.79047,0.41862
1698343514476562,-9.592855,2.270802,0.568154,0.39187,0.89547,0.40162
1698343514484375,-9.611855,2.251802,0.570154,0.36107,0.94147,0.46362
1698343514492187,-9.606855,2.245802,0.550154,0.34137,0.92847,0.48162
1698343514500000,-9.579855,2.272802,0.534154,0.31567,0.101547,0.45062
1698343514507812,-9.590855,2.306802,0.506154,0.29447,0.96747,0.43762
1698343514515625,-9.570855,2.350802,0.472154,0.28237,0.105547,0.46862
1698343514523437,-9.563855,2.357802,0.467154,0.26587,0.102547,0.51762
1698343514531250,-9.563855,2.341802,0.447154,0.25317,0.91147,0.47262
1698343514539062,-9.567855,2.355802,0.449154,0.24757,0.87747,0.50662
1698343514546875,-9.579855,2.384802,0.463154,0.23987,0.86347,0.52262
1698343514554687,-9.580855,2.392802,0.463154,0.23467,0.73347,0.52462
1698343514562500,-9.597855,2.376802,0.461154,0.23367,0.67847,0.51162
1698343514570312,-9.605855,2.376802,0.461154,0.21467,0.70247,0.47862
1698343514578125,-9.593855,2.398802,0.447154,0.21077,0.68447,0.52862
1698343514585937,-9.621855,2.420802,0.454154,0.21207,0.73447,0.47962
1698343514593750,-9.639855,2.449802,0.443154,0.20727,0.69947,0.41762
1698343514601562,-9.643855,2.456802,0.450154,0.21207,0.72947,0.40162
1698343514609375,-9.632855,2.431802,0.456154,0.21047,0.73047,0.38562
1698343514617187,-9.627855,2.398802,0.465154,0.20437,0.73247,0.40162
1698343514625000,-9.652855,2.414802,0.461154,0.20887,0.77847,0.32262
1698343514632812,-9.664855,2.440802,0.438154,0.20717,0.81247,0.30562
1698343514640625,-9.673855,2.432802,0.440154,0.20727,0.82847,0.30562
1698343514648437,-9.650855,2.409802,0.452154,0.21177,0.91047,0.25562
1698343514656250,-9.599855,2.391802,0.429154,0.19387,0.96447,0.28862
1698343514664062,-9.616855,2.388802,0.420154,0.19167,0.94847,0.20862
1698343514671875,-9.623855,2.417802,0.379154,0.19197,0.103047,0.20762
1698343514679687,-9.606855,2.425802,0.350154,0.19007,0.100247,0.25362
1698343514687500,-9.553855,2.418802,0.352154,0.18847,0.94847,0.17662
1698343514695312,-9.542855,2.436802,0.349154,0.19167,0.89547,0.17862
1698343514703125,-9.537855,2.418802,0.322154,0.19147,0.80547,0.2362
1698343514710937,-9.539855,2.401802,0.370154,0.19437,0.75247,0.2238
1698343514718750,-9.581855,2.378802,0.381154,0.19027,0.63447,0.2862
1698343514726562,-9.599855,2.355802,0.376154,0.19137,0.56847,0.1362
1698343514734375,-9.597855,2.364802,0.415154,0.19007,0.54947,0.138
1698343514742187,-9.615855,2.389802,0.429154,0.18847,0.41647,0.1762
1698343514750000,-9.640855,2.386802,0.438154,0.18877,0.56447,0.1638
1698343514757812,-9.669855,2.359802,0.477154,0.19007,0.56647,0.138
1698343514765625,-9.688855,2.334802,0.488154,0.18377,0.62147,0.2762
1698343514773437,-9.662855,2.324802,0.504154,0.17507,0.63547,0.138
1698343514781250,-9.671855,2.308802,0.529154,0.16747,0.64347,0.12362
1698343514789062,-9.682855,2.286802,0.524154,0.15987,0.67847,0.10862
1698343514796875,-9.686855,2.252802,0.542154,0.15237,0.70047,0.20262
1698343514804687,-9.677855,2.254802,0.540154,0.14027,0.72147,0.24962
1698343514812500,-9.657855,2.279802,0.524154,0.12977,0.72547,0.31362
1698343514820312,-9.652855,2.308802,0.522154,0.11797,0.91347,0.35862
1698343514828125,-9.642855,2.318802,0.499154,0.11777,0.87047,0.46862
1698343514835937,-9.619855,2.320802,0.495154,0.11017,0.97247,0.46662
1698343514843750,-9.589855,2.311802,0.474154,0.11037,0.96947,0.43562
1698343514851562,-9.560855,2.312802,0.477154,0.10547,0.90647,0.45162
1698343514859375,-9.574855,2.317802,0.463154,0.9457,0.80747,0.43862
1698343514867187,-9.581855,2.328802,0.465154,0.10387,0.85747,0.46862
1698343514875000,-9.583855,2.328802,0.463154,0.10387,0.73747,0.44062
1698343514882812,-9.610855,2.309802,0.477154,0.10547,0.76947,0.42362
1698343514890625,-9.623855,2.277802,0.492154,0.10517,0.62047,0.42662
1698343514898437,-9.666855,2.279802,0.508154,0.10387,0.63147,0.36462
1698343514906250,-9.687855,2.265802,0.524154,0.11437,0.66647,0.39362
1698343514914062,-9.721855,2.243802,0.552154,0.11717,0.70147,0.39262
1698343514921875,-9.731855,2.253802,0.563154,0.11287,0.73147,0.32962
1698343514929687,-9.733855,2.235802,0.581154,0.11307,0.72947,0.33062
1698343514937500,-9.747855,2.219802,0.579154,0.11737,0.78047,0.31262
1698343514945312,-9.731855,2.215802,0.572154,0.11587,0.91247,0.24762
1698343514953125,-9.729855,2.221802,0.574154,0.11707,0.98047,0.22862
1698343514960937,-9.745855,2.248802,0.545154,0.11747,0.101447,0.27662
1698343514968750,-9.747855,2.273802,0.526154,0.11757,0.115947,0.16362
1698343514976562,-9.722855,2.258802,0.513154,0.11777,0.112747,0.21162
1698343514984375,-9.700855,2.256802,0.502154,0.11737,0.121247,0.16162
1698343514992187,-9.693855,2.281802,0.467154,0.11767,0.127747,0.16162
1698343515000000,-9.678855,2.296802,0.456154,0.11747,0.127847,0.16062
1698343515007812,-9.662855,2.328802,0.435154,0.11757,0.122147,0.3762
1698343515015625,-9.657855,2.328802,0.426154,0.11767,0.124047,0.8362
1698343515023437,-9.619855,2.320802,0.397154,0.12207,0.122147,0.5262
1698343515031250,-9.601855,2.320802,0.390154,0.11727,0.122147,0.462
1698343515039062,-9.609855,2.350802,0.363154,0.11387,0.117547,0.2062
1698343515046875,-9.615855,2.364802,0.335154,0.12637,0.117147,0.3662
1698343515054687,-9.589855,2.349802,0.338154,0.13127,0.116847,0.5262
1698343515062500,-9.590855,2.332802,0.358154,0.13067,0.105247,0.662
1698343515070312,-9.618855,2.332802,0.347154,0.12897,0.110547,0.2062
1698343515078125,-9.608855,2.316802,0.326154,0.12127,0.102347,0.2262
1698343515085937,-9.596855,2.304802,0.342154,0.13067,0.103147,0.7038
1698343515093750,-9.619855,2.316802,0.335154,0.12187,0.101847,0.962
1698343515101562,-9.649855,2.329802,0.317154,0.11987,0.103247,0.11738
1698343515109375,-9.628855,2.309802,0.317154,0.11717,0.101747,0.3738
1698343515117187,-9.609855,2.271802,0.344154,0.11397,0.103747,0.738
1698343515125000,-9.613855,2.249802,0.360154,0.10197,0.95547,0.2762
1698343515132812,-9.618855,2.239802,0.362154,0.9567,0.94147,0.1162
1698343515140625,-9.620855,2.249802,0.362154,0.7937,0.96247,0.9262
1698343515148437,-9.611855,2.264802,0.360154,0.6547,0.94847,0.7762
1698343515156250,-9.628855,2.302802,0.372154,0.5007,0.95747,0.17162
1698343515164062,-9.655855,2.325802,0.356154,0.4577,0.90747,0.18962
1698343515171875,-9.643855,2.319802,0.367154,0.4377,0.94547,0.18662
1698343515179687,-9.633855,2.322802,0.390154,0.4257,0.89447,0.23662
1698343515187500,-9.653855,2.339802,0.385154,0.3987,0.91047,0.25262
1698343515195312,-9.655855,2.350802,0.367154,0.4157,0.94347,0.26862
1698343515203125,-9.653855,2.354802,0.388154,0.4127,0.92647,0.23662
1698343515210937,-9.649855,2.359802,0.390154,0.4447,0.97747,0.28262
1698343515218750,-9.667855,2.370802,0.388154,0.4287,0.97747,0.25062
1698343515226562,-9.688855,2.374802,0.390154,0.4417,0.100947,0.20262
1698343515234375,-9.670855,2.369802,0.386154,0.4397,0.99447,0.20262
1698343515242187,-9.665855,2.363802,0.392154,0.4427,0.101247,0.26562
1698343515250000,-9.687855,2.354802,0.390154,0.5217,0.109547,0.29462
1698343515257812,-9.692855,2.347802,0.388154,0.5497,0.106347,0.32662
1698343515265625,-9.701855,2.336802,0.392154,0.5807,0.106147,0.29462
1698343515273437,-9.723855,2.337802,0.385154,0.6737,0.109147,0.27862
1698343515281250,-9.712855,2.352802,0.358154,0.6597,0.111047,0.34062
1698343515289062,-9.676855,2.343802,0.354154,0.6917,0.117747,0.37062
1698343515296875,-9.641855,2.332802,0.353154,0.6927,0.110847,0.34162
1698343515304687,-9.623855,2.323802,0.349154,0.6757,0.106147,0.38962
1698343515312500,-9.619855,2.318802,0.342154,0.7197,0.103947,0.27962
1698343515320312,-9.618855,2.330802,0.333154,0.8157,0.105047,0.26462
1698343515328125,-9.595855,2.332802,0.312154,0.7997,0.106947,0.29462
1698343515335937,-9.596855,2.334802,0.328154,0.9057,0.103747,0.35762
1698343515343750,-9.616855,2.327802,0.326154,0.8747,0.100147,0.29562
1698343515351562,-9.628855,2.323802,0.317154,0.9187,0.96847,0.31162
1698343515359375,-9.646855,2.322802,0.338154,0.9177,0.99047,0.38862
1698343515367187,-9.657855,2.289802,0.347154,0.9037,0.95747,0.42162
1698343515375000,-9.634855,2.287802,0.349154,0.9187,0.97247,0.38962
1698343515382812,-9.629855,2.294802,0.356154,0.9657,0.98447,0.32662
1698343515390625,-9.655855,2.285802,0.374154,0.9457,0.93447,0.26362
1698343515398437,-9.666855,2.290802,0.367154,0.9787,0.98347,0.27862
1698343515406250,-9.661855,2.256802,0.372154,0.9467,0.93547,0.29562
1698343515414062,-9.660855,2.248802,0.385154,0.9657,0.86547,0.31362
1698343515421875,-9.668855,2.247802,0.385154,0.9467,0.95347,0.32662
1698343515429687,-9.681855,2.227802,0.378154,0.9617,0.98547,0.27862
1698343515437500,-9.688855,2.215802,0.383154,0.10367,0.98747,0.35562
1698343515445312,-9.696855,2.219802,0.379154,0.9437,0.102347,0.32362
1698343515453125,-9.708855,2.196802,0.367154,0.9477,0.105147,0.27762
1698343515460937,-9.721855,2.176802,0.387154,0.9327,0.108547,0.26062
1698343515468750,-9.721855,2.145802,0.392154,0.9177,0.102047,0.30962
1698343515476562,-9.707855,2.148802,0.390154,0.9487,0.103347,0.26262
1698343515484375,-9.701855,2.151802,0.385154,0.8707,0.113747,0.24462
1698343515492187,-9.709855,2.138802,0.378154,0.8707,0.115247,0.21262
1698343515500000,-9.714855,2.134802,0.376154,0.8847,0.115147,0.18062
1698343515507812,-9.718855,2.121802,0.387154,0.7337,0.120147,0.13462
1698343515515625,-9.727855,2.118802,0.392154,0.7317,0.118547,0.11862
1698343515523437,-9.757855,2.118802,0.392154,0.6837,0.117047,0.10262
1698343515531250,-9.757855,2.121802,0.394154,0.6717,0.120347,0.11862
1698343515539062,-9.759855,2.119802,0.392154,0.6867,0.123547,0.8662
1698343515546875,-9.764855,2.137802,0.401154,0.6557,0.131747,0.2162
1698343515554687,-9.780855,2.157802,0.380154,0.5807,0.141947,0.2062
1698343515562500,-9.767855,2.158802,0.376154,0.4697,0.144047,0.362
1698343515570312,-9.730855,2.161802,0.374154,0.4907,0.153847,0.1962
1698343515578125,-9.704855,2.159802,0.376154,0.4607,0.153747,0.362
1698343515585937,-9.694855,2.176802,0.351154,0.4407,0.154147,0.262
1698343515593750,-9.696855,2.192802,0.335154,0.3977,0.155547,0.4338
1698343515601562,-9.692855,2.216802,0.321154,0.3987,0.169047,0.3138
1698343515609375,-9.686855,2.249802,0.306154,0.4407,0.170847,0.3238
1698343515617187,-9.693855,2.245802,0.274154,0.4117,0.167447,0.3138
1698343515625000,-9.693855,2.263802,0.260154,0.4427,0.167447,0.1638
1698343515632812,-9.671855,2.280802,0.246154,0.4717,0.170447,0.11138
1698343515640625,-9.677855,2.276802,0.233154,0.5177,0.171847,0.12738
1698343515648437,-9.658855,2.286802,0.212154,0.6207,0.170247,0.12838
1698343515656250,-9.653855,2.293802,0.203154,0.6677,0.161847,0.7938
1698343515664062,-9.649855,2.308802,0.167154,0.6807,0.156947,0.6338
1698343515671875,-9.607855,2.340802,0.153154,0.7037,0.154347,0.12338
1698343515679687,-9.581855,2.336802,0.149154,0.8647,0.149647,0.7838
1698343515687500,-9.585855,2.344802,0.135154,0.9927,0.147447,0.4538
1698343515695312,-9.599855,2.363802,0.103154,0.10797,0.135747,0.4538
1698343515703125,-9.592855,2.368802,0.99154,0.11717,0.138647,0.9238
1698343515710937,-9.583855,2.362802,0.101154,0.11727,0.123447,0.7338
1698343515718750,-9.583855,2.335802,0.101154,0.13397,0.121547,0.5838
1698343515726562,-9.576855,2.348802,0.98154,0.14327,0.119447,0.8938
1698343515734375,-9.588855,2.386802,0.78154,0.14447,0.111047,0.10438
1698343515742187,-9.588855,2.402802,0.58154,0.16417,0.101847,0.19738
1698343515750000,-9.578855,2.368802,0.51154,0.16437,0.96847,0.14938
1698343515757812,-9.566855,2.348802,0.64154,0.16907,0.95047,0.13338
1698343515765625,-9.542855,2.357802,0.48154,0.16437,0.93347,0.17938
1698343515773437,-9.509855,2.341802,0.46154,0.17357,0.77747,0.19138
1698343515781250,-9.507855,2.330802,0.76154,0.17037,0.63247,0.9538
1698343515789062,-9.540855,2.334802,0.64154,0.17007,0.58647,0.6338
1698343515796875,-9.570855,2.359802,0.71154,0.17607,0.51647,0.7838
1698343515804687,-9.553855,2.366802,0.82154,0.16737,0.38347,0.2638
1698343515812500,-9.553855,2.359802,0.101154,0.17187,0.37047,0.8262
1698343515820312,-9.576855,2.368802,0.99154,0.17347,0.27447,0.19462
1698343515828125,-9.592855,2.371802,0.96154,0.16777,0.21247,0.32262
1698343515835937,-9.618855,2.392802,0.106154,0.17197,0.19947,0.38462
1698343515843750,-9.627855,2.410802,0.112154,0.17527,0.22047,0.49362
1698343515851562,-9.616855,2.419802,0.108154,0.17517,0.15447,0.52562
1698343515859375,-9.615855,2.429802,0.124154,0.18787,0.6847,0.62262
1698343515867187,-9.623855,2.458802,0.131154,0.20777,0.11947,0.72962
1698343515875000,-9.627855,2.465802,0.106154,0.21117,0.3547,0.79562
1698343515882812,-9.589855,2.430802,0.122154,0.22747,0.5247,0.79262
1698343515890625,-9.584855,2.450802,0.131154,0.24137,0.3453,0.82562
1698343515898437,-9.576855,2.477802,0.94154,0.25347,0.10353,0.84162
1698343515906250,-9.580855,2.430802,0.119154,0.27487,0.5753,0.83962
1698343515914062,-9.558855,2.397802,0.135154,0.28557,0.19753,0.79462
1698343515921875,-9.549855,2.370802,0.115154,0.31117,0.28853,0.71562
1698343515929687,-9.587855,2.357802,0.119154,0.32927,0.33253,0.57462
1698343515937500,-9.601855,2.344802,0.110154,0.35057,0.40553,0.54362
1698343515945312,-9.558855,2.320802,0.126154,0.37157,0.41053,0.49362
1698343515953125,-9.575855,2.279802,0.133154,0.39887,0.45853,0.32062
1698343515960937,-9.595855,2.241802,0.155154,0.40927,0.61753,0.18262
1698343515968750,-9.617855,2.197802,0.187154,0.42417,0.70753,0.8862
1698343515976562,-9.612855,2.148802,0.210154,0.43507,0.74753,0.4262
1698343515984375,-9.644855,2.108802,0.242154,0.44197,0.73253,0.7038
1698343515992187,-9.666855,2.104802,0.253154,0.45557,0.75753,0.19638
1698343516000000,-9.709855,2.79802,0.276154,0.44787,0.75553,0.19538
1698343516007812,-9.738855,2.40802,0.310154,0.45377,0.83053,0.33538
1698343516015625,-9.756855,2.21802,0.344154,0.45237,0.71353,0.35338
1698343516023437,-9.755855,2.17802,0.357154,0.44057,0.72953,0.33538
1698343516031250,-9.755855,2.5802,0.376154,0.43557,0.77853,0.38238
1698343516039062,-9.739855,1.994802,0.405154,0.43117,0.67753,0.38438
1698343516046875,-9.740855,2.5802,0.433154,0.41107,0.62353,0.44738
1698343516054687,-9.755855,2.30802,0.426154,0.40667,0.55653,0.44838
1698343516062500,-9.731855,2.52802,0.424154,0.40817,0.55753,0.46338
1698343516070312,-9.720855,2.76802,0.426154,0.40797,0.57353,0.47938
1698343516078125,-9.741855,2.98802,0.435154,0.40017,0.58653,0.46438
1698343516085937,-9.752855,2.126802,0.451154,0.38387,0.41853,0.48038
1698343516093750,-9.741855,2.141802,0.458154,0.39307,0.38653,0.46638
1698343516101562,-9.728855,2.154802,0.485154,0.39607,0.38453,0.41938
1698343516109375,-9.730855,2.145802,0.485154,0.39297,0.35153,0.46738
1698343516117187,-9.726855,2.153802,0.492154,0.38347,0.28053,0.48538
1698343516125000,-9.712855,2.168802,0.524154,0.38237,0.21553,0.46938
1698343516132812,-9.726855,2.152802,0.517154,0.38387,0.18253,0.48638
1698343516140625,-9.732855,2.146802,0.517154,0.38247,0.19853,0.45438
1698343516148437,-9.753855,2.175802,0.524154,0.38397,0.14653,0.42438
1698343516156250,-9.760855,2.177802,0.526154,0.37937,0.12553,0.37738
1698343516164062,-9.750855,2.173802,0.540154,0.37527,0.5753,0.31438
1698343516171875,-9.735855,2.183802,0.540154,0.36747,0.6047,0.38038
1698343516179687,-9.694855,2.206802,0.531154,0.35997,0.9247,0.44238
1698343516187500,-9.695855,2.212802,0.517154,0.36267,0.7447,0.49038
1698343516195312,-9.704855,2.218802,0.517154,0.35947,0.9347,0.49138
1698343516203125,-9.711855,2.228802,0.504154,0.36417,0.13547,0.61738
1698343516210937,-9.713855,2.223802,0.522154,0.37157,0.21947,0.63538
1698343516218750,-9.713855,2.212802,0.538154,0.36847,0.28747,0.65338
1698343516226562,-9.690855,2.237802,0.522154,0.35957,0.25347,0.65038
1698343516234375,-9.697855,2.266802,0.535154,0.35827,0.31847,0.68238
1698343516242187,-9.701855,2.283802,0.545154,0.36057,0.25347,0.71538
1698343516250000,-9.716855,2.267802,0.547154,0.35907,0.25247,0.74638
1698343516257812,-9.729855,2.250802,0.568154,0.35797,0.35447,0.68438
1698343516265625,-9.736855,2.259802,0.552154,0.35937,0.40447,0.70138
1698343516273437,-9.732855,2.258802,0.561154,0.35177,0.46247,0.59338
1698343516281250,-9.761855,2.244802,0.570154,0.35037,0.49247,0.64038
1698343516289062,-9.750855,2.252802,0.545154,0.33807,0.49847,0.59338
1698343516296875,-9.736855,2.282802,0.529154,0.33407,0.58347,0.51438
1698343516304687,-9.734855,2.291802,0.508154,0.33267,0.63347,0.53138
1698343516312500,-9.729855,2.314802,0.490154,0.31927,0.81647,0.59538
1698343516320312,-9.719855,2.312802,0.479154,0.32327,0.90447,0.60038
1698343516328125,-9.694855,2.312802,0.477154,0.31427,0.85647,0.55138
1698343516335937,-9.725855,2.326802,0.461154,0.30997,0.90747,0.51938
1698343516343750,-9.739855,2.335802,0.436154,0.31117,0.90647,0.58338
1698343516351562,-9.732855,2.333802,0.438154,0.31157,0.100847,0.50638
1698343516359375,-9.710855,2.350802,0.418154,0.30647,0.104447,0.57038
1698343516367187,-9.690855,2.361802,0.390154,0.30067,0.102847,0.53838
1698343516375000,-9.661855,2.385802,0.386154,0.30507,0.107647,0.58638
1698343516382812,-9.650855,2.396802,0.352154,0.30197,0.112547,0.65038
1698343516390625,-9.659855,2.405802,0.313154,0.30037,0.120447,0.76138
1698343516398437,-9.663855,2.385802,0.299154,0.29427,0.123947,0.76238
1698343516406250,-9.632855,2.384802,0.283154,0.28327,0.120947,0.79338
1698343516414062,-9.591855,2.392802,0.267154,0.28657,0.122747,0.71538
1698343516421875,-9.557855,2.414802,0.247154,0.28497,0.120847,0.77738
1698343516429687,-9.539855,2.443802,0.245154,0.28027,0.114247,0.77538
1698343516437500,-9.535855,2.465802,0.231154,0.26207,0.121047,0.83838
1698343516445312,-9.542855,2.474802,0.231154,0.26487,0.112747,0.83738
1698343516453125,-9.549855,2.483802,0.215154,0.27427,0.107547,0.78938
1698343516460937,-9.568855,2.483802,0.229154,0.26037,0.115047,0.72838
1698343516468750,-9.583855,2.498802,0.222154,0.26227,0.94447,0.72238
1698343516476562,-9.580855,2.495802,0.231154,0.25767,0.94747,0.69038
1698343516484375,-9.582855,2.480802,0.254154,0.24587,0.88647,0.54638
1698343516492187,-9.594855,2.475802,0.265154,0.23047,0.90947,0.51538
1698343516500000,-9.587855,2.477802,0.256154,0.22437,0.92947,0.48438
1698343516507812,-9.614855,2.476802,0.272154,0.21847,0.98347,0.40538
1698343516515625,-9.621855,2.471802,0.263154,0.20487,0.93547,0.38738
1698343516523437,-9.614855,2.489802,0.256154,0.18967,0.102647,0.32638
1698343516531250,-9.590855,2.526802,0.240154,0.17287,0.103247,0.27838
1698343516539062,-9.581855,2.546802,0.220154,0.17457,0.109747,0.29538
1698343516546875,-9.582855,2.563802,0.208154,0.17287,0.111947,0.23338
1698343516554687,-9.581855,2.540802,0.211154,0.16707,0.106747,0.23038
1698343516562500,-9.581855,2.530802,0.220154,0.16687,0.103847,0.16838
1698343516570312,-9.583855,2.535802,0.215154,0.16427,0.107247,0.12038
1698343516578125,-9.592855,2.546802,0.201154,0.16277,0.102747,0.562
1698343516585937,-9.593855,2.548802,0.183154,0.16587,0.109647,0.3562
1698343516593750,-9.595855,2.544802,0.181154,0.16147,0.113047,0.5062
1698343516601562,-9.579855,2.546802,0.185154,0.15557,0.111747,0.13062
1698343516609375,-9.583855,2.527802,0.174154,0.15867,0.112947,0.6762
1698343516617187,-9.573855,2.507802,0.174154,0.15557,0.103247,0.13262
1698343516625000,-9.565855,2.493802,0.172154,0.14637,0.110547,0.17862
1698343516632812,-9.577855,2.474802,0.169154,0.14077,0.103547,0.18162
1698343516640625,-9.591855,2.487802,0.169154,0.14347,0.93447,0.16762
1698343516648437,-9.600855,2.476802,0.156154,0.13777,0.98647,0.21462
1698343516656250,-9.580855,2.464802,0.165154,0.13877,0.90547,0.21462
1698343516664062,-9.582855,2.477802,0.169154,0.12347,0.89147,0.20062
1698343516671875,-9.610855,2.509802,0.142154,0.12657,0.92347,0.18362
1698343516679687,-9.594855,2.500802,0.160154,0.14027,0.95347,0.16662
1698343516687500,-9.582855,2.474802,0.197154,0.14047,0.89947,0.13762
1698343516695312,-9.600855,2.496802,0.194154,0.14187,0.88047,0.7462
1698343516703125,-9.623855,2.487802,0.201154,0.14027,0.84747,0.7462
1698343516710937,-9.623855,2.489802,0.231154,0.13837,0.78247,0.4362
1698343516718750,-9.628855,2.475802,0.226154,0.13977,0.79847,0.2762
1698343516726562,-9.626855,2.476802,0.233154,0.12767,0.81647,0.1262
1698343516734375,-9.632855,2.474802,0.231154,0.12637,0.89947,0.1162
1698343516742187,-9.630855,2.494802,0.226154,0.12637,0.93347,0.2662
1698343516750000,-9.632855,2.517802,0.203154,0.13567,0.92947,0.438
1698343516757812,-9.625855,2.505802,0.190154,0.14167,0.97747,0.3738
1698343516765625,-9.598855,2.529802,0.176154,0.11887,0.98347,0.538
1698343516773437,-9.586855,2.584802,0.154154,0.13367,0.99747,0.7038
1698343516781250,-9.582855,2.602802,0.142154,0.14267,0.97847,0.10238
1698343516789062,-9.571855,2.620802,0.117154,0.15667,0.94347,0.2338
1698343516796875,-9.539855,2.619802,0.122154,0.16577,0.88847,0.6938
1698343516804687,-9.524855,2.641802,0.115154,0.16857,0.73947,0.5138
1698343516812500,-9.542855,2.654802,0.120154,0.18807,0.68547,0.6838
1698343516820312,-9.553855,2.647802,0.122154,0.19167,0.64747,0.6638
1698343516828125,-9.547855,2.679802,0.143154,0.20347,0.66547,0.3738
1698343516835937,-9.586855,2.715802,0.136154,0.21417,0.57747,0.5138
1698343516843750,-9.603855,2.690802,0.145154,0.22997,0.57347,0.338
1698343516851562,-9.592855,2.678802,0.170154,0.23587,0.61147,0.8862
1698343516859375,-9.592855,2.671802,0.172154,0.23907,0.61047,0.10462
1698343516867187,-9.589855,2.666802,0.176154,0.25617,0.55547,0.13662
1698343516875000,-9.581855,2.677802,0.177154,0.26327,0.54447,0.19762
1698343516882812,-9.593855,2.656802,0.181154,0.26227,0.56047,0.26162
1698343516890625,-9.607855,2.641802,0.190154,0.26407,0.56247,0.32462
1698343516898437,-9.598855,2.623802,0.192154,0.26257,0.61547,0.38562
1698343516906250,-9.591855,2.587802,0.192154,0.26407,0.65447,0.49462
1698343516914062,-9.582855,2.563802,0.186154,0.26377,0.67547,0.52462
1698343516921875,-9.581855,2.555802,0.176154,0.26417,0.60447,0.51162
1698343516929687,-9.587855,2.540802,0.172154,0.26287,0.60447,0.54362
1698343516937500,-9.574855,2.501802,0.170154,0.26407,0.64247,0.58862
1698343516945312,-9.546855,2.470802,0.172154,0.26117,0.60947,0.62162
1698343516953125,-9.545855,2.441802,0.158154,0.24617,0.62847,0.62262
1698343516960937,-9.570855,2.420802,0.142154,0.24167,0.62547,0.54462
1698343516968750,-9.568855,2.419802,0.137154,0.23517,0.61247,0.54462
1698343516976562,-9.577855,2.420802,0.135154,0.23687,0.59447,0.56062
1698343516984375,-9.595855,2.421802,0.115154,0.23657,0.52647,0.51462
1698343516992187,-9.613855,2.417802,0.99154,0.22447,0.56347,0.53062
1698343517000000,-9.589855,2.409802,0.108154,0.22697,0.46447,0.51562
1698343517007812,-9.580855,2.398802,0.112154,0.22567,0.49747,0.53162
1698343517015625,-9.586855,2.370802,0.128154,0.22587,0.42847,0.53362
1698343517023437,-9.593855,2.331802,0.153154,0.21627,0.39947,0.51762
1698343517031250,-9.594855,2.335802,0.169154,0.21547,0.32847,0.53662
1698343517039062,-9.628855,2.349802,0.158154,0.21217,0.29547,0.52162
1698343517046875,-9.655855,2.356802,0.155154,0.20327,0.36147,0.49062
1698343517054687,-9.621855,2.333802,0.167154,0.19067,0.35047,0.48962
1698343517062500,-9.585855,2.324802,0.185154,0.19077,0.41747,0.48862
1698343517070312,-9.580855,2.303802,0.194154,0.17687,0.33647,0.47562
1698343517078125,-9.582855,2.315802,0.210154,0.16937,0.34947,0.38262
1698343517085937,-9.610855,2.333802,0.208154,0.17067,0.34847,0.35062
1698343517093750,-9.630855,2.349802,0.231154,0.16607,0.31547,0.33562
1698343517101562,-9.628855,2.347802,0.253154,0.16627,0.29547,0.30562
1698343517109375,-9.638855,2.351802,0.272154,0.16577,0.28147,0.28862
1698343517117187,-9.666855,2.364802,0.283154,0.16557,0.29947,0.27162
1698343517125000,-9.658855,2.397802,0.294154,0.16617,0.29547,0.28962
1698343517132812,-9.668855,2.416802,0.311154,0.16587,0.32947,0.25662
1698343517140625,-9.695855,2.410802,0.317154,0.16587,0.34747,0.27162
1698343517148437,-9.712855,2.400802,0.338154,0.16627,0.42947,0.27062
1698343517156250,-9.724855,2.381802,0.351154,0.16607,0.46647,0.30062
1698343517164062,-9.752855,2.395802,0.345154,0.16437,0.50047,0.29962
1698343517171875,-9.753855,2.434802,0.342154,0.16647,0.59947,0.31462
1698343517179687,-9.747855,2.458802,0.331154,0.16517,0.58447,0.39362
1698343517187500,-9.718855,2.462802,0.299154,0.17257,0.66847,0.39062
1698343517195312,-9.693855,2.437802,0.306154,0.18457,0.69947,0.34162
1698343517203125,-9.684855,2.425802,0.281154,0.18917,0.70047,0.38862
1698343517210937,-9.659855,2.425802,0.247154,0.19067,0.81747,0.35362
1698343517218750,-9.655855,2.427802,0.242154,0.19217,0.80047,0.35462
1698343517226562,-9.657855,2.438802,0.222154,0.20587,0.81047,0.29062
1698343517234375,-9.663855,2.416802,0.210154,0.21507,0.72247,0.26062
1698343517242187,-9.626855,2.405802,0.190154,0.21527,0.74047,0.30862
1698343517250000,-9.593855,2.413802,0.181154,0.21357,0.68947,0.27762
1698343517257812,-9.595855,2.418802,0.174154,0.21817,0.73847,0.27662
1698343517265625,-9.599855,2.405802,0.158154,0.22897,0.70147,0.26062
1698343517273437,-9.585855,2.398802,0.153154,0.23187,0.66647,0.22962
1698343517281250,-9.578855,2.389802,0.149154,0.23787,0.64547,0.16762
1698343517289062,-9.585855,2.382802,0.135154,0.23787,0.66447,0.19762
1698343517296875,-9.563855,2.397802,0.128154,0.23617,0.61447,0.18262
1698343517304687,-9.552855,2.403802,0.121154,0.23757,0.57947,0.15262
1698343517312500,-9.547855,2.401802,0.117154,0.23437,0.45847,0.6062
1698343517320312,-9.542855,2.376802,0.121154,0.23877,0.42247,0.1362
1698343517328125,-9.544855,2.352802,0.135154,0.23757,0.42547,0.10862
1698343517335937,-9.531855,2.368802,0.139154,0.23887,0.25347,0.3362
1698343517343750,-9.542855,2.375802,0.137154,0.23427,0.20347,0.1962
1698343517351562,-9.536855,2.315802,0.153154,0.23127,0.12947,0.10338
1698343517359375,-9.580855,2.320802,0.178154,0.24027,0.7847,0.10338
1698343517367187,-9.593855,2.329802,0.176154,0.23117,0.4547,0.11738
1698343517375000,-9.616855,2.316802,0.201154,0.22797,0.9847,0.10338
1698343517382812,-9.644855,2.319802,0.222154,0.21367,0.7147,0.11938
1698343517390625,-9.655855,2.318802,0.237154,0.21277,0.8747,0.3938
1698343517398437,-9.684855,2.289802,0.244154,0.20347,0.10847,0.2438
1698343517406250,-9.698855,2.283802,0.267154,0.19117,0.14547,0.2438
1698343517414062,-9.701855,2.287802,0.285154,0.18357,0.13547,0.6962
1698343517421875,-9.718855,2.292802,0.299154,0.17007,0.23847,0.8462
1698343517429687,-9.743855,2.297802,0.297154,0.16277,0.36047,0.17762
1698343517437500,-9.752855,2.295802,0.308154,0.15547,0.34847,0.28862
1698343517445312,-9.741855,2.297802,0.329154,0.14157,0.48747,0.27062
1698343517453125,-9.743855,2.315802,0.322154,0.13907,0.58947,0.36362
1698343517460937,-9.732855,2.328802,0.315154,0.11917,0.64847,0.42562
1698343517468750,-9.726855,2.354802,0.311154,0.11597,0.72147,0.50262
1698343517476562,-9.697855,2.362802,0.281154,0.11737,0.70747,0.53362
1698343517484375,-9.683855,2.356802,0.288154,0.11767,0.72147,0.51862
1698343517492187,-9.654855,2.350802,0.281154,0.11597,0.72347,0.53362
1698343517500000,-9.653855,2.342802,0.283154,0.11467,0.70447,0.51862
1698343517507812,-9.634855,2.334802,0.292154,0.11817,0.78647,0.53362
1698343517515625,-9.628855,2.318802,0.294154,0.11647,0.78647,0.51762
1698343517523437,-9.636855,2.318802,0.299154,0.11807,0.73547,0.53462
1698343517531250,-9.644855,2.322802,0.281154,0.11777,0.73747,0.53362
1698343517539062,-9.657855,2.311802,0.285154,0.11627,0.75547,0.53362
1698343517546875,-9.673855,2.327802,0.283154,0.11787,0.72047,0.53462
1698343517554687,-9.673855,2.325802,0.281154,0.11647,0.85547,0.53162
1698343517562500,-9.683855,2.332802,0.281154,0.12547,0.80247,0.51662
1698343517570312,-9.680855,2.341802,0.283154,0.12407,0.81947,0.53162
1698343517578125,-9.674855,2.333802,0.281154,0.12837,0.78647,0.51562
1698343517585937,-9.662855,2.293802,0.301154,0.13897,0.81847,0.52962
1698343517593750,-9.674855,2.270802,0.297154,0.13857,0.77047,0.51462
1698343517601562,-9.694855,2.255802,0.281154,0.14177,0.87047,0.52762
1698343517609375,-9.695855,2.222802,0.285154,0.13757,0.86647,0.48262
1698343517617187,-9.687855,2.208802,0.299154,0.12867,0.76547,0.48662
1698343517625000,-9.715855,2.196802,0.287154,0.13137,0.75047,0.48562
1698343517632812,-9.724855,2.193802,0.283154,0.13117,0.91847,0.43362
1698343517640625,-9.727855,2.180802,0.281154,0.12967,0.98647,0.44762
1698343517648437,-9.719855,2.183802,0.280154,0.13627,0.94647,0.41862
1698343517656250,-9.714855,2.163802,0.267154,0.12547,0.97747,0.30862
1698343517664062,-9.712855,2.137802,0.271154,0.11567,0.98247,0.26062
1698343517671875,-9.727855,2.126802,0.269154,0.11637,0.101147,0.27762
1698343517679687,-9.737855,2.142802,0.246154,0.11407,0.106547,0.22762
1698343517687500,-9.732855,2.154802,0.235154,0.11147,0.111047,0.16562
1698343517695312,-9.707855,2.172802,0.228154,0.9637,0.111047,0.11962
1698343517703125,-9.667855,2.189802,0.212154,0.9627,0.114747,0.16562
1698343517710937,-9.630855,2.159802,0.201154,0.9007,0.113247,0.15062
1698343517718750,-9.598855,2.166802,0.196154,0.8847,0.105947,0.4262
1698343517726562,-9.612855,2.170802,0.187154,0.7157,0.114647,0.962
1698343517734375,-9.643855,2.206802,0.187154,0.6667,0.108247,0.1062
1698343517742187,-9.651855,2.206802,0.192154,0.6847,0.101547,0.5962
1698343517750000,-9.631855,2.212802,0.187154,0.6827,0.100047,0.7562
1698343517757812,-9.634855,2.221802,0.199154,0.6797,0.93447,0.6062
1698343517765625,-9.671855,2.245802,0.201154,0.6807,0.97247,0.16862
1698343517773437,-9.669855,2.259802,0.185154,0.6827,0.97347,0.20062
1698343517781250,-9.667855,2.291802,0.217154,0.6827,0.92147,0.18662
1698343517789062,-9.664855,2.315802,0.210154,0.6837,0.92047,0.17162
1698343517796875,-9.649855,2.321802,0.210154,0.6817,0.95547,0.16962
1698343517804687,-9.654855,2.319802,0.203154,0.6817,0.93947,0.18562
1698343517812500,-9.658855,2.324802,0.194154,0.6667,0.95547,0.15462
1698343517820312,-9.681855,2.339802,0.194154,0.7727,0.97047,0.16862
1698343517828125,-9.680855,2.331802,0.174154,0.9277,0.94847,0.16862
1698343517835937,-9.655855,2.310802,0.171154,0.9127,0.98447,0.19962
1698343517843750,-9.641855,2.278802,0.199154,0.9297,0.91447,0.18662
1698343517851562,-9.687855,2.259802,0.189154,0.10257,0.82347,0.17362
1698343517859375,-9.697855,2.270802,0.160154,0.9757,0.71047,0.19062
1698343517867187,-9.684855,2.257802,0.165154,0.9867,0.79847,0.18662
1698343517875000,-9.662855,2.243802,0.169154,0.11097,0.84747,0.23262
1698343517882812,-9.644855,2.218802,0.165154,0.11527,0.78047,0.21662
1698343517890625,-9.640855,2.188802,0.178154,0.11267,0.80747,0.13962
1698343517898437,-9.649855,2.168802,0.173154,0.10027,0.79447,0.14062
1698343517906250,-9.644855,2.164802,0.171154,0.11117,0.79047,0.12462
1698343517914062,-9.648855,2.160802,0.171154,0.10067,0.73747,0.8062
1698343517921875,-9.649855,2.177802,0.169154,0.8957,0.72647,0.7962
1698343517929687,-9.653855,2.187802,0.178154,0.10027,0.70247,0.162
1698343517937500,-9.667855,2.196802,0.171154,0.9407,0.75247,0.6138
1698343517945312,-9.674855,2.186802,0.178154,0.9537,0.68747,0.3038
1698343517953125,-9.685855,2.180802,0.198154,0.9097,0.70647,0.162
1698343517960937,-9.686855,2.177802,0.219154,0.8887,0.69047,0.4638
1698343517968750,-9.686855,2.190802,0.226154,0.8287,0.74547,0.1562
1698343517976562,-9.686855,2.211802,0.235154,0.8767,0.75847,0.1538
1698343517984375,-9.711855,2.218802,0.244154,0.9067,0.75547,0.7838
1698343517992187,-9.715855,2.232802,0.244154,0.7277,0.79547,0.3262
1698343518000000,-9.703855,2.232802,0.246154,0.7297,0.79347,0.1762
1698343518007812,-9.697855,2.222802,0.244154,0.8507,0.86247,0.9262
1698343518015625,-9.706855,2.241802,0.246154,0.7757,0.88047,0.10962
1698343518023437,-9.703855,2.232802,0.244154,0.8087,0.86547,0.18862
1698343518031250,-9.694855,2.245802,0.242154,0.7497,0.90047,0.21962
1698343518039062,-9.698855,2.238802,0.237154,0.8067,0.95547,0.24762
1698343518046875,-9.690855,2.229802,0.230154,0.9007,0.95047,0.24862
1698343518054687,-9.679855,2.215802,0.214154,0.9137,0.86947,0.28062
1698343518062500,-9.661855,2.219802,0.203154,0.8367,0.92047,0.23262
1698343518070312,-9.661855,2.199802,0.196154,0.9247,0.93447,0.16862
1698343518078125,-9.676855,2.191802,0.198154,0.9127,0.93147,0.15362
1698343518085937,-9.679855,2.181802,0.189154,0.9097,0.98147,0.8962
1698343518093750,-9.685855,2.173802,0.189154,0.9427,0.97847,0.8962
1698343518101562,-9.685855,2.183802,0.191154,0.10347,0.83747,0.3062
1698343518109375,-9.694855,2.164802,0.196154,0.11057,0.72147,0.3062
1698343518117187,-9.701855,2.162802,0.226154,0.10467,0.82047,0.1738
1698343518125000,-9.694855,2.171802,0.214154,0.10297,0.83847,0.3438
1698343518132812,-9.698855,2.162802,0.230154,0.11697,0.85247,0.1262
1698343518140625,-9.719855,2.167802,0.233154,0.10597,0.90147,0.11438
1698343518148437,-9.724855,2.187802,0.219154,0.9697,0.92147,0.6638
1698343518156250,-9.701855,2.191802,0.210154,0.9547,0.97347,0.5138
1698343518164062,-9.679855,2.188802,0.212154,0.9077,0.95747,0.6738
1698343518171875,-9.672855,2.191802,0.205154,0.9257,0.97347,0.5138
1698343518179687,-9.675855,2.201802,0.192154,0.9357,0.97747,0.3738
1698343518187500,-9.659855,2.197802,0.189154,0.10447,0.95647,0.3738
1698343518195312,-9.665855,2.202802,0.176154,0.9407,0.97647,0.2662
1698343518203125,-9.663855,2.194802,0.171154,0.9387,0.96047,0.1062
1698343518210937,-9.654855,2.211802,0.173154,0.9727,0.97547,0.2662
1698343518218750,-9.652855,2.212802,0.171154,0.9667,0.82547,0.238
1698343518226562,-9.654855,2.186802,0.169154,0.10157,0.90547,0.3538
1698343518234375,-9.659855,2.179802,0.169154,0.10597,0.84047,0.2862
1698343518242187,-9.659855,2.178802,0.160154,0.9957,0.89447,0.1062
1698343518250000,-9.627855,2.189802,0.169154,0.9077,0.87747,0.1262
1698343518257812,-9.650855,2.181802,0.176154,0.9207,0.67547,0.0
1698343518265625,-9.686855,2.203802,0.171154,0.9067,0.77747,0.3062
1698343518273437,-9.690855,2.222802,0.167154,0.9577,0.80747,0.4662
1698343518281250,-9.690855,2.208802,0.185154,0.10607,0.77347,0.4562
1698343518289062,-9.699855,2.186802,0.203154,0.10157,0.72547,0.7862
1698343518296875,-9.721855,2.181802,0.207154,0.10797,0.73647,0.4762
1698343518304687,-9.721855,2.171802,0.223154,0.11227,0.65147,0.1762
1698343518312500,-9.739855,2.172802,0.205154,0.10797,0.68547,0.3362
1698343518320312,-9.758855,2.178802,0.205154,0.10457,0.79047,0.2962
1698343518328125,-9.735855,2.151802,0.187154,0.10317,0.87347,0.1262
1698343518335937,-9.685855,2.140802,0.182154,0.10937,0.85447,0.2862
1698343518343750,-9.653855,2.143802,0.180154,0.9847,0.87447,0.338
1698343518351562,-9.629855,2.145802,0.169154,0.9367,0.82447,0.3338
1698343518359375,-9.611855,2.140802,0.189154,0.9337,0.80647,0.9638
1698343518367187,-9.615855,2.147802,0.208154,0.8737,0.75747,0.7938
1698343518375000,-9.613855,2.158802,0.192154,0.7977,0.72347,0.9338
1698343518382812,-9.618855,2.185802,0.215154,0.8587,0.72247,0.9338
1698343518390625,-9.641855,2.210802,0.215154,0.7677,0.67447,0.9238
1698343518398437,-9.656855,2.219802,0.230154,0.8147,0.65447,0.10738
1698343518406250,-9.665855,2.211802,0.249154,0.8927,0.58847,0.1138
1698343518414062,-9.684855,2.227802,0.269154,0.8167,0.60847,0.1962
1698343518421875,-9.695855,2.242802,0.283154,0.8767,0.58847,0.2738
1698343518429687,-9.727855,2.249802,0.283154,0.8477,0.60847,0.3562
1698343518437500,-9.730855,2.263802,0.306154,0.9227,0.65847,0.3362
1698343518445312,-9.736855,2.265802,0.301154,0.8807,0.74447,0.9562
1698343518453125,-9.748855,2.271802,0.294154,0.8467,0.74647,0.7862
1698343518460937,-9.728855,2.258802,0.281154,0.8927,0.74647,0.9462
1698343518468750,-9.707855,2.231802,0.290154,0.8937,0.79747,0.10862
1698343518476562,-9.705855,2.244802,0.278154,0.9857,0.76347,0.17162
1698343518484375,-9.715855,2.227802,0.269154,0.9117,0.78147,0.18862
1698343518492187,-9.713855,2.227802,0.281154,0.9907,0.83147,0.24962
1698343518500000,-9.730855,2.224802,0.256154,0.9857,0.76747,0.24962
1698343518507812,-9.722855,2.220802,0.242154,0.10037,0.81647,0.24962
1698343518515625,-9.709855,2.188802,0.242154,0.10757,0.85147,0.24662
1698343518523437,-9.676855,2.162802,0.246154,0.11597,0.93047,0.27862
1698343518531250,-9.655855,2.137802,0.237154,0.11287,0.97947,0.23062
1698343518539062,-9.648855,2.142802,0.226154,0.10677,0.97747,0.16862
1698343518546875,-9.658855,2.168802,0.210154,0.11087,0.92947,0.16762
1698343518554687,-9.636855,2.154802,0.201154,0.11667,0.85747,0.5862
1698343518562500,-9.652855,2.170802,0.203154,0.11527,0.84047,0.7462
1698343518570312,-9.668855,2.174802,0.199154,0.11497,0.82347,0.2762
1698343518578125,-9.684855,2.185802,0.206154,0.11647,0.80947,0.7462
1698343518585937,-9.690855,2.181802,0.224154,0.11057,0.79047,0.4462
1698343518593750,-9.697855,2.184802,0.237154,0.10747,0.82347,0.1262
1698343518601562,-9.700855,2.214802,0.235154,0.11637,0.68847,0.2962
1698343518609375,-9.695855,2.219802,0.244154,0.11057,0.82347,0.4362
1698343518617187,-9.706855,2.213802,0.244154,0.10917,0.75647,0.6162
1698343518625000,-9.695855,2.215802,0.246154,0.11067,0.82247,0.2862
1698343518632812,-9.685855,2.214802,0.244154,0.10267,0.86147,0.4262
1698343518640625,-9.688855,2.226802,0.246154,0.11397,0.89347,0.13662
1698343518648437,-9.686855,2.224802,0.240154,0.11687,0.84247,0.13762
1698343518656250,-9.695855,2.226802,0.246154,0.11547,0.79247,0.15462
1698343518664062,-9.691855,2.224802,0.237154,0.11687,0.77347,0.10762
1698343518671875,-9.683855,2.223802,0.228154,0.11587,0.77347,0.17262
1698343518679687,-9.682855,2.214802,0.242154,0.11837,0.79747,0.23162
1698343518687500,-9.679855,2.217802,0.219154,0.12017,0.82747,0.20062
1698343518695312,-9.666855,2.221802,0.203154,0.13227,0.73947,0.18662
1698343518703125,-9.658855,2.208802,0.203154,0.12637,0.75747,0.21862
1698343518710937,-9.654855,2.192802,0.196154,0.13517,0.77247,0.16962
1698343518718750,-9.665855,2.189802,0.198154,0.13867,0.70347,0.21862
1698343518726562,-9.659855,2.187802,0.206154,0.14107,0.70747,0.21662
1698343518734375,-9.663855,2.192802,0.203154,0.14137,0.68847,0.21862
1698343518742187,-9.663855,2.210802,0.189154,0.14007,0.70547,0.23362
1698343518750000,-9.670855,2.212802,0.203154,0.14587,0.67247,0.23362
1698343518757812,-9.693855,2.185802,0.212154,0.14567,0.68947,0.20062
1698343518765625,-9.690855,2.173802,0.233154,0.14007,0.70647,0.24962
1698343518773437,-9.690855,2.188802,0.230154,0.14447,0.68847,0.23362
1698343518781250,-9.699855,2.185802,0.230154,0.14467,0.63447,0.20462
1698343518789062,-9.692855,2.175802,0.235154,0.13987,0.69147,0.26462
1698343518796875,-9.685855,2.177802,0.242154,0.14147,0.70747,0.26462
1698343518804687,-9.681855,2.173802,0.246154,0.14007,0.67347,0.26562
1698343518812500,-9.685855,2.159802,0.244154,0.14307,0.69047,0.26562
1698343518820312,-9.683855,2.141802,0.246154,0.13547,0.76047,0.29562
1698343518828125,-9.672855,2.125802,0.244154,0.12617,0.74947,0.35862
1698343518835937,-9.685855,2.126802,0.246154,0.13847,0.62647,0.32962
1698343518843750,-9.687855,2.121802,0.244154,0.12027,0.63347,0.40862
1698343518851562,-9.690855,2.121802,0.249154,0.12177,0.78347,0.35862
1698343518859375,-9.682855,2.120802,0.246154,0.12827,0.71347,0.40762
1698343518867187,-9.680855,2.117802,0.244154,0.12207,0.64947,0.44062
1698343518875000,-9.695855,2.116802,0.246154,0.13767,0.69447,0.43962
1698343518882812,-9.684855,2.81802,0.244154,0.13567,0.69747,0.42262
1698343518890625,-9.662855,2.65802,0.246154,0.12937,0.64847,0.40862
1698343518898437,-9.683855,2.76802,0.250154,0.12857,0.69347,0.39362
1698343518906250,-9.724855,2.85802,0.239154,0.12217,0.62947,0.37862
1698343518914062,-9.731855,2.69802,0.239154,0.13097,0.59247,0.31562
1698343518921875,-9.704855,2.42802,0.251154,0.12957,0.67847,0.36062
1698343518929687,-9.699855,2.33802,0.271154,0.11897,0.62947,0.34762
1698343518937500,-9.718855,2.39802,0.267154,0.11537,0.60147,0.37762
1698343518945312,-9.729855,2.44802,0.255154,0.12027,0.61147,0.30062
1698343518953125,-9.731855,2.49802,0.253154,0.11717,0.67647,0.23562
1698343518960937,-9.737855,2.38802,0.246154,0.11897,0.67747,0.29962
1698343518968750,-9.719855,2.43802,0.244154,0.12207,0.69047,0.23662
1698343518976562,-9.693855,2.34802,0.246154,0.11987,0.64247,0.20462
1698343518984375,-9.675855,2.5802,0.251154,0.11527,0.64447,0.20462
1698343518992187,-9.653855,1.994802,0.269154,0.11697,0.67247,0.12662
1698343519000000,-9.651855,1.992802,0.285154,0.11687,0.61747,0.1762
1698343519007812,-9.690855,1.994802,0.282154,0.11497,0.60247,0.162
1698343519015625,-9.719855,2.22802,0.301154,0.11217,0.56247,0.10638
1698343519023437,-9.719855,2.9802,0.317154,0.10737,0.58247,0.7538
1698343519031250,-9.718855,1.976802,0.330154,0.11237,0.60047,0.262
1698343519039062,-9.721855,1.975802,0.353154,0.9817,0.58347,0.10638
1698343519046875,-9.748855,1.996802,0.380154,0.8937,0.60347,0.2738
1698343519054687,-9.771855,2.6802,0.378154,0.9267,0.63547,0.1138
1698343519062500,-9.776855,2.41802,0.383154,0.9097,0.62147,0.362
1698343519070312,-9.776855,2.50802,0.383154,0.9267,0.67147,0.1862
1698343519078125,-9.790855,2.50802,0.378154,0.9247,0.75847,0.4762
1698343519085937,-9.783855,2.48802,0.390154,0.9097,0.75947,0.4762
1698343519093750,-9.766855,2.65802,0.376154,0.9377,0.78947,0.3238
1698343519101562,-9.743855,2.63802,0.369154,0.9257,0.92747,0.4362
1698343519109375,-9.756855,2.76802,0.353154,0.9267,0.89247,0.4462
1698343519117187,-9.739855,2.84802,0.326154,0.9977,0.97747,0.962
1698343519125000,-9.718855,2.84802,0.317154,0.10477,0.92447,0.4262
1698343519132812,-9.725855,2.78802,0.312154,0.11397,0.87047,0.1262
1698343519140625,-9.746855,2.70802,0.314154,0.11447,0.100247,0.2662
1698343519148437,-9.761855,2.71802,0.278154,0.11677,0.93847,0.962
1698343519156250,-9.734855,2.48802,0.278154,0.11517,0.104147,0.2262
1698343519164062,-9.713855,2.28802,0.285154,0.11687,0.102247,0.862
1698343519171875,-9.699855,2.17802,0.253154,0.11687,0.98447,0.6838
1698343519179687,-9.694855,2.1802,0.244154,0.11677,0.95047,0.8438
1698343519187500,-9.692855,1.991802,0.246154,0.11687,0.96547,0.11538
1698343519195312,-9.696855,1.986802,0.246154,0.11517,0.99947,0.13238
1698343519203125,-9.703855,1.979802,0.241154,0.11647,0.89647,0.19338
1698343519210937,-9.699855,1.992802,0.244154,0.11197,0.96647,0.16338
1698343519218750,-9.691855,2.9802,0.248154,0.9547,0.98047,0.23938
1698343519226562,-9.722855,2.31802,0.237154,0.9057,0.86647,0.22238
1698343519234375,-9.724855,2.35802,0.230154,0.9667,0.99947,0.24138
1698343519242187,-9.709855,2.46802,0.244154,0.9347,0.95247,0.20938
1698343519250000,-9.717855,2.51802,0.244154,0.8777,0.95347,0.16038
1698343519257812,-9.731855,2.69802,0.246154,0.8767,0.86747,0.20638
1698343519265625,-9.738855,2.69802,0.244154,0.9057,0.93747,0.16138
1698343519273437,-9.732855,2.75802,0.246154,0.8727,0.95447,0.19338
1698343519281250,-9.716855,2.98802,0.244154,0.8787,0.97247,0.9838
1698343519289062,-9.719855,2.90802,0.246154,0.8667,0.96747,0.14338
1698343519296875,-9.732855,2.84802,0.244154,0.8787,0.94147,0.3538
1698343519304687,-9.734855,2.100802,0.239154,0.8327,0.95947,0.5038
1698343519312500,-9.716855,2.98802,0.232154,0.8327,0.97547,0.5138
1698343519320312,-9.705855,2.88802,0.228154,0.8337,0.96347,0.4362
1698343519328125,-9.695855,2.77802,0.223154,0.8947,0.97647,0.438
1698343519335937,-9.700855,2.68802,0.191154,0.9237,0.95947,0.438
1698343519343750,-9.680855,2.71802,0.182154,0.9207,0.97847,0.2138
1698343519351562,-9.665855,2.71802,0.175154,0.8817,0.98847,0.8238
1698343519359375,-9.660855,2.56802,0.173154,0.8447,0.96347,0.538
1698343519367187,-9.655855,2.45802,0.171154,0.8917,0.90847,0.5038
1698343519375000,-9.634855,2.56802,0.166154,0.8007,0.85747,0.7938
1698343519382812,-9.648855,2.81802,0.155154,0.8927,0.85347,0.12738
1698343519390625,-9.659855,2.86802,0.146154,0.9217,0.83247,0.20538
1698343519398437,-9.668855,2.84802,0.159154,0.8917,0.76647,0.18838
1698343519406250,-9.666855,2.88802,0.173154,0.9047,0.69847,0.21838
1698343519414062,-9.666855,2.91802,0.175154,0.9217,0.66247,0.23338
1698343519421875,-9.674855,2.87802,0.194154,0.9237,0.67747,0.23238
1698343519429687,-9.689855,2.77802,0.221154,0.9037,0.63247,0.21738
1698343519437500,-9.681855,2.102802,0.214154,0.9147,0.68447,0.23538
1698343519445312,-9.691855,2.107802,0.235154,0.9067,0.64747,0.18538
1698343519453125,-9.689855,2.91802,0.251154,0.9647,0.59547,0.23238
1698343519460937,-9.692855,2.78802,0.264154,0.9377,0.57947,0.18338
1698343519468750,-9.720855,2.78802,0.264154,0.8597,0.61747,0.16938
1698343519476562,-9.704855,2.105802,0.262154,0.8637,0.68647,0.7538
1698343519484375,-9.705855,2.99802,0.278154,0.9217,0.65447,0.6038
1698343519492187,-9.702855,2.77802,0.283154,0.9077,0.63847,0.2838
1698343519500000,-9.704855,2.89802,0.271154,0.7107,0.62647,0.462
1698343519507812,-9.707855,2.98802,0.273154,0.7247,0.60847,0.2638
1698343519515625,-9.702855,2.98802,0.273154,0.7887,0.66147,0.8162
1698343519523437,-9.691855,2.97802,0.267154,0.7877,0.71147,0.6462
1698343519531250,-9.662855,2.81802,0.278154,0.8017,0.63247,0.14462
1698343519539062,-9.680855,2.94802,0.283154,0.8007,0.63247,0.14462
1698343519546875,-9.721855,2.108802,0.271154,0.8327,0.66547,0.14362
1698343519554687,-9.725855,2.100802,0.271154,0.8057,0.59847,0.20862
1698343519562500,-9.720855,2.87802,0.294154,0.8817,0.64347,0.11362
1698343519570312,-9.736855,2.94802,0.292154,0.8967,0.60947,0.11462
1698343519578125,-9.741855,2.78802,0.283154,0.8927,0.62347,0.362
1698343519585937,-9.739855,2.75802,0.310154,0.9197,0.60747,0.1338
1698343519593750,-9.743855,2.101802,0.314154,0.9237,0.67147,0.2938
1698343519601562,-9.756855,2.88802,0.303154,0.10637,0.62847,0.10638
1698343519609375,-9.741855,2.82802,0.308154,0.10737,0.66747,0.7738
1698343519617187,-9.693855,2.53802,0.314154,0.11507,0.63247,0.6138
1698343519625000,-9.661855,2.46802,0.319154,0.11667,0.69447,0.14138
1698343519632812,-9.647855,2.32802,0.317154,0.11207,0.66347,0.10838
1698343519640625,-9.642855,2.37802,0.332154,0.9997,0.54647,0.12038
1698343519648437,-9.654855,2.58802,0.344154,0.9397,0.59947,0.8938
1698343519656250,-9.684855,2.80802,0.344154,0.9067,0.49747,0.15038
1698343519664062,-9.697855,2.96802,0.369154,0.9227,0.57847,0.21538
1698343519671875,-9.716855,2.103802,0.387154,0.9077,0.56747,0.8938
1698343519679687,-9.735855,2.108802,0.389154,0.8957,0.59947,0.8838
1698343519687500,-9.757855,2.119802,0.408154,0.9227,0.62147,0.2838
1698343519695312,-9.757855,2.134802,0.419154,0.9237,0.60347,0.2738
1698343519703125,-9.757855,2.121802,0.444154,0.9087,0.63747,0.2838
1698343519710937,-9.762855,2.118802,0.456154,0.9357,0.65647,0.3038
1698343519718750,-9.778855,2.130802,0.449154,0.9847,0.72247,0.0
1698343519726562,-9.766855,2.143802,0.431154,0.10017,0.68847,0.3262
1698343519734375,-9.768855,2.166802,0.417154,0.10267,0.87647,0.1062
1698343519742187,-9.765855,2.167802,0.406154,0.10447,0.95747,0.2138
1698343519750000,-9.754855,2.146802,0.379154,0.11657,0.97547,0.3962
1698343519757812,-9.732855,2.136802,0.369154,0.11557,0.98847,0.4162
1698343519765625,-9.712855,2.127802,0.353154,0.11717,0.102147,0.4062
1698343519773437,-9.732855,2.111802,0.335154,0.11537,0.100647,0.2462
1698343519781250,-9.745855,2.99802,0.321154,0.12797,0.101847,0.4062
1698343519789062,-9.722855,2.103802,0.298154,0.12807,0.100047,0.2562
1698343519796875,-9.716855,2.68802,0.296154,0.13647,0.100247,0.662
1698343519804687,-9.677855,2.39802,0.305154,0.13677,0.99947,0.838
1698343519812500,-9.667855,2.3802,0.312154,0.13347,0.93247,0.3838
1698343519820312,-9.662855,1.998802,0.298154,0.13847,0.90847,0.11438
1698343519828125,-9.648855,1.998802,0.293154,0.11717,0.84147,0.17438
1698343519835937,-9.655855,2.4802,0.303154,0.11667,0.87647,0.22338
1698343519843750,-9.679855,2.28802,0.291154,0.11647,0.79147,0.26938
1698343519851562,-9.690855,2.39802,0.285154,0.11477,0.72547,0.25238
1698343519859375,-9.704855,2.48802,0.289154,0.11027,0.77647,0.26838
1698343519867187,-9.695855,2.75802,0.303154,0.9957,0.79647,0.25238
1698343519875000,-9.698855,2.86802,0.296154,0.10117,0.82947,0.26938
1698343519882812,-9.697855,2.100802,0.314154,0.10277,0.84247,0.30038
1698343519890625,-9.684855,2.111802,0.319154,0.9057,0.85047,0.20638
1698343519898437,-9.692855,2.137802,0.328154,0.10087,0.86647,0.23938
1698343519906250,-9.719855,2.156802,0.312154,0.10127,0.72947,0.21938
1698343519914062,-9.710855,2.147802,0.310154,0.9217,0.85047,0.19038
1698343519921875,-9.701855,2.169802,0.315154,0.9807,0.86647,0.20738
1698343519929687,-9.694855,2.167802,0.303154,0.10277,0.77947,0.22038
1698343519937500,-9.687855,2.176802,0.333154,0.10607,0.72947,0.15638
1698343519945312,-9.707855,2.174802,0.305154,0.11077,0.79947,0.7938
1698343519953125,-9.719855,2.158802,0.294154,0.11497,0.76247,0.17438
1698343519960937,-9.710855,2.135802,0.321154,0.11647,0.73247,0.9538
1698343519968750,-9.693855,2.120802,0.317154,0.11687,0.76247,0.11038
1698343519976562,-9.666855,2.105802,0.323154,0.11387,0.79747,0.9538
1698343519984375,-9.682855,2.80802,0.321154,0.11517,0.78147,0.9538
1698343519992187,-9.687855,2.83802,0.319154,0.11647,0.70047,0.6338
1698343520000000,-9.681855,2.82802,0.317154,0.11377,0.67847,0.10838
1698343520007812,-9.686855,2.105802,0.319154,0.10177,0.71747,0.4538
1698343520015625,-9.675855,2.114802,0.312154,0.10787,0.76647,0.6338
1698343520023437,-9.665855,2.107802,0.321154,0.10487,0.74747,0.9338
1698343520031250,-9.690855,2.121802,0.319154,0.10177,0.69547,0.13938
1698343520039062,-9.705855,2.129802,0.317154,0.10757,0.74647,0.14138
1698343520046875,-9.694855,2.138802,0.321154,0.11207,0.74947,0.9538
1698343520054687,-9.693855,2.143802,0.333154,0.11057,0.74247,0.21938
1698343520062500,-9.689855,2.141802,0.321154,0.10627,0.72947,0.12438
1698343520070312,-9.685855,2.139802,0.340154,0.11327,0.76447,0.17538
1698343520078125,-9.689855,2.154802,0.349154,0.11677,0.72647,0.15738
1698343520085937,-9.697855,2.168802,0.333154,0.11627,0.73347,0.11238
1698343520093750,-9.720855,2.175802,0.340154,0.11647,0.65047,0.4738
1698343520101562,-9.732855,2.172802,0.351154,0.11677,0.64547,0.10838
1698343520109375,-9.730855,2.156802,0.349154,0.11667,0.73247,0.7938
1698343520117187,-9.708855,2.144802,0.360154,0.11637,0.70147,0.4838
1698343520125000,-9.704855,2.141802,0.356154,0.11617,0.70447,0.1738
1698343520132812,-9.726855,2.133802,0.353154,0.11507,0.73747,0.1362
1698343520140625,-9.738855,2.117802,0.355154,0.11407,0.78147,0.3138
1698343520148437,-9.734855,2.101802,0.339154,0.11547,0.81747,0.1738
1698343520156250,-9.707855,2.100802,0.330154,0.10327,0.76847,0.3138
1698343520164062,-9.675855,2.91802,0.346154,0.10007,0.85347,0.4938
1698343520171875,-9.691855,2.102802,0.353154,0.10627,0.78547,0.1638
1698343520179687,-9.721855,2.123802,0.303154,0.10627,0.82047,0.1738
1698343520187500,-9.696855,2.124802,0.296154,0.10147,0.83847,0.3438
1698343520195312,-9.694855,2.119802,0.312154,0.10747,0.83647,0.5038
1698343520203125,-9.715855,2.133802,0.285154,0.9807,0.78647,0.11138
1698343520210937,-9.675855,2.133802,0.283154,0.9537,0.83447,0.12738
1698343520218750,-9.650855,2.138802,0.298154,0.10627,0.78047,0.12638
1698343520226562,-9.689855,2.146802,0.283154,0.10427,0.83047,0.20638
1698343520234375,-9.701855,2.171802,0.274154,0.9667,0.79647,0.23638
1698343520242187,-9.699855,2.178802,0.274154,0.10897,0.84647,0.19138
1698343520250000,-9.678855,2.176802,0.262154,0.10777,0.79447,0.18938
1698343520257812,-9.658855,2.175802,0.271154,0.10437,0.74347,0.25138
1698343520265625,-9.634855,2.158802,0.289154,0.10927,0.76147,0.15638
1698343520273437,-9.635855,2.148802,0.305154,0.9527,0.69647,0.21838
1698343520281250,-9.648855,2.144802,0.319154,0.9387,0.64847,0.13838
1698343520289062,-9.679855,2.173802,0.322154,0.9327,0.64947,0.20238
1698343520296875,-9.692855,2.178802,0.335154,0.9077,0.73747,0.7838
1698343520304687,-9.701855,2.190802,0.346154,0.9247,0.71747,0.9238
1698343520312500,-9.698855,2.183802,0.355154,0.9107,0.71847,0.7638
1698343520320312,-9.693855,2.172802,0.367154,0.9297,0.73747,0.3362
1698343520328125,-9.705855,2.173802,0.385154,0.9287,0.80347,0.1438
1698343520335937,-9.720855,2.175802,0.376154,0.9287,0.75247,0.1338
1698343520343750,-9.724855,2.183802,0.390154,0.9257,0.75647,0.1662
1698343520351562,-9.726855,2.192802,0.378154,0.9247,0.89147,0.238
1698343520359375,-9.723855,2.192802,0.369154,0.9277,0.98947,0.1938
1698343520367187,-9.714855,2.187802,0.349154,0.9277,0.94247,0.5962
1698343520375000,-9.710855,2.192802,0.335154,0.9277,0.97747,0.7462
1698343520382812,-9.702855,2.198802,0.315154,0.9257,0.101347,0.8862
1698343520390625,-9.686855,2.195802,0.296154,0.9727,0.98147,0.15162
1698343520398437,-9.685855,2.167802,0.301154,0.9747,0.96447,0.18462
1698343520406250,-9.717855,2.140802,0.299154,0.10807,0.98347,0.26162
1698343520414062,-9.721855,2.183802,0.278154,0.9307,0.96547,0.20062
1698343520421875,-9.699855,2.180802,0.253154,0.11277,0.99547,0.19862
1698343520429687,-9.669855,2.148802,0.283154,0.11417,0.89447,0.18462
1698343520437500,-9.643855,2.109802,0.273154,0.11757,0.88847,0.13862
1698343520445312,-9.668855,2.82802,0.289154,0.11727,0.95347,0.4262
1698343520453125,-9.659855,2.106802,0.276154,0.11547,0.90347,0.1162
1698343520460937,-9.659855,2.89802,0.271154,0.11727,0.91847,0.2762
1698343520468750,-9.666855,2.81802,0.294154,0.11197,0.78347,0.11238
1698343520476562,-9.684855,2.79802,0.298154,0.10587,0.73347,0.11038
1698343520484375,-9.696855,2.83802,0.315154,0.10727,0.88847,0.6738
1698343520492187,-9.689855,2.104802,0.315154,0.9967,0.81847,0.14338
1698343520500000,-9.712855,2.120802,0.314154,0.9677,0.76747,0.14138
1698343520507812,-9.721855,2.106802,0.312154,0.9517,0.88547,0.16038
1698343520515625,-9.727855,2.107802,0.333154,0.9067,0.95247,0.17638
1698343520523437,-9.739855,2.122802,0.324154,0.9227,0.102247,0.11638
1698343520531250,-9.721855,2.140802,0.317154,0.9217,0.98547,0.19338
1698343520539062,-9.721855,2.158802,0.321154,0.8937,0.100447,0.13038
1698343520546875,-9.722855,2.160802,0.306154,0.9067,0.100447,0.16238
1698343520554687,-9.699855,2.155802,0.287154,0.9237,0.93947,0.6638
1698343520562500,-9.708855,2.182802,0.283154,0.8767,0.99147,0.8338
1698343520570312,-9.701855,2.191802,0.255154,0.8487,0.109247,0.6938
1698343520578125,-9.690855,2.189802,0.246154,0.8957,0.100647,0.5138
1698343520585937,-9.686855,2.197802,0.246154,0.9237,0.97347,0.6738
1698343520593750,-9.688855,2.214802,0.239154,0.9577,0.98947,0.3538
1698343520601562,-9.670855,2.199802,0.208154,0.9827,0.97347,0.6838
1698343520609375,-9.617855,2.179802,0.235154,0.11067,0.91947,0.5138
1698343520617187,-9.619855,2.157802,0.237154,0.10797,0.97047,0.2038
1698343520625000,-9.644855,2.139802,0.228154,0.10757,0.81347,0.17438
1698343520632812,-9.648855,2.140802,0.237154,0.10147,0.84647,0.20638
1698343520640625,-9.659855,2.133802,0.246154,0.10467,0.79947,0.11138
1698343520648437,-9.677855,2.129802,0.246154,0.10447,0.78047,0.17338
1698343520656250,-9.687855,2.137802,0.253154,0.10127,0.73347,0.12538
1698343520664062,-9.677855,2.141802,0.258154,0.9327,0.68747,0.14138
1698343520671875,-9.663855,2.143802,0.267154,0.9177,0.75047,0.22038
1698343520679687,-9.660855,2.143802,0.271154,0.9027,0.70047,0.20338
1698343520687500,-9.651855,2.141802,0.285154,0.9187,0.78247,0.23638
1698343520695312,-9.659855,2.149802,0.273154,0.8317,0.73047,0.23338
1698343520703125,-9.674855,2.152802,0.280154,0.8727,0.71847,0.20338
1698343520710937,-9.681855,2.168802,0.292154,0.7957,0.78747,0.22038
1698343520718750,-9.700855,2.195802,0.283154,0.7977,0.84147,0.12738
1698343520726562,-9.713855,2.202802,0.278154,0.7087,0.74147,0.9238
1698343520734375,-9.697855,2.205802,0.292154,0.7557,0.83947,0.11038
1698343520742187,-9.700855,2.199802,0.301154,0.8897,0.80947,0.3338
1698343520750000,-9.702855,2.208802,0.288154,0.9207,0.70947,0.1562
1698343520757812,-9.700855,2.208802,0.292154,0.9057,0.76047,0.3062
1698343520765625,-9.704855,2.186802,0.301154,0.9527,0.74247,0.4662
1698343520773437,-9.697855,2.173802,0.303154,0.9227,0.77647,0.3062
1698343520781250,-9.690855,2.162802,0.301154,0.9547,0.74347,0.7862
1698343520789062,-9.690855,2.151802,0.294154,0.10297,0.75647,0.3062
1698343520796875,-9.688855,2.132802,0.306154,0.10887,0.85847,0.1162
1698343520804687,-9.671855,2.115802,0.303154,0.10927,0.77147,0.3062
1698343520812500,-9.680855,2.108802,0.310154,0.10907,0.70447,0.1562
1698343520820312,-9.692855,2.108802,0.306154,0.10407,0.75547,0.6438
1698343520828125,-9.689855,2.108802,0.305154,0.10897,0.76847,0.8038
1698343520835937,-9.676855,2.99802,0.317154,0.10567,0.73247,0.15838
1698343520843750,-9.687855,2.99802,0.319154,0.10107,0.78147,0.22138
1698343520851562,-9.690855,2.103802,0.317154,0.10067,0.69847,0.25238
1698343520859375,-9.694855,2.110802,0.317154,0.10097,0.91547,0.25638
1698343520867187,-9.708855,2.124802,0.333154,0.9477,0.91447,0.30238
1698343520875000,-9.720855,2.134802,0.322154,0.9587,0.91947,0.27338
1698343520882812,-9.721855,2.138802,0.337154,0.9477,0.82747,0.36338
1698343520890625,-9.729855,2.162802,0.331154,0.9447,0.80847,0.44238
1698343520898437,-9.728855,2.161802,0.340154,0.8947,0.84947,0.39738
1698343520906250,-9.733855,2.178802,0.349154,0.9167,0.84447,0.37938
1698343520914062,-9.731855,2.180802,0.358154,0.9167,0.89647,0.36538
1698343520921875,-9.724855,2.175802,0.365154,0.8867,0.94747,0.36638
1698343520929687,-9.724855,2.207802,0.356154,0.9067,0.99847,0.28738
1698343520937500,-9.722855,2.219802,0.353154,0.9207,0.94647,0.30238
1698343520945312,-9.709855,2.222802,0.344154,0.9037,0.96847,0.24038
1698343520953125,-9.706855,2.209802,0.344154,0.9367,0.104947,0.27338
1698343520960937,-9.695855,2.218802,0.342154,0.8917,0.101747,0.24038
1698343520968750,-9.686855,2.213802,0.333154,0.9217,0.111947,0.22838
1698343520976562,-9.690855,2.211802,0.324154,0.9077,0.113647,0.21238
1698343520984375,-9.685855,2.214802,0.317154,0.9247,0.115047,0.22738
1698343520992187,-9.670855,2.211802,0.310154,0.9247,0.112047,0.14838
1698343521000000,-9.665855,2.223802,0.299154,0.9277,0.108547,0.13138
1698343521007812,-9.670855,2.218802,0.283154,0.9227,0.105047,0.22538
1698343521015625,-9.658855,2.221802,0.271154,0.9107,0.104847,0.24038
1698343521023437,-9.655855,2.225802,0.267154,0.9347,0.113747,0.22938
1698343521031250,-9.661855,2.224802,0.253154,0.9517,0.111847,0.24438
1698343521039062,-9.652855,2.226802,0.262154,0.9197,0.101647,0.27338
1698343521046875,-9.657855,2.223802,0.265154,0.9027,0.100247,0.25738
1698343521054687,-9.666855,2.240802,0.253154,0.9677,0.106747,0.22638
1698343521062500,-9.666855,2.239802,0.256154,0.9957,0.96647,0.24138
1698343521070312,-9.669855,2.228802,0.267154,0.9017,0.101947,0.25838
1698343521078125,-9.672855,2.224802,0.269154,0.9527,0.110147,0.22738
1698343521085937,-9.680855,2.227802,0.258154,0.9467,0.107047,0.24438
1698343521093750,-9.669855,2.229802,0.263154,0.9007,0.98847,0.22638
1698343521101562,-9.669855,2.239802,0.256154,0.9187,0.100347,0.22638
1698343521109375,-9.675855,2.242802,0.260154,0.9057,0.98347,0.24038
1698343521117187,-9.694855,2.234802,0.279154,0.9167,0.98847,0.21138
1698343521125000,-9.690855,2.222802,0.278154,0.9087,0.100647,0.8338
1698343521132812,-9.681855,2.227802,0.264154,0.9267,0.91947,0.8138
1698343521140625,-9.686855,2.247802,0.269154,0.9097,0.95547,0.8238
1698343521148437,-9.689855,2.264802,0.253154,0.8917,0.97547,0.6738
1698343521156250,-9.670855,2.254802,0.251154,0.9257,0.97147,0.8238
1698343521164062,-9.674855,2.224802,0.251154,0.9107,0.95747,0.3538
1698343521171875,-9.672855,2.233802,0.244154,0.9247,0.97547,0.438
1698343521179687,-9.670855,2.240802,0.246154,0.9257,0.98947,0.6738
1698343521187500,-9.663855,2.231802,0.240154,0.9247,0.97147,0.8238
1698343521195312,-9.666855,2.244802,0.230154,0.9097,0.99147,0.5238
1698343521203125,-9.659855,2.242802,0.230154,0.9257,0.97147,0.6638
1698343521210937,-9.656855,2.238802,0.219154,0.9137,0.107147,0.6838
1698343521218750,-9.661855,2.238802,0.224154,0.8957,0.105547,0.8438
1698343521226562,-9.663855,2.242802,0.221154,0.8647,0.99147,0.3538
1698343521234375,-9.679855,2.249802,0.212154,0.8797,0.95447,0.9738
1698343521242187,-9.676855,2.248802,0.214154,0.9287,0.96847,0.8138
1698343521250000,-9.677855,2.247802,0.215154,0.9097,0.102247,0.9938
1698343521257812,-9.663855,2.242802,0.212154,0.9257,0.96747,0.16038
1698343521265625,-9.671855,2.239802,0.203154,0.9067,0.100747,0.10038
1698343521273437,-9.666855,2.237802,0.212154,0.8747,0.98947,0.14638
1698343521281250,-9.654855,2.253802,0.203154,0.8337,0.100647,0.9838
1698343521289062,-9.657855,2.261802,0.185154,0.8617,0.99047,0.11438
1698343521296875,-9.659855,2.262802,0.190154,0.8937,0.95647,0.8238
1698343521304687,-9.658855,2.254802,0.199154,0.9057,0.97847,0.2138
1698343521312500,-9.661855,2.244802,0.201154,0.8687,0.96647,0.2338
1698343521320312,-9.667855,2.246802,0.197154,0.8417,0.100147,0.2462
1698343521328125,-9.653855,2.247802,0.176154,0.9347,0.99747,0.862
1698343521335937,-9.621855,2.232802,0.187154,0.8777,0.92847,0.2762
1698343521343750,-9.615855,2.230802,0.174154,0.9027,0.86447,0.2662
1698343521351562,-9.622855,2.251802,0.151154,0.8587,0.88047,0.1162
1698343521359375,-9.602855,2.248802,0.164154,0.8347,0.90947,0.238
1698343521367187,-9.610855,2.233802,0.171154,0.9047,0.79447,0.1362
1698343521375000,-9.639855,2.225802,0.178154,0.9077,0.74147,0.0
1698343521382812,-9.646855,2.223802,0.171154,0.8157,0.74447,0.1662
1698343521390625,-9.636855,2.237802,0.183154,0.8937,0.68847,0.2938
1698343521398437,-9.655855,2.247802,0.181154,0.8137,0.70947,0.3038
1698343521406250,-9.667855,2.242802,0.194154,0.8387,0.69447,0.6338
1698343521414062,-9.664855,2.239802,0.206154,0.9367,0.70847,0.1662
1698343521421875,-9.663855,2.226802,0.221154,0.9067,0.70747,0.1438
1698343521429687,-9.664855,2.212802,0.249154,0.8887,0.68947,0.7738
1698343521437500,-9.680855,2.223802,0.244154,0.9157,0.60747,0.6138
1698343521445312,-9.716855,2.230802,0.247154,0.9037,0.74147,0.4838
1698343521453125,-9.705855,2.208802,0.244154,0.9177,0.73947,0.9538
1698343521460937,-9.681855,2.181802,0.262154,0.9057,0.72347,0.4638
1698343521468750,-9.736855,2.211802,0.262154,0.8597,0.74247,0.3138
1698343521476562,-9.767855,2.235802,0.217154,0.7647,0.84847,0.3438
1698343521484375,-9.719855,2.223802,0.203154,0.9047,0.86247,0.1162
1698343521492187,-9.659855,2.196802,0.215154,0.9057,0.91147,0.438
1698343521500000,-9.620855,2.178802,0.205154,0.9217,0.92647,0.2038
1698343521507812,-9.583855,2.140802,0.217154,0.9217,0.73647,0.10938
1698343521515625,-9.581855,2.120802,0.233154,0.8877,0.75447,0.14238
1698343521523437,-9.607855,2.168802,0.212154,0.7037,0.72947,0.6238
1698343521531250,-9.616855,2.203802,0.201154,0.7977,0.61947,0.16938
1698343521539062,-9.649855,2.215802,0.231154,0.6997,0.59247,0.17038
1698343521546875,-9.654855,2.235802,0.235154,0.6907,0.60247,0.21538
1698343521554687,-9.658855,2.213802,0.260154,0.7747,0.60347,0.26538
1698343521562500,-9.672855,2.211802,0.297154,0.7747,0.59147,0.15538
1698343521570312,-9.679855,2.224802,0.308154,0.7517,0.53347,0.21438
1698343521578125,-9.711855,2.221802,0.342154,0.8137,0.58147,0.23038
1698343521585937,-9.737855,2.226802,0.379154,0.7937,0.60247,0.21738
1698343521593750,-9.764855,2.225802,0.392154,0.8097,0.61847,0.23338
1698343521601562,-9.784855,2.256802,0.390154,0.8557,0.63447,0.21838
1698343521609375,-9.784855,2.286802,0.390154,0.9037,0.71547,0.23538
1698343521617187,-9.775855,2.273802,0.392154,0.9067,0.88547,0.17538
1698343521625000,-9.768855,2.271802,0.385154,0.9687,0.94647,0.25538
1698343521632812,-9.755855,2.278802,0.354154,0.9667,0.107047,0.18038
1698343521640625,-9.730855,2.269802,0.329154,0.9487,0.100347,0.21138
1698343521648437,-9.691855,2.257802,0.306154,0.9207,0.110347,0.21238
1698343521656250,-9.666855,2.262802,0.272154,0.10437,0.106847,0.16438
1698343521664062,-9.667855,2.257802,0.240154,0.9967,0.112147,0.16638
1698343521671875,-9.644855,2.274802,0.219154,0.10727,0.113747,0.15138
1698343521679687,-9.626855,2.278802,0.185154,0.11787,0.113247,0.21538
1698343521687500,-9.589855,2.270802,0.169154,0.11507,0.101347,0.21138
1698343521695312,-9.555855,2.252802,0.164154,0.11977,0.102947,0.19538
1698343521703125,-9.541855,2.233802,0.169154,0.11637,0.94647,0.22638
1698343521710937,-9.581855,2.243802,0.172154,0.11887,0.76447,0.22438
1698343521718750,-9.602855,2.250802,0.163154,0.12477,0.67847,0.25438
1698343521726562,-9.607855,2.247802,0.194154,0.12997,0.75647,0.27038
1698343521734375,-9.621855,2.252802,0.208154,0.11747,0.67647,0.26838
1698343521742187,-9.630855,2.261802,0.219154,0.11447,0.65847,0.29838
1698343521750000,-9.641855,2.273802,0.251154,0.11477,0.65747,0.28238
1698343521757812,-9.666855,2.257802,0.262154,0.11767,0.55547,0.29638
1698343521765625,-9.691855,2.255802,0.274154,0.11177,0.67847,0.20438
1698343521773437,-9.708855,2.282802,0.288154,0.11437,0.64547,0.23638
1698343521781250,-9.712855,2.275802,0.313154,0.10847,0.66347,0.22038
1698343521789062,-9.704855,2.272802,0.317154,0.10497,0.66647,0.23738
1698343521796875,-9.715855,2.275802,0.320154,0.9617,0.68647,0.17338
1698343521804687,-9.722855,2.293802,0.313154,0.8867,0.75747,0.9538
1698343521812500,-9.713855,2.317802,0.304154,0.9327,0.85747,0.9838
1698343521820312,-9.726855,2.334802,0.283154,0.8907,0.84047,0.8038
1698343521828125,-9.694855,2.331802,0.272154,0.10147,0.93747,0.8338
1698343521835937,-9.673855,2.329802,0.263154,0.10707,0.101047,0.2438
1698343521843750,-9.664855,2.332802,0.247154,0.9627,0.95847,0.10038
1698343521851562,-9.653855,2.329802,0.233154,0.10387,0.104247,0.8738
1698343521859375,-9.638855,2.334802,0.229154,0.11637,0.95447,0.5438
1698343521867187,-9.625855,2.333802,0.226154,0.11447,0.88947,0.6938
1698343521875000,-9.637855,2.345802,0.220154,0.11157,0.88847,0.8438
1698343521882812,-9.623855,2.327802,0.217154,0.11457,0.82047,0.8338
1698343521890625,-9.619855,2.312802,0.240154,0.12457,0.82247,0.11738
1698343521898437,-9.621855,2.299802,0.242154,0.11717,0.73747,0.11438
1698343521906250,-9.623855,2.297802,0.240154,0.11427,0.75447,0.11438
1698343521914062,-9.627855,2.307802,0.249154,0.11747,0.70047,0.14438
1698343521921875,-9.627855,2.286802,0.256154,0.12637,0.67947,0.22338
1698343521929687,-9.652855,2.280802,0.270154,0.12947,0.69447,0.23938
1698343521937500,-9.681855,2.283802,0.274154,0.11427,0.68147,0.22238
1698343521945312,-9.704855,2.294802,0.276154,0.11577,0.66447,0.20638
1698343521953125,-9.703855,2.309802,0.283154,0.11447,0.67847,0.23638
1698343521960937,-9.702855,2.319802,0.286154,0.11607,0.81447,0.20838
1698343521968750,-9.684855,2.317802,0.283154,0.11137,0.86547,0.22538
1698343521976562,-9.671855,2.327802,0.277154,0.11117,0.93547,0.22738
1698343521984375,-9.675855,2.332802,0.254154,0.11587,0.95147,0.21238
1698343521992187,-9.634855,2.329802,0.263154,0.11307,0.90147,0.16338
1698343522000000,-9.632855,2.332802,0.279154,0.10097,0.97347,0.11638
1698343522007812,-9.641855,2.330802,0.240154,0.9947,0.85547,0.11338
1698343522015625,-9.636855,2.339802,0.242154,0.10277,0.87047,0.9838
1698343522023437,-9.639855,2.350802,0.238154,0.10717,0.92247,0.8438
1698343522031250,-9.645855,2.345802,0.222154,0.9947,0.80747,0.6638
1698343522039062,-9.620855,2.334802,0.249154,0.10717,0.80447,0.6638
1698343522046875,-9.620855,2.335802,0.242154,0.11667,0.77047,0.1362
1698343522054687,-9.639855,2.322802,0.242154,0.11307,0.74347,0.5962
1698343522062500,-9.654855,2.312802,0.249154,0.11337,0.75647,0.1362
1698343522070312,-9.624855,2.301802,0.258154,0.11217,0.73847,0.3062
1698343522078125,-9.625855,2.259802,0.285154,0.11687,0.75147,0.1462
1698343522085937,-9.700855,2.292802,0.267154,0.11227,0.65247,0.3262
1698343522093750,-9.703855,2.311802,0.240154,0.11837,0.73547,0.3062
1698343522101562,-9.685855,2.281802,0.281154,0.11187,0.73947,0.1362
1698343522109375,-9.698855,2.271802,0.276154,0.11047,0.73947,0.2962
1698343522117187,-9.712855,2.271802,0.272154,0.11057,0.73747,0.1462
1698343522125000,-9.671855,2.250802,0.274154,0.11637,0.82247,0.438
1698343522132812,-9.660855,2.257802,0.269154,0.11467,0.71647,0.12738
1698343522140625,-9.698855,2.282802,0.249154,0.11657,0.82947,0.16038
1698343522148437,-9.691855,2.289802,0.235154,0.11657,0.89947,0.13038
1698343522156250,-9.657855,2.273802,0.242154,0.11647,0.86147,0.22338
1698343522164062,-9.632855,2.250802,0.247154,0.11627,0.87947,0.22438
1698343522171875,-9.636855,2.246802,0.244154,0.11497,0.82647,0.23838
1698343522179687,-9.607855,2.232802,0.246154,0.11347,0.82547,0.26938
1698343522187500,-9.595855,2.239802,0.267154,0.11337,0.80547,0.33138
1698343522195312,-9.637855,2.254802,0.258154,0.9607,0.79547,0.34838
1698343522203125,-9.664855,2.288802,0.253154,0.9157,0.64147,0.39038
1698343522210937,-9.669855,2.301802,0.269154,0.8987,0.74447,0.39338
1698343522218750,-9.672855,2.306802,0.283154,0.9137,0.73047,0.34638
1698343522226562,-9.670855,2.308802,0.306154,0.9147,0.74447,0.37838
1698343522234375,-9.683855,2.319802,0.317154,0.9147,0.74647,0.33038
1698343522242187,-9.668855,2.332802,0.318154,0.9137,0.80147,0.27038
1698343522250000,-9.687855,2.343802,0.327154,0.9127,0.92047,0.27338
1698343522257812,-9.700855,2.353802,0.327154,0.9177,0.90147,0.25538
1698343522265625,-9.716855,2.358802,0.311154,0.9017,0.98647,0.24138
1698343522273437,-9.698855,2.373802,0.304154,0.8867,0.97047,0.24138
1698343522281250,-9.678855,2.384802,0.283154,0.9187,0.98847,0.17938
1698343522289062,-9.670855,2.391802,0.265154,0.9047,0.107047,0.21138
1698343522296875,-9.638855,2.368802,0.254154,0.9207,0.107147,0.18038
1698343522304687,-9.624855,2.380802,0.242154,0.9087,0.103247,0.24038
1698343522312500,-9.638855,2.378802,0.238154,0.9847,0.95247,0.11438
1698343522320312,-9.647855,2.389802,0.206154,0.9267,0.98747,0.8238
1698343522328125,-9.627855,2.393802,0.176154,0.10917,0.96647,0.13038
1698343522335937,-9.606855,2.375802,0.183154,0.11387,0.95147,0.6838
1698343522343750,-9.587855,2.351802,0.187154,0.11257,0.96547,0.8238
1698343522351562,-9.577855,2.322802,0.203154,0.11877,0.93047,0.6638
1698343522359375,-9.579855,2.328802,0.212154,0.11207,0.91547,0.16138
1698343522367187,-9.595855,2.332802,0.199154,0.10717,0.79747,0.20638
1698343522375000,-9.606855,2.327802,0.229154,0.11457,0.76247,0.22238
1698343522382812,-9.617855,2.324802,0.226154,0.10587,0.72647,0.23538
1698343522390625,-9.633855,2.333802,0.231154,0.10127,0.74447,0.25138
1698343522398437,-9.649855,2.328802,0.244154,0.10557,0.76147,0.26838
1698343522406250,-9.658855,2.338802,0.253154,0.9357,0.71047,0.29738
1698343522414062,-9.675855,2.337802,0.260154,0.9687,0.75947,0.28138
1698343522421875,-9.669855,2.336802,0.272154,0.9667,0.72647,0.29738
1698343522429687,-9.665855,2.342802,0.274154,0.9497,0.71547,0.21938
1698343522437500,-9.678855,2.337802,0.301154,0.9827,0.74247,0.28138
1698343522445312,-9.683855,2.358802,0.290154,0.9177,0.82947,0.31638
1698343522453125,-9.685855,2.370802,0.278154,0.9247,0.89647,0.23738
1698343522460937,-9.676855,2.395802,0.269154,0.9257,0.88047,0.20538
1698343522468750,-9.661855,2.391802,0.251154,0.9217,0.88147,0.23838
1698343522476562,-9.636855,2.400802,0.249154,0.9227,0.96647,0.22438
1698343522484375,-9.647855,2.412802,0.247154,0.9237,0.94747,0.23838
1698343522492187,-9.627855,2.408802,0.240154,0.9217,0.95047,0.22438
1698343522500000,-9.607855,2.419802,0.245154,0.9337,0.90047,0.23938
1698343522507812,-9.603855,2.417802,0.240154,0.10567,0.96347,0.27238
1698343522515625,-9.602855,2.433802,0.231154,0.9217,0.77947,0.25138
1698343522523437,-9.596855,2.435802,0.231154,0.10277,0.81247,0.23738
1698343522531250,-9.619855,2.419802,0.238154,0.11167,0.74547,0.22138
1698343522539062,-9.623855,2.424802,0.247154,0.10867,0.82847,0.27038
1698343522546875,-9.618855,2.431802,0.244154,0.11797,0.75547,0.29938
1698343522554687,-9.643855,2.443802,0.254154,0.11197,0.72447,0.25138
1698343522562500,-9.648855,2.433802,0.258154,0.11637,0.72547,0.25238
1698343522570312,-9.638855,2.425802,0.260154,0.11347,0.80647,0.31638
1698343522578125,-9.649855,2.430802,0.267154,0.10587,0.80547,0.34638
1698343522585937,-9.659855,2.450802,0.260154,0.10747,0.97447,0.33438
1698343522593750,-9.650855,2.451802,0.247154,0.10267,0.99247,0.36638
1698343522601562,-9.632855,2.448802,0.256154,0.10567,0.101247,0.30538
1698343522609375,-9.610855,2.448802,0.251154,0.9967,0.103347,0.22638
1698343522617187,-9.602855,2.458802,0.244154,0.10447,0.92847,0.23938
1698343522625000,-9.614855,2.467802,0.235154,0.10597,0.94647,0.22438
1698343522632812,-9.615855,2.470802,0.231154,0.11627,0.96447,0.21138
1698343522640625,-9.594855,2.477802,0.233154,0.11657,0.95047,0.11638
1698343522648437,-9.606855,2.485802,0.227154,0.10567,0.96947,0.14738
1698343522656250,-9.590855,2.494802,0.204154,0.10877,0.97047,0.11638
1698343522664062,-9.581855,2.478802,0.202154,0.11777,0.81747,0.13038
1698343522671875,-9.587855,2.477802,0.206154,0.11507,0.88447,0.8338
1698343522679687,-9.614855,2.478802,0.222154,0.11677,0.88047,0.14538
1698343522687500,-9.621855,2.466802,0.206154,0.11497,0.86547,0.12938
1698343522695312,-9.608855,2.454802,0.220154,0.11767,0.84847,0.17738
1698343522703125,-9.611855,2.435802,0.240154,0.11687,0.85047,0.5038
1698343522710937,-9.627855,2.422802,0.240154,0.11517,0.81647,0.8138
1698343522718750,-9.648855,2.435802,0.226154,0.11667,0.78547,0.1838
1698343522726562,-9.653855,2.451802,0.217154,0.11677,0.80247,0.238
1698343522734375,-9.650855,2.443802,0.213154,0.11707,0.85147,0.238
1698343522742187,-9.627855,2.433802,0.229154,0.11687,0.73347,0.3238
1698343522750000,-9.618855,2.418802,0.233154,0.11697,0.90147,0.2038
1698343522757812,-9.645855,2.425802,0.213154,0.11697,0.93447,0.3638
1698343522765625,-9.657855,2.438802,0.174154,0.11667,0.96547,0.14738
1698343522773437,-9.652855,2.440802,0.167154,0.11537,0.91547,0.9838
1698343522781250,-9.616855,2.444802,0.153154,0.11667,0.94847,0.13138
1698343522789062,-9.576855,2.429802,0.142154,0.11477,0.102047,0.11838
1698343522796875,-9.552855,2.405802,0.153154,0.11837,0.98147,0.13138
1698343522804687,-9.524855,2.408802,0.169154,0.11627,0.91547,0.17838
1698343522812500,-9.549855,2.420802,0.156154,0.11457,0.76247,0.22238
1698343522820312,-9.580855,2.464802,0.151154,0.11657,0.74347,0.20538
1698343522828125,-9.580855,2.475802,0.158154,0.11647,0.65847,0.23438
1698343522835937,-9.587855,2.474802,0.183154,0.11627,0.69447,0.20438
1698343522843750,-9.610855,2.473802,0.213154,0.11637,0.66047,0.18838
1698343522851562,-9.635855,2.479802,0.238154,0.11637,0.64847,0.9438
1698343522859375,-9.683855,2.482802,0.240154,0.11487,0.61647,0.7738
1698343522867187,-9.667855,2.476802,0.258154,0.11357,0.60047,0.2938
1698343522875000,-9.655855,2.474802,0.301154,0.11697,0.68347,0.0
1698343522882812,-9.678855,2.476802,0.283154,0.11537,0.63447,0.3262
1698343522890625,-9.693855,2.474802,0.281154,0.11687,0.68447,0.1662
1698343522898437,-9.709855,2.484802,0.267154,0.11557,0.80247,0.4562
1698343522906250,-9.689855,2.472802,0.245154,0.11707,0.87247,0.9062
1698343522914062,-9.645855,2.454802,0.247154,0.11807,0.99347,0.5462
1698343522921875,-9.618855,2.456802,0.220154,0.11807,0.93047,0.14962
1698343522929687,-9.617855,2.463802,0.197154,0.11687,0.94447,0.13462
1698343522937500,-9.617855,2.459802,0.197154,0.11847,0.93947,0.5662
1698343522945312,-9.626855,2.450802,0.160154,0.11847,0.94147,0.10462
1698343522953125,-9.612855,2.466802,0.131154,0.11537,0.101047,0.11862
1698343522960937,-9.583855,2.475802,0.113154,0.12937,0.95647,0.13462
1698343522968750,-9.557855,2.435802,0.112154,0.13267,0.97247,0.16662
1698343522976562,-9.526855,2.404802,0.119154,0.11537,0.85947,0.12162
1698343522984375,-9.527855,2.400802,0.121154,0.11707,0.82347,0.12262
1698343522992187,-9.530855,2.402802,0.126154,0.11677,0.68847,0.7862
1698343523000000,-9.548855,2.423802,0.133154,0.11527,0.60347,0.6462
1698343523007812,-9.564855,2.432802,0.140154,0.11377,0.60347,0.4962
1698343523015625,-9.553855,2.416802,0.163154,0.11677,0.60447,0.9562
1698343523023437,-9.569855,2.422802,0.188154,0.11477,0.57147,0.3262
1698343523031250,-9.601855,2.407802,0.195154,0.11017,0.43947,0.6762
1698343523039062,-9.616855,2.395802,0.231154,0.10147,0.47147,0.6862
1698343523046875,-9.628855,2.388802,0.258154,0.10127,0.52647,0.12962
1698343523054687,-9.650855,2.391802,0.276154,0.10317,0.56247,0.22262
1698343523062500,-9.668855,2.391802,0.299154,0.9697,0.52947,0.19262
1698343523070312,-9.689855,2.389802,0.311154,0.9227,0.54747,0.19262
1698343523078125,-9.695855,2.384802,0.327154,0.9237,0.56747,0.25462
1698343523085937,-9.693855,2.374802,0.333154,0.9117,0.60047,0.28662
1698343523093750,-9.692855,2.369802,0.340154,0.9277,0.63347,0.28562
1698343523101562,-9.706855,2.368802,0.340154,0.8827,0.63247,0.27062
1698343523109375,-9.694855,2.390802,0.324154,0.8547,0.66647,0.28662
1698343523117187,-9.688855,2.370802,0.317154,0.9437,0.74847,0.23662
1698343523125000,-9.691855,2.359802,0.311154,0.9067,0.73547,0.20362
1698343523132812,-9.679855,2.364802,0.292154,0.9257,0.81747,0.21862
1698343523140625,-9.648855,2.347802,0.294154,0.9147,0.86247,0.15662
1698343523148437,-9.659855,2.332802,0.304154,0.9387,0.73147,0.15662
1698343523156250,-9.661855,2.330802,0.279154,0.9537,0.74447,0.9362
1698343523164062,-9.637855,2.328802,0.281154,0.10467,0.77147,0.1462
1698343523171875,-9.652855,2.333802,0.283154,0.10907,0.89047,0.2662
1698343523179687,-9.654855,2.330802,0.276154,0.11037,0.80447,0.5038
1698343523187500,-9.654855,2.330802,0.272154,0.10717,0.72047,0.6438
1698343523195312,-9.658855,2.326802,0.292154,0.10267,0.76847,0.11138
1698343523203125,-9.663855,2.328802,0.283154,0.11177,0.86847,0.11438
1698343523210937,-9.662855,2.333802,0.294154,0.9987,0.88547,0.12838
1698343523218750,-9.668855,2.330802,0.306154,0.9927,0.86947,0.19338
1698343523226562,-9.665855,2.346802,0.304154,0.9207,0.92047,0.16138
1698343523234375,-9.659855,2.346802,0.315154,0.9027,0.96947,0.24138
1698343523242187,-9.661855,2.342802,0.315154,0.9197,0.100247,0.22638
1698343523250000,-9.651855,2.360802,0.297154,0.9087,0.95147,0.17638
1698343523257812,-9.652855,2.371802,0.299154,0.7987,0.100547,0.19338
1698343523265625,-9.650855,2.393802,0.288154,0.6777,0.99647,0.8238
1698343523273437,-9.639855,2.406802,0.288154,0.6907,0.103047,0.9938
1698343523281250,-9.628855,2.394802,0.277154,0.7227,0.101347,0.6838
1698343523289062,-9.631855,2.393802,0.272154,0.7107,0.101247,0.5138
1698343523296875,-9.625855,2.408802,0.279154,0.6797,0.103047,0.3538
1698343523304687,-9.614855,2.403802,0.251154,0.6617,0.101447,0.8338
1698343523312500,-9.623855,2.402802,0.254154,0.6947,0.96347,0.3438
1698343523320312,-9.637855,2.410802,0.242154,0.7517,0.101247,0.10038
1698343523328125,-9.606855,2.404802,0.249154,0.7117,0.99047,0.12838
1698343523335937,-9.618855,2.370802,0.247154,0.7707,0.100947,0.9938
1698343523343750,-9.650855,2.390802,0.231154,0.8437,0.95747,0.14638
1698343523351562,-9.646855,2.403802,0.226154,0.7987,0.96047,0.9838
1698343523359375,-9.632855,2.379802,0.251154,0.9217,0.94047,0.8338
1698343523367187,-9.633855,2.358802,0.247154,0.8777,0.88747,0.12738
1698343523375000,-9.658855,2.358802,0.247154,0.9387,0.81847,0.12638
1698343523382812,-9.654855,2.366802,0.247154,0.8127,0.90847,0.12938
1698343523390625,-9.660855,2.374802,0.263154,0.8377,0.97447,0.22638
1698343523398437,-9.669855,2.358802,0.247154,0.9297,0.98847,0.24338
1698343523406250,-9.668855,2.350802,0.247154,0.8427,0.100447,0.22538
1698343523414062,-9.637855,2.358802,0.245154,0.8687,0.98947,0.24238
1698343523421875,-9.586855,2.363802,0.240154,0.7667,0.98347,0.33338
1698343523429687,-9.579855,2.346802,0.247154,0.7227,0.96647,0.33238
1698343523437500,-9.580855,2.365802,0.240154,0.6867,0.93547,0.36438
1698343523445312,-9.580855,2.385802,0.240154,0.6717,0.88547,0.34838
1698343523453125,-9.588855,2.413802,0.247154,0.6377,0.88747,0.39638
1698343523460937,-9.616855,2.448802,0.242154,0.6297,0.78647,0.28138
1698343523468750,-9.616855,2.455802,0.256154,0.6447,0.73447,0.29638
1698343523476562,-9.619855,2.453802,0.299154,0.6737,0.78647,0.28238
1698343523484375,-9.635855,2.460802,0.302154,0.6767,0.88847,0.22138
1698343523492187,-9.658855,2.469802,0.311154,0.6737,0.87147,0.26838
1698343523500000,-9.677855,2.480802,0.336154,0.6727,0.87447,0.22238
1698343523507812,-9.697855,2.491802,0.338154,0.6737,0.95847,0.22438
1698343523515625,-9.696855,2.481802,0.336154,0.6797,0.104447,0.9838
1698343523523437,-9.703855,2.479802,0.329154,0.6657,0.109247,0.14638
1698343523531250,-9.698855,2.504802,0.317154,0.6837,0.114047,0.14638
1698343523539062,-9.682855,2.508802,0.286154,0.6827,0.109347,0.9938
1698343523546875,-9.667855,2.507802,0.283154,0.8487,0.121147,0.5638
1698343523554687,-9.651855,2.498802,0.256154,0.8647,0.124747,0.562
1698343523562500,-9.637855,2.502802,0.222154,0.7737,0.123047,0.2438
1698343523570312,-9.586855,2.478802,0.199154,0.9137,0.113847,0.8538
1698343523578125,-9.584855,2.469802,0.192154,0.9277,0.117347,0.7138
1698343523585937,-9.589855,2.491802,0.165154,0.9107,0.122447,0.8838
1698343523593750,-9.597855,2.497802,0.133154,0.10617,0.117347,0.5738
1698343523601562,-9.587855,2.470802,0.133154,0.10767,0.110547,0.7138
1698343523609375,-9.553855,2.440802,0.133154,0.11047,0.108647,0.11838
1698343523617187,-9.548855,2.423802,0.126154,0.11677,0.96447,0.14738
1698343523625000,-9.552855,2.423802,0.133154,0.11217,0.99747,0.19438
1698343523632812,-9.573855,2.428802,0.128154,0.10757,0.94847,0.16138
1698343523640625,-9.580855,2.464802,0.119154,0.9547,0.98347,0.19238
1698343523648437,-9.583855,2.468802,0.128154,0.10137,0.86847,0.11238
1698343523656250,-9.587855,2.461802,0.135154,0.9217,0.86947,0.14338
1698343523664062,-9.603855,2.469802,0.153154,0.9237,0.86647,0.17438
1698343523671875,-9.595855,2.483802,0.156154,0.9197,0.73647,0.12538
1698343523679687,-9.595855,2.494802,0.167154,0.9187,0.74047,0.6338
1698343523687500,-9.602855,2.492802,0.178154,0.9127,0.73747,0.162
1698343523695312,-9.617855,2.488802,0.195154,0.8307,0.70747,0.4538
1698343523703125,-9.619855,2.493802,0.176154,0.6957,0.74647,0.4862
1698343523710937,-9.616855,2.505802,0.192154,0.8057,0.74147,0.1762
1698343523718750,-9.619855,2.491802,0.192154,0.8187,0.82747,0.3162
1698343523726562,-9.607855,2.489802,0.208154,0.8837,0.77447,0.6462
1698343523734375,-9.617855,2.487802,0.199154,0.8967,0.74447,0.11062
1698343523742187,-9.623855,2.489802,0.197154,0.8977,0.76447,0.20462
1698343523750000,-9.610855,2.493802,0.190154,0.9417,0.71547,0.22062
1698343523757812,-9.593855,2.480802,0.188154,0.9307,0.74647,0.22162
1698343523765625,-9.595855,2.472802,0.188154,0.9857,0.73247,0.21962
1698343523773437,-9.594855,2.468802,0.172154,0.10647,0.76347,0.23462
1698343523781250,-9.594855,2.457802,0.172154,0.10487,0.71047,0.17362
1698343523789062,-9.591855,2.428802,0.185154,0.10667,0.69347,0.22162
1698343523796875,-9.609855,2.426802,0.172154,0.10347,0.71247,0.22062
1698343523804687,-9.616855,2.424802,0.185154,0.10947,0.62647,0.20662
1698343523812500,-9.616855,2.422802,0.206154,0.11707,0.58847,0.14362
1698343523820312,-9.616855,2.399802,0.217154,0.11507,0.59047,0.11162
1698343523828125,-9.625855,2.395802,0.233154,0.11677,0.63747,0.6362
1698343523835937,-9.631855,2.391802,0.235154,0.11537,0.65247,0.4862
1698343523843750,-9.647855,2.389802,0.251154,0.11687,0.60447,0.9662
1698343523851562,-9.650855,2.395802,0.258154,0.11677,0.63447,0.1662
1698343523859375,-9.644855,2.405802,0.269154,0.11717,0.63247,0.3362
1698343523867187,-9.647855,2.393802,0.263154,0.11687,0.65347,0.6362
1698343523875000,-9.630855,2.395802,0.272154,0.11507,0.70347,0.0
1698343523882812,-9.642855,2.387802,0.281154,0.11697,0.65047,0.3262
1698343523890625,-9.659855,2.393802,0.276154,0.10897,0.62047,0.1762
1698343523898437,-9.656855,2.405802,0.272154,0.11387,0.70247,0.3162
1698343523906250,-9.645855,2.407802,0.272154,0.10937,0.75247,0.1562
1698343523914062,-9.633855,2.416802,0.276154,0.11107,0.76847,0.3162
1698343523921875,-9.634855,2.420802,0.274154,0.11677,0.71847,0.1462
1698343523929687,-9.622855,2.413802,0.276154,0.11537,0.68547,0.4762
1698343523937500,-9.627855,2.423802,0.269154,0.11707,0.70047,0.3262
1698343523945312,-9.625855,2.431802,0.251154,0.11687,0.71847,0.1562
1698343523953125,-9.630855,2.436802,0.249154,0.11697,0.78547,0.1362
1698343523960937,-9.621855,2.410802,0.254154,0.12287,0.75347,0.4462
1698343523968750,-9.624855,2.405802,0.260154,0.13417,0.68347,0.14162
1698343523976562,-9.664855,2.407802,0.247154,0.13217,0.70447,0.15562
1698343523984375,-9.679855,2.396802,0.254154,0.12767,0.70547,0.15662
1698343523992187,-9.652855,2.362802,0.272154,0.13207,0.67347,0.18762
1698343524000000,-9.654855,2.349802,0.285154,0.13227,0.68647,0.14062
1698343524007812,-9.674855,2.356802,0.279154,0.12627,0.67047,0.14162
1698343524015625,-9.662855,2.354802,0.274154,0.13677,0.68247,0.7762
1698343524023437,-9.665855,2.356802,0.285154,0.11697,0.70047,0.1662
1698343524031250,-9.687855,2.370802,0.272154,0.12007,0.77947,0.7938
1698343524039062,-9.665855,2.362802,0.244154,0.12447,0.86447,0.6638
1698343524046875,-9.624855,2.348802,0.254154,0.12117,0.85047,0.6738
1698343524054687,-9.586855,2.334802,0.247154,0.11797,0.86847,0.8338
1698343524062500,-9.579855,2.352802,0.247154,0.11507,0.76447,0.11138
1698343524070312,-9.579855,2.364802,0.244154,0.11507,0.72747,0.18938
1698343524078125,-9.581855,2.374802,0.247154,0.11037,0.71247,0.18838
1698343524085937,-9.603855,2.398802,0.245154,0.10697,0.76447,0.22238
1698343524093750,-9.609855,2.410802,0.240154,0.11027,0.72747,0.22038
1698343524101562,-9.625855,2.440802,0.258154,0.11507,0.74247,0.20438
1698343524109375,-9.641855,2.436802,0.283154,0.11347,0.67947,0.14138
1698343524117187,-9.627855,2.434802,0.310154,0.11827,0.62747,0.12338
1698343524125000,-9.657855,2.460802,0.327154,0.11207,0.66647,0.4638
1698343524132812,-9.664855,2.465802,0.327154,0.10897,0.68347,0.6238
1698343524140625,-9.676855,2.454802,0.352154,0.11517,0.68547,0.0
1698343524148437,-9.667855,2.464802,0.336154,0.11667,0.73747,0.2962
1698343524156250,-9.680855,2.462802,0.343154,0.11667,0.80547,0.2862
1698343524164062,-9.684855,2.470802,0.324154,0.11697,0.83547,0.238
1698343524171875,-9.668855,2.470802,0.304154,0.11727,0.92247,0.8962
1698343524179687,-9.662855,2.451802,0.277154,0.11687,0.94047,0.5762
1698343524187500,-9.628855,2.430802,0.256154,0.11527,0.95747,0.5662
1698343524195312,-9.618855,2.422802,0.247154,0.11707,0.93747,0.4262
1698343524203125,-9.623855,2.403802,0.245154,0.11507,0.88947,0.1062
1698343524210937,-9.638855,2.391802,0.247154,0.11997,0.97147,0.2562
1698343524218750,-9.629855,2.418802,0.206154,0.11857,0.92047,0.2662
1698343524226562,-9.611855,2.401802,0.194154,0.13207,0.93447,0.862
1698343524234375,-9.572855,2.390802,0.187154,0.12917,0.93047,0.6838
1698343524242187,-9.549855,2.359802,0.196154,0.11827,0.94747,0.13138
1698343524250000,-9.563855,2.352802,0.194154,0.11817,0.79447,0.17538
1698343524257812,-9.563855,2.376802,0.176154,0.11477,0.76147,0.22238
1698343524265625,-9.577855,2.410802,0.178154,0.11647,0.79247,0.23738
1698343524273437,-9.581855,2.411802,0.197154,0.11507,0.72547,0.22038
1698343524281250,-9.597855,2.415802,0.210154,0.11497,0.70747,0.25138
1698343524289062,-9.611855,2.433802,0.222154,0.9957,0.74347,0.29838
1698343524296875,-9.611855,2.447802,0.242154,0.10427,0.67547,0.26538
1698343524304687,-9.623855,2.451802,0.249154,0.9807,0.64347,0.26438
1698343524312500,-9.630855,2.467802,0.258154,0.9677,0.66247,0.21738
1698343524320312,-9.646855,2.476802,0.272154,0.9817,0.68147,0.18738
1698343524328125,-9.666855,2.472802,0.274154,0.9827,0.64847,0.13938
1698343524335937,-9.663855,2.482802,0.284154,0.9627,0.70047,0.18838
1698343524343750,-9.667855,2.476802,0.286154,0.9207,0.68747,0.7738
1698343524351562,-9.667855,2.473802,0.274154,0.9207,0.78947,0.7938
1698343524359375,-9.658855,2.476802,0.277154,0.9377,0.82347,0.3338
1698343524367187,-9.637855,2.473802,0.270154,0.9367,0.82447,0.3338
1698343524375000,-9.627855,2.472802,0.265154,0.9417,0.75247,0.4638
1698343524382812,-9.624855,2.466802,0.254154,0.10297,0.87547,0.4362
1698343524390625,-9.598855,2.462802,0.247154,0.10007,0.87147,0.3438
1698343524398437,-9.594855,2.468802,0.242154,0.9837,0.77347,0.0
1698343524406250,-9.592855,2.468802,0.236154,0.9837,0.80647,0.1738
1698343524414062,-9.583855,2.458802,0.233154,0.9507,0.80947,0.1838
1698343524421875,-9.581855,2.470802,0.240154,0.10757,0.77147,0.138
1698343524429687,-9.590855,2.472802,0.242154,0.11027,0.78547,0.9738
1698343524437500,-9.599855,2.475802,0.247154,0.11197,0.71647,0.9538
1698343524445312,-9.616855,2.474802,0.249154,0.10777,0.69647,0.10838
1698343524453125,-9.626855,2.487802,0.251154,0.11497,0.71247,0.15738
1698343524460937,-9.632855,2.482802,0.258154,0.11217,0.78147,0.11138
1698343524468750,-9.632855,2.478802,0.267154,0.10617,0.78247,0.9538
1698343524476562,-9.646855,2.476802,0.272154,0.11517,0.74647,0.12638
1698343524484375,-9.641855,2.474802,0.288154,0.11537,0.76247,0.11038
1698343524492187,-9.618855,2.474802,0.283154,0.11397,0.84847,0.6538
1698343524500000,-9.624855,2.479802,0.299154,0.11187,0.80147,0.8138
1698343524507812,-9.635855,2.480802,0.283154,0.11357,0.73547,0.3238
1698343524515625,-9.625855,2.474802,0.276154,0.11397,0.71847,0.3162
1698343524523437,-9.616855,2.478802,0.279154,0.10497,0.82047,0.1462
1698343524531250,-9.605855,2.475802,0.277154,0.10927,0.83847,0.2862
1698343524539062,-9.589855,2.473802,0.267154,0.11107,0.83547,0.1362
1698343524546875,-9.598855,2.471802,0.261154,0.11087,0.78647,0.1462
1698343524554687,-9.594855,2.473802,0.251154,0.11237,0.70247,0.3162
1698343524562500,-9.587855,2.471802,0.256154,0.11237,0.75247,0.1462
1698343524570312,-9.589855,2.464802,0.247154,0.11237,0.87247,0.4362
1698343524578125,-9.581855,2.459802,0.245154,0.10307,0.87747,0.9062
1698343524585937,-9.582855,2.449802,0.258154,0.11267,0.68447,0.6462
1698343524593750,-9.614855,2.464802,0.247154,0.11207,0.70347,0.1562
1698343524601562,-9.630855,2.475802,0.247154,0.11377,0.68747,0.6362
1698343524609375,-9.626855,2.473802,0.245154,0.11517,0.70347,0.3062
1698343524617187,-9.642855,2.473802,0.279154,0.11367,0.67147,0.4762
1698343524625000,-9.658855,2.469802,0.277154,0.11507,0.62047,0.3262
1698343524632812,-9.633855,2.457802,0.274154,0.11067,0.77147,0.1362
1698343524640625,-9.639855,2.431802,0.304154,0.11677,0.75347,0.2962
1698343524648437,-9.693855,2.441802,0.285154,0.11547,0.71747,0.1562
1698343524656250,-9.671855,2.458802,0.258154,0.11697,0.85347,0.2862
1698343524664062,-9.638855,2.443802,0.265154,0.11547,0.78147,0.4838
1698343524671875,-9.606855,2.420802,0.258154,0.11687,0.86447,0.9738
1698343524679687,-9.586855,2.419802,0.263154,0.11527,0.83147,0.9738
1698343524687500,-9.565855,2.399802,0.260154,0.11677,0.81247,0.14338
1698343524695312,-9.574855,2.397802,0.267154,0.10627,0.81847,0.4838
1698343524703125,-9.582855,2.413802,0.269154,0.9847,0.71947,0.6238
1698343524710937,-9.614855,2.440802,0.267154,0.10307,0.71647,0.7738
1698343524718750,-9.616855,2.467802,0.258154,0.10177,0.75047,0.6238
1698343524726562,-9.616855,2.476802,0.276154,0.9837,0.65147,0.7638
1698343524734375,-9.619855,2.473802,0.293154,0.9977,0.72247,0.3138
1698343524742187,-9.630855,2.489802,0.297154,0.10767,0.77147,0.3062
1698343524750000,-9.638855,2.502802,0.306154,0.9067,0.69247,0.1662
1698343524757812,-9.649855,2.507802,0.304154,0.9097,0.74147,0.3262
1698343524765625,-9.658855,2.516802,0.313154,0.9697,0.79147,0.3062
1698343524773437,-9.669855,2.533802,0.306154,0.11107,0.81847,0.1462
1698343524781250,-9.654855,2.543802,0.299154,0.11257,0.98947,0.4162
1698343524789062,-9.647855,2.527802,0.297154,0.11097,0.95847,0.8862
1698343524796875,-9.650855,2.526802,0.279154,0.11687,0.97847,0.14962
1698343524804687,-9.627855,2.506802,0.256154,0.11557,0.98147,0.22862
1698343524812500,-9.614855,2.478802,0.265154,0.11747,0.96147,0.23062
1698343524820312,-9.619855,2.451802,0.258154,0.13697,0.100747,0.16462
1698343524828125,-9.632855,2.422802,0.249154,0.13417,0.97547,0.22862
1698343524835937,-9.646855,2.447802,0.226154,0.12797,0.99047,0.15062
1698343524843750,-9.641855,2.436802,0.206154,0.12957,0.102447,0.18062
1698343524851562,-9.615855,2.402802,0.206154,0.13867,0.98547,0.10262
1698343524859375,-9.567855,2.372802,0.206154,0.14177,0.103547,0.11762
1698343524867187,-9.570855,2.356802,0.199154,0.13657,0.93547,0.2462
1698343524875000,-9.579855,2.363802,0.194154,0.13227,0.90047,0.2662
1698343524882812,-9.579855,2.365802,0.178154,0.13647,0.91447,0.5338
1698343524890625,-9.581855,2.368802,0.199154,0.13057,0.72847,0.4838
1698343524898437,-9.588855,2.379802,0.210154,0.12277,0.83147,0.8238
1698343524906250,-9.612855,2.399802,0.199154,0.11797,0.76647,0.8138
1698343524914062,-9.619855,2.416802,0.197154,0.11467,0.71847,0.8038
1698343524921875,-9.617855,2.430802,0.220154,0.11627,0.76647,0.12838
1698343524929687,-9.625855,2.437802,0.238154,0.11667,0.81447,0.11238
1698343524937500,-9.635855,2.446802,0.242154,0.11637,0.81847,0.8238
1698343524945312,-9.633855,2.446802,0.245154,0.11647,0.71847,0.3238
1698343524953125,-9.629855,2.431802,0.251154,0.11677,0.69747,0.7838
1698343524960937,-9.644855,2.453802,0.251154,0.11667,0.76947,0.238
1698343524968750,-9.653855,2.453802,0.245154,0.11697,0.88847,0.4262
1698343524976562,-9.651855,2.462802,0.245154,0.11687,0.88947,0.5862
1698343524984375,-9.635855,2.446802,0.247154,0.11667,0.89247,0.8862
1698343524992187,-9.621855,2.439802,0.240154,0.11667,0.87247,0.2662
1698343525000000,-9.630855,2.436802,0.240154,0.11717,0.82347,0.12362
1698343525007812,-9.629855,2.407802,0.231154,0.12307,0.81847,0.4462
1698343525015625,-9.616855,2.388802,0.231154,0.12157,0.87247,0.10562
1698343525023437,-9.616855,2.381802,0.217154,0.12147,0.80547,0.9162
1698343525031250,-9.615855,2.380802,0.221154,0.11737,0.83547,0.6162
1698343525039062,-9.617855,2.360802,0.228154,0.11567,0.82047,0.7662
1698343525046875,-9.614855,2.363802,0.221154,0.11757,0.78147,0.3162
1698343525054687,-9.622855,2.364802,0.224154,0.11667,0.71947,0.1462
1698343525062500,-9.630855,2.367802,0.231154,0.11567,0.71647,0.1662
1698343525070312,-9.628855,2.365802,0.235154,0.11857,0.73047,0.4738
1698343525078125,-9.640855,2.371802,0.244154,0.11687,0.71747,0.0
1698343525085937,-9.626855,2.387802,0.240154,0.11567,0.68047,0.1338
1698343525093750,-9.642855,2.401802,0.240154,0.11697,0.71447,0.3138
1698343525101562,-9.638855,2.388802,0.247154,0.11657,0.73447,0.4838
1698343525109375,-9.627855,2.400802,0.242154,0.11537,0.75047,0.1638
1698343525117187,-9.628855,2.404802,0.254154,0.11797,0.73447,0.4938
1698343525125000,-9.632855,2.393802,0.256154,0.11967,0.70047,0.1638
1698343525132812,-9.636855,2.393802,0.265154,0.11507,0.70047,0.4738
1698343525140625,-9.624855,2.391802,0.269154,0.11377,0.73347,0.4738
1698343525148437,-9.637855,2.388802,0.276154,0.11957,0.75447,0.1262
1698343525156250,-9.650855,2.393802,0.276154,0.11507,0.70147,0.3238
1698343525164062,-9.645855,2.391802,0.274154,0.11677,0.69947,0.3138
1698343525171875,-9.651855,2.389802,0.279154,0.11537,0.78247,0.4838
1698343525179687,-9.654855,2.389802,0.260154,0.11697,0.80047,0.1738
1698343525187500,-9.660855,2.381802,0.272154,0.11557,0.76647,0.0
1698343525195312,-9.651855,2.371802,0.256154,0.11707,0.92047,0.2662
1698343525203125,-9.636855,2.380802,0.244154,0.11377,0.86947,0.3538
1698343525210937,-9.613855,2.368802,0.249154,0.11527,0.88847,0.1162
1698343525218750,-9.627855,2.368802,0.260154,0.10727,0.76747,0.11138
1698343525226562,-9.654855,2.391802,0.231154,0.10467,0.86847,0.8138
1698343525234375,-9.643855,2.413802,0.229154,0.11047,0.82147,0.1838
1698343525242187,-9.630855,2.402802,0.240154,0.11677,0.82147,0.2862
1698343525250000,-9.632855,2.404802,0.251154,0.11517,0.75047,0.4838
1698343525257812,-9.633855,2.392802,0.246154,0.10957,0.78047,0.7838
1698343525265625,-9.613855,2.395802,0.258154,0.11387,0.81547,0.6438
1698343525273437,-9.642855,2.405802,0.251154,0.11707,0.77947,0.7938
1698343525281250,-9.659855,2.422802,0.238154,0.11207,0.83547,0.5038
1698343525289062,-9.639855,2.426802,0.213154,0.11347,0.83347,0.11338
1698343525296875,-9.602855,2.404802,0.222154,0.11687,0.89647,0.14538
1698343525304687,-9.588855,2.393802,0.228154,0.11667,0.81247,0.15938
1698343525312500,-9.563855,2.367802,0.222154,0.11337,0.79647,0.19138
1698343525320312,-9.565855,2.354802,0.238154,0.10107,0.73147,0.20438
1698343525328125,-9.579855,2.361802,0.240154,0.9667,0.69747,0.18738
1698343525335937,-9.607855,2.385802,0.238154,0.9467,0.68347,0.21938
1698343525343750,-9.615855,2.396802,0.251154,0.9077,0.64647,0.20038
1698343525351562,-9.627855,2.404802,0.272154,0.9187,0.66447,0.23438
1698343525359375,-9.645855,2.411802,0.288154,0.9197,0.69847,0.21838
1698343525367187,-9.659855,2.404802,0.311154,0.8727,0.70147,0.20338
1698343525375000,-9.666855,2.402802,0.331154,0.8137,0.70347,0.15538
1698343525382812,-9.682855,2.409802,0.338154,0.8307,0.75747,0.6238
1698343525390625,-9.691855,2.430802,0.342154,0.7377,0.68747,0.17038
1698343525398437,-9.709855,2.457802,0.338154,0.7857,0.80247,0.17238
1698343525406250,-9.703855,2.477802,0.338154,0.6957,0.87547,0.9438
1698343525414062,-9.680855,2.475802,0.322154,0.8027,0.87147,0.12638
