time,Acceleration X (m/s^2),Acceleration Y (m/s^2),Acceleration Z (m/s^2),Angular Velocity X (rad/s),Angular Velocity Y (rad/s),Angular Velocity Z (rad/s)
1698344439695312,-8.969193,-3.395017,-1.688023,-0.214193,,
1698344439703125,-8.810193,-3.415017,-1.683023,0.152735,0.226193,0.190775
1698344439710937,-8.660193,-3.443017,-1.676023,0.148135,0.217593,0.192075
1698344439718750,-8.555193,-3.412017,-1.633023,0.151235,0.211593,0.182675
1698344439726562,-8.442193,-3.391017,-1.576023,0.148235,0.201693,0.177775
1698344439734375,-8.266193,-3.485017,-1.560023,0.147835,0.195693,0.157175
1698344439750000,-8.656193,-3.469017,-1.512023,0.151935,0.142093,0.108875
1698344439757812,-9.104193,-3.577017,-1.458023,0.149835,0.126193,0.47375
1698344439765625,-9.150193,-3.688017,-1.483023,0.157835,0.120593,0.21925
1698344439773437,-9.4193,-3.885017,-1.577023,0.164135,0.120893,0.78625
1698344439796875,-8.581193,-4.575017,-1.722023,0.145635,0.151193,0.173725
1698344439804687,-8.372193,-4.785017,-1.678023,0.128335,0.178493,0.193425
1698344439812500,-8.265193,-4.994017,-1.600023,0.102235,0.221993,0.197025
1698344439820312,-8.121193,-5.171017,-1.479023,0.82535,0.260393,0.196025
1698344439828125,-7.879193,-5.331017,-1.319023,0.55835,0.299393,0.188925
1698344439835937,-7.573193,-5.482017,-1.134023,0.24135,0.342993,0.187525
1698344439843750,-7.296193,-5.615017,0.942023,0.11365,0.376693,0.172625
1698344439851562,-7.122193,-5.733017,0.701023,0.38665,0.400793,0.157725
1698344439859375,-7.131193,-5.796017,0.448023,0.67365,0.401493,0.146525
1698344439867187,-7.441193,-5.761017,0.154023,0.107165,0.396593,0.140225
1698344439875000,-7.793193,-5.851017,0.120977,0.142165,0.391893,0.155625
1698344439882812,-7.849193,-6.9017,0.324977,0.169065,0.374093,0.201525
1698344439890625,-7.653193,-6.276017,0.386977,0.197365,0.355293,0.255225
1698344439898437,-7.622193,-6.558017,0.339977,0.214465,0.299093,0.290825
1698344439906250,-7.629193,-6.781017,0.282977,0.206665,0.264293,0.297925
1698344439914062,-7.609193,-6.899017,0.207977,0.198765,0.217493,0.300525
1698344439921875,-7.890193,-6.882017,0.105977,0.190365,0.169793,0.278025
1698344439929687,-8.105193,-6.923017,0.20977,0.171765,0.136293,0.272525
1698344439937500,-7.954193,-6.876017,0.95023,0.165365,0.137493,0.256825
1698344439945312,-7.824193,-6.824017,0.234023,0.148065,0.128593,0.230425
1698344439953125,-7.697193,-6.788017,0.309023,0.129465,0.149693,0.203425
1698344439960937,-7.334193,-6.685017,0.364023,0.121165,0.171893,0.158925
1698344439968750,-7.18193,-6.562017,0.384023,0.122165,0.198193,0.106625
1698344439976562,-6.977193,-6.418017,0.291023,0.121265,0.224993,0.52525
1698344439984375,-7.306193,-6.214017,0.153023,0.115765,0.229793,0.975
1698344439992187,-7.677193,-6.93017,0.24023,0.95365,0.230893,0.27575
1698344440000000,-7.877193,-6.19017,0.71977,0.92565,0.224293,0.21075
1698344440007812,-8.214193,-5.965017,0.107977,0.77265,0.204393,0.9125
1698344440015625,-8.748193,-5.937017,0.154977,0.61065,0.175493,0.42925
1698344440023437,-9.167193,-5.963017,0.204977,0.37065,0.162293,0.77925
1698344440031250,-9.21193,-6.55017,0.230977,0.24265,0.171493,0.132725
1698344440039062,-8.658193,-6.70017,0.218977,0.23465,0.180893,0.162525
1698344440046875,-8.634193,-6.128017,0.185977,0.26765,0.175693,0.164225
1698344440054687,-8.712193,-6.198017,0.217977,0.33065,0.175093,0.162725
1698344440062500,-8.694193,-6.232017,0.219977,0.27865,0.178693,0.151525
1698344440070312,-8.659193,-6.227017,0.214977,0.36765,0.190293,0.146425
1698344440078125,-8.608193,-6.193017,0.228977,0.40165,0.202693,0.130625
1698344440085937,-8.503193,-6.197017,0.214977,0.54765,0.207393,0.119225
1698344440093750,-8.395193,-6.152017,0.175977,0.69765,0.213193,0.104825
1698344440101562,-8.294193,-6.139017,0.130977,0.71265,0.223293,0.71825
1698344440109375,-8.54193,-6.139017,0.19977,0.89465,0.227493,0.62225
1698344440117187,-7.731193,-6.112017,0.119023,0.96765,0.232193,0.49325
1698344440125000,-7.548193,-6.97017,0.265023,0.112865,0.229393,0.25725
1698344440132812,-7.511193,-6.114017,0.449023,0.120365,0.222593,0.3875
1698344440140625,-7.547193,-6.125017,0.632023,0.118065,0.209793,0.38275
1698344440148437,-7.555193,-6.122017,0.825023,0.116265,0.216093,0.50975
1698344440156250,-7.500193,-6.115017,0.996023,0.108465,0.205493,0.64775
1698344440164062,-7.516193,-6.90017,-1.155023,0.91465,0.195193,0.78575
1698344440171875,-7.759193,-6.29017,-1.263023,0.72865,0.173093,0.92075
1698344440179687,-8.129193,-5.879017,-1.309023,0.67865,0.184793,0.104975
1698344440187500,-8.298193,-5.737017,-1.321023,0.46565,0.213893,0.105475
1698344440195312,-8.267193,-5.668017,-1.295023,0.44065,0.248893,0.106075
1698344440203125,-8.228193,-5.575017,-1.277023,0.45765,0.291293,0.102375
1698344440210937,-8.315193,-5.455017,-1.191023,0.44665,0.333193,0.103175
1698344440218750,-8.380193,-5.344017,-1.34023,0.58465,0.383193,0.110675
1698344440226562,-8.314193,-5.218017,0.834023,0.81565,0.453093,0.121775
1698344440234375,-8.317193,-5.70017,0.611023,0.108065,0.501793,0.132175
1698344440242187,-8.363193,-4.986017,0.381023,0.141565,0.531793,0.131575
1698344440250000,-8.323193,-4.963017,0.161023,0.169165,0.581793,0.134475
1698344440257812,-8.192193,-4.956017,0.18977,0.193365,0.601593,0.139875
1698344440265625,-7.943193,-4.959017,0.169977,0.219565,0.617493,0.141875
1698344440273437,-7.669193,-4.930017,0.335977,0.245565,0.640293,0.147275
1698344440281250,-7.500193,-4.908017,0.483977,0.269365,0.634393,0.163075
1698344440289062,-7.405193,-4.899017,0.599977,0.294965,0.641793,0.179175
1698344440296875,-7.346193,-4.884017,0.727977,0.313165,0.643793,0.201275
1698344440304687,-7.460193,-4.838017,0.818977,0.334165,0.627593,0.216775
1698344440312500,-7.615193,-4.845017,0.920977,0.347665,0.614493,0.233775
1698344440320312,-7.653193,-4.812017,0.988977,0.360765,0.619493,0.243575
1698344440328125,-7.787193,-4.761017,1.34977,0.371565,0.615693,0.245075
1698344440335937,-8.74193,-4.709017,1.92977,0.386465,0.613993,0.243775
1698344440343750,-8.411193,-4.655017,1.147977,0.385465,0.609693,0.221575
1698344440351562,-8.731193,-4.632017,1.213977,0.385565,0.607193,0.202675
1698344440359375,-8.866193,-4.679017,1.240977,0.389165,0.621293,0.182575
1698344440367187,-8.928193,-4.767017,1.254977,0.389665,0.622093,0.160575
1698344440375000,-9.40193,-4.850017,1.270977,0.382465,0.624493,0.141675
1698344440382812,-9.79193,-4.881017,1.313977,0.365965,0.630493,0.127575
1698344440390625,-9.97193,-4.892017,1.359977,0.362965,0.650893,0.124875
1698344440398437,-9.203193,-4.874017,1.418977,0.346565,0.650993,0.122975
1698344440406250,-9.251193,-4.838017,1.532977,0.340565,0.662993,0.121675
1698344440414062,-9.198193,-4.764017,1.655977,0.341665,0.667893,0.131275
1698344440421875,-9.196193,-4.659017,1.782977,0.340465,0.684493,0.134775
1698344440429687,-9.206193,-4.565017,1.914977,0.345165,0.700493,0.142875
1698344440437500,-9.150193,-4.486017,2.53977,0.345165,0.700493,0.142875
1698344440445312,-8.887193,-4.408017,2.191977,0.358665,0.714293,0.140275
1698344440453125,-8.792193,-4.238017,2.321977,0.361465,0.700393,0.149475
1698344440460937,-8.697193,-4.181017,2.460977,0.365965,0.678393,0.148975
1698344440468750,-8.354193,-4.137017,2.551977,0.358365,0.671993,0.145575
1698344440476562,-7.940193,-4.116017,2.599977,0.351865,0.641893,0.146575
1698344440484375,-7.684193,-4.92017,2.606977,0.344365,0.601993,0.134575
1698344440492187,-7.571193,-4.96017,2.617977,0.336765,0.552393,0.116175
1698344440500000,-7.678193,-4.59017,2.594977,0.324665,0.491893,0.80375
1698344440507812,-7.832193,-4.68017,2.576977,0.312765,0.434393,0.45975
1698344440515625,-7.813193,-4.154017,2.494977,0.314565,0.392393,0.4275
1698344440523437,-7.934193,-4.243017,2.405977,0.296865,0.345393,0.36125
1698344440531250,-8.85193,-4.430017,2.269977,0.288165,0.291493,0.78225
1698344440539062,-7.996193,-4.667017,2.108977,0.271565,0.247993,0.115425
1698344440546875,-7.887193,-4.871017,1.970977,0.265865,0.215793,0.149125
1698344440554687,-7.906193,-5.50017,1.810977,0.259665,0.169893,0.173625
1698344440562500,-8.58193,-5.171017,1.670977,0.244865,0.143293,0.182325
1698344440570312,-8.147193,-5.268017,1.570977,0.244865,0.121693,0.190625
1698344440578125,-8.95193,-5.371017,1.477977,0.229865,0.113693,0.197225
1698344440585937,-8.103193,-5.457017,1.388977,0.223765,0.100293,0.197625
1698344440593750,-8.208193,-5.479017,1.351977,0.227665,0.94593,0.177125
1698344440601562,-8.313193,-5.451017,1.306977,0.227465,0.109893,0.175125
1698344440609375,-8.224193,-5.513017,1.251977,0.234765,0.106493,0.172025
1698344440617187,-7.945193,-5.549017,1.204977,0.245565,0.114193,0.163925
1698344440625000,-7.813193,-5.573017,1.165977,0.242365,0.113793,0.153025
1698344440632812,-7.803193,-5.618017,1.156977,0.252765,0.96493,0.147025
1698344440640625,-7.687193,-5.682017,1.133977,0.249565,0.79893,0.147325
1698344440648437,-7.508193,-5.821017,1.79977,0.253465,0.66693,0.169825
1698344440656250,-7.314193,-5.987017,1.977,0.241065,0.47393,0.179625
1698344440664062,-7.155193,-6.172017,0.914977,0.233365,0.22693,0.188025
1698344440671875,-7.69193,-6.349017,0.825977,0.219665,0.3507,0.198125
1698344440679687,-6.992193,-6.492017,0.780977,0.198765,0.24507,0.216025
1698344440687500,-6.916193,-6.577017,0.758977,0.185265,0.43907,0.233925
1698344440695312,-6.885193,-6.669017,0.710977,0.168565,0.68507,0.242425
1698344440703125,-6.891193,-6.709017,0.660977,0.159365,0.83407,0.244325
1698344440710937,-6.894193,-6.691017,0.633977,0.148465,0.91907,0.236725
1698344440718750,-6.902193,-6.742017,0.581977,0.129965,0.108907,0.224725
1698344440726562,-6.915193,-6.790017,0.499977,0.120565,0.112807,0.209125
1698344440734375,-6.929193,-6.806017,0.435977,0.107765,0.129707,0.192225
1698344440742187,-6.895193,-6.838017,0.378977,0.90565,0.144407,0.187825
1698344440750000,-6.906193,-6.831017,0.316977,0.75365,0.154407,0.183525
1698344440757812,-7.84193,-6.784017,0.303977,0.68765,0.161607,0.164825
1698344440765625,-7.203193,-6.773017,0.285977,0.47665,0.173607,0.160625
1698344440773437,-7.271193,-6.801017,0.250977,0.39765,0.176207,0.165325
1698344440781250,-7.436193,-6.826017,0.234977,0.26265,0.187807,0.168925
1698344440789062,-7.645193,-6.808017,0.255977,0.6465,0.190007,0.181525
1698344440796875,-7.780193,-6.833017,0.271977,0.365,0.193107,0.186425
1698344440804687,-7.816193,-6.908017,0.266977,0.465,0.182707,0.190825
1698344440812500,-7.914193,-6.987017,0.287977,0.2335,0.178307,0.184625
1698344440820312,-8.67193,-7.56017,0.324977,0.5335,0.171807,0.181425
1698344440828125,-8.209193,-7.24017,0.414977,0.25735,0.160807,0.176425
1698344440835937,-8.269193,-6.989017,0.490977,0.24035,0.148407,0.157325
1698344440843750,-8.270193,-6.907017,0.603977,0.25935,0.129807,0.120925
1698344440851562,-8.245193,-6.762017,0.712977,0.28135,0.96407,0.69925
1698344440859375,-8.186193,-6.596017,0.823977,0.24435,0.81607,0.16125
1698344440867187,-8.84193,-6.402017,0.928977,0.18035,0.65907,0.56575
1698344440875000,-7.956193,-6.194017,1.12977,0.11435,0.51407,0.116675
1698344440882812,-7.882193,-5.959017,1.68977,0.6235,0.49907,0.163875
1698344440890625,-7.925193,-5.744017,1.143977,0.5135,0.48107,0.198475
1698344440898437,-8.30193,-5.585017,1.197977,0.4035,0.69907,0.204375
1698344440906250,-8.94193,-5.499017,1.192977,0.12965,0.81907,0.196275
1698344440914062,-8.190193,-5.503017,1.110977,0.17565,0.97507,0.169475
1698344440921875,-8.355193,-5.505017,1.55977,0.17865,0.122007,0.148475
1698344440929687,-8.439193,-5.516017,1.26977,0.16565,0.122707,0.124875
1698344440937500,-8.474193,-5.550017,0.985977,0.18765,0.132407,0.105675
1698344440945312,-8.441193,-5.613017,0.949977,0.14265,0.127207,0.104175
1698344440953125,-8.321193,-5.663017,0.915977,0.16065,0.115207,0.94975
1698344440960937,-8.316193,-5.672017,0.869977,0.9965,0.125107,0.93175
1698344440968750,-8.216193,-5.725017,0.858977,0.5635,0.126607,0.100975
1698344440976562,-8.66193,-5.704017,0.808977,0.665,0.120407,0.105775
1698344440984375,-8.55193,-5.697017,0.771977,0.2435,0.143907,0.103675
1698344440992187,-8.46193,-5.677017,0.742977,0.2635,0.150807,0.109875
1698344441000000,-8.5193,-5.662017,0.705977,0.5265,0.149307,0.103575
1698344441007812,-7.920193,-5.663017,0.651977,0.5835,0.167207,0.103275
1698344441015625,-7.854193,-5.648017,0.596977,0.7335,0.175607,0.102975
1698344441023437,-7.865193,-5.604017,0.543977,0.1535,0.180307,0.99975
1698344441031250,-7.844193,-5.521017,0.537977,0.1865,0.188007,0.105875
1698344441039062,-7.813193,-5.463017,0.514977,0.9465,0.188507,0.113675
1698344441046875,-7.777193,-5.425017,0.471977,0.32365,0.194407,0.116775
1698344441054687,-7.794193,-5.356017,0.461977,0.35165,0.187707,0.123375
1698344441062500,-7.852193,-5.273017,0.459977,0.56165,0.186607,0.134575
1698344441070312,-7.859193,-5.237017,0.443977,0.66965,0.177207,0.141075
1698344441078125,-7.796193,-5.247017,0.424977,0.74465,0.180807,0.142675
1698344441085937,-7.764193,-5.243017,0.399977,0.95865,0.177707,0.141275
1698344441093750,-7.862193,-5.246017,0.379977,0.110965,0.176707,0.149275
1698344441101562,-7.987193,-5.220017,0.406977,0.116965,0.171507,0.149475
1698344441109375,-7.992193,-5.194017,0.442977,0.130865,0.163307,0.143475
1698344441117187,-8.18193,-5.165017,0.460977,0.142665,0.159807,0.143775
1698344441125000,-8.78193,-5.125017,0.515977,0.156865,0.162407,0.145175
1698344441132812,-8.84193,-5.97017,0.595977,0.164265,0.160507,0.145375
1698344441140625,-8.113193,-5.81017,0.631977,0.167265,0.149707,0.162875
1698344441148437,-8.31193,-5.64017,0.700977,0.178065,0.152107,0.167475
1698344441156250,-7.998193,-5.45017,0.770977,0.188465,0.155507,0.169075
1698344441164062,-8.78193,-5.29017,0.820977,0.191265,0.155107,0.166175
1698344441171875,-8.85193,-4.993017,0.895977,0.205065,0.175507,0.162675
1698344441179687,-8.177193,-4.928017,0.934977,0.212765,0.183507,0.149975
1698344441187500,-8.340193,-4.894017,0.975977,0.217665,0.185407,0.145175
1698344441195312,-8.416193,-4.888017,1.977,0.222465,0.173907,0.143775
1698344441203125,-8.549193,-4.865017,0.990977,0.232565,0.175207,0.144075
1698344441210937,-8.652193,-4.865017,1.11977,0.237765,0.180207,0.129675
1698344441218750,-8.577193,-4.874017,1.13977,0.236765,0.161807,0.122075
1698344441226562,-8.511193,-4.880017,1.11977,0.238265,0.155307,0.126875
1698344441234375,-8.478193,-4.861017,1.45977,0.246865,0.155707,0.142775
1698344441242187,-8.492193,-4.839017,1.45977,0.251265,0.159007,0.144375
1698344441250000,-8.502193,-4.871017,1.18977,0.260765,0.164807,0.144175
1698344441257812,-8.339193,-4.943017,0.968977,0.248265,0.175907,0.142375
1698344441265625,-8.67193,-4.964017,0.916977,0.243765,0.182407,0.137475
1698344441273437,-7.965193,-4.934017,0.884977,0.237765,0.187607,0.138875
1698344441281250,-8.112193,-4.948017,0.863977,0.245065,0.197707,0.143475
1698344441289062,-8.485193,-4.887017,0.838977,0.240465,0.212307,0.135375
1698344441296875,-8.853193,-4.945017,0.794977,0.237765,0.223107,0.109975
1698344441304687,-8.759193,-5.40017,0.765977,0.236965,0.217907,0.66075
1698344441312500,-8.626193,-5.143017,0.672977,0.239165,0.233907,0.34175
1698344441320312,-8.585193,-5.364017,0.563977,0.228565,0.246707,0.22875
1698344441328125,-8.288193,-5.551017,0.484977,0.215265,0.245507,0.775
1698344441335937,-8.17193,-5.701017,0.362977,0.204565,0.256607,0.8925
1698344441343750,-7.934193,-5.796017,0.289977,0.189065,0.277907,0.9425
1698344441351562,-7.906193,-5.816017,0.271977,0.169565,0.279807,0.8125
1698344441359375,-7.783193,-5.848017,0.187977,0.164865,0.310207,0.5725
1698344441367187,-7.595193,-5.900017,0.98977,0.152265,0.319907,0.1225
1698344441375000,-7.479193,-5.934017,0.33023,0.133765,0.349007,0.12075
1698344441382812,-7.345193,-5.985017,0.197023,0.116665,0.368807,0.19475
1698344441390625,-6.977193,-6.40017,0.349023,0.108965,0.387607,0.25275
1698344441398437,-6.599193,-6.74017,0.561023,0.93165,0.407607,0.37375
1698344441406250,-6.309193,-6.91017,0.784023,0.92765,0.418607,0.57575
1698344441414062,-6.164193,-6.68017,0.968023,0.87465,0.441307,0.86975
1698344441421875,-6.221193,-5.915017,-1.139023,0.71865,0.449007,0.114875
1698344441429687,-6.546193,-5.759017,-1.260023,0.63665,0.453607,0.149275
1698344441437500,-7.207193,-5.488017,-1.295023,0.65865,0.453007,0.183975
1698344441445312,-8.708193,-4.966017,-1.247023,0.86865,0.454607,0.212375
1698344441453125,-10.260193,-4.795017,-1.214023,0.87165,0.450507,0.191975
1698344441460937,-10.536193,-4.782017,-1.139023,0.86065,0.408207,0.96975
1698344441468750,-9.507193,-5.92017,-1.327023,0.111065,0.366607,0.25925
1698344441476562,-8.802193,-5.482017,-1.667023,0.127665,0.362707,0.96525
1698344441484375,-8.743193,-5.661017,-1.817023,0.117065,0.390007,0.119125
1698344441492187,-8.548193,-5.687017,-1.840023,0.98965,0.384907,0.119225
1698344441500000,-8.219193,-5.567017,-1.929023,0.103065,0.363407,0.101325
1698344441507812,-8.96193,-5.436017,-1.993023,0.104365,0.350007,0.66625
1698344441515625,-8.7193,-5.328017,-2.18023,0.114565,0.323007,0.28225
1698344441523437,-7.788193,-5.206017,-2.91023,0.124765,0.306507,0.12975
1698344441531250,-7.704193,-5.49017,-2.150023,0.149965,0.294907,0.51175
1698344441539062,-8.5193,-4.931017,-2.199023,0.164765,0.306607,0.80875
1698344441546875,-8.441193,-4.861017,-2.199023,0.161665,0.313407,0.83775
1698344441554687,-8.814193,-4.744017,-2.193023,0.164965,0.337307,0.51975
1698344441562500,-9.422193,-4.650017,-2.236023,0.173165,0.367307,0.425
1698344441570312,-9.592193,-4.835017,-2.286023,0.166465,0.372807,0.68125
1698344441578125,-8.982193,-5.61017,-2.406023,0.166465,0.368607,0.140425
1698344441585937,-8.636193,-5.226017,-2.560023,0.168465,0.385607,0.176825
1698344441593750,-8.758193,-5.348017,-2.624023,0.165565,0.387907,0.172325
1698344441601562,-8.925193,-5.409017,-2.633023,0.149965,0.377207,0.165825
1698344441609375,-8.931193,-5.498017,-2.649023,0.145765,0.360007,0.176525
1698344441617187,-8.848193,-5.601017,-2.696023,0.141465,0.337907,0.180725
1698344441625000,-8.803193,-5.670017,-2.707023,0.131265,0.312807,0.185125
1698344441632812,-8.798193,-5.742017,-2.666023,0.119265,0.283907,0.186225
1698344441640625,-8.673193,-5.820017,-2.636023,0.123865,0.252007,0.180725
1698344441648437,-8.536193,-5.891017,-2.577023,0.121065,0.211607,0.179825
1698344441656250,-8.497193,-5.936017,-2.461023,0.131665,0.173207,0.171025
1698344441664062,-8.390193,-5.953017,-2.319023,0.138165,0.128007,0.173225
1698344441671875,-8.192193,-6.37017,-2.203023,0.147165,0.78007,0.156325
1698344441679687,-8.26193,-6.113017,-2.71023,0.162265,0.48907,0.136725
1698344441687500,-7.798193,-6.210017,-1.945023,0.166565,0.19207,0.117125
1698344441695312,-7.557193,-6.280017,-1.856023,0.168965,0.507,0.77425
1698344441703125,-7.376193,-6.292017,-1.733023,0.167265,0.22093,0.53425
1698344441710937,-7.252193,-6.260017,-1.599023,0.168065,0.23893,0.12525
1698344441718750,-7.149193,-6.167017,-1.472023,0.165365,0.10693,0.31275
1698344441726562,-7.103193,-6.94017,-1.413023,0.173965,0.3807,0.56275
1698344441734375,-7.48193,-6.36017,-1.419023,0.195265,0.17407,0.81075
1698344441742187,-7.110193,-5.970017,-1.486023,0.212965,0.50807,0.107175
1698344441750000,-7.179193,-5.965017,-1.547023,0.212565,0.61607,0.127375
1698344441757812,-7.178193,-5.946017,-1.697023,0.210665,0.89407,0.143975
1698344441765625,-7.324193,-5.916017,-1.843023,0.202465,0.119607,0.154375
1698344441773437,-7.606193,-5.842017,-1.942023,0.168865,0.131007,0.160175
1698344441781250,-7.840193,-5.767017,-2.19023,0.165865,0.149607,0.158075
1698344441789062,-7.925193,-5.695017,-2.74023,0.150865,0.152207,0.145375
1698344441796875,-7.897193,-5.620017,-2.127023,0.113765,0.164307,0.143475
1698344441804687,-7.866193,-5.585017,-2.200023,0.94065,0.167207,0.141675
1698344441812500,-7.816193,-5.525017,-2.254023,0.66765,0.163507,0.143075
1698344441820312,-7.670193,-5.449017,-2.298023,0.58465,0.164507,0.176075
1698344441828125,-7.569193,-5.340017,-2.380023,0.33665,0.169207,0.214975
1698344441835937,-7.700193,-5.227017,-2.451023,0.20565,0.192107,0.253675
1698344441843750,-7.796193,-5.142017,-2.531023,0.3035,0.214007,0.301675
1698344441851562,-7.684193,-5.55017,-2.640023,0.16135,0.236407,0.331075
1698344441859375,-7.544193,-4.917017,-2.786023,0.34035,0.269407,0.374375
1698344441867187,-7.737193,-4.683017,-2.878023,0.65035,0.304207,0.410975
1698344441875000,-8.123193,-4.422017,-2.910023,0.87235,0.326907,0.446475
1698344441882812,-8.411193,-4.148017,-2.945023,0.98135,0.324607,0.471475
1698344441890625,-8.517193,-3.892017,-3.7023,0.111935,0.332807,0.474375
1698344441898437,-8.527193,-3.683017,-3.106023,0.119535,0.315307,0.468575
1698344441906250,-8.702193,-3.480017,-3.186023,0.114835,0.317807,0.449775
1698344441914062,-9.43193,-3.353017,-3.236023,0.114435,0.318907,0.432375
1698344441921875,-9.220193,-3.288017,-3.289023,0.121135,0.305507,0.388575
1698344441929687,-9.227193,-3.306017,-3.412023,0.131235,0.296707,0.346375
1698344441937500,-9.247193,-3.307017,-3.473023,0.133535,0.279007,0.318375
1698344441945312,-9.232193,-3.317017,-3.505023,0.143935,0.265607,0.291975
1698344441953125,-9.221193,-3.279017,-3.515023,0.155635,0.241207,0.273575
1698344441960937,-9.299193,-3.188017,-3.471023,0.162835,0.210907,0.272475
1698344441968750,-9.350193,-3.99017,-3.394023,0.179435,0.177607,0.255975
1698344441976562,-9.417193,-2.988017,-3.306023,0.177035,0.145407,0.237575
1698344441984375,-9.502193,-2.887017,-3.240023,0.178235,0.123207,0.227075
1698344441992187,-9.509193,-2.738017,-3.117023,0.179735,0.90707,0.223175
1698344442000000,-9.520193,-2.547017,-2.977023,0.176235,0.58107,0.208175
1698344442007812,-9.410193,-2.427017,-2.867023,0.158835,0.31407,0.192975
1698344442015625,-9.203193,-2.375017,-2.770023,0.135535,0.4993,0.164275
1698344442023437,-9.32193,-2.420017,-2.701023,0.113435,0.19093,0.133175
1698344442031250,-8.827193,-2.546017,-2.651023,0.92935,0.40693,0.91475
1698344442039062,-8.694193,-2.665017,-2.598023,0.68835,0.53493,0.39875
1698344442046875,-8.649193,-2.826017,-2.538023,0.38935,0.54993,0.14925
1698344442054687,-8.662193,-3.38017,-2.481023,0.24035,0.62693,0.86825
1698344442062500,-8.604193,-3.314017,-2.444023,0.4935,0.62793,0.140125
1698344442070312,-8.489193,-3.663017,-2.455023,0.21965,0.64393,0.198025
1698344442078125,-8.399193,-4.76017,-2.501023,0.33265,0.65293,0.229425
1698344442085937,-8.332193,-4.426017,-2.476023,0.48765,0.69693,0.258925
1698344442093750,-8.272193,-4.712017,-2.445023,0.68965,0.65193,0.284025
1698344442101562,-8.255193,-5.43017,-2.470023,0.78765,0.66593,0.291925
1698344442109375,-8.295193,-5.292017,-2.448023,0.95565,0.69693,0.296525
1698344442117187,-8.385193,-5.474017,-2.409023,0.117165,0.88293,0.306925
1698344442125000,-8.327193,-5.622017,-2.382023,0.130965,0.128293,0.301225
1698344442132812,-8.118193,-5.763017,-2.345023,0.143565,0.159193,0.294325
1698344442140625,-7.979193,-5.917017,-2.308023,0.170465,0.190493,0.274525
1698344442148437,-7.866193,-6.32017,-2.262023,0.173365,0.212893,0.252025
1698344442156250,-7.744193,-6.90017,-2.180023,0.172965,0.249293,0.226025
1698344442164062,-7.632193,-6.105017,-2.78023,0.192565,0.260893,0.197425
1698344442171875,-7.616193,-6.96017,-1.961023,0.198565,0.278893,0.186025
1698344442179687,-7.597193,-6.120017,-1.852023,0.209465,0.284293,0.171825
1698344442187500,-7.541193,-6.172017,-1.761023,0.220965,0.279393,0.162225
1698344442195312,-7.477193,-6.201017,-1.681023,0.219365,0.280593,0.152825
1698344442203125,-7.396193,-6.253017,-1.644023,0.228465,0.263293,0.150025
1698344442210937,-7.351193,-6.279017,-1.617023,0.223665,0.251193,0.139325
1698344442218750,-7.369193,-6.290017,-1.594023,0.223165,0.227493,0.128825
1698344442226562,-7.389193,-6.301017,-1.572023,0.241165,0.218293,0.117825
1698344442234375,-7.405193,-6.282017,-1.626023,0.242565,0.197293,0.105825
1698344442242187,-7.487193,-6.243017,-1.676023,0.251265,0.171193,0.87425
1698344442250000,-7.551193,-6.222017,-1.699023,0.259965,0.152093,0.73625
1698344442257812,-7.538193,-6.214017,-1.765023,0.262965,0.151793,0.67325
1698344442265625,-7.488193,-6.208017,-1.845023,0.267065,0.132593,0.50425
1698344442273437,-7.470193,-6.207017,-1.918023,0.265465,0.127293,0.45825
1698344442281250,-7.524193,-6.186017,-2.7023,0.266665,0.117693,0.20925
1698344442289062,-7.620193,-6.143017,-2.80023,0.264465,0.103993,0.3825
1698344442296875,-7.639193,-6.113017,-2.178023,0.266065,0.93593,0.1025
1698344442304687,-7.687193,-6.54017,-2.260023,0.261365,0.91493,0.9875
1698344442312500,-7.785193,-5.975017,-2.347023,0.245765,0.79493,0.23675
1698344442320312,-7.836193,-5.909017,-2.406023,0.241165,0.74393,0.25075
1698344442328125,-7.837193,-5.793017,-2.438023,0.239565,0.75693,0.34475
1698344442335937,-7.886193,-5.710017,-2.493023,0.227565,0.89393,0.31575
1698344442343750,-8.23193,-5.624017,-2.548023,0.221065,0.89593,0.39475
1698344442351562,-8.162193,-5.561017,-2.566023,0.214965,0.102393,0.55375
1698344442359375,-8.86193,-5.453017,-2.601023,0.213265,0.107193,0.63275
1698344442367187,-8.38193,-5.308017,-2.642023,0.213065,0.134493,0.92175
1698344442375000,-8.63193,-5.132017,-2.629023,0.203365,0.148593,0.126975
1698344442382812,-8.105193,-4.904017,-2.609023,0.189165,0.160993,0.161675
1698344442390625,-8.60193,-4.690017,-2.616023,0.191565,0.175993,0.205975
1698344442398437,-7.918193,-4.474017,-2.591023,0.197265,0.190793,0.222175
1698344442406250,-7.885193,-4.268017,-2.574023,0.190565,0.190093,0.248875
1698344442414062,-8.57193,-4.101017,-2.570023,0.188965,0.181393,0.254975
1698344442421875,-8.350193,-3.946017,-2.536023,0.188765,0.163593,0.242175
1698344442429687,-8.648193,-3.888017,-2.534023,0.195865,0.147993,0.197675
1698344442437500,-8.736193,-3.962017,-2.568023,0.192265,0.138593,0.137775
1698344442445312,-8.670193,-4.110017,-2.649023,0.187265,0.122593,0.72875
1698344442453125,-8.581193,-4.316017,-2.774023,0.172865,0.117593,0.28675
1698344442460937,-8.577193,-4.534017,-2.915023,0.168565,0.100693,0.4625
1698344442468750,-8.611193,-4.717017,-3.3023,0.153665,0.102193,0.29825
1698344442476562,-8.616193,-4.841017,-3.49023,0.134165,0.99693,0.44125
1698344442484375,-8.669193,-4.925017,-3.92023,0.122165,0.112793,0.65925
1698344442492187,-8.706193,-5.17,-3.116023,0.113565,0.128093,0.75225
1698344442500000,-8.640193,-5.74017,-3.125023,0.107865,0.148893,0.88925
1698344442507812,-8.544193,-5.147017,-3.107023,0.98965,0.167893,0.96425
1698344442515625,-8.421193,-5.227017,-3.59023,0.96065,0.198693,0.102025
1698344442523437,-8.406193,-5.256017,-2.997023,0.97765,0.223693,0.99925
1698344442531250,-8.471193,-5.309017,-2.893023,0.110165,0.250493,0.102425
1698344442539062,-8.372193,-5.379017,-2.786023,0.120665,0.286093,0.103025
1698344442546875,-8.259193,-5.419017,-2.692023,0.121465,0.312593,0.110525
1698344442554687,-8.229193,-5.473017,-2.578023,0.121465,0.345693,0.95625
1698344442562500,-8.158193,-5.528017,-2.418023,0.125765,0.378893,0.79125
1698344442570312,-8.58193,-5.534017,-2.279023,0.134865,0.387993,0.64825
1698344442578125,-7.968193,-5.522017,-2.156023,0.125365,0.392593,0.44325
1698344442585937,-7.895193,-5.485017,-2.29023,0.120465,0.385993,0.14725
1698344442593750,-7.846193,-5.429017,-1.920023,0.121065,0.381493,0.26175
1698344442601562,-7.807193,-5.372017,-1.849023,0.102065,0.376093,0.54275
1698344442609375,-7.839193,-5.284017,-1.802023,0.83565,0.351793,0.72375
1698344442617187,-7.847193,-5.199017,-1.786023,0.80465,0.339393,0.82975
1698344442625000,-7.894193,-5.107017,-1.795023,0.69065,0.311093,0.93475
1698344442632812,-8.221193,-5.7017,-1.825023,0.50765,0.282393,0.98875
1698344442640625,-8.281193,-4.977017,-1.855023,0.32265,0.276593,0.92475
1698344442648437,-8.7193,-4.922017,-1.939023,0.17265,0.265093,0.85775
1698344442656250,-7.938193,-4.836017,-2.7023,0.1135,0.262193,0.85575
1698344442664062,-8.123193,-4.763017,-2.15023,0.13835,0.260993,0.95075
1698344442671875,-8.356193,-4.640017,-2.36023,0.26035,0.256493,0.88675
1698344442679687,-8.569193,-4.558017,-2.38023,0.34735,0.249893,0.78875
1698344442687500,-8.601193,-4.518017,-2.40023,0.52735,0.255593,0.69375
1698344442695312,-8.569193,-4.449017,-2.70023,0.69635,0.258193,0.63175
1698344442703125,-8.545193,-4.363017,-2.45023,0.77635,0.256393,0.74175
1698344442710937,-8.555193,-4.209017,-1.989023,0.76035,0.265193,0.96175
1698344442718750,-8.694193,-4.22017,-1.939023,0.74635,0.274593,0.110475
1698344442726562,-8.813193,-3.915017,-1.900023,0.58035,0.268693,0.119875
1698344442734375,-8.754193,-3.851017,-1.930023,0.50235,0.260593,0.108775
1698344442742187,-8.724193,-3.776017,-1.980023,0.43935,0.252693,0.92975
1698344442750000,-8.781193,-3.730017,-1.997023,0.31635,0.244593,0.78675
1698344442757812,-8.759193,-3.682017,-2.42023,0.26735,0.225093,0.57875
1698344442765625,-8.673193,-3.709017,-2.113023,0.12635,0.218993,0.32775
1698344442773437,-8.575193,-3.780017,-2.220023,0.8035,0.217993,0.20275
1698344442781250,-8.567193,-3.808017,-2.299023,0.10835,0.204593,0.11975
1698344442789062,-8.673193,-3.840017,-2.306023,0.6035,0.205093,0.2125
1698344442796875,-8.566193,-3.920017,-2.349023,0.2535,0.218993,0.19125
1698344442804687,-8.281193,-4.42017,-2.428023,0.8335,0.225293,0.42525
1698344442812500,-8.208193,-4.107017,-2.465023,0.3535,0.220493,0.53625
1698344442820312,-8.982193,-3.979017,-2.424023,0.2235,0.201693,0.46125
1698344442828125,-9.636193,-4.81017,-2.386023,0.14235,0.208693,0.77325
1698344442835937,-9.199193,-4.186017,-2.424023,0.15935,0.227193,0.133625
1698344442843750,-9.18193,-4.352017,-2.619023,0.265,0.231893,0.179025
1698344442851562,-8.797193,-4.623017,-2.639023,0.17335,0.247893,0.227425
1698344442859375,-8.468193,-4.665017,-2.632023,0.3135,0.258693,0.253825
1698344442867187,-8.426193,-4.728017,-2.577023,0.5065,0.284193,0.270625
1698344442875000,-8.452193,-4.853017,-2.427023,0.19365,0.319993,0.290125
1698344442882812,-8.164193,-5.40017,-2.299023,0.45665,0.362093,0.301625
1698344442890625,-7.923193,-5.264017,-2.177023,0.69065,0.393993,0.316525
1698344442898437,-7.776193,-5.483017,-2.13023,0.81365,0.414093,0.317525
1698344442906250,-7.524193,-5.631017,-1.796023,0.95265,0.443793,0.313725
1698344442914062,-7.237193,-5.740017,-1.609023,0.121065,0.476293,0.295525
1698344442921875,-7.98193,-5.859017,-1.402023,0.140265,0.488893,0.271525
1698344442929687,-7.95193,-5.906017,-1.146023,0.165965,0.495093,0.241425
1698344442937500,-7.350193,-5.930017,0.889023,0.179365,0.494093,0.222525
1698344442945312,-7.836193,-5.911017,0.650023,0.200465,0.469193,0.232225
1698344442953125,-8.348193,-5.971017,0.457023,0.216065,0.432293,0.251825
1698344442960937,-8.574193,-6.216017,0.356023,0.227165,0.396593,0.291825
1698344442968750,-8.387193,-6.563017,0.369023,0.231965,0.368293,0.334725
1698344442976562,-7.873193,-6.886017,0.457023,0.224765,0.335993,0.368425
1698344442984375,-7.453193,-7.173017,0.573023,0.201465,0.313293,0.372125
1698344442992187,-7.206193,-7.309017,0.563023,0.175265,0.285393,0.340025
1698344443000000,-7.74193,-7.319017,0.508023,0.143765,0.275093,0.279225
1698344443007812,-6.930193,-7.237017,0.399023,0.108865,0.282993,0.200725
1698344443015625,-6.742193,-7.72017,0.269023,0.74165,0.303793,0.114125
1698344443023437,-6.552193,-6.885017,0.131023,0.47165,0.320093,0.43225
1698344443031250,-6.544193,-6.668017,0.27023,0.25865,0.311793,0.19475
1698344443039062,-6.787193,-6.415017,0.127977,0.1935,0.295793,0.50175
1698344443046875,-7.225193,-6.157017,0.263977,0.19035,0.265593,0.55775
1698344443054687,-7.667193,-5.999017,0.337977,0.35535,0.237793,0.11175
1698344443062500,-7.875193,-5.912017,0.405977,0.41935,0.212393,0.41425
1698344443070312,-8.71193,-5.877017,0.380977,0.35435,0.193793,0.79425
1698344443078125,-8.537193,-5.877017,0.346977,0.27535,0.162193,0.100525
1698344443085937,-9.40193,-5.902017,0.348977,0.25835,0.153093,0.121125
1698344443093750,-9.57193,-6.7017,0.337977,0.14635,0.177793,0.151925
1698344443101562,-8.861193,-6.80017,0.248977,0.1065,0.184293,0.162725
1698344443109375,-8.954193,-6.179017,0.201977,0.14865,0.200393,0.156025
1698344443117187,-9.79193,-6.236017,0.214977,0.29865,0.223693,0.145925
1698344443125000,-9.38193,-6.249017,0.214977,0.41865,0.237693,0.126725
1698344443132812,-8.937193,-6.328017,0.185977,0.48065,0.252193,0.118525
1698344443140625,-8.718193,-6.425017,0.142977,0.50865,0.253593,0.110625
1698344443148437,-8.577193,-6.480017,0.65977,0.62865,0.246193,0.98125
1698344443156250,-8.508193,-6.552017,0.16023,0.68665,0.235493,0.87325
1698344443164062,-8.391193,-6.554017,0.96023,0.56165,0.230293,0.73325
1698344443171875,-8.246193,-6.544017,0.216023,0.58965,0.227693,0.54525
1698344443179687,-8.10193,-6.531017,0.346023,0.64765,0.215293,0.40625
1698344443187500,-7.753193,-6.499017,0.517023,0.53365,0.195993,0.11225
1698344443195312,-7.652193,-6.427017,0.663023,0.44865,0.163393,0.17975
1698344443203125,-7.651193,-6.355017,0.795023,0.36865,0.151893,0.50575
1698344443210937,-7.528193,-6.249017,0.955023,0.23965,0.139793,0.73875
1698344443218750,-7.466193,-6.86017,-1.110023,0.19165,0.133493,0.97175
1698344443226562,-7.692193,-5.830017,-1.188023,0.19865,0.124293,0.128575
1698344443234375,-7.919193,-5.569017,-1.197023,0.20065,0.129593,0.145675
1698344443242187,-7.992193,-5.312017,-1.191023,0.19965,0.144693,0.152375
1698344443250000,-8.68193,-5.79017,-1.201023,0.33765,0.165893,0.159175
1698344443257812,-8.162193,-4.849017,-1.156023,0.36765,0.199793,0.159975
1698344443265625,-8.210193,-4.632017,-1.81023,0.56865,0.219693,0.155775
1698344443273437,-8.304193,-4.447017,-1.4023,0.72165,0.245393,0.147175
1698344443281250,-8.362193,-4.271017,0.875023,0.91165,0.268493,0.133475
1698344443289062,-8.261193,-4.159017,0.777023,0.111265,0.305793,0.120375
1698344443296875,-8.94193,-4.99017,0.668023,0.137665,0.332593,0.108475
1698344443304687,-8.11193,-4.98017,0.572023,0.162265,0.348993,0.104275
1698344443312500,-7.999193,-4.123017,0.467023,0.191465,0.363993,0.92175
1698344443320312,-8.10193,-4.103017,0.347023,0.210265,0.374593,0.70575
1698344443328125,-8.113193,-4.103017,0.231023,0.230165,0.379893,0.58275
1698344443335937,-8.278193,-4.180017,0.130023,0.243165,0.389893,0.36375
1698344443343750,-8.273193,-4.263017,0.19023,0.261465,0.410693,0.26175
1698344443351562,-8.342193,-4.370017,0.83977,0.285965,0.427393,0.18875
1698344443359375,-8.474193,-4.560017,0.133977,0.292265,0.442793,0.11375
1698344443367187,-8.366193,-4.728017,0.227977,0.306465,0.459193,0.3875
1698344443375000,-8.312193,-4.863017,0.289977,0.317365,0.472293,0.2575
1698344443382812,-8.404193,-5.32017,0.371977,0.317065,0.474793,0.1925
1698344443390625,-8.366193,-5.135017,0.479977,0.314365,0.492793,0.1475
1698344443398437,-8.345193,-5.165017,0.558977,0.306565,0.496593,0.3175
1698344443406250,-8.379193,-5.164017,0.693977,0.291565,0.511393,0.6375
1698344443414062,-8.429193,-5.148017,0.823977,0.292865,0.522993,0.17675
1698344443421875,-8.473193,-5.86017,0.920977,0.280365,0.532993,0.32075
1698344443429687,-8.497193,-4.948017,1.82977,0.278765,0.536193,0.36875
1698344443437500,-8.637193,-4.774017,1.261977,0.275665,0.533293,0.56975
1698344443445312,-8.868193,-4.678017,1.395977,0.269265,0.528793,0.56975
1698344443453125,-8.855193,-4.611017,1.532977,0.267765,0.510293,0.54975
1698344443460937,-8.658193,-4.561017,1.600977,0.270865,0.490593,0.40475
1698344443468750,-8.541193,-4.507017,1.645977,0.287765,0.485593,0.32675
1698344443476562,-8.458193,-4.493017,1.720977,0.289165,0.456293,0.13275
1698344443484375,-8.459193,-4.419017,1.777977,0.292365,0.427593,0.6275
1698344443492187,-8.645193,-4.388017,1.807977,0.300065,0.391193,0.11725
1698344443500000,-8.620193,-4.418017,1.875977,0.290865,0.365593,0.32625
1698344443507812,-8.353193,-4.514017,1.841977,0.300465,0.344093,0.55125
1698344443515625,-8.159193,-4.628017,1.771977,0.298965,0.320793,0.61925
1698344443523437,-8.65193,-4.776017,1.703977,0.292665,0.277393,0.67625
1698344443531250,-8.9193,-4.912017,1.610977,0.290565,0.242793,0.74425
1698344443539062,-7.962193,-5.15017,1.515977,0.271265,0.217393,0.76925
1698344443546875,-8.27193,-5.73017,1.433977,0.264765,0.177893,0.87125
1698344443554687,-8.170193,-5.87017,1.353977,0.261665,0.148293,0.100325
1698344443562500,-8.219193,-5.110017,1.269977,0.254265,0.128093,0.104025
1698344443570312,-8.209193,-5.177017,1.160977,0.245165,0.118093,0.104325
1698344443578125,-8.54193,-5.254017,1.30977,0.238765,0.99993,0.106325
1698344443585937,-7.893193,-5.294017,0.898977,0.223565,0.83193,0.103625
1698344443593750,-7.875193,-5.319017,0.793977,0.212365,0.58093,0.93225
1698344443601562,-7.970193,-5.319017,0.718977,0.218365,0.44193,0.88725
1698344443609375,-7.995193,-5.290017,0.661977,0.207465,0.19393,0.92425
1698344443617187,-7.969193,-5.228017,0.602977,0.196665,0.13293,0.97325
1698344443625000,-7.998193,-5.212017,0.536977,0.212365,0.10407,0.112025
1698344443632812,-8.18193,-5.240017,0.493977,0.217165,0.20107,0.124725
1698344443640625,-8.1193,-5.298017,0.422977,0.230765,0.37307,0.125025
1698344443648437,-7.949193,-5.377017,0.333977,0.244365,0.50407,0.134525
1698344443656250,-7.889193,-5.469017,0.249977,0.240065,0.55007,0.147325
1698344443664062,-7.881193,-5.560017,0.179977,0.241565,0.71807,0.149225
1698344443671875,-7.906193,-5.660017,0.90977,0.247665,0.88807,0.149625
1698344443679687,-7.945193,-5.759017,0.20977,0.244965,0.95507,0.160825
1698344443687500,-7.936193,-5.876017,0.52023,0.241665,0.91307,0.165325
1698344443695312,-7.925193,-5.985017,0.122023,0.240165,0.88207,0.160625
1698344443703125,-7.915193,-6.63017,0.181023,0.221965,0.91007,0.165525
1698344443710937,-7.905193,-6.116017,0.233023,0.220665,0.91007,0.171825
1698344443718750,-7.911193,-6.192017,0.306023,0.220565,0.85707,0.171725
1698344443726562,-7.876193,-6.282017,0.363023,0.208165,0.73707,0.166725
1698344443734375,-7.839193,-6.355017,0.415023,0.193265,0.68307,0.173025
1698344443742187,-7.803193,-6.408017,0.455023,0.191965,0.60507,0.166725
1698344443750000,-7.780193,-6.454017,0.487023,0.178065,0.48307,0.164925
1698344443757812,-7.712193,-6.468017,0.499023,0.171865,0.40107,0.155425
1698344443765625,-7.610193,-6.498017,0.512023,0.168765,0.30207,0.147325
1698344443773437,-7.533193,-6.488017,0.521023,0.166965,0.22207,0.133025
1698344443781250,-7.428193,-6.464017,0.522023,0.169665,0.5107,0.129325
1698344443789062,-7.314193,-6.446017,0.512023,0.166765,0.3793,0.108925
1698344443796875,-7.265193,-6.420017,0.508023,0.178565,0.7693,0.86725
1698344443804687,-7.200193,-6.420017,0.485023,0.188965,0.14193,0.78525
1698344443812500,-7.146193,-6.496017,0.512023,0.199765,0.7193,0.81825
1698344443820312,-7.117193,-6.627017,0.551023,0.204565,0.9207,0.97925
1698344443828125,-7.136193,-6.795017,0.571023,0.209365,0.20007,0.121625
1698344443835937,-7.131193,-6.986017,0.643023,0.201765,0.43007,0.131625
1698344443843750,-7.106193,-7.140017,0.681023,0.186965,0.52607,0.147725
1698344443851562,-7.106193,-7.303017,0.711023,0.173165,0.61807,0.154225
1698344443859375,-7.127193,-7.441017,0.758023,0.160765,0.68007,0.157525
1698344443867187,-7.101193,-7.564017,0.795023,0.145365,0.84607,0.153225
1698344443875000,-7.66193,-7.660017,0.826023,0.118965,0.89807,0.134625
1698344443882812,-7.40193,-7.689017,0.867023,0.89665,0.77007,0.103125
1698344443890625,-6.970193,-7.692017,0.874023,0.71065,0.76607,0.68825
1698344443898437,-6.943193,-7.636017,0.872023,0.41565,0.80807,0.34625
1698344443906250,-6.981193,-7.529017,0.874023,0.20865,0.79807,0.3075
1698344443914062,-6.980193,-7.417017,0.856023,0.765,0.69507,0.40775
1698344443921875,-6.927193,-7.282017,0.859023,0.7435,0.70107,0.67475
1698344443929687,-6.909193,-7.131017,0.834023,0.26435,0.87407,0.93775
1698344443937500,-6.889193,-6.969017,0.825023,0.39135,0.87707,0.115775
1698344443945312,-6.897193,-6.808017,0.810023,0.57535,0.81807,0.137675
1698344443953125,-6.919193,-6.647017,0.780023,0.51435,0.92507,0.142075
1698344443960937,-6.992193,-6.533017,0.767023,0.59535,0.95707,0.154675
1698344443968750,-7.84193,-6.405017,0.751023,0.59635,0.99307,0.159275
1698344443976562,-7.124193,-6.306017,0.733023,0.62635,0.104007,0.152875
1698344443984375,-7.233193,-6.266017,0.734023,0.57835,0.117307,0.141575
1698344443992187,-7.374193,-6.261017,0.741023,0.59635,0.139907,0.128675
1698344444000000,-7.539193,-6.252017,0.741023,0.60835,0.146507,0.122175
1698344444007812,-7.744193,-6.229017,0.734023,0.60935,0.157607,0.107875
1698344444015625,-7.972193,-6.215017,0.723023,0.68435,0.164107,0.104475
1698344444023437,-8.173193,-6.201017,0.695023,0.69435,0.159207,0.96575
1698344444031250,-8.337193,-6.197017,0.707023,0.77735,0.160707,0.109275
1698344444039062,-8.510193,-6.128017,0.684023,0.80835,0.145807,0.117375
1698344444046875,-8.615193,-5.999017,0.625023,0.102135,0.123107,0.142775
1698344444054687,-8.691193,-5.780017,0.528023,0.108835,0.104107,0.179275
1698344444062500,-8.747193,-5.501017,0.392023,0.115635,0.77307,0.230075
1698344444070312,-8.630193,-5.266017,0.281023,0.129735,0.53107,0.265075
1698344444078125,-8.556193,-5.15017,0.172023,0.120635,0.30207,0.276575
1698344444085937,-8.636193,-4.781017,0.45023,0.111435,0.6807,0.278775
1698344444093750,-8.737193,-4.546017,0.115977,0.102235,0.6893,0.271375
1698344444101562,-8.770193,-4.387017,0.242977,0.84835,0.16193,0.238675
1698344444109375,-8.743193,-4.372017,0.320977,0.64235,0.25393,0.202775
1698344444117187,-8.655193,-4.393017,0.372977,0.36135,0.29793,0.162275
1698344444125000,-8.561193,-4.514017,0.402977,0.14635,0.20893,0.129375
1698344444132812,-8.471193,-4.661017,0.421977,0.13765,0.13493,0.110175
1698344444140625,-8.478193,-4.798017,0.443977,0.36265,0.12893,0.90175
1698344444148437,-8.396193,-4.959017,0.467977,0.61365,0.16193,0.71475
1698344444156250,-8.186193,-5.121017,0.451977,0.82665,0.3607,0.52475
1698344444164062,-7.977193,-5.355017,0.395977,0.108665,0.32207,0.39375
1698344444171875,-7.844193,-5.568017,0.291977,0.121165,0.61107,0.30875
1698344444179687,-7.767193,-5.711017,0.209977,0.118165,0.100007,0.28375
1698344444187500,-7.716193,-5.841017,0.130977,0.117865,0.125107,0.29475
1698344444195312,-7.662193,-5.957017,0.19977,0.114865,0.162107,0.22275
1698344444203125,-7.654193,-6.68017,0.103023,0.94765,0.179907,0.23375
1698344444210937,-7.685193,-6.139017,0.251023,0.70365,0.208107,0.19475
1698344444218750,-7.696193,-6.111017,0.379023,0.59665,0.233207,0.18775
1698344444226562,-7.722193,-6.77017,0.465023,0.34965,0.236307,0.29575
1698344444234375,-7.802193,-5.992017,0.566023,0.19565,0.241407,0.38775
1698344444242187,-7.960193,-5.934017,0.662023,0.7065,0.246007,0.41875
1698344444250000,-8.28193,-5.859017,0.735023,0.1935,0.234907,0.54475
1698344444257812,-8.63193,-5.776017,0.780023,0.3635,0.228207,0.57775
1698344444265625,-8.94193,-5.709017,0.847023,0.3835,0.214607,0.62875
1698344444273437,-8.182193,-5.587017,0.863023,0.10065,0.201607,0.66375
1698344444281250,-8.342193,-5.444017,0.836023,0.23965,0.185307,0.65175
1698344444289062,-8.382193,-5.308017,0.788023,0.42165,0.160307,0.70675
1698344444296875,-8.318193,-5.191017,0.709023,0.68365,0.133007,0.77575
1698344444304687,-8.260193,-5.147017,0.657023,0.104965,0.108507,0.83075
1698344444312500,-8.155193,-5.133017,0.602023,0.132565,0.92807,0.89775
1698344444320312,-8.127193,-5.51017,0.520023,0.150365,0.79707,0.104575
1698344444328125,-8.226193,-4.948017,0.422023,0.179165,0.71007,0.120575
1698344444335937,-8.143193,-4.844017,0.291023,0.206665,0.50307,0.132175
1698344444343750,-8.57193,-4.718017,0.191023,0.235465,0.42707,0.140375
1698344444351562,-8.182193,-4.641017,0.102023,0.256965,0.30107,0.145475
1698344444359375,-8.328193,-4.562017,0.17977,0.270465,0.16607,0.147575
1698344444367187,-8.360193,-4.474017,0.108977,0.293665,0.25907,0.144175
1698344444375000,-8.395193,-4.494017,0.106977,0.308665,0.19107,0.146075
1698344444382812,-8.376193,-4.581017,0.127977,0.313365,0.13907,0.138375
1698344444390625,-8.291193,-4.636017,0.134977,0.314865,0.7107,0.138575
1698344444398437,-8.345193,-4.655017,0.122977,0.322565,0.14407,0.143175
1698344444406250,-8.437193,-4.710017,0.116977,0.316565,0.12007,0.130575
1698344444414062,-8.441193,-4.806017,0.86977,0.312265,0.3007,0.118175
1698344444421875,-8.389193,-4.904017,0.66977,0.309765,0.2607,0.100775
1698344444429687,-8.236193,-5.35017,0.21977,0.290265,0.2807,0.75575
1698344444437500,-7.905193,-5.220017,0.44023,0.290565,0.4793,0.56875
1698344444445312,-7.668193,-5.341017,0.125023,0.278365,0.6793,0.55275
1698344444453125,-7.842193,-5.346017,0.139023,0.262765,0.1293,0.73975
1698344444460937,-8.772193,-5.111017,0.104023,0.266965,0.16107,0.90875
1698344444468750,-9.750193,-4.985017,0.45023,0.274665,0.18807,0.73675
1698344444476562,-10.36193,-4.980017,0.27977,0.272365,0.3793,0.20875
1698344444484375,-9.820193,-5.155017,0.24023,0.290665,0.7493,0.49825
1698344444492187,-9.45193,-5.547017,0.164023,0.290065,0.12893,0.101525
1698344444500000,-8.190193,-5.829017,0.268023,0.292265,0.13793,0.131425
1698344444507812,-7.834193,-6.46017,0.379023,0.286965,0.23807,0.110225
1698344444515625,-7.646193,-6.195017,0.415023,0.266165,0.66607,0.76625
1698344444523437,-7.396193,-6.251017,0.469023,0.264465,0.84607,0.56725
1698344444531250,-7.296193,-6.304017,0.588023,0.265565,0.133107,0.56125
1698344444539062,-7.91193,-6.402017,0.738023,0.248365,0.177007,0.44625
1698344444546875,-6.653193,-6.472017,0.956023,0.235665,0.220907,0.33025
1698344444554687,-6.383193,-6.513017,-1.229023,0.217965,0.274707,0.9575
1698344444562500,-6.492193,-6.464017,-1.471023,0.183465,0.331307,0.53675
1698344444570312,-6.737193,-6.323017,-1.646023,0.148565,0.372407,0.102975
1698344444578125,-6.945193,-6.152017,-1.854023,0.120565,0.393607,0.136875
1698344444585937,-7.128193,-5.959017,-2.68023,0.85465,0.401707,0.142675
1698344444593750,-7.568193,-5.716017,-2.254023,0.62565,0.415007,0.146875
1698344444601562,-8.85193,-5.552017,-2.395023,0.36465,0.410507,0.142275
1698344444609375,-8.264193,-5.384017,-2.466023,0.15865,0.380907,0.120575
1698344444617187,-8.280193,-5.257017,-2.531023,0.435,0.341707,0.86975
1698344444625000,-8.282193,-5.248017,-2.581023,0.5835,0.301907,0.61075
1698344444632812,-8.295193,-5.177017,-2.545023,0.5535,0.264207,0.46175
1698344444640625,-8.440193,-5.52017,-2.458023,0.6435,0.232407,0.40475
1698344444648437,-8.621193,-4.954017,-2.351023,0.7565,0.189007,0.41475
1698344444656250,-8.715193,-4.875017,-2.258023,0.19665,0.161707,0.37575
1698344444664062,-8.576193,-4.817017,-2.206023,0.36465,0.145207,0.38075
1698344444671875,-8.247193,-4.740017,-2.201023,0.62965,0.124207,0.33775
1698344444679687,-7.981193,-4.682017,-2.240023,0.90165,0.121207,0.37275
1698344444687500,-7.766193,-4.642017,-2.313023,0.123865,0.115807,0.43775
1698344444695312,-7.595193,-4.588017,-2.388023,0.149965,0.104607,0.42575
1698344444703125,-7.575193,-4.544017,-2.486023,0.181665,0.113607,0.45875
1698344444710937,-7.669193,-4.607017,-2.598023,0.204965,0.138707,0.24975
1698344444718750,-7.798193,-4.701017,-2.741023,0.234365,0.162707,0.19325
1698344444726562,-8.2193,-4.825017,-2.887023,0.245365,0.186807,0.51125
1698344444734375,-8.416193,-4.889017,-2.971023,0.247065,0.209407,0.75125
1698344444742187,-8.922193,-4.991017,-3.80023,0.256965,0.228307,0.119525
1698344444750000,-9.105193,-5.171017,-3.192023,0.240765,0.224707,0.155625
1698344444757812,-8.913193,-5.327017,-3.307023,0.228065,0.218207,0.196525
1698344444765625,-8.714193,-5.448017,-3.405023,0.229765,0.192307,0.210125
1698344444773437,-8.702193,-5.487017,-3.434023,0.216165,0.174107,0.198825
1698344444781250,-8.923193,-5.509017,-3.402023,0.217565,0.148307,0.176325
1698344444789062,-9.55193,-5.512017,-3.334023,0.214365,0.112007,0.155125
1698344444796875,-8.964193,-5.509017,-3.268023,0.211065,0.73707,0.137025
1698344444804687,-8.917193,-5.483017,-3.193023,0.215465,0.51107,0.116125
1698344444812500,-8.893193,-5.461017,-3.77023,0.212265,0.19707,0.98125
1698344444820312,-8.830193,-5.416017,-2.956023,0.218165,0.1193,0.75625
1698344444828125,-8.781193,-5.327017,-2.811023,0.219665,0.35693,0.57625
1698344444835937,-8.601193,-5.266017,-2.681023,0.220965,0.64493,0.52225
1698344444843750,-8.341193,-5.214017,-2.585023,0.234365,0.90393,0.27925
1698344444851562,-8.149193,-5.165017,-2.490023,0.238765,0.114393,0.2325
1698344444859375,-7.990193,-5.128017,-2.408023,0.242665,0.133693,0.26575
1698344444867187,-7.869193,-5.117017,-2.353023,0.258165,0.137393,0.39075
1698344444875000,-7.815193,-5.105017,-2.314023,0.253765,0.144593,0.29775
1698344444882812,-7.728193,-5.119017,-2.280023,0.252465,0.146793,0.18875
1698344444890625,-7.610193,-5.186017,-2.230023,0.244965,0.162493,0.9775
1698344444898437,-7.659193,-5.272017,-2.200023,0.242165,0.156693,0.9225
1698344444906250,-7.772193,-5.357017,-2.145023,0.242865,0.157093,0.32925
1698344444914062,-7.791193,-5.482017,-2.111023,0.241665,0.174893,0.54525
1698344444921875,-7.783193,-5.623017,-2.104023,0.237265,0.178793,0.63925
1698344444929687,-7.811193,-5.748017,-2.65023,0.245365,0.196693,0.91625
1698344444937500,-7.827193,-5.888017,-2.17023,0.227365,0.205993,0.104125
1698344444945312,-7.788193,-6.55017,-1.987023,0.219965,0.217793,0.107125
1698344444953125,-7.793193,-6.180017,-1.945023,0.201665,0.221393,0.102525
1698344444960937,-7.786193,-6.260017,-1.870023,0.184265,0.221793,0.89825
1698344444968750,-7.757193,-6.337017,-1.797023,0.167565,0.222493,0.69725
1698344444976562,-7.759193,-6.384017,-1.758023,0.150265,0.207893,0.35625
1698344444984375,-7.768193,-6.384017,-1.715023,0.131065,0.201593,0.11275
1698344444992187,-7.689193,-6.354017,-1.678023,0.107265,0.194893,0.62775
1698344445000000,-7.650193,-6.257017,-1.654023,0.89265,0.169993,0.115675
1698344445007812,-7.793193,-6.66017,-1.620023,0.74565,0.159193,0.154775
1698344445015625,-7.946193,-5.873017,-1.568023,0.66265,0.141593,0.181075
1698344445023437,-7.972193,-5.696017,-1.589023,0.49165,0.120493,0.205575
1698344445031250,-7.931193,-5.528017,-1.619023,0.39765,0.111293,0.225675
1698344445039062,-7.952193,-5.352017,-1.642023,0.19365,0.82793,0.240675
1698344445046875,-8.67193,-5.151017,-1.667023,0.17965,0.60093,0.247875
1698344445054687,-8.231193,-4.926017,-1.684023,0.8565,0.54793,0.258675
1698344445062500,-8.274193,-4.761017,-1.716023,0.1965,0.31493,0.266175
1698344445070312,-8.240193,-4.617017,-1.758023,0.5935,0.29293,0.281775
1698344445078125,-8.310193,-4.466017,-1.806023,0.6335,0.20293,0.300475
1698344445085937,-8.486193,-4.307017,-1.842023,0.20135,0.2793,0.313975
1698344445093750,-8.499193,-4.146017,-1.859023,0.35235,0.13507,0.305575
1698344445101562,-8.468193,-3.967017,-1.878023,0.30835,0.16107,0.294775
1698344445109375,-8.572193,-3.796017,-1.894023,0.48935,0.22807,0.294375
1698344445117187,-8.792193,-3.587017,-1.883023,0.56335,0.39107,0.281375
1698344445125000,-8.939193,-3.412017,-1.874023,0.68235,0.51407,0.257475
1698344445132812,-8.848193,-3.306017,-1.904023,0.81735,0.52807,0.226075
1698344445140625,-8.756193,-3.240017,-1.963023,0.79435,0.54907,0.188275
1698344445148437,-8.812193,-3.230017,-2.7023,0.77135,0.55107,0.145775
1698344445156250,-8.819193,-3.271017,-1.998023,0.59835,0.53707,0.106775
1698344445164062,-8.776193,-3.418017,-2.20023,0.54135,0.44207,0.61275
1698344445171875,-8.730193,-3.673017,-2.53023,0.38135,0.40707,0.9675
1698344445179687,-8.762193,-3.964017,-2.82023,0.25035,0.36207,0.32625
1698344445187500,-8.661193,-4.282017,-2.116023,0.27535,0.22507,0.71525
1698344445195312,-8.474193,-4.557017,-2.124023,0.24035,0.8007,0.97925
1698344445203125,-8.339193,-4.788017,-2.126023,0.6635,0.6793,0.110125
1698344445210937,-8.355193,-4.923017,-2.80023,0.2035,0.20093,0.108325
1698344445218750,-8.392193,-5.46017,-2.21023,0.8765,0.37593,0.123425
1698344445226562,-8.277193,-5.195017,-1.998023,0.28665,0.60793,0.121225
1698344445234375,-8.92193,-5.347017,-2.22023,0.42365,0.72393,0.120825
1698344445242187,-7.912193,-5.461017,-1.988023,0.51165,0.86793,0.101525
1698344445250000,-7.861193,-5.524017,-1.972023,0.64865,0.95393,0.81025
1698344445257812,-7.820193,-5.543017,-1.933023,0.73365,0.102993,0.53925
1698344445265625,-7.746193,-5.522017,-1.895023,0.71665,0.106493,0.52225
1698344445273437,-7.755193,-5.519017,-1.853023,0.87165,0.107293,0.49125
1698344445281250,-7.782193,-5.528017,-1.833023,0.99365,0.113893,0.50425
1698344445289062,-7.722193,-5.582017,-1.828023,0.108765,0.108993,0.61525
1698344445296875,-7.700193,-5.637017,-1.830023,0.121265,0.101993,0.71125
1698344445304687,-7.736193,-5.720017,-1.828023,0.122965,0.99493,0.88325
1698344445312500,-7.709193,-5.825017,-1.832023,0.140165,0.96693,0.113525
1698344445320312,-7.680193,-5.888017,-1.846023,0.146165,0.102093,0.117925
1698344445328125,-7.672193,-5.937017,-1.830023,0.150865,0.102493,0.128925
1698344445335937,-7.702193,-5.995017,-1.827023,0.168865,0.97293,0.125625
1698344445343750,-7.726193,-6.24017,-1.827023,0.169165,0.109293,0.134825
1698344445351562,-7.729193,-6.75017,-1.836023,0.175365,0.108793,0.131725
1698344445359375,-7.738193,-6.108017,-1.848023,0.189165,0.118293,0.126725
1698344445367187,-7.672193,-6.113017,-1.832023,0.199765,0.134593,0.118425
1698344445375000,-7.558193,-6.128017,-1.854023,0.213365,0.136793,0.101125
1698344445382812,-7.479193,-6.131017,-1.861023,0.219065,0.144093,0.74225
1698344445390625,-7.446193,-6.109017,-1.854023,0.223265,0.145093,0.55325
1698344445398437,-7.435193,-6.78017,-1.854023,0.236865,0.142793,0.47425
1698344445406250,-7.477193,-5.989017,-1.864023,0.243965,0.147093,0.26725
1698344445414062,-7.516193,-5.937017,-1.864023,0.251565,0.141293,0.15925
1698344445421875,-7.548193,-5.876017,-1.884023,0.257565,0.145893,0.9425
1698344445429687,-7.597193,-5.800017,-1.944023,0.266465,0.143893,0.1525
1698344445437500,-7.713193,-5.762017,-1.980023,0.268065,0.145393,0.1525
1698344445445312,-7.733193,-5.760017,-2.46023,0.274065,0.150393,0.175
1698344445453125,-7.732193,-5.722017,-2.108023,0.280465,0.157093,0.5925
1698344445460937,-7.825193,-5.687017,-2.142023,0.280465,0.157193,0.9025
1698344445468750,-7.862193,-5.669017,-2.204023,0.283365,0.161193,0.15125
1698344445476562,-7.844193,-5.667017,-2.274023,0.289765,0.171193,0.22825
1698344445484375,-7.944193,-5.636017,-2.327023,0.288265,0.168193,0.27525
1698344445492187,-8.130193,-5.589017,-2.338023,0.291465,0.173093,0.29025
1698344445500000,-8.312193,-5.537017,-2.352023,0.290065,0.173193,0.32225
1698344445507812,-8.334193,-5.553017,-2.400023,0.293065,0.183193,0.30325
1698344445515625,-8.314193,-5.511017,-2.421023,0.277765,0.193293,0.22425
1698344445523437,-8.370193,-5.452017,-2.414023,0.268265,0.198293,0.8125
1698344445531250,-8.397193,-5.409017,-2.393023,0.266665,0.213593,0.18675
1698344445539062,-8.298193,-5.339017,-2.407023,0.266165,0.224193,0.50375
1698344445546875,-8.90193,-5.256017,-2.385023,0.256265,0.235793,0.74375
1698344445554687,-8.48193,-5.120017,-2.346023,0.239065,0.242693,0.116675
1698344445562500,-8.213193,-4.951017,-2.301023,0.230765,0.236593,0.151075
1698344445570312,-8.401193,-4.786017,-2.217023,0.218565,0.238493,0.151075
1698344445578125,-8.609193,-4.653017,-2.193023,0.212865,0.228993,0.135075
1698344445585937,-8.793193,-4.595017,-2.184023,0.193565,0.226993,0.106575
1698344445593750,-8.820193,-4.622017,-2.200023,0.187965,0.210493,0.63775
1698344445601562,-8.761193,-4.647017,-2.232023,0.168265,0.202093,0.38475
1698344445609375,-8.724193,-4.684017,-2.263023,0.168665,0.204693,0.13375
1698344445617187,-8.675193,-4.771017,-2.297023,0.153865,0.210393,0.825
1698344445625000,-8.600193,-4.803017,-2.304023,0.137365,0.212793,0.13525
1698344445632812,-8.512193,-4.824017,-2.290023,0.137565,0.223393,0.24225
1698344445640625,-8.457193,-4.836017,-2.276023,0.128865,0.240893,0.38025
1698344445648437,-8.450193,-4.809017,-2.213023,0.119765,0.247593,0.34925
1698344445656250,-8.374193,-4.782017,-2.133023,0.122765,0.274593,0.34225
1698344445664062,-8.250193,-4.757017,-2.69023,0.126065,0.284993,0.41825
1698344445671875,-8.86193,-4.759017,-1.990023,0.135565,0.293193,0.49525
1698344445679687,-7.948193,-4.754017,-1.921023,0.147865,0.304493,0.47725
1698344445687500,-7.857193,-4.813017,-1.855023,0.164565,0.311093,0.47325
1698344445695312,-7.780193,-4.917017,-1.811023,0.171065,0.309893,0.66225
1698344445703125,-7.824193,-5.3017,-1.754023,0.183565,0.314693,0.74025
1698344445710937,-7.959193,-5.97017,-1.724023,0.195765,0.295993,0.77425
1698344445718750,-7.993193,-5.225017,-1.667023,0.190065,0.286193,0.91925
1698344445726562,-7.908193,-5.354017,-1.649023,0.189865,0.281893,0.98225
1698344445734375,-7.879193,-5.487017,-1.642023,0.182165,0.267493,0.107925
1698344445742187,-7.921193,-5.590017,-1.634023,0.169865,0.250093,0.95925
1698344445750000,-7.918193,-5.680017,-1.653023,0.150965,0.231693,0.79025
1698344445757812,-7.931193,-5.742017,-1.698023,0.135265,0.211293,0.62225
1698344445765625,-8.61193,-5.771017,-1.744023,0.115265,0.185593,0.48925
1698344445773437,-8.159193,-5.763017,-1.801023,0.79565,0.177293,0.27225
1698344445781250,-8.173193,-5.703017,-1.855023,0.48565,0.173593,0.775
1698344445789062,-8.208193,-5.626017,-1.892023,0.8465,0.159693,0.29975
1698344445796875,-8.203193,-5.504017,-1.938023,0.28535,0.161493,0.48675
1698344445804687,-8.294193,-5.280017,-1.966023,0.57935,0.155993,0.75075
1698344445812500,-8.440193,-5.55017,-1.932023,0.90235,0.148093,0.84175
1698344445820312,-8.388193,-4.875017,-1.941023,0.111435,0.161793,0.84275
1698344445828125,-8.349193,-4.705017,-1.978023,0.126435,0.166793,0.84175
1698344445835937,-8.428193,-4.562017,-1.981023,0.133935,0.178093,0.67175
1698344445843750,-8.506193,-4.451017,-1.979023,0.142735,0.181693,0.59275
1698344445851562,-8.546193,-4.375017,-1.977023,0.131735,0.190693,0.39075
1698344445859375,-8.551193,-4.358017,-1.970023,0.130335,0.189993,0.26675
1698344445867187,-8.445193,-4.368017,-1.979023,0.127035,0.196693,0.22075
1698344445875000,-8.377193,-4.360017,-1.950023,0.122435,0.211793,0.22475
1698344445882812,-8.508193,-4.305017,-1.902023,0.107035,0.209293,0.25575
1698344445890625,-8.604193,-4.281017,-1.872023,0.99635,0.203793,0.34975
1698344445898437,-8.390193,-4.306017,-1.877023,0.85635,0.205193,0.28675
1698344445906250,-8.239193,-4.319017,-1.920023,0.70635,0.199993,0.30375
1698344445914062,-8.472193,-4.338017,-1.963023,0.58435,0.182793,0.29975
1698344445921875,-8.612193,-4.368017,-1.993023,0.55335,0.178193,0.22075
1698344445929687,-8.337193,-4.454017,-2.54023,0.56735,0.179093,0.3375
1698344445937500,-8.169193,-4.497017,-2.143023,0.61235,0.168593,0.17225
1698344445945312,-8.275193,-4.524017,-2.161023,0.73235,0.150093,0.20925
1698344445953125,-8.286193,-4.575017,-2.154023,0.74635,0.150793,0.35025
1698344445960937,-8.113193,-4.658017,-2.195023,0.85035,0.151893,0.53925
1698344445968750,-8.78193,-4.759017,-2.265023,0.98835,0.147193,0.52525
1698344445976562,-8.87193,-4.869017,-2.278023,0.105935,0.153593,0.58925
1698344445984375,-8.374193,-4.799017,-2.240023,0.117135,0.144293,0.55825
1698344445992187,-9.258193,-4.728017,-2.200023,0.118435,0.143093,0.68425
1698344446000000,-9.246193,-4.917017,-2.181023,0.132835,0.141693,0.114225
1698344446007812,-8.879193,-4.942017,-2.251023,0.133435,0.138893,0.170825
1698344446015625,-8.733193,-5.133017,-2.319023,0.133935,0.135093,0.215025
1698344446023437,-8.444193,-5.168017,-2.287023,0.121335,0.158293,0.245725
1698344446031250,-8.104193,-5.198017,-2.235023,0.111935,0.195693,0.255825
1698344446039062,-8.58193,-5.239017,-2.118023,0.85835,0.226893,0.250325
1698344446046875,-7.886193,-5.399017,-1.968023,0.56735,0.267893,0.242925
1698344446054687,-7.485193,-5.552017,-1.831023,0.10935,0.313693,0.230625
1698344446062500,-7.59193,-5.711017,-1.670023,0.10565,0.344193,0.214225
1698344446070312,-6.674193,-5.882017,-1.486023,0.39165,0.372793,0.182025
1698344446078125,-6.372193,-5.964017,-1.294023,0.58365,0.384493,0.145425
1698344446085937,-6.276193,-5.979017,-1.89023,0.73165,0.387993,0.115425
1698344446093750,-6.428193,-5.942017,0.861023,0.86365,0.374893,0.88925
1698344446101562,-6.869193,-5.843017,0.639023,0.108765,0.346893,0.72125
1698344446109375,-7.644193,-5.742017,0.450023,0.122665,0.314893,0.86925
1698344446117187,-8.238193,-5.795017,0.321023,0.122965,0.283893,0.139225
1698344446125000,-8.114193,-6.28017,0.340023,0.126065,0.261593,0.226225
1698344446132812,-7.637193,-6.384017,0.547023,0.125665,0.239293,0.302125
1698344446140625,-7.499193,-6.693017,0.657023,0.123165,0.210393,0.340525
1698344446148437,-7.637193,-6.897017,0.660023,0.110765,0.187693,0.347225
1698344446156250,-7.728193,-7.38017,0.659023,0.89165,0.192393,0.326925
1698344446164062,-7.638193,-7.163017,0.591023,0.75165,0.210893,0.313925
1698344446171875,-7.516193,-7.248017,0.533023,0.55365,0.233593,0.291725
1698344446179687,-7.482193,-7.265017,0.449023,0.30465,0.242893,0.257125
1698344446187500,-7.479193,-7.177017,0.315023,0.20365,0.260393,0.214325
1698344446195312,-7.721193,-6.997017,0.167023,0.2965,0.285293,0.158925
1698344446203125,-8.74193,-6.855017,0.18023,0.735,0.290893,0.122625
1698344446210937,-8.194193,-6.716017,0.140977,0.23835,0.295993,0.110125
1698344446218750,-8.452193,-6.556017,0.220977,0.23735,0.291293,0.119625
1698344446226562,-8.922193,-6.456017,0.281977,0.24935,0.261293,0.134525
1698344446234375,-8.944193,-6.470017,0.365977,0.39435,0.258593,0.183325
1698344446242187,-8.268193,-6.572017,0.359977,0.37135,0.269793,0.220825
1698344446250000,-7.898193,-6.657017,0.268977,0.26635,0.261593,0.224025
1698344446257812,-8.131193,-6.623017,0.327977,0.42235,0.250793,0.200825
1698344446265625,-8.388193,-6.537017,0.425977,0.37935,0.243093,0.182125
1698344446273437,-8.350193,-6.554017,0.459977,0.24335,0.246493,0.181925
1698344446281250,-8.107193,-6.596017,0.443977,0.22635,0.249393,0.180325
1698344446289062,-7.934193,-6.657017,0.382977,0.7635,0.235493,0.174225
1698344446296875,-7.964193,-6.647017,0.355977,0.965,0.214493,0.154125
1698344446304687,-7.971193,-6.611017,0.350977,0.2065,0.204893,0.127725
1698344446312500,-7.772193,-6.616017,0.307977,0.13865,0.194093,0.112125
1698344446320312,-7.529193,-6.644017,0.218977,0.23965,0.177393,0.79425
1698344446328125,-7.381193,-6.616017,0.136977,0.29765,0.163993,0.53125
1698344446335937,-7.292193,-6.510017,0.59977,0.32165,0.144093,0.18925
1698344446343750,-7.279193,-6.341017,0.9023,0.32765,0.117793,0.13575
1698344446351562,-7.331193,-6.188017,0.78023,0.44365,0.107793,0.49575
1698344446359375,-7.338193,-6.64017,0.192023,0.45265,0.97693,0.62175
1698344446367187,-7.302193,-5.970017,0.308023,0.52765,0.93393,0.76175
1698344446375000,-7.351193,-5.909017,0.416023,0.58565,0.74693,0.80575
1698344446382812,-7.463193,-5.845017,0.521023,0.65865,0.72393,0.96275
1698344446390625,-7.580193,-5.744017,0.582023,0.65665,0.82193,0.105975
1698344446398437,-7.730193,-5.678017,0.639023,0.62965,0.97093,0.106175
1698344446406250,-7.882193,-5.643017,0.685023,0.44665,0.100893,0.104575
1698344446414062,-8.41193,-5.621017,0.703023,0.44765,0.113093,0.96975
1698344446421875,-8.105193,-5.605017,0.672023,0.45065,0.131893,0.91075
1698344446429687,-8.170193,-5.610017,0.644023,0.45565,0.157093,0.82075
1698344446437500,-8.299193,-5.613017,0.592023,0.45365,0.184093,0.89075
1698344446445312,-8.426193,-5.605017,0.515023,0.45565,0.200893,0.87875
1698344446453125,-8.406193,-5.567017,0.421023,0.45665,0.219193,0.89775
1698344446460937,-8.257193,-5.538017,0.326023,0.45765,0.242293,0.98075
1698344446468750,-8.164193,-5.518017,0.239023,0.44065,0.269093,0.108175
1698344446476562,-8.122193,-5.445017,0.139023,0.45465,0.272093,0.117675
1698344446484375,-8.87193,-5.339017,0.7023,0.43865,0.290393,0.125875
1698344446492187,-8.135193,-5.225017,0.103977,0.52865,0.308793,0.127975
1698344446500000,-8.184193,-5.91017,0.235977,0.65065,0.312093,0.125075
1698344446507812,-8.196193,-4.983017,0.365977,0.70165,0.316793,0.120275
1698344446515625,-8.184193,-4.904017,0.442977,0.88365,0.321993,0.115875
1698344446523437,-8.165193,-4.840017,0.498977,0.107965,0.326993,0.109975
1698344446531250,-8.96193,-4.793017,0.549977,0.125565,0.333393,0.95875
1698344446539062,-8.9193,-4.746017,0.596977,0.134765,0.330593,0.83375
1698344446546875,-8.6193,-4.684017,0.644977,0.160565,0.321893,0.80275
1698344446554687,-8.54193,-4.594017,0.680977,0.165265,0.321693,0.80275
1698344446562500,-8.138193,-4.537017,0.737977,0.182165,0.329793,0.77375
1698344446570312,-8.245193,-4.531017,0.785977,0.196065,0.336093,0.75975
1698344446578125,-8.290193,-4.521017,0.789977,0.214565,0.330993,0.66575
1698344446585937,-8.206193,-4.597017,0.798977,0.222065,0.339993,0.57475
1698344446593750,-8.199193,-4.617017,0.812977,0.231365,0.324893,0.49375
1698344446601562,-8.436193,-4.623017,0.833977,0.243565,0.316093,0.49175
1698344446609375,-8.530193,-4.697017,0.842977,0.241165,0.318893,0.17775
1698344446617187,-8.448193,-4.751017,0.854977,0.246165,0.311193,0.5925
1698344446625000,-8.456193,-4.813017,0.872977,0.243665,0.305493,0.36025
1698344446632812,-8.487193,-4.903017,0.899977,0.242165,0.291293,0.51925
1698344446640625,-8.468193,-4.981017,0.934977,0.243765,0.283493,0.66225
1698344446648437,-8.430193,-5.91017,0.943977,0.242565,0.270693,0.85325
1698344446656250,-8.412193,-5.216017,0.946977,0.244265,0.259293,0.95025
1698344446664062,-8.391193,-5.328017,0.955977,0.251765,0.252393,0.95125
1698344446671875,-8.306193,-5.404017,0.962977,0.242565,0.250493,0.88925
1698344446679687,-8.193193,-5.515017,0.930977,0.254765,0.239893,0.84425
1698344446687500,-8.56193,-5.621017,0.876977,0.262165,0.232593,0.73525
1698344446695312,-7.890193,-5.681017,0.817977,0.261665,0.213193,0.50425
1698344446703125,-7.786193,-5.654017,0.769977,0.265665,0.187693,0.38225
1698344446710937,-7.689193,-5.610017,0.737977,0.263865,0.175993,0.10425
1698344446718750,-7.548193,-5.552017,0.673977,0.275465,0.166993,0.10075
1698344446726562,-7.476193,-5.473017,0.605977,0.284365,0.162993,0.22575
1698344446734375,-7.448193,-5.381017,0.546977,0.297865,0.160093,0.39875
1698344446742187,-7.424193,-5.346017,0.479977,0.312965,0.166793,0.41775
1698344446750000,-7.477193,-5.310017,0.420977,0.325065,0.166893,0.35675
1698344446757812,-7.521193,-5.343017,0.388977,0.346765,0.156893,0.19775
1698344446765625,-7.447193,-5.459017,0.302977,0.351965,0.145893,0.11925
1698344446773437,-7.401193,-5.633017,0.207977,0.358565,0.123393,0.43825
1698344446781250,-7.415193,-5.807017,0.150977,0.362065,0.118193,0.79925
1698344446789062,-7.333193,-5.999017,0.101977,0.357965,0.84093,0.113725
1698344446796875,-7.256193,-6.208017,0.28977,0.352065,0.65393,0.144025
1698344446804687,-7.290193,-6.392017,0.43023,0.347665,0.38993,0.157225
1698344446812500,-7.358193,-6.554017,0.79023,0.321765,0.21693,0.171825
1698344446820312,-7.386193,-6.694017,0.109023,0.318765,0.17093,0.179825
1698344446828125,-7.439193,-6.810017,0.150023,0.303565,0.10893,0.186325
1698344446835937,-7.463193,-6.955017,0.190023,0.291665,0.10493,0.181825
1698344446843750,-7.419193,-7.88017,0.238023,0.271765,0.7593,0.182025
1698344446851562,-7.313193,-7.211017,0.274023,0.267265,0.4293,0.183725
1698344446859375,-7.165193,-7.318017,0.324023,0.242565,0.8607,0.179325
1698344446867187,-7.41193,-7.380017,0.353023,0.219665,0.21907,0.175125
1698344446875000,-6.991193,-7.410017,0.376023,0.188865,0.39707,0.170925
1698344446882812,-6.932193,-7.412017,0.403023,0.162665,0.61607,0.159025
1698344446890625,-6.817193,-7.400017,0.428023,0.142765,0.73707,0.146925
1698344446898437,-6.779193,-7.378017,0.487023,0.119465,0.87107,0.131625
1698344446906250,-6.804193,-7.329017,0.537023,0.97865,0.97207,0.121025
1698344446914062,-6.828193,-7.275017,0.579023,0.79065,0.120907,0.104325
1698344446921875,-6.846193,-7.243017,0.645023,0.71165,0.143107,0.95425
1698344446929687,-6.874193,-7.219017,0.709023,0.46265,0.145707,0.86025
1698344446937500,-6.887193,-7.157017,0.748023,0.32165,0.167807,0.74025
1698344446945312,-6.935193,-7.100017,0.780023,0.12065,0.184707,0.60425
1698344446953125,-7.163193,-6.983017,0.810023,0.3335,0.198007,0.56125
1698344446960937,-7.423193,-6.851017,0.798023,0.14435,0.208707,0.34425
1698344446968750,-7.504193,-6.722017,0.806023,0.28335,0.199107,0.15425
1698344446976562,-7.536193,-6.603017,0.826023,0.31935,0.194107,0.25375
1698344446984375,-7.633193,-6.495017,0.790023,0.35335,0.187907,0.42875
1698344446992187,-7.748193,-6.356017,0.756023,0.55435,0.180007,0.64875
1698344447000000,-7.793193,-6.219017,0.702023,0.66135,0.163107,0.71475
1698344447007812,-7.725193,-6.100017,0.641023,0.77035,0.139507,0.82975
1698344447015625,-7.673193,-6.22017,0.584023,0.79835,0.130207,0.90775
1698344447023437,-7.779193,-5.907017,0.498023,0.79735,0.108307,0.92875
1698344447031250,-7.951193,-5.754017,0.384023,0.96335,0.100307,0.74175
1698344447039062,-8.43193,-5.624017,0.234023,0.97435,0.71307,0.63775
1698344447046875,-8.115193,-5.582017,0.123023,0.90835,0.64607,0.49675
1698344447054687,-8.209193,-5.564017,0.25023,0.81435,0.45107,0.29875
1698344447062500,-8.277193,-5.510017,0.92977,0.71935,0.34807,0.15975
1698344447070312,-8.375193,-5.534017,0.188977,0.47435,0.37907,0.375
1698344447078125,-8.430193,-5.595017,0.252977,0.30635,0.25007,0.5475
1698344447085937,-8.325193,-5.660017,0.316977,0.15435,0.1593,0.10875
1698344447093750,-8.125193,-5.769017,0.325977,0.1735,0.9193,0.20575
1698344447101562,-7.874193,-5.913017,0.328977,0.11465,0.21893,0.39875
1698344447109375,-7.723193,-6.20017,0.328977,0.22165,0.10893,0.50575
1698344447117187,-7.749193,-6.73017,0.340977,0.14265,0.13593,0.69475
1698344447125000,-7.744193,-6.101017,0.354977,0.23465,0.8907,0.70475
1698344447132812,-7.600193,-6.193017,0.317977,0.6665,0.12707,0.59475
1698344447140625,-7.477193,-6.274017,0.256977,0.5435,0.42507,0.47675
1698344447148437,-7.483193,-6.330017,0.204977,0.6935,0.66607,0.28375
1698344447156250,-7.587193,-6.337017,0.167977,0.14235,0.86107,0.8975
1698344447164062,-7.664193,-6.365017,0.149977,0.23135,0.115607,0.12125
1698344447171875,-7.642193,-6.441017,0.63977,0.32135,0.133407,0.25225
1698344447179687,-7.578193,-6.509017,0.7023,0.33535,0.139507,0.39425
1698344447187500,-7.516193,-6.552017,0.45023,0.41235,0.151207,0.38225
1698344447195312,-7.434193,-6.570017,0.100023,0.39835,0.165107,0.30625
1698344447203125,-7.438193,-6.542017,0.141023,0.28435,0.170507,0.11625
1698344447210937,-7.533193,-6.527017,0.171023,0.19635,0.177107,0.19675
1698344447218750,-7.546193,-6.511017,0.214023,0.7635,0.173707,0.43175
1698344447226562,-7.545193,-6.458017,0.244023,0.19065,0.161407,0.73675
1698344447234375,-7.566193,-6.432017,0.273023,0.40265,0.159907,0.100475
1698344447242187,-7.536193,-6.419017,0.317023,0.53565,0.162807,0.122475
1698344447250000,-7.535193,-6.370017,0.333023,0.68365,0.167207,0.144475
1698344447257812,-7.574193,-6.316017,0.342023,0.81965,0.158107,0.162075
1698344447265625,-7.754193,-6.240017,0.351023,0.106065,0.159107,0.174775
1698344447273437,-7.956193,-6.193017,0.358023,0.118265,0.162807,0.176275
1698344447281250,-7.971193,-6.101017,0.340023,0.125865,0.141607,0.186175
1698344447289062,-7.772193,-6.55017,0.329023,0.145465,0.128607,0.196175
1698344447296875,-7.683193,-5.951017,0.320023,0.157365,0.128207,0.218175
1698344447304687,-7.917193,-5.839017,0.290023,0.166265,0.133007,0.243175
1698344447312500,-8.160193,-5.694017,0.200023,0.179565,0.128307,0.254475
1698344447320312,-8.36193,-5.581017,0.114023,0.202665,0.115607,0.256375
1698344447328125,-7.735193,-5.477017,0.68023,0.209965,0.98607,0.260175
1698344447335937,-7.830193,-5.320017,0.3023,0.226465,0.94607,0.279175
1698344447343750,-8.58193,-5.179017,0.46977,0.238465,0.97107,0.291775
1698344447351562,-7.966193,-5.64017,0.105977,0.252265,0.95607,0.290375
1698344447359375,-7.775193,-5.17017,0.94977,0.263165,0.92007,0.276375
1698344447367187,-7.773193,-4.973017,0.87977,0.260265,0.110407,0.269575
1698344447375000,-7.927193,-4.926017,0.80977,0.258765,0.115107,0.264775
1698344447382812,-7.918193,-4.890017,0.94977,0.260865,0.132807,0.232875
1698344447390625,-7.796193,-4.921017,0.89977,0.259965,0.129907,0.201475
1698344447398437,-7.868193,-4.958017,0.41977,0.261365,0.131007,0.195275
1698344447406250,-8.131193,-4.968017,0.41977,0.256965,0.131907,0.179575
1698344447414062,-8.157193,-5.82017,0.3023,0.250965,0.127707,0.165575
1698344447421875,-7.967193,-5.233017,0.80023,0.242165,0.111907,0.151675
1698344447429687,-8.85193,-5.352017,0.160023,0.233265,0.121707,0.143475
1698344447437500,-8.319193,-5.429017,0.196023,0.216865,0.112307,0.127875
1698344447445312,-8.276193,-5.470017,0.182023,0.211265,0.102407,0.95075
1698344447453125,-8.45193,-5.579017,0.207023,0.198365,0.91207,0.65275
1698344447460937,-7.895193,-5.681017,0.250023,0.195565,0.88907,0.49575
1698344447468750,-7.810193,-5.781017,0.222023,0.201665,0.85207,0.43475
1698344447476562,-8.164193,-5.720017,0.184023,0.195665,0.96807,0.38475
1698344447484375,-8.637193,-5.741017,0.155023,0.195765,0.97707,0.24375
1698344447492187,-8.444193,-5.832017,0.107023,0.189765,0.92507,0.10025
1698344447500000,-8.250193,-5.891017,0.127023,0.219765,0.92407,0.38225
1698344447507812,-8.317193,-6.101017,0.215023,0.229365,0.111207,0.51325
1698344447515625,-8.67193,-6.257017,0.249023,0.235165,0.103707,0.57225
1698344447523437,-7.809193,-6.398017,0.378023,0.245765,0.115807,0.55825
1698344447531250,-7.849193,-6.555017,0.535023,0.244365,0.120507,0.40425
1698344447539062,-7.860193,-6.669017,0.628023,0.237265,0.118907,0.11925
1698344447546875,-7.763193,-6.723017,0.778023,0.240565,0.128907,0.4875
1698344447554687,-7.752193,-6.747017,0.922023,0.233965,0.142807,0.23475
1698344447562500,-7.788193,-6.789017,-1.45023,0.224165,0.154807,0.43675
1698344447570312,-7.630193,-6.866017,-1.201023,0.213565,0.153507,0.51375
1698344447578125,-7.343193,-6.890017,-1.333023,0.190265,0.160307,0.69975
1698344447585937,-7.168193,-6.895017,-1.481023,0.169865,0.158807,0.93575
1698344447593750,-7.123193,-6.797017,-1.584023,0.147565,0.161307,0.134275
1698344447601562,-7.154193,-6.607017,-1.646023,0.116865,0.148607,0.164075
1698344447609375,-7.297193,-6.386017,-1.722023,0.111765,0.140107,0.205075
1698344447617187,-7.484193,-6.154017,-1.754023,0.77565,0.112307,0.246375
1698344447625000,-7.709193,-5.877017,-1.782023,0.60665,0.101007,0.265275
1698344447632812,-7.934193,-5.631017,-1.817023,0.42465,0.82407,0.270275
1698344447640625,-8.209193,-5.384017,-1.813023,0.36565,0.58607,0.265975
1698344447648437,-8.470193,-5.178017,-1.818023,0.38365,0.49607,0.252075
1698344447656250,-8.644193,-4.976017,-1.823023,0.31465,0.37207,0.228575
1698344447664062,-8.724193,-4.847017,-1.826023,0.25365,0.26207,0.219475
1698344447671875,-8.509193,-4.716017,-1.806023,0.17765,0.9707,0.201075
1698344447679687,-8.232193,-4.519017,-1.758023,0.30165,0.4093,0.216975
1698344447687500,-8.112193,-4.344017,-1.747023,0.46765,0.25293,0.228575
1698344447695312,-7.906193,-4.160017,-1.715023,0.73765,0.39293,0.249575
1698344447703125,-7.620193,-4.12017,-1.702023,0.99765,0.52793,0.267175
1698344447710937,-7.527193,-3.843017,-1.686023,0.136365,0.61893,0.272375
1698344447718750,-7.639193,-3.757017,-1.668023,0.169765,0.54493,0.273975
1698344447726562,-7.826193,-3.690017,-1.664023,0.202365,0.34293,0.246975
1698344447734375,-8.170193,-3.652017,-1.703023,0.228765,0.11307,0.195875
1698344447742187,-8.619193,-3.686017,-1.732023,0.241765,0.54407,0.130675
1698344447750000,-9.73193,-3.796017,-1.798023,0.260965,0.115507,0.49475
1698344447757812,-9.194193,-4.42017,-1.966023,0.263565,0.169907,0.28725
1698344447765625,-8.960193,-4.303017,-2.164023,0.255365,0.203907,0.100225
1698344447773437,-8.828193,-4.489017,-2.346023,0.242365,0.225507,0.147925
1698344447781250,-8.931193,-4.582017,-2.455023,0.241065,0.257907,0.175325
1698344447789062,-9.68193,-4.642017,-2.543023,0.242965,0.257407,0.194125
1698344447796875,-9.122193,-4.725017,-2.664023,0.243265,0.243707,0.203325
1698344447804687,-9.149193,-4.886017,-2.787023,0.243165,0.230407,0.193625
1698344447812500,-9.166193,-5.24017,-2.884023,0.243265,0.215007,0.197925
1698344447820312,-9.4193,-5.106017,-2.900023,0.241665,0.186207,0.194125
1698344447828125,-8.876193,-5.168017,-2.889023,0.243165,0.163107,0.185725
1698344447835937,-8.857193,-5.226017,-2.847023,0.241765,0.123407,0.169225
1698344447843750,-8.782193,-5.234017,-2.772023,0.255365,0.84207,0.149525
1698344447851562,-8.608193,-5.219017,-2.699023,0.267265,0.53207,0.123525
1698344447859375,-8.411193,-5.199017,-2.606023,0.265265,0.18107,0.78925
1698344447867187,-8.188193,-5.144017,-2.496023,0.266765,0.22793,0.54525
1698344447875000,-8.7193,-5.88017,-2.376023,0.280165,0.49993,0.25525
1698344447882812,-7.876193,-5.70017,-2.271023,0.290565,0.73893,0.1675
1698344447890625,-7.747193,-5.99017,-2.184023,0.289065,0.104293,0.5575
1698344447898437,-7.544193,-5.144017,-2.111023,0.289365,0.119693,0.5125
1698344447906250,-7.366193,-5.254017,-2.66023,0.291265,0.119193,0.31825
1698344447914062,-7.359193,-5.443017,-2.49023,0.291665,0.114293,0.44625
1698344447921875,-7.463193,-5.656017,-2.31023,0.271965,0.103793,0.63725
1698344447929687,-7.522193,-5.830017,-1.992023,0.263065,0.89093,0.100125
1698344447937500,-7.642193,-5.997017,-1.973023,0.248465,0.79593,0.120925
1698344447945312,-7.748193,-6.192017,-2.14023,0.231865,0.69093,0.141725
1698344447953125,-7.834193,-6.385017,-2.38023,0.209065,0.60593,0.162325
1698344447960937,-7.924193,-6.578017,-2.81023,0.187965,0.69193,0.162325
1698344447968750,-7.922193,-6.733017,-2.113023,0.163765,0.59693,0.169125
1698344447976562,-7.844193,-6.832017,-2.135023,0.132965,0.62993,0.150325
1698344447984375,-7.807193,-6.891017,-2.156023,0.107865,0.60593,0.116025
1698344447992187,-7.795193,-6.907017,-2.167023,0.71865,0.61093,0.64325
1698344448000000,-7.819193,-6.842017,-2.169023,0.58965,0.57693,0.17425
1698344448007812,-7.875193,-6.707017,-2.140023,0.36665,0.64893,0.32975
1698344448015625,-7.886193,-6.547017,-2.118023,0.14265,0.61393,0.93975
1698344448023437,-7.862193,-6.349017,-2.75023,0.4835,0.59693,0.144075
1698344448031250,-7.914193,-6.120017,-2.34023,0.5435,0.61493,0.183375
1698344448039062,-7.960193,-5.875017,-1.989023,0.10835,0.54693,0.231875
1698344448046875,-7.921193,-5.624017,-1.942023,0.32935,0.42493,0.259875
1698344448054687,-7.919193,-5.412017,-1.927023,0.31635,0.41593,0.278675
1698344448062500,-7.922193,-5.193017,-1.895023,0.36535,0.27393,0.298675
1698344448070312,-8.2193,-4.963017,-1.866023,0.40235,0.13293,0.323575
1698344448078125,-8.95193,-4.768017,-1.835023,0.46535,0.1093,0.334275
1698344448085937,-8.130193,-4.565017,-1.831023,0.59035,0.13707,0.338675
1698344448093750,-8.134193,-4.399017,-1.840023,0.57335,0.33607,0.325575
1698344448101562,-8.217193,-4.262017,-1.875023,0.63435,0.50007,0.317375
1698344448109375,-8.383193,-4.193017,-1.920023,0.63335,0.73007,0.304275
1698344448117187,-8.554193,-4.119017,-1.971023,0.59835,0.80607,0.277375
1698344448125000,-8.598193,-4.52017,-1.987023,0.73435,0.82807,0.261675
1698344448132812,-8.583193,-4.21017,-2.37023,0.79235,0.92307,0.245675
1698344448140625,-8.638193,-3.975017,-2.92023,0.81835,0.96507,0.221975
1698344448148437,-8.754193,-3.923017,-2.119023,0.83135,0.97107,0.199975
1698344448156250,-8.717193,-3.916017,-2.165023,0.79335,0.98207,0.169975
1698344448164062,-8.689193,-3.899017,-2.215023,0.80535,0.91607,0.141975
1698344448171875,-8.922193,-3.855017,-2.251023,0.78735,0.92707,0.124675
1698344448179687,-9.86193,-3.801017,-2.256023,0.78035,0.75507,0.104475
1698344448187500,-9.55193,-3.768017,-2.277023,0.77535,0.64207,0.76475
1698344448195312,-8.894193,-3.771017,-2.277023,0.77035,0.48107,0.51675
1698344448203125,-8.651193,-3.790017,-2.242023,0.61535,0.21007,0.42975
1698344448210937,-8.413193,-3.822017,-2.190023,0.36735,0.5907,0.27675
1698344448218750,-8.193193,-3.852017,-2.133023,0.24335,0.3093,0.10775
1698344448226562,-8.20193,-3.903017,-2.87023,0.4035,0.9893,0.7825
1698344448234375,-7.942193,-4.29017,-2.80023,0.18965,0.93,0.23525
1698344448242187,-7.895193,-4.184017,-2.75023,0.39165,0.2507,0.50125
1698344448250000,-7.825193,-4.372017,-2.97023,0.60365,0.7607,0.56325
1698344448257812,-7.879193,-4.599017,-2.163023,0.81765,0.12307,0.71925
1698344448265625,-7.950193,-4.828017,-2.197023,0.97365,0.13607,0.90725
1698344448273437,-7.942193,-5.82017,-2.244023,0.107065,0.19507,0.119125
1698344448281250,-7.937193,-5.306017,-2.289023,0.123265,0.15207,0.159825
1698344448289062,-7.970193,-5.518017,-2.311023,0.122265,0.207,0.194025
1698344448296875,-7.994193,-5.690017,-2.309023,0.131365,0.7393,0.214125
1698344448304687,-7.997193,-5.827017,-2.301023,0.147665,0.41993,0.222925
1698344448312500,-7.917193,-5.971017,-2.267023,0.146165,0.66193,0.228625
1698344448320312,-7.752193,-6.78017,-2.219023,0.155465,0.96093,0.224825
1698344448328125,-7.604193,-6.165017,-2.191023,0.150765,0.127593,0.208425
1698344448335937,-7.435193,-6.211017,-2.143023,0.156865,0.149793,0.184425
1698344448343750,-7.306193,-6.207017,-2.54023,0.159465,0.167093,0.155825
1698344448351562,-7.257193,-6.188017,-1.977023,0.161765,0.164993,0.132125
1698344448359375,-7.276193,-6.139017,-1.929023,0.170765,0.162393,0.116425
1698344448367187,-7.338193,-6.89017,-1.900023,0.169165,0.160693,0.113325
1698344448375000,-7.379193,-6.44017,-1.905023,0.172065,0.145293,0.108925
1698344448382812,-7.425193,-6.15017,-1.923023,0.185665,0.145493,0.116625
1698344448390625,-7.475193,-6.2017,-1.973023,0.196365,0.133093,0.110625
1698344448398437,-7.486193,-6.20017,-2.25023,0.208565,0.117993,0.118625
1698344448406250,-7.499193,-6.24017,-2.89023,0.216165,0.117393,0.112425
1698344448414062,-7.607193,-6.4017,-2.126023,0.223265,0.109393,0.113925
1698344448421875,-7.723193,-5.968017,-2.153023,0.232565,0.110693,0.110725
1698344448429687,-7.740193,-6.5017,-2.212023,0.243565,0.110193,0.112325
1698344448437500,-7.785193,-6.7017,-2.283023,0.241665,0.108193,0.99725
1698344448445312,-7.901193,-5.989017,-2.340023,0.243065,0.101893,0.76425
1698344448453125,-7.999193,-5.950017,-2.370023,0.236565,0.109693,0.54225
1698344448460937,-8.73193,-5.833017,-2.406023,0.236365,0.131093,0.39625
1698344448468750,-7.949193,-5.736017,-2.413023,0.222365,0.139993,0.6625
1698344448476562,-7.799193,-5.584017,-2.414023,0.209365,0.148693,0.39075
1698344448484375,-7.895193,-5.405017,-2.418023,0.204165,0.145493,0.76675
1698344448492187,-7.888193,-5.260017,-2.376023,0.187065,0.152293,0.92475
1698344448500000,-7.806193,-5.116017,-2.378023,0.180665,0.153793,0.103475
1698344448507812,-7.882193,-5.17017,-2.419023,0.168365,0.140593,0.103075
1698344448515625,-8.116193,-4.950017,-2.429023,0.162165,0.112093,0.102475
1698344448523437,-8.316193,-4.909017,-2.477023,0.142865,0.103493,0.72275
1698344448531250,-8.331193,-4.933017,-2.563023,0.115865,0.89493,0.49675
1698344448539062,-8.382193,-4.969017,-2.647023,0.93465,0.69193,0.17675
1698344448546875,-8.480193,-4.996017,-2.723023,0.69165,0.66393,0.12225
1698344448554687,-8.446193,-5.25017,-2.766023,0.48465,0.71293,0.43725
1698344448562500,-8.445193,-5.49017,-2.807023,0.45965,0.87093,0.63925
1698344448570312,-8.495193,-5.102017,-2.866023,0.47765,0.96493,0.85625
1698344448578125,-8.528193,-5.173017,-2.891023,0.48365,0.119493,0.113425
1698344448585937,-8.511193,-5.226017,-2.881023,0.47565,0.143493,0.133425
1698344448593750,-8.408193,-5.321017,-2.861023,0.50865,0.164193,0.145525
1698344448601562,-8.287193,-5.401017,-2.797023,0.66565,0.194793,0.162025
1698344448609375,-8.202193,-5.485017,-2.705023,0.82065,0.229893,0.162725
1698344448617187,-8.126193,-5.571017,-2.594023,0.99065,0.251693,0.170025
1698344448625000,-7.989193,-5.680017,-2.486023,0.116065,0.292293,0.178425
1698344448632812,-7.869193,-5.811017,-2.361023,0.142565,0.323593,0.185525
1698344448640625,-7.835193,-5.978017,-2.235023,0.165765,0.353093,0.183225
1698344448648437,-7.794193,-6.120017,-2.91023,0.182565,0.386693,0.185525
1698344448656250,-7.686193,-6.275017,-1.959023,0.200865,0.400693,0.171025
1698344448664062,-7.575193,-6.460017,-1.856023,0.201765,0.401793,0.147325
1698344448671875,-7.505193,-6.604017,-1.737023,0.196765,0.397493,0.122225
1698344448679687,-7.468193,-6.683017,-1.657023,0.194465,0.389193,0.80025
1698344448687500,-7.389193,-6.713017,-1.575023,0.172065,0.381393,0.31525
1698344448695312,-7.312193,-6.665017,-1.534023,0.157465,0.359393,0.18075
1698344448703125,-7.390193,-6.519017,-1.496023,0.135365,0.329193,0.64375
1698344448710937,-7.456193,-6.351017,-1.478023,0.103765,0.302693,0.115475
1698344448718750,-7.400193,-6.169017,-1.538023,0.67965,0.283793,0.149475
1698344448726562,-7.495193,-5.938017,-1.611023,0.58165,0.252393,0.178475
1698344448734375,-7.703193,-5.703017,-1.687023,0.31665,0.235593,0.200075
1698344448742187,-7.728193,-5.468017,-1.767023,0.1735,0.225493,0.205775
1698344448750000,-7.792193,-5.244017,-1.836023,0.30935,0.210893,0.209975
1698344448757812,-7.923193,-5.122017,-1.934023,0.50835,0.191293,0.206275
1698344448765625,-8.34193,-4.958017,-2.5023,0.72035,0.192393,0.192075
1698344448773437,-8.196193,-4.826017,-2.46023,0.97735,0.196693,0.182575
1698344448781250,-8.272193,-4.752017,-2.104023,0.106635,0.197893,0.160575
1698344448789062,-8.183193,-4.700017,-2.142023,0.121735,0.198893,0.146475
1698344448796875,-8.258193,-4.611017,-2.156023,0.126035,0.193493,0.146175
1698344448804687,-8.323193,-4.535017,-2.131023,0.125935,0.192593,0.132075
1698344448812500,-8.312193,-4.506017,-2.138023,0.127335,0.195993,0.127375
1698344448820312,-8.293193,-4.533017,-2.165023,0.121135,0.191193,0.119475
1698344448828125,-8.373193,-4.525017,-2.172023,0.112135,0.192793,0.121175
1698344448835937,-8.520193,-4.508017,-2.184023,0.106135,0.182793,0.119475
1698344448843750,-8.470193,-4.542017,-2.193023,0.92335,0.179693,0.106975
1698344448851562,-8.237193,-4.631017,-2.268023,0.64235,0.177693,0.88075
1698344448859375,-8.191193,-4.687017,-2.329023,0.55235,0.164993,0.101975
1698344448867187,-8.346193,-4.672017,-2.336023,0.53935,0.159893,0.105075
1698344448875000,-8.254193,-4.734017,-2.329023,0.43135,0.156993,0.92575
1698344448882812,-8.91193,-4.745017,-2.404023,0.31035,0.158593,0.91175
1698344448890625,-8.102193,-4.755017,-2.443023,0.35335,0.148893,0.79875
1698344448898437,-8.77193,-4.800017,-2.470023,0.29135,0.156093,0.67475
1698344448906250,-7.892193,-4.887017,-2.502023,0.33035,0.162293,0.37775
1698344448914062,-8.211193,-4.790017,-2.493023,0.25335,0.154193,0.28175
1698344448921875,-9.348193,-4.714017,-2.439023,0.27835,0.132793,0.4075
1698344448929687,-9.382193,-4.919017,-2.406023,0.25235,0.155693,0.61425
1698344448937500,-8.830193,-5.35017,-2.492023,0.25435,0.176993,0.133225
1698344448945312,-8.636193,-5.323017,-2.572023,0.23235,0.193593,0.170525
1698344448953125,-8.394193,-5.462017,-2.509023,0.25735,0.218993,0.181125
1698344448960937,-7.961193,-5.493017,-2.384023,0.27135,0.266293,0.178425
1698344448968750,-7.723193,-5.543017,-2.245023,0.4135,0.303993,0.168125
1698344448976562,-7.570193,-5.639017,-2.53023,0.18565,0.338093,0.148325
1698344448984375,-7.333193,-5.725017,-1.846023,0.58165,0.395293,0.124825
1698344448992187,-6.983193,-5.810017,-1.661023,0.85365,0.448593,0.84325
1698344449000000,-6.843193,-5.773017,-1.440023,0.111965,0.480093,0.34625
1698344449007812,-7.327193,-5.622017,-1.179023,0.144665,0.485493,0.20575
1698344449015625,-7.972193,-5.496017,0.918023,0.168565,0.497093,0.57175
1698344449023437,-8.290193,-5.380017,0.679023,0.176565,0.508693,0.49575
1698344449031250,-8.475193,-5.292017,0.497023,0.195365,0.508493,0.7275
1698344449039062,-8.458193,-5.361017,0.349023,0.206965,0.508493,0.42925
1698344449046875,-8.178193,-5.479017,0.214023,0.226165,0.516893,0.97625
1698344449054687,-7.828193,-5.717017,0.154023,0.242365,0.516093,0.136825
1698344449062500,-7.591193,-6.34017,0.144023,0.247965,0.494993,0.143425
1698344449070312,-7.392193,-6.239017,0.60023,0.237265,0.485193,0.143625
1698344449078125,-7.229193,-6.361017,0.38977,0.215665,0.475793,0.117425
1698344449085937,-7.295193,-6.321017,0.172977,0.196765,0.460493,0.97325
1698344449093750,-7.659193,-6.210017,0.315977,0.171665,0.434493,0.65125
1698344449101562,-8.158193,-6.177017,0.410977,0.169665,0.413993,0.51325
1698344449109375,-8.521193,-6.128017,0.483977,0.165265,0.394493,0.65925
1698344449117187,-9.58193,-6.62017,0.512977,0.156865,0.363693,0.104525
1698344449125000,-9.396193,-6.218017,0.474977,0.135865,0.337293,0.144425
1698344449132812,-8.995193,-6.364017,0.456977,0.123165,0.327793,0.202925
1698344449140625,-8.646193,-6.445017,0.351977,0.121565,0.319193,0.223325
1698344449148437,-8.793193,-6.447017,0.295977,0.110965,0.290693,0.227225
1698344449156250,-8.922193,-6.420017,0.329977,0.94465,0.298793,0.224125
1698344449164062,-8.812193,-6.443017,0.292977,0.90465,0.291593,0.225625
1698344449171875,-8.682193,-6.479017,0.235977,0.96965,0.297093,0.209925
1698344449179687,-8.640193,-6.484017,0.195977,0.86065,0.295993,0.184925
1698344449187500,-8.619193,-6.433017,0.201977,0.77765,0.296893,0.153525
1698344449195312,-8.550193,-6.331017,0.213977,0.72565,0.295293,0.112725
1698344449203125,-8.516193,-6.154017,0.224977,0.73265,0.301793,0.63925
1698344449210937,-8.391193,-5.997017,0.280977,0.72565,0.315993,0.28925
1698344449218750,-8.115193,-5.830017,0.287977,0.68965,0.318393,0.975
1698344449226562,-7.961193,-5.632017,0.286977,0.70065,0.306093,0.42975
1698344449234375,-8.9193,-5.387017,0.315977,0.70865,0.290093,0.70975
1698344449242187,-7.930193,-5.196017,0.331977,0.70665,0.279493,0.81775
1698344449250000,-7.651193,-5.39017,0.292977,0.70565,0.282593,0.88075
1698344449257812,-7.415193,-4.924017,0.256977,0.69065,0.263693,0.92375
1698344449265625,-7.297193,-4.814017,0.217977,0.62565,0.248593,0.99875
1698344449273437,-7.334193,-4.731017,0.191977,0.58065,0.220493,0.86675
1698344449281250,-7.381193,-4.725017,0.130977,0.55465,0.196393,0.56275
1698344449289062,-7.366193,-4.706017,0.84977,0.49565,0.179193,0.30775
1698344449296875,-7.434193,-4.732017,0.36977,0.42065,0.165493,0.6975
1698344449304687,-7.496193,-4.811017,0.1023,0.38165,0.149393,0.21825
1698344449312500,-7.513193,-4.922017,0.21023,0.47765,0.145093,0.47025
1698344449320312,-7.563193,-5.53017,0.67023,0.47765,0.135193,0.53525
1698344449328125,-7.679193,-5.171017,0.105023,0.52365,0.130093,0.55125
1698344449335937,-7.779193,-5.290017,0.109023,0.57265,0.136993,0.67625
1698344449343750,-7.905193,-5.400017,0.132023,0.61565,0.125493,0.67725
1698344449351562,-7.987193,-5.513017,0.141023,0.60165,0.140693,0.69025
1698344449359375,-8.41193,-5.584017,0.143023,0.64765,0.140593,0.67425
1698344449367187,-8.116193,-5.705017,0.157023,0.70865,0.145493,0.67225
1698344449375000,-8.138193,-5.781017,0.147023,0.70765,0.161593,0.52825
1698344449382812,-8.178193,-5.818017,0.138023,0.63165,0.173593,0.51025
1698344449390625,-8.296193,-5.848017,0.118023,0.68965,0.186393,0.33325
1698344449398437,-8.331193,-5.837017,0.95023,0.68465,0.202993,0.17125
1698344449406250,-8.283193,-5.822017,0.75023,0.63865,0.223793,0.6775
1698344449414062,-8.279193,-5.746017,0.43023,0.51265,0.248093,0.37075
1698344449421875,-8.386193,-5.603017,0.10977,0.47465,0.263993,0.70475
1698344449429687,-8.457193,-5.430017,0.110977,0.45965,0.278193,0.91075
1698344449437500,-8.383193,-5.262017,0.199977,0.50265,0.304593,0.105875
1698344449445312,-8.333193,-5.100017,0.287977,0.58065,0.319093,0.113975
1698344449453125,-8.357193,-4.941017,0.383977,0.67065,0.323393,0.125175
1698344449460937,-8.311193,-4.840017,0.482977,0.70265,0.335993,0.109775
1698344449468750,-8.181193,-4.737017,0.551977,0.85965,0.343093,0.91175
1698344449476562,-8.210193,-4.632017,0.637977,0.102865,0.343593,0.72475
1698344449484375,-8.410193,-4.545017,0.746977,0.121465,0.338893,0.53675
1698344449492187,-8.506193,-4.502017,0.837977,0.140065,0.351193,0.32075
1698344449500000,-8.376193,-4.507017,0.930977,0.163765,0.362993,0.8775
1698344449507812,-8.342193,-4.543017,0.972977,0.188465,0.356193,0.5325
1698344449515625,-8.559193,-4.602017,0.994977,0.204865,0.339893,0.18025
1698344449523437,-8.639193,-4.703017,1.44977,0.231365,0.336693,0.39925
1698344449531250,-8.458193,-4.841017,1.59977,0.245565,0.350093,0.50625
1698344449539062,-8.284193,-4.952017,1.73977,0.262365,0.337593,0.47725
1698344449546875,-8.365193,-5.29017,1.102977,0.269865,0.330893,0.47825
1698344449554687,-8.361193,-5.146017,1.146977,0.266765,0.324293,0.49525
1698344449562500,-8.275193,-5.212017,1.164977,0.278765,0.304893,0.66925
1698344449570312,-8.245193,-5.246017,1.167977,0.278965,0.281193,0.69125
1698344449578125,-8.176193,-5.316017,1.183977,0.274165,0.269293,0.63125
1698344449585937,-8.182193,-5.319017,1.153977,0.283365,0.236793,0.62325
1698344449593750,-8.90193,-5.375017,1.121977,0.273465,0.214193,0.65725
1698344449601562,-7.838193,-5.437017,1.83977,0.264865,0.201893,0.64725
1698344449609375,-7.675193,-5.500017,0.999977,0.269065,0.176093,0.54225
1698344449617187,-7.641193,-5.500017,0.933977,0.259665,0.142593,0.51925
1698344449625000,-7.588193,-5.518017,0.899977,0.241765,0.118293,0.71425
1698344449632812,-7.534193,-5.582017,0.783977,0.242965,0.85793,0.89325
1698344449640625,-7.549193,-5.630017,0.676977,0.243265,0.62593,0.105525
1698344449648437,-7.584193,-5.663017,0.612977,0.238965,0.39693,0.123425
1698344449656250,-7.619193,-5.767017,0.501977,0.235965,0.15093,0.138025
1698344449664062,-7.660193,-5.872017,0.367977,0.243865,0.1393,0.144725
1698344449671875,-7.746193,-5.965017,0.235977,0.242165,0.8407,0.146425
1698344449679687,-7.761193,-6.59017,0.94977,0.242065,0.12707,0.155825
1698344449687500,-7.683193,-6.151017,0.28023,0.249665,0.11007,0.158825
1698344449695312,-7.609193,-6.243017,0.151023,0.266265,0.16707,0.151025
1698344449703125,-7.606193,-6.314017,0.235023,0.263065,0.16007,0.129125
1698344449710937,-7.643193,-6.301017,0.297023,0.266765,0.23407,0.103925
1698344449718750,-7.684193,-6.295017,0.367023,0.264965,0.19307,0.80325
1698344449726562,-7.649193,-6.320017,0.431023,0.264865,0.11307,0.67625
1698344449734375,-7.635193,-6.351017,0.522023,0.267765,0.12407,0.48825
1698344449742187,-7.626193,-6.383017,0.579023,0.265765,0.15407,0.45625
1698344449750000,-7.590193,-6.370017,0.601023,0.265865,0.14307,0.36225
1698344449757812,-7.608193,-6.327017,0.615023,0.255165,0.7407,0.33025
1698344449765625,-7.613193,-6.300017,0.572023,0.241265,0.10707,0.26925
1698344449773437,-7.567193,-6.311017,0.572023,0.241765,0.9107,0.38025
1698344449781250,-7.509193,-6.346017,0.599023,0.240065,0.9907,0.47325
1698344449789062,-7.480193,-6.419017,0.610023,0.222165,0.28007,0.58925
1698344449796875,-7.547193,-6.506017,0.649023,0.212865,0.37807,0.57625
1698344449804687,-7.632193,-6.562017,0.658023,0.205565,0.42107,0.75025
1698344449812500,-7.648193,-6.627017,0.665023,0.179465,0.39307,0.81325
1698344449820312,-7.640193,-6.665017,0.678023,0.159665,0.37207,0.81425
1698344449828125,-7.619193,-6.674017,0.664023,0.131165,0.33607,0.84825
1698344449835937,-7.588193,-6.659017,0.655023,0.106465,0.37807,0.83425
1698344449843750,-7.558193,-6.652017,0.637023,0.82165,0.34507,0.77325
1698344449851562,-7.509193,-6.598017,0.621023,0.69465,0.34707,0.58425
1698344449859375,-7.506193,-6.524017,0.592023,0.44965,0.30807,0.55325
1698344449867187,-7.566193,-6.428017,0.553023,0.26665,0.34207,0.49325
1698344449875000,-7.576193,-6.334017,0.513023,0.8365,0.26907,0.49225
1698344449882812,-7.575193,-6.240017,0.490023,0.2235,0.32007,0.47925
1698344449890625,-7.612193,-6.169017,0.481023,0.13035,0.36707,0.49625
1698344449898437,-7.632193,-6.81017,0.445023,0.25135,0.34607,0.54425
1698344449906250,-7.685193,-5.996017,0.416023,0.28035,0.27607,0.57425
1698344449914062,-7.735193,-5.944017,0.377023,0.26735,0.37907,0.52925
1698344449921875,-7.757193,-5.842017,0.318023,0.28335,0.23107,0.43125
1698344449929687,-7.703193,-5.736017,0.223023,0.27235,0.1207,0.34625
1698344449937500,-7.644193,-5.648017,0.166023,0.31935,0.9393,0.7825
1698344449945312,-7.494193,-5.567017,0.114023,0.38335,0.23693,0.19175
1698344449953125,-7.321193,-5.440017,0.36023,0.37035,0.35893,0.46075
1698344449960937,-7.226193,-5.334017,0.42977,0.46435,0.45093,0.69675
1698344449968750,-7.214193,-5.232017,0.122977,0.43835,0.45693,0.96375
1698344449976562,-7.286193,-5.149017,0.190977,0.37735,0.44393,0.87075
1698344449984375,-7.469193,-5.83017,0.271977,0.25335,0.35693,0.54075
1698344449992187,-7.721193,-5.76017,0.376977,0.23635,0.22093,0.19375
1698344450000000,-7.837193,-5.167017,0.426977,0.8635,0.16993,0.37325
1698344450007812,-7.832193,-5.283017,0.438977,0.335,0.21193,0.67125
1698344450015625,-7.781193,-5.483017,0.466977,0.11865,0.14093,0.100025
1698344450023437,-7.764193,-5.687017,0.464977,0.31065,0.14293,0.123625
1698344450031250,-7.766193,-5.884017,0.467977,0.42065,0.18093,0.142325
1698344450039062,-7.725193,-6.18017,0.499977,0.60765,0.8493,0.165925
1698344450046875,-7.612193,-6.162017,0.502977,0.74665,0.3607,0.169325
1698344450054687,-7.535193,-6.341017,0.477977,0.82365,0.9907,0.181925
1698344450062500,-7.483193,-6.503017,0.445977,0.92865,0.30207,0.183825
1698344450070312,-7.441193,-6.662017,0.416977,0.98765,0.33407,0.186925
1698344450078125,-7.432193,-6.784017,0.350977,0.109565,0.57207,0.190625
1698344450085937,-7.543193,-6.877017,0.312977,0.121465,0.72207,0.193925
1698344450093750,-7.700193,-7.6017,0.241977,0.119865,0.102307,0.199325
1698344450101562,-7.749193,-7.156017,0.144977,0.121665,0.135807,0.211025
1698344450109375,-7.732193,-7.295017,0.60977,0.118465,0.163607,0.225725
1698344450117187,-7.835193,-7.398017,0.55023,0.99865,0.185207,0.221625
1698344450125000,-7.988193,-7.451017,0.151023,0.99965,0.195607,0.217225
1698344450132812,-8.74193,-7.459017,0.230023,0.91665,0.196507,0.187325
1698344450140625,-8.83193,-7.440017,0.324023,0.92965,0.187907,0.154225
1698344450148437,-8.115193,-7.361017,0.401023,0.86265,0.191607,0.107325
1698344450156250,-8.204193,-7.234017,0.466023,0.82065,0.167807,0.54825
1698344450164062,-8.187193,-7.82017,0.495023,0.70765,0.146207,0.1025
1698344450171875,-8.44193,-6.848017,0.503023,0.63765,0.127107,0.38675
1698344450179687,-8.9193,-6.575017,0.472023,0.57165,0.103307,0.79975
1698344450187500,-7.986193,-6.272017,0.399023,0.58065,0.86307,0.119675
1698344450195312,-7.850193,-5.942017,0.304023,0.56365,0.70207,0.137275
1698344450203125,-7.682193,-5.667017,0.225023,0.61265,0.55807,0.146875
1698344450210937,-7.542193,-5.436017,0.141023,0.67265,0.48607,0.167375
1698344450218750,-7.575193,-5.167017,0.39023,0.73165,0.55307,0.168975
1698344450226562,-7.612193,-4.991017,0.41977,0.89865,0.51807,0.161375
1698344450234375,-7.473193,-4.863017,0.121977,0.103865,0.55107,0.150375
1698344450242187,-7.476193,-4.821017,0.153977,0.128365,0.73707,0.137575
1698344450250000,-7.670193,-4.874017,0.139977,0.148165,0.78607,0.128175
1698344450257812,-7.748193,-4.985017,0.132977,0.163865,0.83307,0.107775
1698344450265625,-7.655193,-5.164017,0.60977,0.182365,0.81207,0.89075
1698344450273437,-7.596193,-5.381017,0.21023,0.190165,0.91007,0.76375
1698344450281250,-7.757193,-5.537017,0.75023,0.188765,0.91107,0.76275
1698344450289062,-8.5193,-5.628017,0.93023,0.190065,0.82407,0.75075
1698344450296875,-8.83193,-5.716017,0.100023,0.190365,0.80507,0.65575
1698344450304687,-8.118193,-5.827017,0.122023,0.189065,0.71507,0.53275
1698344450312500,-8.123193,-5.938017,0.136023,0.198365,0.57907,0.45775
1698344450320312,-8.10193,-6.3017,0.115023,0.190765,0.27307,0.44875
1698344450328125,-7.931193,-6.46017,0.74023,0.195365,0.11507,0.63975
1698344450335937,-7.872193,-6.69017,0.40023,0.191765,0.5707,0.92375
1698344450343750,-7.679193,-6.53017,0.45977,0.188165,0.19293,0.108775
1698344450351562,-7.485193,-6.61017,0.69977,0.191265,0.19993,0.125975
1698344450359375,-7.409193,-6.31017,0.89977,0.201565,0.12593,0.138475
1698344450367187,-7.645193,-5.972017,0.132977,0.213865,0.7593,0.130575
1698344450375000,-7.914193,-5.991017,0.157977,0.217565,0.6607,0.101975
1698344450382812,-7.963193,-6.53017,0.148977,0.239265,0.593,0.78775
1698344450390625,-7.809193,-6.217017,0.112977,0.238565,0.13193,0.52175
1698344450398437,-7.836193,-6.279017,0.103977,0.250665,0.9993,0.44375
1698344450406250,-8.286193,-6.349017,0.62977,0.262965,0.5193,0.33375
1698344450414062,-8.148193,-6.555017,0.22977,0.256365,0.21193,0.3675
1698344450421875,-7.762193,-6.627017,0.11977,0.256565,0.30093,0.7125
1698344450429687,-7.804193,-6.774017,0.31023,0.265365,0.5193,0.12225
1698344450437500,-7.725193,-6.877017,0.40023,0.254965,0.6793,0.10725
1698344450445312,-7.482193,-6.956017,0.54023,0.251665,0.6393,0.1775
1698344450453125,-7.355193,-7.27017,0.115023,0.256765,0.18507,0.37475
1698344450460937,-7.344193,-6.994017,0.165023,0.237965,0.22907,0.71875
1698344450468750,-7.290193,-6.891017,0.202023,0.239365,0.29307,0.95075
1698344450476562,-7.378193,-6.788017,0.277023,0.236965,0.39907,0.121775
1698344450484375,-7.549193,-6.705017,0.391023,0.244265,0.51307,0.148275
1698344450492187,-7.447193,-6.618017,0.480023,0.235865,0.47607,0.156375
1698344450500000,-7.209193,-6.560017,0.649023,0.237565,0.56907,0.171675
1698344450507812,-7.1193,-6.533017,0.845023,0.225065,0.69507,0.193275
1698344450515625,-6.767193,-6.440017,0.979023,0.210965,0.69907,0.213575
1698344450523437,-6.651193,-6.296017,-1.118023,0.213465,0.74407,0.243375
1698344450531250,-6.747193,-6.72017,-1.244023,0.201865,0.75807,0.287375
1698344450539062,-7.30193,-5.804017,-1.297023,0.182365,0.78207,0.326675
1698344450546875,-7.405193,-5.539017,-1.407023,0.191465,0.81207,0.350075
1698344450554687,-7.611193,-5.369017,-1.599023,0.185065,0.86307,0.356275
1698344450562500,-7.634193,-5.197017,-1.777023,0.183665,0.94307,0.346675
1698344450570312,-7.645193,-4.989017,-1.967023,0.185465,0.105407,0.329175
1698344450578125,-7.609193,-4.813017,-2.110023,0.187965,0.94007,0.290075
1698344450585937,-7.626193,-4.637017,-2.236023,0.194165,0.84307,0.259075
1698344450593750,-7.874193,-4.474017,-2.359023,0.212165,0.88507,0.219575
1698344450601562,-8.318193,-4.407017,-2.439023,0.228365,0.88907,0.172475
1698344450609375,-8.574193,-4.423017,-2.492023,0.253365,0.85307,0.116275
1698344450617187,-8.581193,-4.578017,-2.580023,0.268465,0.74407,0.42675
1698344450625000,-8.636193,-4.768017,-2.683023,0.297765,0.71607,0.3775
1698344450632812,-8.790193,-4.948017,-2.728023,0.313665,0.64707,0.14925
1698344450640625,-9.11193,-5.80017,-2.705023,0.328565,0.52707,0.19025
1698344450648437,-9.362193,-5.233017,-2.734023,0.356365,0.46607,0.23625
1698344450656250,-9.577193,-5.399017,-2.766023,0.362665,0.48307,0.28325
1698344450664062,-9.413193,-5.600017,-2.827023,0.361465,0.32407,0.45225
1698344450671875,-9.2193,-5.816017,-2.876023,0.371165,0.15807,0.51225
1698344450679687,-8.800193,-5.926017,-2.885023,0.376765,0.1993,0.30325
1698344450687500,-8.904193,-5.916017,-2.830023,0.364165,0.22793,0.3075
1698344450695312,-9.54193,-5.890017,-2.730023,0.359265,0.45293,0.33375
1698344450703125,-8.979193,-5.866017,-2.646023,0.348665,0.85193,0.48275
1698344450710937,-8.821193,-5.842017,-2.571023,0.339265,0.105393,0.59675
1698344450718750,-8.737193,-5.816017,-2.466023,0.316365,0.132093,0.74175
1698344450726562,-8.674193,-5.750017,-2.339023,0.309065,0.158893,0.77775
1698344450734375,-8.552193,-5.677017,-2.207023,0.288565,0.185993,0.95675
1698344450742187,-8.395193,-5.625017,-2.72023,0.287565,0.203993,0.99075
1698344450750000,-8.312193,-5.582017,-1.940023,0.264565,0.221093,0.107175
1698344450757812,-8.186193,-5.533017,-1.774023,0.264565,0.244693,0.109275
1698344450765625,-7.973193,-5.520017,-1.640023,0.247965,0.254693,0.115575
1698344450773437,-7.781193,-5.456017,-1.508023,0.240265,0.260993,0.128175
1698344450781250,-7.652193,-5.386017,-1.357023,0.237365,0.269093,0.132975
1698344450789062,-7.616193,-5.358017,-1.223023,0.238565,0.256693,0.148475
1698344450796875,-7.640193,-5.354017,-1.132023,0.227465,0.245293,0.152975
1698344450804687,-7.712193,-5.359017,-1.50023,0.227665,0.230393,0.143175
1698344450812500,-7.737193,-5.368017,0.973023,0.210965,0.225993,0.136675
1698344450820312,-7.709193,-5.357017,0.900023,0.191465,0.207793,0.128175
1698344450828125,-7.705193,-5.367017,0.872023,0.184965,0.184893,0.124675
1698344450835937,-7.730193,-5.370017,0.859023,0.168165,0.166593,0.125675
1698344450843750,-7.842193,-5.393017,0.852023,0.162065,0.142893,0.126575
1698344450851562,-7.926193,-5.422017,0.872023,0.140265,0.115293,0.122875
1698344450859375,-7.953193,-5.441017,0.900023,0.117365,0.110693,0.124175
1698344450867187,-7.923193,-5.437017,0.929023,0.94465,0.88993,0.128275
1698344450875000,-7.933193,-5.392017,0.952023,0.71665,0.59193,0.122675
1698344450882812,-7.963193,-5.359017,0.955023,0.54265,0.53993,0.142975
1698344450890625,-7.953193,-5.279017,0.962023,0.34165,0.47693,0.147475
1698344450898437,-8.43193,-5.170017,0.971023,0.20365,0.40893,0.153475
1698344450906250,-8.74193,-5.88017,0.976023,0.9265,0.29193,0.161075
1698344450914062,-8.61193,-4.960017,0.983023,0.7235,0.20593,0.166975
1698344450921875,-8.85193,-4.875017,-1.13023,0.6135,0.8593,0.176175
1698344450929687,-8.113193,-4.785017,-1.29023,0.7635,0.6907,0.180475
1698344450937500,-8.83193,-4.706017,-1.42023,0.6435,0.27407,0.189475
1698344450945312,-8.104193,-4.647017,-1.115023,0.8135,0.49807,0.199975
1698344450953125,-8.143193,-4.608017,-1.186023,0.6635,0.71407,0.193275
1698344450960937,-8.216193,-4.557017,-1.264023,0.7335,0.108507,0.203575
1698344450968750,-8.414193,-4.478017,-1.328023,0.7235,0.133907,0.201375
1698344450976562,-8.580193,-4.422017,-1.403023,0.14935,0.157007,0.194575
1698344450984375,-8.708193,-4.358017,-1.526023,0.16535,0.178107,0.179975
1698344450992187,-8.829193,-4.316017,-1.631023,0.17835,0.186407,0.173475
1698344451000000,-8.919193,-4.332017,-1.738023,0.25235,0.203707,0.149575
1698344451007812,-9.3193,-4.338017,-1.861023,0.29735,0.204707,0.136975
1698344451015625,-9.102193,-4.349017,-1.971023,0.43035,0.202507,0.125875
1698344451023437,-9.175193,-4.333017,-2.55023,0.52135,0.196907,0.118075
1698344451031250,-9.199193,-4.246017,-2.92023,0.68935,0.182607,0.110475
1698344451039062,-9.240193,-4.182017,-2.114023,0.78835,0.162107,0.98175
1698344451046875,-9.210193,-4.163017,-2.112023,0.78835,0.145907,0.79775
1698344451054687,-9.169193,-4.74017,-2.87023,0.70635,0.129207,0.72175
1698344451062500,-9.150193,-4.16017,-2.49023,0.54935,0.100407,0.58775
1698344451070312,-9.8193,-3.951017,-1.994023,0.51635,0.74807,0.48375
1698344451078125,-8.724193,-3.934017,-1.939023,0.38935,0.46607,0.42575
1698344451085937,-8.439193,-3.943017,-1.914023,0.19135,0.30107,0.44775
1698344451093750,-8.281193,-3.951017,-1.857023,0.2065,0.16407,0.35875
1698344451101562,-8.241193,-3.992017,-1.771023,0.24765,0.9407,0.23775
1698344451109375,-8.203193,-4.44017,-1.689023,0.56265,0.3607,0.16825
1698344451117187,-8.180193,-4.192017,-1.613023,0.81865,0.8107,0.57825
1698344451125000,-8.218193,-4.428017,-1.596023,0.116165,0.16807,0.109625
1698344451132812,-8.203193,-4.712017,-1.580023,0.139665,0.18607,0.159725
1698344451140625,-8.45193,-5.22017,-1.568023,0.154365,0.12107,0.206625
1698344451148437,-7.838193,-5.292017,-1.563023,0.163965,0.3993,0.234525
1698344451156250,-7.712193,-5.602017,-1.539023,0.188565,0.12593,0.249825
1698344451164062,-7.669193,-5.867017,-1.532023,0.191965,0.15993,0.257625
1698344451171875,-7.584193,-6.104017,-1.499023,0.189065,0.34093,0.249525
1698344451179687,-7.465193,-6.270017,-1.465023,0.180965,0.51293,0.244325
1698344451187500,-7.399193,-6.408017,-1.423023,0.176565,0.55193,0.223925
1698344451195312,-7.354193,-6.524017,-1.384023,0.173065,0.72593,0.192225
1698344451203125,-7.306193,-6.601017,-1.341023,0.166365,0.71893,0.163925
1698344451210937,-7.241193,-6.590017,-1.286023,0.148865,0.96493,0.133525
1698344451218750,-7.156193,-6.551017,-1.239023,0.134665,0.102493,0.105225
1698344451226562,-7.152193,-6.459017,-1.205023,0.120765,0.94893,0.80425
1698344451234375,-7.233193,-6.344017,-1.184023,0.115865,0.87793,0.66425
1698344451242187,-7.291193,-6.226017,-1.151023,0.97365,0.91393,0.60125
1698344451250000,-7.307193,-6.114017,-1.160023,0.96965,0.69493,0.57425
1698344451257812,-7.309193,-6.4017,-1.171023,0.94465,0.61093,0.64025
1698344451265625,-7.323193,-5.950017,-1.192023,0.105465,0.60793,0.70325
1698344451273437,-7.379193,-5.903017,-1.263023,0.103765,0.46693,0.86225
1698344451281250,-7.441193,-5.867017,-1.297023,0.111565,0.27293,0.110125
1698344451289062,-7.475193,-5.873017,-1.354023,0.122265,0.19093,0.119625
1698344451296875,-7.572193,-5.880017,-1.429023,0.136565,0.5893,0.140325
1698344451304687,-7.644193,-5.915017,-1.498023,0.159465,0.2507,0.149825
1698344451312500,-7.660193,-5.941017,-1.573023,0.170065,0.7607,0.152925
1698344451320312,-7.763193,-5.953017,-1.639023,0.196165,0.8207,0.154425
1698344451328125,-7.857193,-5.993017,-1.716023,0.216065,0.12507,0.148125
1698344451335937,-7.946193,-6.4017,-1.778023,0.220165,0.11107,0.135425
1698344451343750,-7.926193,-6.11017,-1.841023,0.235065,0.4593,0.113025
1698344451351562,-7.899193,-5.975017,-1.914023,0.245165,0.6493,0.79825
1698344451359375,-7.922193,-5.945017,-1.964023,0.242065,0.11893,0.53225
1698344451367187,-7.864193,-5.866017,-2.10023,0.241265,0.10793,0.17025
1698344451375000,-7.856193,-5.697017,-2.47023,0.235565,0.22693,0.32075
1698344451382812,-7.846193,-5.509017,-2.75023,0.221665,0.24893,0.63275
1698344451390625,-7.702193,-5.335017,-2.114023,0.213465,0.37693,0.88775
1698344451398437,-7.519193,-5.214017,-2.175023,0.215365,0.41993,0.96575
1698344451406250,-7.530193,-5.118017,-2.267023,0.196765,0.27493,0.96175
1698344451414062,-7.607193,-5.57017,-2.292023,0.188065,0.21593,0.75475
1698344451421875,-7.764193,-5.55017,-2.346023,0.173265,0.3293,0.37375
1698344451429687,-8.23193,-5.156017,-2.422023,0.167365,0.18807,0.5475
1698344451437500,-8.257193,-5.289017,-2.490023,0.137765,0.19907,0.38725
1698344451445312,-8.286193,-5.471017,-2.576023,0.116865,0.24907,0.70425
1698344451453125,-8.288193,-5.665017,-2.703023,0.95965,0.28807,0.92725
1698344451460937,-8.427193,-5.819017,-2.807023,0.71865,0.22407,0.113125
1698344451468750,-8.584193,-5.926017,-2.860023,0.64365,0.13307,0.123925
1698344451476562,-8.631193,-6.67017,-2.921023,0.49865,0.593,0.139625
1698344451484375,-8.673193,-6.194017,-2.998023,0.43865,0.16293,0.145525
1698344451492187,-8.661193,-6.315017,-3.23023,0.31265,0.43493,0.137025
1698344451500000,-8.587193,-6.362017,-3.2023,0.23865,0.81393,0.115925
1698344451507812,-8.527193,-6.351017,-2.929023,0.23065,0.115593,0.78925
1698344451515625,-8.498193,-6.291017,-2.802023,0.21265,0.144493,0.45425
1698344451523437,-8.404193,-6.197017,-2.656023,0.34465,0.184793,0.5125
1698344451531250,-8.255193,-6.94017,-2.511023,0.50965,0.226093,0.44475
1698344451539062,-8.123193,-5.994017,-2.372023,0.66865,0.257793,0.92475
1698344451546875,-7.978193,-5.869017,-2.217023,0.78465,0.276293,0.130675
1698344451554687,-7.834193,-5.754017,-2.81023,0.92065,0.279793,0.157475
1698344451562500,-7.753193,-5.660017,-1.994023,0.96165,0.278693,0.182575
1698344451570312,-7.769193,-5.522017,-1.881023,0.106165,0.269493,0.204575
1698344451578125,-7.812193,-5.346017,-1.763023,0.110465,0.258793,0.218475
1698344451585937,-7.829193,-5.216017,-1.706023,0.113665,0.249893,0.222975
1698344451593750,-7.874193,-5.133017,-1.691023,0.116465,0.236493,0.222775
1698344451601562,-7.926193,-5.86017,-1.711023,0.104165,0.218293,0.222275
1698344451609375,-7.952193,-5.27017,-1.745023,0.93565,0.213793,0.212675
1698344451617187,-7.967193,-4.947017,-1.764023,0.67465,0.203193,0.202975
1698344451625000,-8.101193,-4.794017,-1.755023,0.41665,0.193693,0.199375
1698344451632812,-8.140193,-4.691017,-1.755023,0.19065,0.197793,0.191475
1698344451640625,-8.31193,-4.596017,-1.778023,0.5435,0.180193,0.181575
1698344451648437,-7.984193,-4.543017,-1.820023,0.34135,0.179693,0.167175
1698344451656250,-7.987193,-4.447017,-1.806023,0.70335,0.172493,0.152575
1698344451664062,-8.102193,-4.312017,-1.763023,0.98935,0.161893,0.134875
1698344451671875,-8.190193,-4.202017,-1.754023,0.106535,0.166093,0.120775
1698344451679687,-8.102193,-4.129017,-1.718023,0.127135,0.169493,0.86075
1698344451687500,-8.21193,-4.79017,-1.750023,0.134235,0.155593,0.55875
1698344451695312,-8.25193,-4.96017,-1.773023,0.137135,0.147993,0.36875
1698344451703125,-8.39193,-4.112017,-1.795023,0.135335,0.145893,0.7075
1698344451710937,-8.140193,-4.142017,-1.850023,0.122435,0.130093,0.29425
1698344451718750,-8.152193,-4.236017,-1.891023,0.121735,0.123793,0.51625
1698344451726562,-8.125193,-4.334017,-1.954023,0.105135,0.111193,0.72125
1698344451734375,-8.257193,-4.443017,-2.18023,0.80635,0.104293,0.79925
1698344451742187,-8.379193,-4.579017,-2.95023,0.74135,0.94393,0.92725
1698344451750000,-8.328193,-4.737017,-2.172023,0.59235,0.93093,0.101925
1698344451757812,-8.296193,-4.917017,-2.308023,0.43735,0.77593,0.105425
1698344451765625,-8.325193,-5.65017,-2.435023,0.34535,0.73693,0.100725
1698344451773437,-8.410193,-5.175017,-2.526023,0.28635,0.74393,0.80325
1698344451781250,-8.453193,-5.282017,-2.636023,0.26135,0.72893,0.78625
1698344451789062,-8.393193,-5.328017,-2.711023,0.26135,0.94593,0.73425
1698344451796875,-8.472193,-5.329017,-2.759023,0.27735,0.106093,0.65325
1698344451804687,-8.567193,-5.388017,-2.781023,0.9535,0.124593,0.67825
1698344451812500,-8.466193,-5.487017,-2.797023,0.0,0.149893,0.76725
1698344451820312,-8.379193,-5.533017,-2.760023,0.2835,0.161793,0.81225
1698344451828125,-9.152193,-5.438017,-2.683023,0.3365,0.157993,0.75025
1698344451835937,-9.670193,-5.629017,-2.617023,0.1165,0.163993,0.104925
1698344451843750,-9.367193,-5.674017,-2.612023,0.3035,0.197993,0.146425
1698344451851562,-9.58193,-5.854017,-2.632023,0.16265,0.217093,0.177425
1698344451859375,-8.712193,-5.992017,-2.577023,0.19865,0.247493,0.186225
1698344451867187,-8.282193,-6.29017,-2.463023,0.18065,0.291093,0.175825
1698344451875000,-8.17193,-6.49017,-2.313023,0.32865,0.333393,0.141725
1698344451882812,-7.868193,-6.2017,-2.103023,0.55365,0.366693,0.101625
1698344451890625,-7.680193,-5.967017,-1.873023,0.71765,0.403193,0.56825
1698344451898437,-7.446193,-5.932017,-1.629023,0.88565,0.445193,0.26025
1698344451906250,-7.172193,-5.906017,-1.404023,0.110065,0.465293,0.21875
1698344451914062,-6.950193,-5.823017,-1.156023,0.120265,0.486693,0.67975
1698344451921875,-7.123193,-5.592017,0.899023,0.126665,0.479493,0.124475
1698344451929687,-7.668193,-5.306017,0.636023,0.127765,0.464593,0.157075
1698344451937500,-7.869193,-5.154017,0.418023,0.118865,0.453193,0.148875
1698344451945312,-7.606193,-5.18017,0.274023,0.118065,0.441693,0.98375
1698344451953125,-7.573193,-4.935017,0.174023,0.123365,0.406493,0.47275
1698344451960937,-7.823193,-4.981017,0.138023,0.127265,0.383293,0.8125
1698344451968750,-7.954193,-5.45017,0.42023,0.121665,0.363793,0.61925
1698344451976562,-7.919193,-5.184017,0.48977,0.119365,0.353893,0.109325
1698344451984375,-7.750193,-5.425017,0.69977,0.101965,0.347693,0.159925
1698344451992187,-7.442193,-5.712017,0.91977,0.96465,0.340593,0.191525
1698344452000000,-7.236193,-5.940017,0.130977,0.82865,0.321593,0.214025
1698344452007812,-7.145193,-6.148017,0.208977,0.75065,0.306493,0.211225
1698344452015625,-7.103193,-6.313017,0.256977,0.63165,0.299393,0.202125
1698344452023437,-7.37193,-6.418017,0.304977,0.48565,0.290993,0.185025
1698344452031250,-7.174193,-6.472017,0.334977,0.46565,0.266393,0.158825
1698344452039062,-7.486193,-6.482017,0.377977,0.41865,0.250193,0.137325
1698344452046875,-7.878193,-6.437017,0.425977,0.49265,0.220693,0.123825
1698344452054687,-8.56193,-6.490017,0.404977,0.47865,0.206193,0.138325
1698344452062500,-8.145193,-6.481017,0.365977,0.49265,0.180093,0.154525
1698344452070312,-8.605193,-6.432017,0.331977,0.44665,0.161393,0.150225
1698344452078125,-8.911193,-6.506017,0.304977,0.35465,0.155493,0.162925
1698344452085937,-8.698193,-6.523017,0.276977,0.24865,0.156593,0.181725
1698344452093750,-8.511193,-6.567017,0.201977,0.28265,0.151693,0.191325
1698344452101562,-8.608193,-6.604017,0.144977,0.37065,0.147693,0.177225
1698344452109375,-8.756193,-6.557017,0.154977,0.24865,0.148693,0.158525
1698344452117187,-8.888193,-6.495017,0.140977,0.24765,0.154993,0.147325
1698344452125000,-8.895193,-6.454017,0.156977,0.23065,0.172593,0.126625
1698344452132812,-8.762193,-6.423017,0.181977,0.24365,0.180893,0.120125
1698344452140625,-8.608193,-6.371017,0.160977,0.22465,0.180893,0.84025
1698344452148437,-8.446193,-6.286017,0.155977,0.20365,0.186693,0.52425
1698344452156250,-8.310193,-6.163017,0.148977,0.22765,0.180093,0.14925
1698344452164062,-8.203193,-6.13017,0.127977,0.20365,0.175393,0.25875
1698344452171875,-8.21193,-5.841017,0.111977,0.21765,0.175693,0.49375
1698344452179687,-7.805193,-5.632017,0.72977,0.19465,0.174793,0.82375
1698344452187500,-7.729193,-5.429017,0.37977,0.20165,0.164193,0.104375
1698344452195312,-7.740193,-5.245017,0.16023,0.18665,0.144993,0.114775
1698344452203125,-7.683193,-5.100017,0.69023,0.12765,0.142993,0.119375
1698344452210937,-7.571193,-5.6017,0.142023,0.19065,0.136993,0.100475
1698344452218750,-7.577193,-4.902017,0.227023,0.15965,0.122793,0.82975
1698344452226562,-7.701193,-4.811017,0.266023,0.2465,0.110493,0.62175
1698344452234375,-7.722193,-4.761017,0.286023,0.3235,0.112993,0.43275
1698344452242187,-7.690193,-4.757017,0.332023,0.4865,0.113093,0.29075
1698344452250000,-7.746193,-4.785017,0.341023,0.365,0.118993,0.15175
1698344452257812,-7.869193,-4.795017,0.330023,0.265,0.121193,0.7475
1698344452265625,-7.979193,-4.840017,0.302023,0.11265,0.124193,0.4275
1698344452273437,-8.57193,-4.888017,0.243023,0.3765,0.127493,0.5875
1698344452281250,-8.44193,-4.886017,0.172023,0.11465,0.145893,0.7875
1698344452289062,-8.30193,-4.956017,0.138023,0.20365,0.154393,0.6675
1698344452296875,-8.14193,-5.32017,0.117023,0.31465,0.157193,0.6675
1698344452304687,-7.989193,-5.68017,0.78023,0.41965,0.150293,0.8175
1698344452312500,-7.995193,-5.110017,0.49023,0.45165,0.147093,0.275
1698344452320312,-8.60193,-5.158017,0.39023,0.40965,0.145893,0.15525
1698344452328125,-8.50193,-5.223017,0.35023,0.47165,0.142993,0.28125
1698344452335937,-7.996193,-5.262017,0.14023,0.42865,0.135693,0.51825
1698344452343750,-8.181193,-5.253017,0.3023,0.56665,0.138693,0.51725
1698344452351562,-8.364193,-5.297017,0.33977,0.49165,0.127993,0.70725
1698344452359375,-8.323193,-5.360017,0.39977,0.66165,0.142893,0.75025
1698344452367187,-8.193193,-5.454017,0.15977,0.72165,0.136293,0.79825
1698344452375000,-8.139193,-5.534017,0.13977,0.73865,0.147893,0.78025
1698344452382812,-8.130193,-5.577017,0.42977,0.75265,0.147693,0.73325
1698344452390625,-8.132193,-5.593017,0.76977,0.90065,0.152293,0.63625
1698344452398437,-8.259193,-5.542017,0.126977,0.96365,0.154793,0.52625
1698344452406250,-8.287193,-5.542017,0.202977,0.100865,0.166593,0.50725
1698344452414062,-8.141193,-5.554017,0.238977,0.118365,0.184693,0.37425
1698344452421875,-8.94193,-5.565017,0.261977,0.118765,0.178793,0.26725
1698344452429687,-8.146193,-5.580017,0.275977,0.138665,0.174793,0.25225
1698344452437500,-8.39193,-5.599017,0.304977,0.135565,0.176493,0.23625
1698344452445312,-7.913193,-5.606017,0.325977,0.139765,0.166793,0.26825
1698344452453125,-8.44193,-5.581017,0.336977,0.142865,0.152993,0.25525
1698344452460937,-8.289193,-5.545017,0.365977,0.141465,0.145193,0.38225
1698344452468750,-8.305193,-5.536017,0.404977,0.141865,0.147193,0.49325
1698344452476562,-8.203193,-5.530017,0.381977,0.146565,0.150593,0.53925
1698344452484375,-8.287193,-5.534017,0.388977,0.160165,0.138493,0.52525
1698344452492187,-8.313193,-5.575017,0.411977,0.163565,0.144693,0.50925
1698344452500000,-8.185193,-5.615017,0.373977,0.169565,0.146393,0.50825
1698344452507812,-8.72193,-5.650017,0.352977,0.186165,0.142893,0.52225
1698344452515625,-8.17193,-5.666017,0.357977,0.194065,0.147293,0.49025
1698344452523437,-8.68193,-5.646017,0.361977,0.205565,0.145293,0.34725
1698344452531250,-8.152193,-5.626017,0.350977,0.213165,0.137993,0.27025
1698344452539062,-7.962193,-5.638017,0.354977,0.235765,0.137693,0.25225
1698344452546875,-7.832193,-5.641017,0.330977,0.240565,0.130293,0.19225
1698344452554687,-7.821193,-5.669017,0.291977,0.255565,0.132993,0.8025
1698344452562500,-7.689193,-5.703017,0.261977,0.267865,0.136093,0.9425
1698344452570312,-7.514193,-5.770017,0.193977,0.264565,0.122493,0.1925
1698344452578125,-7.381193,-5.877017,0.100977,0.265665,0.102293,0.625
1698344452585937,-7.244193,-5.945017,0.23977,0.261065,0.85393,0.2075
1698344452593750,-7.171193,-6.4017,0.56023,0.245965,0.70593,0.1625
1698344452601562,-7.198193,-6.123017,0.155023,0.236965,0.37393,0.13425
1698344452609375,-7.309193,-6.204017,0.262023,0.218965,0.23993,0.43625
1698344452617187,-7.369193,-6.288017,0.337023,0.211565,0.4693,0.64525
1698344452625000,-7.493193,-6.363017,0.424023,0.196465,0.17107,0.96425
1698344452632812,-7.679193,-6.491017,0.526023,0.202965,0.37107,0.109425
1698344452640625,-7.831193,-6.656017,0.633023,0.195165,0.38307,0.114225
1698344452648437,-7.887193,-6.798017,0.746023,0.192365,0.26907,0.109325
1698344452656250,-7.872193,-6.933017,0.837023,0.193965,0.15507,0.102825
1698344452664062,-7.819193,-7.58017,0.944023,0.194665,0.12407,0.83725
1698344452671875,-7.763193,-7.129017,-1.33023,0.191665,0.8493,0.61425
1698344452679687,-7.734193,-7.132017,-1.83023,0.192565,0.14193,0.32925
1698344452687500,-7.749193,-7.27017,-1.92023,0.190365,0.25993,0.11375
1698344452695312,-7.776193,-6.893017,-1.65023,0.192965,0.49793,0.47975
1698344452703125,-7.732193,-6.744017,-1.38023,0.206165,0.58293,0.81275
1698344452710937,-7.651193,-6.621017,-1.16023,0.206965,0.80293,0.124275
1698344452718750,-7.652193,-6.493017,0.995023,0.208265,0.81593,0.135275
1698344452726562,-7.643193,-6.357017,0.941023,0.214265,0.85893,0.147975
1698344452734375,-7.485193,-6.302017,0.902023,0.212765,0.102893,0.148275
1698344452742187,-7.292193,-6.324017,0.904023,0.214365,0.92493,0.149575
1698344452750000,-7.224193,-6.357017,0.918023,0.205065,0.72893,0.142875
1698344452757812,-7.213193,-6.359017,0.909023,0.191365,0.56993,0.128375
1698344452765625,-7.268193,-6.373017,0.911023,0.170465,0.47393,0.120075
