time,Acceleration X (m/s^2),Acceleration Y (m/s^2),Acceleration Z (m/s^2),Angular Velocity X (rad/s),Angular Velocity Y (rad/s),Angular Velocity Z (rad/s)
1700753586898437,-9.649394,2.92011,-0.330726,,,
1700753586906250,-9.663394,2.92011,0.342726,0.130617,0.21782,0.55151
1700753586914062,-9.682394,2.88311,0.342726,0.135117,0.22882,0.50451
1700753586921875,-9.678394,2.87611,0.349726,0.127617,0.34882,0.50251
1700753586929687,-9.648394,2.84111,0.328726,0.132217,0.45182,0.48251
1700753586937500,-9.646394,2.84411,0.328726,0.139817,0.33082,0.50151
1700753586953125,-9.666394,2.83111,0.324726,0.110917,0.47082,0.50051
1700753586960937,-9.685394,2.84411,0.328726,0.116817,0.50082,0.38851
1700753586968750,-9.705394,2.87211,0.321726,0.119817,0.52982,0.35751
1700753586976562,-9.732394,2.88511,0.319726,0.113717,0.54982,0.34051
1700753587000000,-9.740394,2.93711,0.276726,0.113817,0.56682,0.38851
1700753587007812,-9.716394,2.93111,0.260726,0.112217,0.51382,0.39051
1700753587015625,-9.708394,2.93711,0.255726,0.113817,0.51682,0.42151
1700753587023437,-9.710394,2.94211,0.251726,0.116917,0.58082,0.40451
1700753587031250,-9.710394,2.92211,0.242726,0.112217,0.53582,0.38751
1700753587039062,-9.683394,2.91211,0.239726,0.116917,0.53382,0.43551
1700753587046875,-9.649394,2.90711,0.230726,0.124417,0.43082,0.40651
1700753587054687,-9.585394,2.88411,0.223726,0.118317,0.51182,0.34251
1700753587062500,-9.549394,2.85811,0.217726,0.121317,0.41482,0.35851
1700753587070312,-9.612394,2.86611,0.242726,0.125717,0.34282,0.29751
1700753587078125,-9.637394,2.88211,0.244726,0.131817,0.30582,0.29851
1700753587085937,-9.630394,2.87111,0.226726,0.128717,0.35482,0.26651
1700753587093750,-9.648394,2.86511,0.248726,0.125517,0.33582,0.20451
1700753587101562,-9.671394,2.87611,0.251726,0.131617,0.28582,0.18851
1700753587109375,-9.691394,2.86311,0.274726,0.133017,0.30082,0.14051
1700753587117187,-9.691394,2.87411,0.271726,0.130017,0.36882,0.13951
1700753587125000,-9.681394,2.85411,0.280726,0.114917,0.42182,0.18751
1700753587132812,-9.684394,2.84511,0.285726,0.124117,0.42382,0.24951
1700753587140625,-9.677394,2.84011,0.278726,0.115017,0.42682,0.23351
1700753587148437,-9.668394,2.83811,0.271726,0.113217,0.33582,0.12651
1700753587156250,-9.690394,2.83011,0.262726,0.113317,0.43682,0.14051
1700753587164062,-9.704394,2.82111,0.276726,0.113217,0.42082,0.10751
1700753587171875,-9.705394,2.83411,0.294726,0.113117,0.31982,0.6251
1700753587179687,-9.700394,2.82911,0.287726,0.111717,0.40582,0.9151
1700753587187500,-9.711394,2.83911,0.294726,0.113217,0.40482,0.10851
1700753587195312,-9.725394,2.85011,0.305726,0.110117,0.40282,0.6151
1700753587203125,-9.716394,2.85911,0.317726,0.107117,0.43882,0.10751
1700753587210937,-9.707394,2.84511,0.296726,0.102617,0.47282,0.9151
1700753587218750,-9.715394,2.83711,0.296726,0.91917,0.48882,0.6151
1700753587226562,-9.700394,2.84011,0.301726,0.87317,0.47682,0.7651
1700753587234375,-9.693394,2.84711,0.294726,0.89017,0.57782,0.13751
1700753587242187,-9.680394,2.85311,0.287726,0.87417,0.54682,0.13751
1700753587250000,-9.665394,2.83911,0.289726,0.75217,0.46182,0.12651
1700753587257812,-9.657394,2.81711,0.278726,0.72317,0.60282,0.18451
1700753587265625,-9.655394,2.81711,0.273726,0.64717,0.63782,0.18451
1700753587273437,-9.657394,2.83411,0.273726,0.63117,0.51782,0.17251
1700753587281250,-9.656394,2.83411,0.260726,0.64617,0.56682,0.17151
1700753587289062,-9.668394,2.84311,0.264726,0.63017,0.53182,0.10951
1700753587296875,-9.668394,2.86511,0.260726,0.64517,0.51382,0.9451
1700753587304687,-9.689394,2.88111,0.262726,0.62917,0.57982,0.6151
1700753587312500,-9.703394,2.88511,0.260726,0.65917,0.56082,0.149
1700753587320312,-9.709394,2.89211,0.264726,0.56817,0.57982,0.1451
1700753587328125,-9.687394,2.90311,0.264726,0.60017,0.66482,0.7551
1700753587335937,-9.686394,2.88111,0.257726,0.61417,0.64582,0.2851
1700753587343750,-9.682394,2.88511,0.258726,0.62917,0.66282,0.349
1700753587351562,-9.673394,2.89311,0.253726,0.64417,0.64582,0.2049
1700753587359375,-9.667394,2.89111,0.253726,0.64417,0.66382,0.549
1700753587367187,-9.666394,2.89211,0.244726,0.62917,0.66182,0.1949
1700753587375000,-9.653394,2.88011,0.244726,0.61317,0.64682,0.349
1700753587382812,-9.650394,2.87111,0.246726,0.61317,0.52782,0.1649
1700753587390625,-9.646394,2.86411,0.248726,0.59817,0.54582,0.149
1700753587398437,-9.669394,2.86811,0.242726,0.64217,0.49482,0.4949
1700753587406250,-9.665394,2.87711,0.237726,0.62617,0.57782,0.11449
1700753587414062,-9.659394,2.88511,0.239726,0.64217,0.52382,0.9549
1700753587421875,-9.673394,2.89811,0.253726,0.64217,0.50782,0.9549
1700753587429687,-9.672394,2.92511,0.251726,0.62617,0.50882,0.11149
1700753587437500,-9.671394,2.92011,0.249726,0.58017,0.59182,0.14449
1700753587445312,-9.674394,2.92511,0.251726,0.64117,0.62282,0.16049
1700753587453125,-9.678394,2.93911,0.242726,0.62717,0.64082,0.11349
1700753587460937,-9.685394,2.94511,0.255726,0.64217,0.57582,0.9749
1700753587468750,-9.681394,2.95211,0.244726,0.64317,0.46082,0.0
1700753587476562,-9.669394,2.94711,0.230726,0.64317,0.59382,0.1849
1700753587484375,-9.662394,2.95211,0.221726,0.64417,0.57682,0.149
1700753587492187,-9.656394,2.94911,0.212726,0.62817,0.62882,0.1949
1700753587500000,-9.656394,2.94311,0.212726,0.65917,0.62782,0.1251
1700753587507812,-9.646394,2.94511,0.219726,0.64217,0.49082,0.4649
1700753587515625,-9.644394,2.92011,0.207726,0.62917,0.56282,0.4551
1700753587523437,-9.646394,2.90911,0.214726,0.64417,0.59582,0.2851
1700753587531250,-9.639394,2.92111,0.221726,0.64517,0.51182,0.7851
1700753587539062,-9.673394,2.90311,0.228726,0.64417,0.52682,0.3151
1700753587546875,-9.687394,2.90511,0.237726,0.62817,0.54482,0.1451
1700753587554687,-9.691394,2.90111,0.244726,0.64517,0.51482,0.10951
1700753587562500,-9.678394,2.90711,0.251726,0.63017,0.48282,0.10951
1700753587570312,-9.669394,2.90911,0.242726,0.66017,0.49882,0.12551
1700753587578125,-9.660394,2.91111,0.244726,0.64517,0.49982,0.12551
1700753587585937,-9.648394,2.91111,0.248726,0.63017,0.49982,0.14151
1700753587593750,-9.651394,2.92211,0.235726,0.64617,0.50082,0.15651
1700753587601562,-9.653394,2.92111,0.242726,0.64617,0.63182,0.13951
1700753587609375,-9.662394,2.93411,0.246726,0.64617,0.59982,0.13951
1700753587617187,-9.664394,2.94111,0.237726,0.64617,0.54982,0.17251
1700753587625000,-9.643394,2.92111,0.232726,0.64517,0.49582,0.12751
1700753587632812,-9.637394,2.91811,0.244726,0.64517,0.48282,0.14151
1700753587640625,-9.633394,2.91811,0.235726,0.64717,0.60282,0.18551
1700753587648437,-9.642394,2.90211,0.228726,0.64717,0.53682,0.20251
1700753587656250,-9.667394,2.90711,0.239726,0.64717,0.55482,0.23351
1700753587664062,-9.683394,2.90711,0.242726,0.64717,0.50582,0.25051
1700753587671875,-9.682394,2.90111,0.242726,0.69217,0.46482,0.18951
1700753587679687,-9.678394,2.90511,0.242726,0.64617,0.51682,0.17251
1700753587687500,-9.674394,2.88911,0.244726,0.66317,0.48882,0.25051
1700753587695312,-9.685394,2.87611,0.253726,0.67817,0.50582,0.26551
1700753587703125,-9.687394,2.87611,0.253726,0.75417,0.46882,0.25151
1700753587710937,-9.691394,2.89611,0.251726,0.74117,0.52182,0.34451
1700753587718750,-9.705394,2.90111,0.262726,0.70917,0.52182,0.29751
1700753587726562,-9.702394,2.89711,0.262726,0.73917,0.53382,0.23451
1700753587734375,-9.682394,2.88611,0.269726,0.84617,0.51482,0.25051
1700753587742187,-9.691394,2.87411,0.276726,0.83117,0.61682,0.23251
1700753587750000,-9.677394,2.88811,0.287726,0.89217,0.51482,0.26551
1700753587757812,-9.687394,2.88111,0.289726,0.87717,0.59982,0.24751
1700753587765625,-9.693394,2.85611,0.278726,0.89217,0.64982,0.26251
1700753587773437,-9.677394,2.81611,0.262726,0.86217,0.58682,0.31051
1700753587781250,-9.663394,2.80711,0.255726,0.83317,0.65282,0.32651
1700753587789062,-9.663394,2.81411,0.257726,0.89217,0.63382,0.26251
1700753587796875,-9.697394,2.84511,0.251726,0.90817,0.64982,0.26251
1700753587804687,-9.720394,2.85911,0.221726,0.92317,0.66682,0.24551
1700753587812500,-9.734394,2.87211,0.214726,0.92117,0.66382,0.16751
1700753587820312,-9.732394,2.88411,0.196726,0.89017,0.69382,0.12051
1700753587828125,-9.657394,2.84911,0.178726,0.87517,0.67982,0.13551
1700753587835937,-9.604394,2.81111,0.173726,0.92117,0.64382,0.13651
1700753587843750,-9.576394,2.77711,0.171726,0.88917,0.62582,0.9051
1700753587851562,-9.611394,2.77911,0.182726,0.88917,0.46182,0.13951
1700753587859375,-9.667394,2.78011,0.196726,0.84417,0.42882,0.17251
1700753587867187,-9.704394,2.79311,0.219726,0.78317,0.41582,0.20451
1700753587875000,-9.751394,2.79911,0.232726,0.79917,0.33182,0.25451
1700753587882812,-9.758394,2.81011,0.248726,0.64817,0.33882,0.33351
1700753587890625,-9.738394,2.79811,0.246726,0.69317,0.30482,0.31751
1700753587898437,-9.742394,2.78511,0.260726,0.64717,0.32082,0.28651
1700753587906250,-9.728394,2.76511,0.255726,0.66217,0.42082,0.26851
1700753587914062,-9.706394,2.73711,0.267726,0.76817,0.45182,0.18651
1700753587921875,-9.685394,2.71511,0.273726,0.75217,0.49782,0.12451
1700753587929687,-9.673394,2.71611,0.266726,0.73617,0.51282,0.9351
1700753587937500,-9.678394,2.72011,0.287726,0.66017,0.49782,0.12551
1700753587945312,-9.685394,2.69811,0.287726,0.72017,0.44682,0.7851
1700753587953125,-9.710394,2.69311,0.294726,0.64317,0.44582,0.1551
1700753587960937,-9.719394,2.71311,0.289726,0.63017,0.50182,0.14051
1700753587968750,-9.737394,2.72011,0.292726,0.64517,0.48482,0.14051
1700753587976562,-9.740394,2.74711,0.289726,0.58517,0.53582,0.14051
1700753587984375,-9.744394,2.76311,0.287726,0.58517,0.51782,0.15751
1700753587992187,-9.778394,2.77311,0.289726,0.61517,0.53182,0.14151
1700753588000000,-9.755394,2.77711,0.278726,0.57117,0.61982,0.17051
1700753588007812,-9.733394,2.77011,0.250726,0.66217,0.61682,0.15451
1700753588015625,-9.729394,2.77411,0.255726,0.63117,0.66982,0.15251
1700753588023437,-9.713394,2.77611,0.244726,0.64617,0.64982,0.10651
1700753588031250,-9.703394,2.78111,0.232726,0.63017,0.64882,0.7551
1700753588039062,-9.739394,2.77911,0.239726,0.64517,0.64782,0.7551
1700753588046875,-9.747394,2.78311,0.237726,0.64617,0.63382,0.10651
1700753588054687,-9.717394,2.78111,0.221726,0.64617,0.66382,0.9151
1700753588062500,-9.656394,2.76411,0.212726,0.63017,0.65082,0.7451
1700753588070312,-9.627394,2.76511,0.219726,0.66117,0.65182,0.8851
1700753588078125,-9.699394,2.79411,0.239726,0.67717,0.63382,0.13751
1700753588085937,-9.761394,2.81411,0.219726,0.64517,0.61582,0.7551
1700753588093750,-9.715394,2.80911,0.201726,0.64617,0.66682,0.9051
1700753588101562,-9.688394,2.80911,0.194726,0.65917,0.64382,0.1949
1700753588109375,-9.683394,2.79311,0.196726,0.70517,0.59682,0.4351
1700753588117187,-9.701394,2.80111,0.194726,0.69017,0.66182,0.2751
1700753588125000,-9.695394,2.81811,0.201726,0.75117,0.62882,0.2651
1700753588132812,-9.681394,2.82511,0.198726,0.81117,0.63982,0.5149
1700753588140625,-9.654394,2.82211,0.203726,0.88817,0.65582,0.2149
1700753588148437,-9.616394,2.78111,0.203726,0.83917,0.50482,0.11349
1700753588156250,-9.658394,2.77111,0.219726,0.73317,0.58882,0.14549
1700753588164062,-9.704394,2.79811,0.221726,0.86817,0.53282,0.22349
1700753588171875,-9.720394,2.81811,0.226726,0.89917,0.56782,0.19349
1700753588179687,-9.711394,2.81611,0.230726,0.86917,0.48282,0.17549
1700753588187500,-9.740394,2.81211,0.228726,0.88417,0.44882,0.17449
1700753588195312,-9.722394,2.81411,0.221726,0.96217,0.48482,0.4949
1700753588203125,-9.692394,2.82811,0.219726,0.87117,0.53482,0.8049
1700753588210937,-9.679394,2.80911,0.228726,0.91717,0.53582,0.6649
1700753588218750,-9.699394,2.80911,0.223726,0.94817,0.50382,0.249
1700753588226562,-9.733394,2.80511,0.241726,0.96317,0.50282,0.1849
1700753588234375,-9.741394,2.83911,0.242726,0.94917,0.50782,0.7551
1700753588242187,-9.704394,2.83911,0.230726,0.87517,0.57882,0.15351
1700753588250000,-9.654394,2.84011,0.223726,0.88917,0.49182,0.12451
1700753588257812,-9.674394,2.80711,0.216726,0.92017,0.52682,0.13851
1700753588265625,-9.686394,2.79111,0.201726,0.95117,0.51182,0.16951
1700753588273437,-9.665394,2.78511,0.221726,0.96617,0.52582,0.15451
1700753588281250,-9.672394,2.78211,0.214726,0.89017,0.49582,0.15451
1700753588289062,-9.686394,2.77811,0.203726,0.89217,0.53382,0.26451
1700753588296875,-9.687394,2.78111,0.200726,0.87717,0.53182,0.26551
1700753588304687,-9.701394,2.77811,0.214726,0.86117,0.49782,0.23451
1700753588312500,-9.724394,2.78311,0.221726,0.89217,0.53282,0.26451
1700753588320312,-9.705394,2.78111,0.216726,0.87717,0.49982,0.32951
1700753588328125,-9.712394,2.77411,0.219726,0.89117,0.49882,0.24951
1700753588335937,-9.731394,2.79011,0.241726,0.90617,0.48082,0.23451
1700753588343750,-9.750394,2.80911,0.233726,0.92217,0.43482,0.28151
1700753588351562,-9.759394,2.83011,0.232726,0.89217,0.58482,0.27851
1700753588359375,-9.715394,2.82111,0.221726,0.93717,0.53082,0.23351
1700753588367187,-9.690394,2.80011,0.207726,0.89217,0.54882,0.24851
1700753588375000,-9.685394,2.77111,0.203726,0.87717,0.66682,0.23051
1700753588382812,-9.701394,2.77611,0.194726,0.89217,0.59882,0.24751
1700753588390625,-9.698394,2.77011,0.191726,0.87717,0.63082,0.23251
1700753588398437,-9.673394,2.74711,0.189726,0.90617,0.63082,0.19951
1700753588406250,-9.694394,2.73811,0.180726,0.89217,0.63382,0.26251
1700753588414062,-9.721394,2.74711,0.187726,0.90517,0.49582,0.18651
1700753588421875,-9.718394,2.74111,0.196726,0.92017,0.47582,0.17251
1700753588429687,-9.698394,2.72911,0.196726,0.89017,0.52882,0.15451
1700753588437500,-9.680394,2.73311,0.187726,0.92117,0.61082,0.13751
1700753588445312,-9.685394,2.74811,0.185726,0.94917,0.49182,0.5951
1700753588453125,-9.692394,2.75611,0.187726,0.88717,0.52282,0.249
1700753588460937,-9.694394,2.76011,0.184726,0.90217,0.53882,0.5049
1700753588468750,-9.701394,2.75311,0.189726,0.93317,0.57382,0.1151
1700753588476562,-9.717394,2.75311,0.191726,0.96317,0.52282,0.449
1700753588484375,-9.728394,2.75811,0.198726,0.94817,0.53982,0.449
1700753588492187,-9.706394,2.75111,0.210726,0.90217,0.58982,0.2049
1700753588500000,-9.726394,2.74511,0.212726,0.94917,0.54082,0.2751
1700753588507812,-9.749394,2.74711,0.221726,0.91817,0.50782,0.2851
1700753588515625,-9.737394,2.76011,0.214726,0.101117,0.47582,0.12251
1700753588523437,-9.717394,2.77411,0.223726,0.94917,0.48882,0.4451
1700753588531250,-9.742394,2.76511,0.216726,0.93417,0.52382,0.4351
1700753588539062,-9.767394,2.77011,0.212726,0.94817,0.45482,0.249
1700753588546875,-9.742394,2.77411,0.212726,0.94817,0.58782,0.5249
1700753588554687,-9.724394,2.75811,0.194726,0.90217,0.62182,0.8449
1700753588562500,-9.705394,2.75411,0.182726,0.91617,0.56882,0.9849
1700753588570312,-9.676394,2.73511,0.166726,0.90217,0.58982,0.3649
1700753588578125,-9.692394,2.72911,0.180726,0.87217,0.62382,0.2049
1700753588585937,-9.703394,2.70411,0.178726,0.88617,0.62182,0.8449
1700753588593750,-9.712394,2.70911,0.178726,0.88717,0.52282,0.3449
1700753588601562,-9.701394,2.72811,0.175726,0.87117,0.50782,0.3549
1700753588609375,-9.690394,2.73111,0.180726,0.88617,0.50582,0.5049
1700753588617187,-9.680394,2.70411,0.178726,0.84017,0.45582,0.4849
1700753588625000,-9.680394,2.73111,0.180726,0.65817,0.42782,0.0
1700753588632812,-9.680394,2.73111,0.178726,0.70317,0.40782,0.4649
1700753588640625,-9.680394,2.73711,0.187726,0.64417,0.54682,0.1351
1700753588648437,-9.683394,2.73711,0.194726,0.64317,0.52782,0.3349
1700753588656250,-9.701394,2.74211,0.207726,0.62717,0.51082,0.4849
1700753588664062,-9.711394,2.74811,0.217726,0.64317,0.44882,0.1451
1700753588671875,-9.742394,2.75611,0.228726,0.59817,0.54682,0.2951
1700753588679687,-9.776394,2.75711,0.230726,0.61417,0.51682,0.9351
1700753588687500,-9.751394,2.76811,0.232726,0.61617,0.58482,0.13951
1700753588695312,-9.721394,2.73811,0.244726,0.47917,0.54082,0.20351
1700753588703125,-9.707394,2.72011,0.244726,0.43417,0.52582,0.23551
1700753588710937,-9.721394,2.70911,0.239726,0.40317,0.54282,0.23551
1700753588718750,-9.739394,2.72511,0.246726,0.40517,0.49582,0.31551
1700753588726562,-9.746394,2.74511,0.250726,0.40417,0.49482,0.30051
1700753588734375,-9.730394,2.76311,0.246726,0.40517,0.59382,0.28251
1700753588742187,-9.721394,2.76811,0.241726,0.40617,0.66282,0.34451
1700753588750000,-9.710394,2.75211,0.248726,0.40517,0.59482,0.31451
1700753588757812,-9.696394,2.74711,0.244726,0.38917,0.62782,0.26651
1700753588765625,-9.712394,2.74911,0.241726,0.40517,0.59382,0.28251
1700753588773437,-9.712394,2.74711,0.237726,0.35917,0.61182,0.31451
1700753588781250,-9.700394,2.75011,0.227726,0.37617,0.62882,0.36151
1700753588789062,-9.710394,2.74511,0.212726,0.28417,0.68182,0.32951
1700753588796875,-9.721394,2.74511,0.216726,0.28517,0.70082,0.37551
1700753588804687,-9.681394,2.76211,0.205726,0.39117,0.73082,0.31051
1700753588812500,-9.697394,2.77111,0.178726,0.39117,0.71682,0.35751
1700753588820312,-9.710394,2.78511,0.180726,0.40817,0.74982,0.40551
1700753588828125,-9.717394,2.79211,0.164726,0.39017,0.82782,0.24651
1700753588835937,-9.719394,2.79011,0.150726,0.45117,0.77582,0.24751
1700753588843750,-9.719394,2.77111,0.143726,0.51117,0.74182,0.23151
1700753588851562,-9.683394,2.74411,0.155726,0.46617,0.77782,0.24651
1700753588859375,-9.667394,2.70611,0.153726,0.46517,0.67782,0.23151
1700753588867187,-9.689394,2.68911,0.150726,0.40317,0.59282,0.21951
1700753588875000,-9.735394,2.72911,0.155726,0.52517,0.48882,0.22051
1700753588882812,-9.778394,2.73411,0.164726,0.46417,0.52482,0.23551
1700753588890625,-9.762394,2.74311,0.166726,0.57217,0.57482,0.24951
1700753588898437,-9.744394,2.71611,0.164726,0.55517,0.45682,0.23651
1700753588906250,-9.718394,2.68711,0.177726,0.49617,0.51082,0.33051
1700753588914062,-9.700394,2.67111,0.196726,0.63417,0.45782,0.37851
1700753588921875,-9.682394,2.67711,0.205726,0.63417,0.44382,0.40951
1700753588929687,-9.680394,2.69111,0.207726,0.60417,0.49382,0.39351
1700753588937500,-9.704394,2.68511,0.218726,0.61717,0.47182,0.28351
1700753588945312,-9.727394,2.69111,0.221726,0.61917,0.52582,0.36151
1700753588953125,-9.716394,2.67611,0.237726,0.65017,0.52682,0.40851
1700753588960937,-9.721394,2.68611,0.239726,0.63517,0.56282,0.40651
1700753588968750,-9.713394,2.67811,0.221726,0.65017,0.62582,0.35951
1700753588976562,-9.711394,2.66211,0.218726,0.65017,0.66082,0.35751
1700753588984375,-9.691394,2.65711,0.216726,0.63417,0.59382,0.34351
1700753588992187,-9.727394,2.66011,0.200726,0.64917,0.54082,0.31251
1700753589000000,-9.775394,2.66711,0.200726,0.71017,0.64082,0.29451
1700753589007812,-9.774394,2.67511,0.196726,0.68017,0.70582,0.29451
1700753589015625,-9.763394,2.65911,0.182726,0.63317,0.65482,0.24851
1700753589023437,-9.756394,2.64511,0.177726,0.64917,0.65582,0.29551
1700753589031250,-9.754394,2.63411,0.173726,0.64917,0.62482,0.31151
1700753589039062,-9.749394,2.60511,0.193726,0.60517,0.69482,0.37351
1700753589046875,-9.769394,2.57411,0.211726,0.45117,0.61082,0.31351
1700753589054687,-9.770394,2.52711,0.216726,0.40517,0.61182,0.29751
1700753589062500,-9.755394,2.49511,0.239726,0.32917,0.59982,0.34451
1700753589070312,-9.702394,2.44311,0.254726,0.14717,0.60582,0.39351
1700753589078125,-9.678394,2.40511,0.243726,0.8283,0.65582,0.28351
1700753589085937,-9.747394,2.43811,0.250726,0.12783,0.70782,0.29951
1700753589093750,-9.820394,2.48511,0.229726,0.34183,0.71082,0.25251
1700753589101562,-9.815394,2.49211,0.195726,0.32583,0.72782,0.30051
1700753589109375,-9.820394,2.49611,0.204726,0.50883,0.79982,0.28351
1700753589117187,-9.768394,2.49611,0.175726,0.55583,0.77982,0.19051
1700753589125000,-9.689394,2.51211,0.168726,0.55683,0.78082,0.17351
1700753589132812,-9.650394,2.52611,0.143726,0.64783,0.79682,0.15951
1700753589140625,-9.671394,2.56011,0.154726,0.63483,0.79182,0.6551
1700753589148437,-9.704394,2.60211,0.168726,0.55783,0.72782,0.11151
1700753589156250,-9.731394,2.64011,0.157726,0.58783,0.75982,0.9651
1700753589164062,-9.750394,2.68011,0.146726,0.51283,0.67482,0.6551
1700753589171875,-9.776394,2.73011,0.155726,0.39183,0.73682,0.1651
1700753589179687,-9.801394,2.76611,0.166726,0.40583,0.72082,0.6451
1700753589187500,-9.792394,2.80111,0.164726,0.13083,0.71782,0.12551
1700753589195312,-9.765394,2.80111,0.166726,0.10183,0.64782,0.3151
1700753589203125,-9.770394,2.77811,0.173726,0.9717,0.74582,0.5951
1700753589210937,-9.762394,2.76611,0.159726,0.20317,0.69082,0.6151
1700753589218750,-9.748394,2.74111,0.171726,0.29417,0.73782,0.1251
1700753589226562,-9.762394,2.71411,0.175726,0.47717,0.70282,0.4251
1700753589234375,-9.775394,2.69211,0.180726,0.59917,0.61482,0.4451
1700753589242187,-9.773394,2.67211,0.173726,0.64517,0.66682,0.5751
1700753589250000,-9.749394,2.65211,0.168726,0.63217,0.70282,0.15251
1700753589257812,-9.760394,2.63411,0.182726,0.67717,0.65082,0.16951
1700753589265625,-9.774394,2.61411,0.173726,0.73917,0.66882,0.21551
1700753589273437,-9.773394,2.57211,0.179726,0.70917,0.63582,0.24851
1700753589281250,-9.761394,2.52511,0.177726,0.70917,0.68682,0.23151
1700753589289062,-9.747394,2.50211,0.175726,0.64917,0.65582,0.27951
1700753589296875,-9.727394,2.48211,0.175726,0.63317,0.58882,0.26551
1700753589304687,-9.733394,2.47311,0.170726,0.64817,0.55482,0.26651
1700753589312500,-9.729394,2.47711,0.182726,0.64817,0.57282,0.23351
1700753589320312,-9.733394,2.46011,0.170726,0.64917,0.50582,0.33051
1700753589328125,-9.761394,2.46711,0.198726,0.63217,0.48882,0.26651
1700753589335937,-9.792394,2.46511,0.211726,0.54117,0.60582,0.21851
1700753589343750,-9.829394,2.48011,0.198726,0.58717,0.65782,0.21551
1700753589351562,-9.865394,2.50611,0.198726,0.57217,0.62382,0.24851
1700753589359375,-9.852394,2.52811,0.205726,0.46417,0.70882,0.16851
1700753589367187,-9.813394,2.53211,0.188726,0.41817,0.73982,0.13751
1700753589375000,-9.807394,2.54311,0.193726,0.41817,0.68882,0.13851
1700753589382812,-9.812394,2.55911,0.180726,0.40317,0.65882,0.17051
1700753589390625,-9.810394,2.58411,0.184726,0.38817,0.72482,0.18551
1700753589398437,-9.798394,2.58611,0.161726,0.37517,0.81082,0.24751
1700753589406250,-9.787394,2.60211,0.159726,0.34317,0.70882,0.23451
1700753589414062,-9.780394,2.62611,0.154726,0.32917,0.76282,0.27951
1700753589421875,-9.758394,2.63811,0.141726,0.39017,0.71382,0.29551
1700753589429687,-9.761394,2.63611,0.143726,0.36017,0.78182,0.31051
1700753589437500,-9.759394,2.65611,0.127726,0.36317,0.77082,0.43551
1700753589445312,-9.763394,2.66211,0.125726,0.42317,0.70282,0.43651
1700753589453125,-9.738394,2.64411,0.132726,0.40817,0.68782,0.46851
1700753589460937,-9.733394,2.64311,0.127726,0.48517,0.71782,0.48451
1700753589468750,-9.743394,2.67711,0.125726,0.60717,0.66882,0.49851
1700753589476562,-9.757394,2.68911,0.125726,0.65317,0.71582,0.48251
1700753589484375,-9.777394,2.68811,0.139726,0.63917,0.75082,0.54551
1700753589492187,-9.763394,2.66911,0.127726,0.68417,0.78382,0.51251
1700753589500000,-9.740394,2.64011,0.114726,0.69917,0.69782,0.53051
1700753589507812,-9.751394,2.59711,0.109726,0.72917,0.68282,0.51351
1700753589515625,-9.742394,2.56811,0.100726,0.86617,0.66182,0.48151
1700753589523437,-9.707394,2.51711,0.88726,0.79017,0.64682,0.49851
1700753589531250,-9.706394,2.48811,0.86726,0.80517,0.64482,0.48351
1700753589539062,-9.736394,2.46411,0.88726,0.89617,0.64382,0.49851
1700753589546875,-9.729394,2.45711,0.93726,0.82017,0.59582,0.48351
1700753589554687,-9.736394,2.45211,0.104726,0.72817,0.56382,0.46851
1700753589562500,-9.774394,2.46411,0.104726,0.69717,0.46282,0.50351
1700753589570312,-9.794394,2.47411,0.111726,0.63617,0.46182,0.48851
1700753589578125,-9.786394,2.50511,0.116726,0.65217,0.51482,0.50251
1700753589585937,-9.791394,2.53111,0.109726,0.63717,0.59882,0.48451
1700753589593750,-9.800394,2.55211,0.102726,0.65217,0.58182,0.50051
1700753589601562,-9.794394,2.58611,0.118726,0.65217,0.54582,0.48751
1700753589609375,-9.748394,2.56011,0.129726,0.63817,0.59882,0.53251
1700753589617187,-9.755394,2.54011,0.127726,0.54817,0.52282,0.66051
1700753589625000,-9.796394,2.58011,0.143726,0.50417,0.51282,0.78651
1700753589632812,-9.853394,2.61711,0.150726,0.56617,0.52782,0.81851
1700753589640625,-9.858394,2.63111,0.157726,0.46217,0.51782,0.97751
1700753589648437,-9.849394,2.65511,0.143726,0.45017,0.57882,0.117951
1700753589656250,-9.877394,2.68211,0.141726,0.40717,0.58582,0.135351
1700753589664062,-9.863394,2.69111,0.130726,0.47117,0.62282,0.147751
1700753589671875,-9.850394,2.68811,0.111726,0.44417,0.73082,0.164951
1700753589679687,-9.843394,2.69311,0.105726,0.41717,0.72182,0.185451
1700753589687500,-9.754394,2.66311,0.86726,0.43417,0.77682,0.196351
1700753589695312,-9.646394,2.57611,0.61726,0.42217,0.78382,0.215251
1700753589703125,-9.609394,2.47311,0.59726,0.40817,0.70382,0.223251
1700753589710937,-9.638394,2.40011,0.56726,0.45417,0.62082,0.226551
1700753589718750,-9.695394,2.34411,0.76726,0.39217,0.53482,0.225251
1700753589726562,-9.727394,2.30811,0.92726,0.39117,0.40282,0.227051
1700753589734375,-9.731394,2.27311,0.90726,0.43617,0.41382,0.219251
1700753589742187,-9.731394,2.23411,0.101726,0.42017,0.31482,0.217751
1700753589750000,-9.739394,2.21011,0.106726,0.43417,0.31082,0.211551
1700753589757812,-9.764394,2.20411,0.126726,0.43217,0.25782,0.202151
1700753589765625,-9.798394,2.18711,0.142726,0.47717,0.32082,0.197351
1700753589773437,-9.834394,2.14411,0.170726,0.46017,0.33482,0.184651
1700753589781250,-9.817394,2.11811,0.156726,0.43017,0.41882,0.186151
1700753589789062,-9.815394,2.8911,0.156726,0.47517,0.34882,0.179851
1700753589796875,-9.835394,2.6011,0.158726,0.49017,0.41682,0.179751
1700753589804687,-9.871394,2.5811,0.178726,0.47717,0.46982,0.187551
1700753589812500,-9.921394,2.7011,0.188726,0.45917,0.41582,0.178151
1700753589820312,-9.949394,2.4411,0.176726,0.43017,0.46482,0.179751
1700753589828125,-9.954394,2.2211,0.178726,0.41617,0.56982,0.187351
1700753589835937,-9.929394,1.97211,0.171726,0.43117,0.62082,0.182451
1700753589843750,-9.909394,1.93011,0.178726,0.43017,0.59782,0.176351
1700753589851562,-9.898394,1.88011,0.174726,0.43017,0.68482,0.174451
1700753589859375,-9.927394,1.84911,0.173726,0.42717,0.62882,0.162051
1700753589867187,-9.965394,1.87711,0.173726,0.42917,0.67782,0.166751
1700753589875000,-9.970394,1.88111,0.160726,0.35017,0.66082,0.154151
1700753589882812,-9.950394,1.88411,0.151726,0.39517,0.72182,0.144551
1700753589890625,-9.913394,1.85611,0.142726,0.42417,0.70482,0.139751
1700753589898437,-9.881394,1.82011,0.130726,0.40717,0.73382,0.128751
1700753589906250,-9.845394,1.80611,0.135726,0.42017,0.71382,0.117651
1700753589914062,-9.838394,1.78111,0.137726,0.40317,0.69382,0.106651
1700753589921875,-9.869394,1.80911,0.148726,0.41817,0.78882,0.98751
1700753589929687,-9.904394,1.81511,0.160726,0.52217,0.75082,0.87651
1700753589937500,-9.958394,1.83211,0.142726,0.52117,0.71382,0.81451
1700753589945312,-9.995394,1.84511,0.126726,0.59917,0.74982,0.87551
1700753589953125,-9.974394,1.86611,0.107726,0.65817,0.80782,0.78051
1700753589960937,-9.902394,1.85211,0.87726,0.59717,0.92582,0.73151
1700753589968750,-9.848394,1.82111,0.73726,0.62717,0.91182,0.71351
1700753589976562,-9.868394,1.81711,0.73726,0.67017,0.85182,0.54251
1700753589984375,-9.875394,1.81711,0.71726,0.63817,0.81782,0.47951
1700753589992187,-9.861394,1.84411,0.73726,0.65317,0.76682,0.49751
1700753590000000,-9.889394,1.88211,0.94726,0.63817,0.70082,0.49851
1700753590007812,-9.943394,1.89211,0.85726,0.65417,0.78282,0.52851
1700753590015625,-9.918394,1.88711,0.89726,0.65317,0.64882,0.51551
1700753590023437,-9.881394,1.86211,0.110726,0.65317,0.73182,0.51451
1700753590031250,-9.904394,1.84511,0.105726,0.63717,0.68182,0.49951
1700753590039062,-9.925394,1.84011,0.101726,0.62317,0.65282,0.54651
1700753590046875,-9.938394,1.84911,0.96726,0.65217,0.68182,0.48351
1700753590054687,-9.945394,1.86311,0.112726,0.65417,0.68582,0.59351
1700753590062500,-9.898394,1.84411,0.107726,0.63917,0.67082,0.60951
1700753590070312,-9.861394,1.83011,0.101726,0.65617,0.68882,0.67151
1700753590078125,-9.923394,1.86011,0.137726,0.74717,0.75282,0.65451
1700753590085937,-9.970394,1.88111,0.139726,0.80817,0.69982,0.63951
1700753590093750,-9.954394,1.85011,0.117726,0.91417,0.71482,0.62251
1700753590101562,-9.945394,1.83611,0.128726,0.88217,0.82882,0.49451
1700753590109375,-9.925394,1.82711,0.105726,0.89917,0.93182,0.53851
1700753590117187,-9.906394,1.80711,0.103726,0.92817,0.82782,0.49451
1700753590125000,-9.899394,1.76811,0.105726,0.95917,0.86282,0.49251
1700753590132812,-9.839394,1.73711,0.91726,0.101917,0.82382,0.47851
1700753590140625,-9.891394,1.73111,0.96726,0.103417,0.80882,0.49351
1700753590148437,-9.959394,1.75211,0.103726,0.114117,0.77082,0.47851
1700753590156250,-9.940394,1.74011,0.71726,0.105017,0.77682,0.49351
1700753590164062,-9.933394,1.73011,0.80726,0.98717,0.84182,0.38151
1700753590171875,-9.871394,1.69011,0.62726,0.104817,0.87182,0.34951
1700753590179687,-9.825394,1.66911,0.52726,0.98717,0.83982,0.36651
1700753590187500,-9.839394,1.65111,0.71726,0.107717,0.75282,0.35251
1700753590195312,-9.906394,1.66611,0.66726,0.109117,0.76482,0.27451
1700753590203125,-9.913394,1.66411,0.66726,0.103017,0.73082,0.27551
1700753590210937,-9.879394,1.64111,0.68726,0.101417,0.67982,0.22951
1700753590218750,-9.908394,1.66911,0.86726,0.98317,0.66282,0.21451
1700753590226562,-9.886394,1.66411,0.68726,0.92317,0.64782,0.24651
1700753590234375,-9.881394,1.63511,0.68726,0.83017,0.69782,0.18351
1700753590242187,-9.931394,1.63511,0.82726,0.82917,0.71282,0.7151
1700753590250000,-9.904394,1.61911,0.80726,0.85717,0.67482,0.2149
1700753590257812,-9.865394,1.59711,0.79726,0.73417,0.65782,0.8349
1700753590265625,-9.919394,1.61111,0.86726,0.70317,0.63982,0.13049
1700753590273437,-9.947394,1.64211,0.96726,0.76117,0.61682,0.27249
1700753590281250,-9.911394,1.66211,0.89726,0.69917,0.66282,0.38149
1700753590289062,-9.891394,1.66611,0.91726,0.74217,0.65982,0.49349
1700753590296875,-9.927394,1.69511,0.73726,0.74317,0.82582,0.52849
1700753590304687,-9.921394,1.72911,0.66726,0.77317,0.77482,0.51149
1700753590312500,-9.919394,1.75311,0.64726,0.81917,0.85782,0.52949
1700753590320312,-9.980394,1.80111,0.43726,0.88117,0.93982,0.53149
1700753590328125,-10.33394,1.83311,0.21726,0.80617,0.102682,0.50149
1700753590335937,-10.33394,1.86611,0.5726,0.77617,0.111282,0.47149
1700753590343750,-9.936394,1.84711,0.6274,0.79117,0.111182,0.47049
1700753590351562,-9.876394,1.80211,0.0,0.82217,0.106382,0.42349
1700753590359375,-9.870394,1.79911,0.6274,0.71817,0.103682,0.29649
1700753590367187,-9.867394,1.79711,0.1274,0.64217,0.95482,0.24649
1700753590375000,-9.892394,1.81111,0.0,0.64417,0.82682,0.8649
1700753590382812,-9.933394,1.84511,0.24274,0.64417,0.74482,0.2149
1700753590390625,-9.959394,1.89911,0.40274,0.64717,0.80182,0.11951
1700753590398437,-9.942394,1.95611,0.19274,0.64817,0.75582,0.18151
1700753590406250,-9.835394,1.89911,0.46274,0.63517,0.76082,0.30751
1700753590414062,-9.800394,1.86711,0.58274,0.65017,0.64382,0.37451
1700753590421875,-9.928394,1.92511,0.42274,0.63617,0.61082,0.43851
1700753590429687,-10.47394,1.99511,0.26274,0.75917,0.64582,0.49951
1700753590437500,-9.958394,1.99911,0.33274,0.77517,0.74582,0.49751
1700753590445312,-9.817394,1.89411,0.81274,0.86817,0.74882,0.59051
1700753590453125,-9.855394,1.88711,0.49274,0.88317,0.69982,0.59051
1700753590460937,-9.907394,1.88911,0.44274,0.94417,0.68082,0.60751
1700753590468750,-9.818394,1.82111,0.67274,0.101917,0.65882,0.54451
1700753590476562,-9.783394,1.76711,0.44274,0.98717,0.58982,0.48351
1700753590484375,-9.883394,1.76611,0.19274,0.115417,0.55082,0.43551
1700753590492187,-9.978394,1.77211,0.31274,0.112117,0.61282,0.29351
1700753590500000,-9.978394,1.73811,0.22274,0.113717,0.69782,0.27451
1700753590507812,-9.986394,1.70511,0.22274,0.112217,0.76582,0.30451
1700753590515625,-10.38394,1.70811,0.6274,0.113917,0.76682,0.36851
1700753590523437,-10.20394,1.68311,0.22274,0.112317,0.71682,0.36951
1700753590531250,-10.28394,1.63011,0.20274,0.100317,0.82282,0.43151
1700753590539062,-10.32394,1.61011,0.13274,0.97317,0.80782,0.47851
1700753590546875,-9.941394,1.56411,0.43274,0.95817,0.79182,0.49551
1700753590554687,-9.902394,1.54411,0.31274,0.88117,0.75882,0.44951
1700753590562500,-9.897394,1.53311,0.15274,0.65217,0.80982,0.38751
1700753590570312,-9.884394,1.53511,0.20274,0.63617,0.77582,0.35651
1700753590578125,-9.894394,1.53411,0.20274,0.64917,0.75882,0.26051
1700753590585937,-9.966394,1.57511,0.6274,0.61717,0.77182,0.18251
1700753590593750,-10.67394,1.63411,0.21726,0.52517,0.77282,0.13551
1700753590601562,-10.90394,1.65011,0.14726,0.54117,0.82482,0.14851
1700753590609375,-10.76394,1.66611,0.23726,0.43417,0.87482,0.13451
1700753590617187,-10.27394,1.66311,0.32726,0.39017,0.102782,0.14651
1700753590625000,-9.974394,1.64211,0.16726,0.40517,0.106182,0.12951
1700753590632812,-10.15394,1.66811,0.1274,0.40517,0.107482,0.14651
1700753590640625,-9.968394,1.69811,0.65274,0.38817,0.118982,0.2949
1700753590648437,-9.880394,1.71211,0.110274,0.47817,0.126982,0.11149
1700753590656250,-9.910394,1.76611,0.85274,0.59817,0.129682,0.23949
1700753590664062,-9.927394,1.80211,0.119274,0.64317,0.127582,0.28549
1700753590671875,-9.892394,1.77711,0.142274,0.62717,0.137582,0.33549
1700753590679687,-9.880394,1.77211,0.161274,0.68717,0.141782,0.46149
1700753590687500,-9.954394,1.81611,0.183274,0.74517,0.127982,0.53749
1700753590695312,-9.886394,1.81911,0.233274,0.86817,0.132982,0.50949
1700753590703125,-9.768394,1.77911,0.249274,0.83717,0.126282,0.52349
1700753590710937,-9.826394,1.79411,0.195274,0.91317,0.120782,0.53749
1700753590718750,-9.944394,1.81311,0.174274,0.85217,0.114382,0.50449
1700753590726562,-9.932394,1.74411,0.195274,0.76217,0.109882,0.39249
1700753590734375,-9.866394,1.72711,0.202274,0.70317,0.122182,0.33249
1700753590742187,-9.929394,1.79711,0.183274,0.84017,0.106982,0.26649
1700753590750000,-9.973394,1.80911,0.220274,0.73517,0.100682,0.16949
1700753590757812,-9.855394,1.76311,0.259274,0.66017,0.102782,0.10649
1700753590765625,-9.760394,1.72611,0.288274,0.64417,0.101182,0.12249
1700753590773437,-9.855394,1.76611,0.295274,0.69017,0.85982,0.5549
1700753590781250,-9.960394,1.78211,0.299274,0.65917,0.72882,0.5349
1700753590789062,-9.978394,1.77311,0.272274,0.62717,0.70982,0.11549
1700753590796875,-9.909394,1.76211,0.261274,0.64217,0.63882,0.14449
1700753590804687,-9.860394,1.75611,0.263274,0.62817,0.69382,0.6749
1700753590812500,-9.762394,1.70111,0.291274,0.58217,0.52882,0.3249
1700753590820312,-9.787394,1.72611,0.252274,0.62817,0.52882,0.149
1700753590828125,-9.976394,1.79611,0.197274,0.64317,0.34582,0.4951
1700753590835937,-10.46394,1.80811,0.226274,0.64517,0.38282,0.14351
1700753590843750,-9.979394,1.78211,0.206274,0.63117,0.50482,0.18651
1700753590851562,-9.956394,1.79511,0.174274,0.64717,0.48882,0.21851
1700753590859375,-9.874394,1.78611,0.188274,0.67717,0.50282,0.21951
1700753590867187,-9.767394,1.73011,0.174274,0.63217,0.48782,0.23551
1700753590875000,-9.835394,1.77411,0.115274,0.67817,0.50282,0.25151
1700753590882812,-9.954394,1.84411,0.110274,0.72317,0.55182,0.20151
1700753590890625,-9.899394,1.81911,0.156274,0.70717,0.66482,0.8951
1700753590898437,-9.813394,1.75811,0.160274,0.75117,0.79482,0.5549
1700753590906250,-9.789394,1.75111,0.193274,0.71817,0.75482,0.14749
1700753590914062,-9.758394,1.76411,0.208274,0.80917,0.70182,0.17949
1700753590921875,-9.724394,1.75711,0.227274,0.76217,0.68382,0.25749
1700753590929687,-9.801394,1.76911,0.211274,0.76117,0.56582,0.28649
1700753590937500,-9.888394,1.80811,0.206274,0.86617,0.61082,0.39949
1700753590945312,-9.922394,1.78111,0.199274,0.74417,0.64782,0.38349
1700753590953125,-9.940394,1.75411,0.185274,0.71417,0.63282,0.38349
1700753590960937,-9.987394,1.76911,0.174274,0.66717,0.64782,0.41449
1700753590968750,-10.5394,1.76911,0.158274,0.63917,0.65082,0.31949
1700753590976562,-9.989394,1.74511,0.161274,0.62417,0.71782,0.31949
1700753590984375,-10.34394,1.75211,0.122274,0.64117,0.77182,0.22749
1700753590992187,-10.98394,1.77511,0.87274,0.67417,0.82782,0.11849
1700753591000000,-10.91394,1.78011,0.81274,0.68917,0.94182,0.12049
1700753591007812,-10.4394,1.72711,0.108274,0.64517,0.102882,0.9049
1700753591015625,-9.977394,1.73611,0.158274,0.64617,0.99582,0.1049
1700753591023437,-10.5394,1.77711,0.211274,0.63317,0.88582,0.14951
1700753591031250,-9.908394,1.77711,0.268274,0.64917,0.95582,0.19451
1700753591039062,-9.833394,1.79811,0.267274,0.63617,0.97982,0.33551
1700753591046875,-9.880394,1.87711,0.265274,0.72817,0.87782,0.38451
1700753591054687,-9.827394,1.88711,0.347274,0.83417,0.84082,0.36851
1700753591062500,-9.721394,1.87411,0.402274,0.86717,0.87882,0.46151
1700753591070312,-9.614394,1.83111,0.413274,0.87817,0.73582,0.27651
1700753591078125,-9.515394,1.72911,0.448274,0.85817,0.62682,0.5851
1700753591085937,-9.589394,1.70811,0.409274,0.86817,0.43082,0.20549
1700753591093750,-9.751394,1.75011,0.354274,0.100117,0.25382,0.39249
1700753591101562,-9.789394,1.74711,0.347274,0.102817,0.21182,0.54749
1700753591109375,-9.821394,1.75611,0.309274,0.107317,0.25682,0.65949
1700753591117187,-9.892394,1.79711,0.277274,0.116217,0.20182,0.75349
1700753591125000,-9.953394,1.81611,0.256274,0.117617,0.9882,0.78249
1700753591132812,-10.4394,1.82711,0.217274,0.128317,0.23182,0.81849
1700753591140625,-10.56394,1.87711,0.194274,0.122317,0.21482,0.78549
1700753591148437,-10.32394,1.88511,0.240274,0.131617,0.20482,0.67749
1700753591156250,-9.948394,1.86911,0.265274,0.125717,0.20882,0.55049
1700753591164062,-9.864394,1.87411,0.281274,0.127317,0.22782,0.52049
1700753591171875,-9.787394,1.86711,0.329274,0.119917,0.28182,0.40949
1700753591179687,-9.746394,1.87011,0.365274,0.113917,0.10582,0.26449
1700753591187500,-9.725394,1.85911,0.361274,0.110917,0.2918,0.22849
1700753591195312,-9.739394,1.84611,0.347274,0.114117,0.15918,0.8449
1700753591203125,-9.732394,1.81011,0.361274,0.95817,0.33618,0.3349
1700753591210937,-9.689394,1.80711,0.338274,0.88417,0.38018,0.12651
1700753591218750,-9.795394,1.82711,0.252274,0.79217,0.59518,0.17951
1700753591226562,-9.888394,1.83011,0.224274,0.64117,0.60418,0.25851
1700753591234375,-9.897394,1.81911,0.236274,0.65817,0.65218,0.38551
1700753591242187,-9.919394,1.80611,0.217274,0.62817,0.68318,0.45051
1700753591250000,-9.940394,1.83211,0.179274,0.62917,0.63218,0.49651
1700753591257812,-9.965394,1.82611,0.151274,0.64517,0.54418,0.50951
1700753591265625,-9.963394,1.79811,0.138274,0.53917,0.54118,0.54151
1700753591273437,-9.978394,1.82511,0.104274,0.44917,0.47218,0.60451
1700753591281250,-10.24394,1.84411,0.81274,0.40417,0.40318,0.61851
1700753591289062,-9.981394,1.80911,0.85274,0.33117,0.35918,0.79051
1700753591296875,-9.905394,1.74811,0.60274,0.19517,0.28818,0.82151
1700753591304687,-9.837394,1.69611,0.60274,0.12017,0.21818,0.85251
1700753591312500,-9.808394,1.61811,0.84274,0.4883,0.26918,0.80851
1700753591320312,-9.819394,1.56011,0.65274,0.9583,0.23618,0.72851
1700753591328125,-9.879394,1.51011,0.70274,0.32583,0.28318,0.66851
1700753591335937,-9.926394,1.45711,0.70274,0.54083,0.15218,0.54251
1700753591343750,-9.858394,1.34811,0.82274,0.95283,0.518,0.47551
1700753591351562,-9.797394,1.18411,0.52274,0.138183,0.3618,0.30551
1700753591359375,-9.846394,1.2711,0.3274,0.188783,0.23318,0.21951
1700753591367187,-9.919394,0.91511,0.32726,0.250083,0.22818,0.5151
1700753591375000,-9.939394,0.89111,0.89726,0.314083,0.11518,0.1049
1700753591382812,-9.919394,0.92911,0.137726,0.381283,0.4482,0.11849
1700753591390625,-9.882394,1.811,0.172726,0.446783,0.6282,0.8449
1700753591398437,-9.869394,1.7611,0.194726,0.515283,0.15982,0.6449
1700753591406250,-9.920394,1.16811,0.243726,0.573183,0.17282,0.4649
1700753591414062,-10.10394,1.29411,0.252726,0.615783,0.28482,0.1449
1700753591421875,-10.35394,1.45911,0.250726,0.652283,0.47482,0.6249
1700753591429687,-9.957394,1.57611,0.228726,0.678283,0.64582,0.15949
1700753591437500,-9.879394,1.69311,0.191726,0.693683,0.69482,0.25349
1700753591445312,-9.838394,1.82811,0.141726,0.693883,0.69082,0.37949
1700753591453125,-9.806394,1.91211,0.99726,0.686283,0.87282,0.47949
1700753591460937,-9.795394,1.99511,0.71726,0.671283,0.90982,0.65349
1700753591468750,-9.804394,2.6711,0.42726,0.642483,0.90582,0.73649
1700753591476562,-9.865394,2.16011,0.6726,0.610483,0.92882,0.72149
1700753591484375,-9.944394,2.24311,0.45274,0.581583,0.88982,0.73849
1700753591492187,-9.969394,2.29111,0.107274,0.544983,0.91382,0.74049
1700753591500000,-9.909394,2.35911,0.118274,0.494683,0.75382,0.69349
1700753591507812,-9.893394,2.40811,0.111274,0.447283,0.72782,0.63249
1700753591515625,-9.877394,2.41011,0.114274,0.398383,0.73782,0.52549
1700753591523437,-9.882394,2.39211,0.105274,0.361783,0.61682,0.47949
1700753591531250,-9.852394,2.34511,0.91274,0.312783,0.42782,0.32049
1700753591539062,-9.856394,2.34111,0.59274,0.254783,0.23182,0.22549
1700753591546875,-9.843394,2.34911,0.68274,0.219583,0.8382,0.3649
1700753591554687,-9.752394,2.33411,0.80274,0.165983,0.982,0.11951
1700753591562500,-9.723394,2.34111,0.14274,0.117183,0.18318,0.19951
1700753591570312,-9.800394,2.34211,0.11726,0.71283,0.40418,0.35751
1700753591578125,-9.919394,2.31711,0.40726,0.19383,0.56518,0.46951
1700753591585937,-10.14394,2.30511,0.88726,0.18917,0.45218,0.52651
1700753591593750,-10.75394,2.26811,0.129726,0.69217,0.44618,0.50751
1700753591601562,-10.131394,2.20911,0.170726,0.105817,0.43818,0.52151
1700753591609375,-10.150394,2.12411,0.195726,0.143917,0.31018,0.49951
1700753591617187,-10.126394,2.1911,0.219726,0.173017,0.31418,0.57651
1700753591625000,-10.1394,1.94211,0.251726,0.203717,0.13518,0.58651
1700753591632812,-9.886394,1.83511,0.244726,0.214417,0.10118,0.59951
1700753591640625,-9.853394,1.77811,0.255726,0.228117,0.9018,0.58351
1700753591648437,-9.855394,1.74411,0.257726,0.246217,0.6418,0.48751
1700753591656250,-9.866394,1.71111,0.291726,0.250817,0.11518,0.50451
1700753591664062,-9.927394,1.66511,0.287726,0.253817,0.20118,0.49051
1700753591671875,-9.981394,1.63211,0.301726,0.258417,0.11518,0.50351
1700753591679687,-9.960394,1.60111,0.305726,0.247817,0.3118,0.48751
1700753591687500,-9.917394,1.56811,0.310726,0.252317,0.7918,0.50251
1700753591695312,-9.959394,1.53611,0.294726,0.250817,0.382,0.48551
1700753591703125,-10.394,1.55511,0.312726,0.249317,0.8218,0.50351
1700753591710937,-10.7394,1.56311,0.323726,0.240017,0.2918,0.42351
1700753591718750,-9.997394,1.55911,0.312726,0.224817,0.3018,0.42651
1700753591726562,-9.986394,1.53211,0.287726,0.221817,0.7282,0.40751
1700753591734375,-9.952394,1.52411,0.289726,0.210817,0.10482,0.24951
1700753591742187,-9.936394,1.51111,0.300726,0.210917,0.11882,0.24951
1700753591750000,-9.909394,1.48911,0.307726,0.194017,0.2182,0.23751
1700753591757812,-9.908394,1.46911,0.314726,0.186317,0.2082,0.20651
1700753591765625,-9.926394,1.46711,0.321726,0.171017,0.2718,0.16151
1700753591773437,-9.938394,1.49111,0.319726,0.158817,0.7782,0.14251
1700753591781250,-9.939394,1.52411,0.328726,0.161917,0.14482,0.15751
1700753591789062,-9.982394,1.54511,0.319726,0.158917,0.22782,0.14051
1700753591796875,-9.982394,1.56011,0.328726,0.140717,0.30082,0.13951
1700753591804687,-9.973394,1.56311,0.344726,0.134517,0.31482,0.9251
1700753591812500,-9.962394,1.57011,0.355726,0.136117,0.41582,0.13851
1700753591820312,-9.914394,1.56411,0.346726,0.124017,0.48882,0.15251
1700753591828125,-9.916394,1.53611,0.330726,0.111817,0.52282,0.15351
1700753591835937,-9.930394,1.53811,0.309726,0.113517,0.57582,0.21551
1700753591843750,-9.908394,1.55011,0.282726,0.110417,0.57882,0.18251
1700753591851562,-9.890394,1.55211,0.273726,0.102917,0.66582,0.19651
1700753591859375,-9.935394,1.55111,0.255726,0.109017,0.66282,0.21251
1700753591867187,-9.975394,1.54911,0.248726,0.104417,0.64682,0.21351
1700753591875000,-9.955394,1.55311,0.200726,0.112117,0.63182,0.24351
1700753591882812,-9.916394,1.57111,0.175726,0.111917,0.65882,0.16651
1700753591890625,-9.892394,1.60211,0.164726,0.110417,0.65682,0.13551
1700753591898437,-9.867394,1.58611,0.139726,0.113317,0.68782,0.7151
1700753591906250,-9.903394,1.59911,0.152726,0.111717,0.60382,0.2451
1700753591914062,-9.926394,1.59611,0.168726,0.113017,0.48182,0.3449
1700753591921875,-9.917394,1.59311,0.180726,0.113017,0.56482,0.6849
1700753591929687,-9.928394,1.58611,0.184726,0.112917,0.48182,0.9849
1700753591937500,-9.932394,1.59811,0.191726,0.112717,0.44182,0.20649
1700753591945312,-9.906394,1.59711,0.175726,0.112617,0.35782,0.25349
1700753591953125,-9.840394,1.55111,0.173726,0.112517,0.42382,0.30249
1700753591960937,-9.853394,1.55011,0.182726,0.112517,0.37182,0.30049
1700753591968750,-9.905394,1.53711,0.175726,0.112417,0.40282,0.36349
1700753591976562,-9.876394,1.49811,0.175726,0.112317,0.32182,0.38049
1700753591984375,-9.921394,1.50811,0.177726,0.112417,0.28782,0.34749
1700753591992187,-10.25394,1.58111,0.166726,0.112417,0.36982,0.34749
1700753592000000,-10.1394,1.63211,0.146726,0.112417,0.35582,0.33249
1700753592007812,-9.960394,1.61411,0.146726,0.111017,0.38782,0.28449
1700753592015625,-9.974394,1.59611,0.152726,0.107817,0.43782,0.39649
1700753592023437,-9.957394,1.58011,0.141726,0.115517,0.38582,0.34749
1700753592031250,-9.917394,1.55711,0.152726,0.112617,0.35982,0.22249
1700753592039062,-9.925394,1.57611,0.173726,0.108017,0.25582,0.24949
1700753592046875,-10.5394,1.60111,0.180726,0.92817,0.16382,0.15349
1700753592054687,-10.51394,1.60611,0.182726,0.88417,0.8482,0.4149
1700753592062500,-10.68394,1.60911,0.202726,0.88617,0.6982,0.8651
1700753592070312,-10.62394,1.61011,0.210726,0.88717,0.2218,0.21251
1700753592078125,-10.10394,1.61211,0.212726,0.87417,0.5118,0.35551
1700753592085937,-9.941394,1.58711,0.202726,0.64717,0.6118,0.45251
1700753592093750,-9.905394,1.55011,0.187726,0.66317,0.17418,0.51651
1700753592101562,-9.921394,1.53911,0.184726,0.64817,0.14018,0.51651
1700753592109375,-9.966394,1.55811,0.175726,0.69417,0.27418,0.56551
1700753592117187,-9.984394,1.57611,0.177726,0.64917,0.30618,0.63051
1700753592125000,-9.960394,1.57311,0.171726,0.65117,0.23418,0.70751
1700753592132812,-9.964394,1.55811,0.161726,0.69517,0.32118,0.67751
1700753592140625,-9.955394,1.53611,0.164726,0.65117,0.30118,0.75651
1700753592148437,-9.972394,1.50211,0.175726,0.65117,0.31618,0.77251
1700753592156250,-9.979394,1.48911,0.202726,0.63617,0.33318,0.75651
1700753592164062,-9.977394,1.47611,0.232726,0.65117,0.40018,0.78951
1700753592171875,-9.969394,1.44911,0.250726,0.62117,0.38418,0.79051
1700753592179687,-9.955394,1.39311,0.248726,0.46717,0.41618,0.72851
1700753592187500,-9.982394,1.35811,0.250726,0.42017,0.41718,0.66551
1700753592195312,-10.8394,1.31811,0.247726,0.38917,0.33518,0.61751
1700753592203125,-10.12394,1.27911,0.249726,0.37317,0.34018,0.52451
1700753592210937,-10.24394,1.25811,0.247726,0.19017,0.21518,0.52151
1700753592218750,-10.32394,1.25411,0.250726,0.14417,0.28318,0.49151
1700753592226562,-10.41394,1.22711,0.252726,0.14317,0.20218,0.41051
1700753592234375,-10.48394,1.21811,0.272726,0.8583,0.31518,0.44651
1700753592242187,-10.45394,1.22111,0.295726,0.8483,0.29718,0.47851
1700753592250000,-9.998394,1.21611,0.313726,0.16183,0.36118,0.49551
1700753592257812,-9.951394,1.20111,0.318726,0.34383,0.32118,0.52651
1700753592265625,-9.926394,1.23211,0.347726,0.32983,0.52418,0.51551
1700753592273437,-9.860394,1.25211,0.372726,0.32983,0.51118,0.48451
1700753592281250,-9.838394,1.27111,0.391726,0.36283,0.51118,0.38951
1700753592289062,-9.820394,1.30311,0.427726,0.48583,0.51418,0.28051
1700753592296875,-9.825394,1.32311,0.446726,0.42783,0.55418,0.13951
1700753592304687,-9.834394,1.33911,0.461726,0.38283,0.52518,0.5951
1700753592312500,-9.864394,1.37911,0.482726,0.38483,0.41218,0.5249
1700753592320312,-9.878394,1.44011,0.496726,0.18883,0.42118,0.17949
1700753592328125,-9.907394,1.48611,0.526726,0.9683,0.30418,0.19949
1700753592335937,-9.918394,1.52111,0.532726,0.2383,0.24918,0.40449
1700753592343750,-9.950394,1.53811,0.544726,0.12817,0.13418,0.47249
1700753592351562,-9.991394,1.53011,0.544726,0.22017,0.5118,0.49149
1700753592359375,-10.29394,1.52411,0.539726,0.55517,0.7718,0.49249
1700753592367187,-10.50394,1.55011,0.540726,0.61617,0.6018,0.50949
1700753592375000,-10.53394,1.55711,0.526726,0.72417,0.8982,0.45049
1700753592382812,-10.25394,1.55911,0.510726,0.84917,0.20782,0.35849
1700753592390625,-9.996394,1.55411,0.503726,0.97017,0.15482,0.39049
1700753592398437,-9.953394,1.53411,0.469726,0.112217,0.16682,0.40649
1700753592406250,-9.914394,1.52211,0.466726,0.115317,0.8382,0.34149
1700753592414062,-9.910394,1.53311,0.469726,0.126117,0.1882,0.27949
1700753592421875,-9.942394,1.55111,0.467726,0.138117,0.5218,0.34249
1700753592429687,-9.942394,1.55311,0.485726,0.147117,0.7418,0.40449
1700753592437500,-9.922394,1.56211,0.499726,0.150217,0.12318,0.38849
1700753592445312,-9.924394,1.55911,0.506726,0.159117,0.22918,0.46649
1700753592453125,-9.920394,1.58211,0.540726,0.162117,0.26518,0.49649
1700753592460937,-9.889394,1.60611,0.544726,0.160617,0.14818,0.54649
1700753592468750,-9.866394,1.61511,0.560726,0.161817,0.32318,0.65249
1700753592476562,-9.854394,1.60811,0.572726,0.170817,0.27718,0.74849
1700753592484375,-9.834394,1.61611,0.581726,0.173717,0.26318,0.82849
1700753592492187,-9.807394,1.63011,0.606726,0.176717,0.35118,0.85749
1700753592500000,-9.770394,1.63611,0.628726,0.186017,0.20118,0.81349
1700753592507812,-9.810394,1.65611,0.670726,0.182817,0.33518,0.87449
1700753592515625,-9.837394,1.68811,0.688726,0.184317,0.26818,0.87549
1700753592523437,-9.836394,1.70311,0.711726,0.184217,0.35018,0.89049
1700753592531250,-9.863394,1.71411,0.731726,0.178317,0.21218,0.84649
1700753592539062,-9.875394,1.74211,0.745726,0.158317,0.31218,0.92149
1700753592546875,-9.878394,1.76111,0.757726,0.162917,0.21218,0.95649
1700753592554687,-9.873394,1.77411,0.759726,0.162917,0.6118,0.97549
1700753592562500,-9.919394,1.80211,0.768726,0.158417,0.2618,0.96049
1700753592570312,-9.946394,1.83011,0.761726,0.166217,0.13582,0.94549
1700753592578125,-9.917394,1.85611,0.754726,0.160017,0.20282,0.101049
1700753592585937,-9.916394,1.83211,0.747726,0.160117,0.22182,0.93149
1700753592593750,-9.898394,1.83411,0.718726,0.158717,0.24182,0.88549
1700753592601562,-9.881394,1.82811,0.688726,0.154117,0.32082,0.89949
1700753592609375,-9.859394,1.82911,0.674726,0.155817,0.47582,0.90449
1700753592617187,-9.838394,1.82111,0.658726,0.139017,0.40982,0.88549
1700753592625000,-9.843394,1.82711,0.656726,0.134617,0.36682,0.75849
1700753592632812,-9.869394,1.82711,0.652726,0.117817,0.35582,0.77449
1700753592640625,-9.859394,1.84011,0.640726,0.111717,0.27282,0.72449
1700753592648437,-9.799394,1.84811,0.631726,0.107317,0.37782,0.67949
1700753592656250,-9.778394,1.85511,0.638726,0.96817,0.36482,0.58249
1700753592664062,-9.835394,1.88011,0.638726,0.87717,0.36782,0.53549
1700753592671875,-9.874394,1.92011,0.631726,0.84717,0.40582,0.50549
1700753592679687,-9.865394,1.94111,0.616726,0.77217,0.45882,0.45849
1700753592687500,-9.829394,1.94211,0.611726,0.63617,0.46282,0.42549
1700753592695312,-9.788394,1.94911,0.590726,0.68217,0.47882,0.41049
1700753592703125,-9.738394,1.91711,0.586726,0.69517,0.42382,0.48749
1700753592710937,-9.719394,1.88611,0.579726,0.66517,0.30782,0.45349
1700753592718750,-9.746394,1.87311,0.585726,0.71017,0.23782,0.46749
1700753592726562,-9.801394,1.89811,0.586726,0.75617,0.17282,0.40349
1700753592734375,-9.819394,1.92011,0.590726,0.75717,0.22482,0.37349
1700753592742187,-9.851394,1.92711,0.606726,0.81817,0.14282,0.34149
1700753592750000,-9.881394,1.92511,0.599726,0.77317,0.14482,0.29349
1700753592757812,-9.881394,1.93411,0.606726,0.79017,0.18082,0.21549
1700753592765625,-9.862394,1.92811,0.615726,0.80717,0.13282,0.10349
1700753592773437,-9.824394,1.90911,0.615726,0.76217,0.26982,0.12349
1700753592781250,-9.792394,1.89311,0.618726,0.88417,0.21882,0.9149
1700753592789062,-9.792394,1.88411,0.624726,0.83817,0.23582,0.10749
1700753592796875,-9.780394,1.89611,0.640726,0.85217,0.16482,0.13649
1700753592804687,-9.779394,1.89011,0.647726,0.85217,0.15182,0.12249
1700753592812500,-9.810394,1.89111,0.659726,0.88317,0.14982,0.10549
1700753592820312,-9.849394,1.89111,0.672726,0.88317,0.19982,0.15449
1700753592828125,-9.874394,1.92011,0.675726,0.89817,0.16882,0.12349
1700753592835937,-9.879394,1.91811,0.691726,0.99017,0.29882,0.14149
1700753592843750,-9.910394,1.91011,0.688726,0.99017,0.24982,0.10949
1700753592851562,-9.919394,1.89511,0.686726,0.102217,0.31582,0.9449
1700753592859375,-9.942394,1.89711,0.698726,0.114317,0.34782,0.11249
1700753592867187,-9.948394,1.88411,0.700726,0.111417,0.43182,0.8149
1700753592875000,-9.937394,1.88211,0.691726,0.113017,0.44982,0.3449
1700753592882812,-9.939394,1.87711,0.693726,0.111317,0.43182,0.11349
1700753592890625,-9.948394,1.86411,0.686726,0.112917,0.48082,0.8249
1700753592898437,-9.941394,1.86011,0.684726,0.114517,0.46482,0.5049
1700753592906250,-9.921394,1.85011,0.686726,0.114517,0.48282,0.8349
1700753592914062,-9.891394,1.84111,0.681726,0.117517,0.46382,0.8249
1700753592921875,-9.873394,1.83411,0.674726,0.113117,0.48482,0.449
1700753592929687,-9.875394,1.81611,0.690726,0.114517,0.46582,0.8349
1700753592937500,-9.861394,1.79311,0.684726,0.114617,0.50282,0.549
1700753592945312,-9.807394,1.79311,0.684726,0.114717,0.55382,0.951
1700753592953125,-9.848394,1.81111,0.688726,0.113117,0.50282,0.1151
1700753592960937,-9.929394,1.85111,0.684726,0.111717,0.57182,0.7351
1700753592968750,-9.914394,1.87711,0.663726,0.114817,0.65682,0.7051
1700753592976562,-9.876394,1.89011,0.652726,0.113417,0.69082,0.11751
1700753592984375,-9.876394,1.88911,0.650726,0.121017,0.74082,0.8351
1700753592992187,-9.868394,1.85211,0.617726,0.122417,0.76782,0.1049
1700753593000000,-9.859394,1.83211,0.608726,0.133017,0.68082,0.2449
1700753593007812,-9.872394,1.82811,0.597726,0.134517,0.67982,0.2449
1700753593015625,-9.879394,1.83011,0.588726,0.140617,0.66282,0.949
1700753593023437,-9.883394,1.81411,0.574726,0.140617,0.64582,0.751
1700753593031250,-9.931394,1.80611,0.579726,0.136017,0.54682,0.649
1700753593039062,-9.961394,1.81011,0.577726,0.140817,0.53582,0.11851
1700753593046875,-9.959394,1.85511,0.581726,0.151417,0.44982,0.13551
1700753593054687,-9.964394,1.90811,0.561726,0.154417,0.44682,0.8851
1700753593062500,-9.936394,2.1311,0.518726,0.169617,0.52682,0.6951
1700753593070312,-9.872394,2.16611,0.454726,0.203017,0.41482,0.751
1700753593078125,-9.822394,2.28711,0.423726,0.230317,0.34082,0.5649
1700753593085937,-9.766394,2.30611,0.418726,0.255917,0.41282,0.24849
1700753593093750,-9.687394,2.21911,0.438726,0.289317,0.20182,0.24549
1700753593101562,-9.656394,2.9111,0.459726,0.315317,0.9982,0.16749
1700753593109375,-9.673394,2.2511,0.499726,0.345817,0.10818,0.11649
1700753593117187,-9.719394,2.3011,0.536726,0.368717,0.26018,0.2049
1700753593125000,-9.740394,2.5911,0.541726,0.382717,0.33918,0.18451
1700753593132812,-9.763394,2.6411,0.570726,0.398117,0.37218,0.26251
1700753593140625,-9.805394,2.3611,0.618726,0.415017,0.50618,0.37551
1700753593148437,-9.841394,1.97811,0.659726,0.433417,0.60518,0.50151
1700753593156250,-9.865394,1.91211,0.704726,0.441117,0.47418,0.48251
1700753593164062,-9.873394,1.88111,0.736726,0.451817,0.32618,0.47951
1700753593171875,-9.873394,1.85411,0.761726,0.455017,0.33918,0.54151
1700753593179687,-9.890394,1.82811,0.784726,0.453517,0.37418,0.57551
1700753593187500,-9.893394,1.80511,0.802726,0.448917,0.32218,0.52551
1700753593195312,-9.905394,1.77311,0.820726,0.441417,0.13818,0.57151
1700753593203125,-9.889394,1.74211,0.827726,0.429117,0.13718,0.47751
1700753593210937,-9.875394,1.70311,0.827726,0.407817,0.11518,0.49451
1700753593218750,-9.866394,1.65411,0.815726,0.401717,0.1882,0.44451
1700753593226562,-9.870394,1.62011,0.795726,0.384917,0.17282,0.37851
1700753593234375,-9.869394,1.58111,0.799726,0.362017,0.19282,0.38051
1700753593242187,-9.896394,1.53611,0.772726,0.349917,0.34482,0.33051
1700753593250000,-9.919394,1.52211,0.763726,0.320817,0.41982,0.24951
1700753593257812,-9.932394,1.50511,0.763726,0.290417,0.45982,0.28351
1700753593265625,-9.929394,1.48811,0.753726,0.265917,0.44482,0.25551
1700753593273437,-9.918394,1.46711,0.744726,0.235617,0.47182,0.33451
1700753593281250,-9.920394,1.45611,0.728726,0.206817,0.44582,0.41651
1700753593289062,-9.938394,1.44511,0.710726,0.182517,0.57182,0.43051
1700753593296875,-9.940394,1.46011,0.710726,0.152017,0.64482,0.41451
1700753593304687,-9.920394,1.46511,0.696726,0.117017,0.66882,0.44951
1700753593312500,-9.922394,1.46311,0.685726,0.92517,0.70382,0.37151
1700753593320312,-9.918394,1.48911,0.651726,0.65117,0.74782,0.40251
1700753593328125,-9.903394,1.52911,0.642726,0.55717,0.77582,0.22951
1700753593335937,-9.877394,1.57911,0.622726,0.38917,0.84582,0.16551
1700753593343750,-9.857394,1.62411,0.610726,0.17417,0.73182,0.13751
1700753593351562,-9.868394,1.65811,0.587726,0.6617,0.81182,0.4351
1700753593359375,-9.873394,1.69411,0.594726,0.7083,0.74582,0.3051
1700753593367187,-9.894394,1.73611,0.574726,0.10283,0.68082,0.0
1700753593375000,-9.890394,1.78611,0.572726,0.8683,0.64482,0.4851
1700753593382812,-9.902394,1.80711,0.579726,0.8683,0.66382,0.3151
1700753593390625,-9.879394,1.82311,0.579726,0.8683,0.59882,0.7951
1700753593398437,-9.886394,1.83911,0.574726,0.8683,0.56382,0.9751
1700753593406250,-9.880394,1.83611,0.577726,0.8683,0.52982,0.6651
1700753593414062,-9.873394,1.82011,0.567726,0.10183,0.49982,0.11351
1700753593421875,-9.873394,1.82011,0.574726,0.7183,0.56382,0.6451
1700753593429687,-9.876394,1.82911,0.584726,0.6417,0.52682,0.1549
1700753593437500,-9.867394,1.81911,0.574726,0.6417,0.54382,0.3149
1700753593445312,-9.846394,1.80811,0.586726,0.12417,0.50682,0.4649
1700753593453125,-9.831394,1.78911,0.583726,0.15317,0.50082,0.10749
1700753593460937,-9.838394,1.78411,0.599726,0.13817,0.45182,0.10749
1700753593468750,-9.843394,1.78611,0.595726,0.18217,0.44782,0.21849
1700753593476562,-9.857394,1.77311,0.606726,0.18117,0.46382,0.25049
1700753593484375,-9.865394,1.78211,0.615726,0.13517,0.49582,0.28149
1700753593492187,-9.870394,1.78211,0.613726,0.21017,0.44182,0.32849
1700753593500000,-9.875394,1.79311,0.620726,0.13517,0.44682,0.28049
1700753593507812,-9.875394,1.80511,0.631726,0.14917,0.42582,0.35949
1700753593515625,-9.888394,1.81011,0.638726,0.16317,0.37282,0.37249
1700753593523437,-9.895394,1.81711,0.640726,0.13417,0.39082,0.34149
1700753593531250,-9.884394,1.82811,0.643726,0.14817,0.42182,0.40549
1700753593539062,-9.880394,1.83411,0.650726,0.7317,0.41182,0.34249
1700753593546875,-9.868394,1.83711,0.652726,0.283,0.52782,0.35949
1700753593554687,-9.854394,1.83411,0.658726,0.3383,0.49482,0.37449
1700753593562500,-9.834394,1.83211,0.656726,0.7417,0.37882,0.24649
1700753593570312,-9.855394,1.84911,0.645726,0.16517,0.47582,0.32749
1700753593578125,-9.852394,1.89311,0.645726,0.13417,0.50582,0.35849
1700753593585937,-9.828394,1.91811,0.627726,0.11917,0.49082,0.35949
1700753593593750,-9.810394,1.90511,0.620726,0.14817,0.47082,0.40549
1700753593601562,-9.794394,1.89611,0.608726,0.10517,0.52582,0.29549
1700753593609375,-9.809394,1.91911,0.615726,0.21117,0.55582,0.31249
1700753593617187,-9.838394,1.97011,0.613726,0.30317,0.47382,0.28149
1700753593625000,-9.853394,2.1411,0.604726,0.30417,0.56082,0.25249
1700753593632812,-9.872394,2.2211,0.597726,0.36417,0.50482,0.26549
1700753593640625,-9.872394,2.1711,0.595726,0.39617,0.52482,0.21949
1700753593648437,-9.825394,1.98411,0.602726,0.38217,0.53182,0.11149
1700753593656250,-9.764394,1.94811,0.597726,0.36717,0.48282,0.7849
1700753593664062,-9.743394,1.91711,0.593726,0.42917,0.41582,0.1449
1700753593671875,-9.767394,1.90811,0.620726,0.36817,0.38282,0.2849
1700753593679687,-9.803394,1.91411,0.631726,0.41417,0.23082,0.5451
1700753593687500,-9.849394,1.91211,0.650726,0.29317,0.22082,0.11751
1700753593695312,-9.905394,1.91911,0.672726,0.30917,0.23782,0.14851
1700753593703125,-9.932394,1.91111,0.681726,0.32417,0.25282,0.14951
1700753593710937,-9.930394,1.88811,0.697726,0.29717,0.36382,0.33551
1700753593718750,-9.909394,1.86011,0.715726,0.22117,0.34582,0.30551
1700753593726562,-9.893394,1.83711,0.722726,0.19117,0.38282,0.33551
1700753593734375,-9.866394,1.81811,0.722726,0.25217,0.33382,0.35051
1700753593742187,-9.873394,1.80511,0.729726,0.23917,0.43782,0.44351
1700753593750000,-9.872394,1.81211,0.725726,0.17817,0.45482,0.42851
1700753593757812,-9.875394,1.81711,0.736726,0.14717,0.43882,0.46051
1700753593765625,-9.854394,1.81611,0.720726,0.23917,0.53682,0.44251
1700753593773437,-9.852394,1.81911,0.706726,0.37717,0.50082,0.48951
1700753593781250,-9.856394,1.81711,0.690726,0.39117,0.54882,0.42551
1700753593789062,-9.866394,1.83111,0.686726,0.39217,0.50182,0.45651
1700753593796875,-9.856394,1.84811,0.688726,0.56017,0.61182,0.43951
1700753593804687,-9.841394,1.85611,0.672726,0.63517,0.60782,0.35951
1700753593812500,-9.857394,1.84711,0.668726,0.66417,0.59182,0.32751
1700753593820312,-9.864394,1.84511,0.654726,0.84617,0.56782,0.24851
1700753593828125,-9.884394,1.83211,0.674726,0.99717,0.52982,0.20051
1700753593835937,-9.911394,1.82411,0.681726,0.105917,0.54482,0.21551
1700753593843750,-9.927394,1.82811,0.688726,0.113517,0.50982,0.23151
1700753593851562,-9.936394,1.83111,0.686726,0.111917,0.50882,0.20051
1700753593859375,-9.936394,1.82111,0.688726,0.113517,0.50982,0.21551
1700753593867187,-9.945394,1.81711,0.686726,0.131917,0.59182,0.24451
1700753593875000,-9.946394,1.82511,0.693726,0.131817,0.52582,0.22851
1700753593882812,-9.939394,1.85511,0.695726,0.135017,0.59182,0.27651
1700753593890625,-9.896394,1.88411,0.663726,0.139517,0.60682,0.27551
1700753593898437,-9.808394,1.90211,0.636726,0.156217,0.58682,0.22651
1700753593906250,-9.734394,1.94511,0.593726,0.163717,0.58182,0.14751
1700753593914062,-9.767394,2.611,0.584726,0.184917,0.62482,0.3451
1700753593921875,-9.844394,2.7811,0.577726,0.201517,0.51782,0.1149
1700753593929687,-9.822394,2.12011,0.543726,0.228917,0.60982,0.9349
1700753593937500,-9.830394,2.19811,0.498726,0.268417,0.46582,0.10849
1700753593945312,-9.852394,2.38011,0.446726,0.309317,0.44982,0.23649
1700753593953125,-9.805394,2.57711,0.357726,0.361017,0.43582,0.34949
1700753593960937,-9.726394,2.77911,0.262726,0.427817,0.46582,0.49649
1700753593968750,-9.645394,3.1311,0.146726,0.520617,0.34282,0.57949
1700753593976562,-9.577394,3.26611,0.19726,0.623917,0.14882,0.70849
1700753593984375,-9.438394,3.55411,0.68274,0.745417,0.15118,0.85149
1700753593992187,-9.278394,3.78311,0.115274,0.885317,0.50418,0.96449
1700753594000000,-9.166394,3.93611,0.126274,-1.40317,0.99718,0.105749
1700753594007812,-9.74394,3.99911,0.94274,-1.200117,0.153518,0.104049
1700753594015625,-9.119394,3.98411,0.3274,-1.353617,0.213918,0.107049
1700753594023437,-9.112394,3.96511,0.141726,-1.514917,0.272918,0.105149
1700753594031250,-9.125394,3.89611,0.296726,-1.665517,0.325018,0.108249
1700753594039062,-9.183394,3.78211,0.424726,-1.802317,0.384518,0.106549
1700753594046875,-9.263394,3.69311,0.571726,-1.948417,0.428418,0.109649
1700753594054687,-9.344394,3.62111,0.712726,-2.76017,0.466818,0.117449
1700753594062500,-9.443394,3.57511,0.838726,-2.185617,0.509318,0.114149
1700753594070312,-9.499394,3.52511,0.942726,-2.289117,0.520118,0.119349
1700753594078125,-9.480394,3.43611,-1.72726,-2.383517,0.535518,0.119649
1700753594085937,-9.475394,3.25511,-1.204726,-2.453517,0.542218,0.124749
1700753594093750,-9.518394,3.4511,-1.256726,-2.512817,0.567218,0.127749
1700753594101562,-9.578394,3.1211,-1.255726,-2.578317,0.567018,0.129749
1700753594109375,-9.483394,3.5811,-1.260726,-2.633017,0.572418,0.143949
1700753594117187,-9.350394,3.2511,-1.278726,-2.672317,0.586818,0.153449
1700753594125000,-9.427394,2.89511,-1.333726,-2.708617,0.619818,0.159349
1700753594132812,-9.573394,2.74011,-1.451726,-2.734317,0.645518,0.162249
1700753594140625,-9.648394,2.57711,-1.546726,-2.740517,0.655518,0.152549
1700753594148437,-9.737394,2.48711,-1.585726,-2.737417,0.663818,0.150749
1700753594156250,-9.817394,2.45511,-1.655726,-2.717917,0.664818,0.136249
1700753594164062,-9.854394,2.42211,-1.696726,-2.695117,0.663918,0.131449
1700753594171875,-9.826394,2.35311,-1.725726,-2.650917,0.649618,0.133049
1700753594179687,-9.796394,2.29411,-1.769726,-2.606817,0.641618,0.128249
1700753594187500,-9.837394,2.24411,-1.739726,-2.556617,0.627618,0.132849
1700753594195312,-9.792394,2.25711,-1.766726,-2.510917,0.608418,0.139249
1700753594203125,-9.792394,2.18511,-1.844726,-2.452917,0.585318,0.145749
1700753594210937,-9.877394,1.98611,-1.916726,-2.386017,0.578718,0.140649
1700753594218750,-9.977394,1.79611,-1.950726,-2.305417,0.569818,0.129349
1700753594226562,-10.45394,1.67011,-1.963726,-2.200617,0.533718,0.123149
1700753594234375,-10.48394,1.66311,-1.965726,-2.103317,0.514218,0.111949
1700753594242187,-10.26394,1.68911,-1.929726,-2.1417,0.473418,0.113749
1700753594250000,-10.65394,1.65011,-1.922726,-1.896517,0.446018,0.108749
1700753594257812,-10.161394,1.54211,-1.922726,-1.773417,0.411118,0.97649
1700753594265625,-10.250394,1.41411,-1.901726,-1.650317,0.379418,0.83349
1700753594273437,-10.241394,1.37711,-1.867726,-1.522817,0.332018,0.67849
1700753594281250,-10.217394,1.42611,-1.808726,-1.396917,0.278418,0.52349
1700753594289062,-10.213394,1.48611,-1.721726,-1.269217,0.230118,0.47849
1700753594296875,-10.191394,1.53911,-1.646726,-1.149317,0.199718,0.24049
1700753594304687,-10.183394,1.61511,-1.580726,-1.32417,0.149918,0.16449
1700753594312500,-10.145394,1.67011,-1.499726,0.930617,0.117118,0.8549
1700753594320312,-10.87394,1.70911,-1.410726,0.822717,0.77418,0.651
1700753594328125,-9.977394,1.76611,-1.335726,0.720817,0.37918,0.1249
1700753594335937,-9.869394,1.86211,-1.203726,0.629417,0.23118,0.2249
1700753594343750,-9.776394,2.1811,-1.117726,0.553317,0.3782,0.7149
1700753594351562,-9.719394,2.18211,-1.33726,0.489117,0.16382,0.18049
1700753594359375,-9.696394,2.31611,0.958726,0.426817,0.26282,0.13049
1700753594367187,-9.681394,2.40511,0.908726,0.381117,0.35582,0.12949
1700753594375000,-9.677394,2.47411,0.878726,0.320217,0.26982,0.7649
1700753594382812,-9.656394,2.56311,0.840726,0.276017,0.23082,0.949
1700753594390625,-9.625394,2.64711,0.824726,0.247317,0.29282,0.11751
1700753594398437,-9.630394,2.71011,0.824726,0.211117,0.18982,0.34251
1700753594406250,-9.660394,2.75511,0.838726,0.182217,0.21582,0.42351
1700753594414062,-9.674394,2.75611,0.831726,0.147517,0.23282,0.59751
1700753594421875,-9.667394,2.77711,0.845726,0.121817,0.22582,0.75751
1700753594429687,-9.646394,2.82111,0.845726,0.108217,0.34682,0.73951
1700753594437500,-9.591394,2.84911,0.818726,0.88517,0.53482,0.73751
1700753594445312,-9.555394,2.83311,0.786726,0.71617,0.50482,0.70651
1700753594453125,-9.578394,2.85111,0.809726,0.62417,0.51982,0.66051
1700753594460937,-9.575394,2.86911,0.804726,0.54517,0.43082,0.50551
1700753594468750,-9.551394,2.92211,0.793726,0.57517,0.44782,0.50551
1700753594476562,-9.532394,2.97611,0.777726,0.58917,0.49382,0.42551
1700753594484375,-9.516394,3.1111,0.786726,0.64917,0.40682,0.36351
1700753594492187,-9.557394,3.3411,0.823726,0.66217,0.28682,0.30351
1700753594500000,-9.607394,3.1911,0.864726,0.77017,0.23782,0.36551
1700753594507812,-9.655394,2.96311,0.905726,0.72517,0.24282,0.44451
1700753594515625,-9.711394,2.93111,0.964726,0.66517,0.21382,0.50751
1700753594523437,-9.687394,2.89011,0.948726,0.66517,0.24382,0.46051
1700753594531250,-9.685394,2.90811,0.964726,0.63517,0.29682,0.50651
1700753594539062,-9.627394,2.92811,0.945726,0.65117,0.44682,0.48851
1700753594546875,-9.581394,2.94311,0.909726,0.65117,0.47782,0.47251
1700753594554687,-9.604394,2.94311,0.891726,0.63317,0.40782,0.33151
1700753594562500,-9.643394,2.93711,0.891726,0.71017,0.42482,0.37751
1700753594570312,-9.645394,2.92311,0.868726,0.83217,0.57282,0.34251
1700753594578125,-9.638394,2.92111,0.854726,0.84517,0.53482,0.23251
1700753594585937,-9.663394,2.92411,0.859726,0.89317,0.48682,0.36051
1700753594593750,-9.703394,2.91811,0.847726,0.84817,0.55382,0.37551
1700753594601562,-9.719394,2.89611,0.845726,0.83317,0.58882,0.37451
1700753594609375,-9.740394,2.89111,0.841726,0.80417,0.72882,0.43351
1700753594617187,-9.685394,2.91211,0.820726,0.88217,0.72882,0.49551
1700753594625000,-9.606394,2.92311,0.825726,0.85117,0.74282,0.48151
1700753594632812,-9.568394,2.91311,0.827726,0.89717,0.74482,0.47951
1700753594640625,-9.560394,2.86211,0.836726,0.76017,0.66582,0.51351
1700753594648437,-9.596394,2.82011,0.838726,0.75917,0.59682,0.49951
1700753594656250,-9.596394,2.84111,0.840726,0.68317,0.64682,0.48451
1700753594664062,-9.597394,2.90211,0.832726,0.74417,0.63082,0.49851
1700753594671875,-9.604394,2.97411,0.818726,0.82017,0.62682,0.48351
1700753594679687,-9.635394,3.4611,0.804726,0.82017,0.59382,0.50051
1700753594687500,-9.619394,3.4711,0.802726,0.101817,0.59182,0.49851
1700753594695312,-9.605394,3.2611,0.802726,0.92817,0.61082,0.59451
1700753594703125,-9.597394,2.96611,0.802726,0.111117,0.50682,0.62651
1700753594710937,-9.597394,2.93911,0.804726,0.112617,0.52382,0.60951
1700753594718750,-9.600394,2.97011,0.816726,0.125017,0.54182,0.70351
1700753594726562,-9.573394,3.511,0.793726,0.135717,0.59182,0.68451
1700753594734375,-9.560394,3.1711,0.791726,0.146417,0.52682,0.76351
1700753594742187,-9.565394,2.97711,0.798726,0.157017,0.50782,0.71451
1700753594750000,-9.597394,2.89611,0.820726,0.158617,0.47282,0.79651
1700753594757812,-9.635394,2.86511,0.838726,0.160217,0.39082,0.84451
1700753594765625,-9.636394,2.84811,0.834726,0.163317,0.38682,0.86251
1700753594773437,-9.639394,2.81011,0.829726,0.155817,0.31082,0.95751
1700753594781250,-9.636394,2.78511,0.829726,0.152717,0.31082,0.92551
1700753594789062,-9.663394,2.76311,0.831726,0.151117,0.26082,0.92751
1700753594796875,-9.674394,2.72711,0.818726,0.140517,0.36582,0.92451
1700753594804687,-9.679394,2.73811,0.825726,0.139117,0.46982,0.98551
1700753594812500,-9.675394,2.78911,0.806726,0.137717,0.47082,0.101751
1700753594820312,-9.673394,2.83411,0.788726,0.142217,0.49982,0.95451
1700753594828125,-9.662394,2.81811,0.784726,0.139117,0.48382,0.97051
1700753594835937,-9.643394,2.76911,0.784726,0.142017,0.43182,0.90751
1700753594843750,-9.631394,2.73211,0.795726,0.141917,0.41082,0.86251
1700753594851562,-9.637394,2.68211,0.790726,0.149517,0.37582,0.86251
1700753594859375,-9.628394,2.66711,0.806726,0.144917,0.39282,0.83051
1700753594867187,-9.643394,2.64011,0.808726,0.140217,0.32482,0.78451
1700753594875000,-9.663394,2.61811,0.820726,0.138717,0.25882,0.80151
1700753594882812,-9.697394,2.60111,0.840726,0.138717,0.32282,0.75351
1700753594890625,-9.763394,2.60411,0.872726,0.134117,0.32582,0.73751
1700753594898437,-9.745394,2.57711,0.847726,0.117317,0.37982,0.75351
1700753594906250,-9.679394,2.53311,0.838726,0.115817,0.44782,0.73551
1700753594914062,-9.665394,2.52011,0.854726,0.109617,0.51182,0.64051
1700753594921875,-9.708394,2.52011,0.838726,0.104917,0.49482,0.57751
1700753594929687,-9.735394,2.52711,0.835726,0.89617,0.51182,0.51551
1700753594937500,-9.749394,2.54111,0.838726,0.89617,0.57682,0.48351
1700753594945312,-9.758394,2.55211,0.833726,0.86617,0.62882,0.49851
1700753594953125,-9.715394,2.57711,0.822726,0.74417,0.62782,0.48451
1700753594960937,-9.693394,2.61411,0.804726,0.69717,0.67782,0.38851
1700753594968750,-9.702394,2.65011,0.806726,0.75617,0.60682,0.32651
1700753594976562,-9.728394,2.66311,0.815726,0.86117,0.58482,0.21551
1700753594984375,-9.736394,2.65111,0.836726,0.89217,0.61782,0.27851
1700753594992187,-9.754394,2.64811,0.852726,0.89117,0.59982,0.19951
1700753595000000,-9.762394,2.66811,0.863726,0.89317,0.68882,0.29151
1700753595007812,-9.739394,2.69511,0.858726,0.87817,0.66982,0.29251
1700753595015625,-9.715394,2.69211,0.838726,0.89417,0.67382,0.32251
1700753595023437,-9.732394,2.67411,0.833726,0.87917,0.77482,0.35251
1700753595031250,-9.722394,2.68511,0.834726,0.91117,0.72882,0.43151
1700753595039062,-9.722394,2.69811,0.825726,0.89617,0.79482,0.39851
1700753595046875,-9.724394,2.69211,0.811726,0.88217,0.84782,0.49251
1700753595054687,-9.731394,2.67611,0.806726,0.89717,0.81582,0.47651
1700753595062500,-9.710394,2.65811,0.811726,0.89717,0.79782,0.49351
1700753595070312,-9.682394,2.63111,0.815726,0.88217,0.83182,0.47751
1700753595078125,-9.691394,2.59711,0.802726,0.86717,0.86682,0.49151
1700753595085937,-9.713394,2.58211,0.799726,0.89817,0.85082,0.52351
1700753595093750,-9.718394,2.57111,0.792726,0.89817,0.81582,0.50851
1700753595101562,-9.729394,2.53811,0.767726,0.77717,0.80382,0.57251
1700753595109375,-9.722394,2.55311,0.756726,0.68617,0.79082,0.62051
1700753595117187,-9.700394,2.59211,0.731726,0.73217,0.90982,0.61651
1700753595125000,-9.701394,2.61911,0.717726,0.71617,0.80682,0.57251
1700753595132812,-9.680394,2.62611,0.695726,0.74517,0.92082,0.47551
1700753595140625,-9.669394,2.60811,0.688726,0.79117,0.98582,0.47351
1700753595148437,-9.654394,2.54811,0.701726,0.85217,0.93382,0.49051
1700753595156250,-9.669394,2.47711,0.715726,0.74417,0.88182,0.44651
1700753595164062,-9.703394,2.44611,0.728726,0.81917,0.81282,0.38251
1700753595171875,-9.723394,2.41411,0.733726,0.69717,0.85282,0.36551
1700753595179687,-9.736394,2.39311,0.742726,0.59017,0.80082,0.38451
1700753595187500,-9.764394,2.37011,0.758726,0.43917,0.85282,0.41751
1700753595195312,-9.801394,2.34311,0.776726,0.36317,0.78982,0.43451
1700753595203125,-9.804394,2.29911,0.808726,0.4417,0.89882,0.49751
1700753595210937,-9.806394,2.22511,0.837726,0.9283,0.101882,0.48051
1700753595218750,-9.834394,2.11911,0.844726,0.33583,0.107382,0.48051
1700753595226562,-9.815394,2.4411,0.853726,0.73183,0.123482,0.43151
1700753595234375,-9.803394,2.1111,0.848726,0.100883,0.133382,0.27451
1700753595242187,-9.812394,1.96911,0.866726,0.131483,0.146982,0.13151
1700753595250000,-9.848394,1.93811,0.868726,0.160783,0.146982,0.3949
1700753595257812,-9.894394,1.87811,0.891726,0.193083,0.155382,0.22849
1700753595265625,-9.925394,1.82111,0.925726,0.243583,0.165982,0.36949
1700753595273437,-9.949394,1.75511,0.955726,0.290983,0.181482,0.52649
1700753595281250,-9.972394,1.69711,0.996726,0.336683,0.190782,0.57349
1700753595289062,-9.997394,1.57711,-1.84726,0.400983,0.199782,0.74349
1700753595296875,-10.56394,1.40711,-1.200726,0.474183,0.216282,0.78949
1700753595304687,-10.153394,1.22511,-1.309726,0.570083,0.241882,0.80449
1700753595312500,-10.234394,1.12211,-1.386726,0.673683,0.268982,0.89849
1700753595320312,-10.217394,1.6611,-1.459726,0.777083,0.309982,0.88449
1700753595328125,-10.145394,0.94511,-1.495726,0.900583,0.350682,0.102649
1700753595335937,-10.143394,0.80711,-1.499726,1.30383,0.392682,0.129449
1700753595343750,-10.186394,0.80111,-1.472726,1.143283,0.434582,0.150049
1700753595351562,-10.206394,0.92711,-1.408726,1.251783,0.484682,0.183649
1700753595359375,-10.202394,1.12111,-1.352726,1.346583,0.525582,0.216849
1700753595367187,-10.160394,1.33911,-1.302726,1.442983,0.570182,0.253449
1700753595375000,-10.78394,1.53911,-1.252726,1.517783,0.602782,0.267649
1700753595382812,-9.977394,1.64411,-1.221726,1.598583,0.631082,0.278849
1700753595390625,-9.919394,1.68111,-1.266726,1.676383,0.650682,0.292849
1700753595398437,-9.888394,1.72511,-1.319726,1.751083,0.660782,0.295849
1700753595406250,-9.830394,1.74511,-1.381726,1.823983,0.686182,0.288049
1700753595414062,-9.754394,1.72011,-1.453726,1.901583,0.701382,0.283049
1700753595421875,-9.783394,1.64211,-1.515726,1.994383,0.713482,0.281149
1700753595429687,-9.827394,1.59211,-1.580726,2.73683,0.728282,0.287149
1700753595437500,-9.775394,1.53911,-1.606726,2.171383,0.742082,0.298049
1700753595445312,-9.803394,1.49211,-1.614726,2.267683,0.777982,0.324749
1700753595453125,-9.888394,1.49211,-1.667726,2.362483,0.802682,0.354649
1700753595460937,-9.925394,1.57511,-1.722726,2.461783,0.832482,0.375049
1700753595468750,-9.901394,1.65611,-1.738726,2.547583,0.863282,0.408249
1700753595476562,-9.887394,1.83111,-1.706726,2.620683,0.906382,0.422949
1700753595484375,-9.836394,2.6411,-1.700726,2.686183,0.934482,0.429349
1700753595492187,-9.771394,2.28411,-1.668726,2.754583,0.964382,0.429449
1700753595500000,-9.616394,2.38511,-1.714726,2.816883,0.982682,0.424649
1700753595507812,-9.422394,2.25011,-1.746726,2.900483,0.998482,0.415149
1700753595515625,-9.389394,2.1411,-1.773726,2.982783,-1.3682,0.413149
1700753595523437,-9.511394,1.91311,-1.868726,3.63683,-1.6782,0.423749
1700753595531250,-9.668394,2.1211,-1.861726,3.152183,-1.18182,0.429549
1700753595539062,-9.774394,2.32511,-1.853726,3.215983,-1.34882,0.424749
1700753595546875,-9.788394,2.70311,-1.806726,3.273583,-1.63582,0.414049
1700753595554687,-9.751394,3.1511,-1.736726,3.326483,-1.85482,0.395149
1700753595562500,-9.635394,3.27611,-1.680726,3.348683,-1.112482,0.365749
1700753595570312,-9.397394,3.45111,-1.625726,3.377183,-1.125582,0.345349
1700753595578125,-9.139394,3.48111,-1.521726,3.389183,-1.131382,0.332849
1700753595585937,-8.990394,3.49411,-1.430726,3.399683,-1.110482,0.316649
1700753595593750,-8.926394,3.51311,-1.354726,3.392183,-1.95082,0.317949
1700753595601562,-8.920394,3.58011,-1.291726,3.374183,-1.65682,0.326749
1700753595609375,-8.969394,3.67011,-1.223726,3.362383,-1.43182,0.339049
1700753595617187,-8.984394,3.74811,-1.189726,3.324583,-1.3382,0.346249
1700753595625000,-8.960394,3.74611,-1.148726,3.295983,0.968682,0.350349
1700753595632812,-9.59394,3.78111,-1.77726,3.263983,0.938382,0.345449
1700753595640625,-9.165394,3.93111,-1.34726,3.218483,0.908482,0.346449
1700753595648437,-9.232394,4.10811,0.968726,3.160583,0.880482,0.338349
1700753595656250,-9.167394,4.28011,0.889726,3.96683,0.869082,0.338549
1700753595664062,-9.105394,4.41511,0.789726,3.24983,0.842682,0.328949
1700753595671875,-9.114394,4.56211,0.692726,2.936483,0.806282,0.309949
1700753595679687,-9.98394,4.71811,0.587726,2.837483,0.779082,0.306849
1700753595687500,-9.64394,4.90011,0.446726,2.727583,0.757182,0.289749
1700753595695312,-8.924394,5.2511,0.331726,2.602883,0.727682,0.304449
1700753595703125,-8.808394,5.1311,0.192726,2.476883,0.690482,0.318549
1700753595710937,-8.788394,4.95111,0.84726,2.344783,0.646682,0.329349
1700753595718750,-8.798394,4.81911,0.41726,2.200183,0.591682,0.329249
1700753595726562,-8.798394,4.62811,0.18726,2.73983,0.538482,0.324149
1700753595734375,-8.886394,4.41711,0.33726,1.950783,0.475582,0.323749
1700753595742187,-9.114394,4.25811,0.37726,1.850483,0.419482,0.316649
1700753595750000,-9.337394,4.28311,0.38726,1.733183,0.375582,0.307149
1700753595757812,-9.473394,4.43311,0.59726,1.624783,0.343882,0.288449
1700753595765625,-9.512394,4.53511,0.61726,1.516683,0.309482,0.280249
1700753595773437,-9.530394,4.52811,0.88726,1.405183,0.291082,0.263349
1700753595781250,-9.549394,4.47611,0.102726,1.298083,0.276482,0.232249
1700753595789062,-9.531394,4.43111,0.127726,1.194183,0.258282,0.210449
1700753595796875,-9.436394,4.35911,0.131726,1.97783,0.232382,0.185549
1700753595804687,-9.376394,4.31211,0.122726,1.7583,0.212682,0.162049
1700753595812500,-9.340394,4.32911,0.149726,0.906783,0.181282,0.141649
1700753595820312,-9.324394,4.27811,0.165726,0.810783,0.167682,0.135749
1700753595828125,-9.377394,4.14011,0.238726,0.722483,0.141882,0.132349
1700753595835937,-9.437394,4.1111,0.272726,0.638883,0.124782,0.142049
1700753595843750,-9.466394,3.88811,0.310726,0.564383,0.113082,0.148749
1700753595851562,-9.495394,3.78211,0.355726,0.497483,0.101082,0.153449
1700753595859375,-9.511394,3.73011,0.374726,0.430583,0.99582,0.163449
1700753595867187,-9.472394,3.69011,0.357726,0.374183,0.94782,0.166849
1700753595875000,-9.438394,3.69611,0.358726,0.322483,0.77182,0.163749
1700753595882812,-9.375394,3.70211,0.364726,0.270683,0.69182,0.167049
1700753595890625,-9.307394,3.57911,0.373726,0.238783,0.59782,0.166949
1700753595898437,-9.365394,3.37811,0.464726,0.216183,0.43482,0.180849
1700753595906250,-9.490394,3.19911,0.561726,0.189183,0.33882,0.198149
1700753595914062,-9.626394,3.8111,0.629726,0.174283,0.40882,0.221949
1700753595921875,-9.733394,3.6711,0.670726,0.160883,0.43282,0.244249
1700753595929687,-9.800394,3.14711,0.716726,0.159483,0.59882,0.255749
1700753595937500,-9.799394,3.20011,0.698726,0.148883,0.84482,0.268949
1700753595945312,-9.754394,3.24411,0.682726,0.156283,0.105182,0.264749
1700753595953125,-9.675394,3.25911,0.648726,0.144283,0.117582,0.277549
1700753595960937,-9.566394,3.25811,0.602726,0.142683,0.122482,0.279149
1700753595968750,-9.463394,3.22911,0.596726,0.154783,0.131382,0.276149
1700753595976562,-9.412394,3.13711,0.629726,0.159483,0.129582,0.280849
1700753595984375,-9.465394,2.98211,0.693726,0.184383,0.135782,0.310749
1700753595992187,-9.527394,2.87411,0.770726,0.193983,0.142882,0.342249
1700753596000000,-9.576394,2.82411,0.804726,0.208183,0.150282,0.375349
1700753596007812,-9.646394,2.83211,0.829726,0.231483,0.171482,0.408749
1700753596015625,-9.667394,2.85811,0.816726,0.257783,0.197882,0.439149
1700753596023437,-9.678394,2.98111,0.759726,0.279383,0.207782,0.456549
1700753596031250,-9.682394,3.16811,0.716726,0.294483,0.226582,0.455249
1700753596039062,-9.649394,3.37911,0.662726,0.306583,0.243682,0.453949
1700753596046875,-9.622394,3.54511,0.590726,0.319983,0.253182,0.438449
1700753596054687,-9.558394,3.67611,0.569726,0.333383,0.262382,0.424349
1700753596062500,-9.434394,3.73711,0.562726,0.331483,0.261382,0.405349
1700753596070312,-9.310394,3.66011,0.555726,0.332883,0.276582,0.400849
1700753596078125,-9.233394,3.60511,0.526726,0.336083,0.269682,0.407049
1700753596085937,-9.212394,3.60311,0.473726,0.334683,0.261182,0.410049
1700753596093750,-9.242394,3.61111,0.471726,0.333183,0.252982,0.410049
1700753596101562,-9.281394,3.70711,0.498726,0.331783,0.240482,0.414149
1700753596109375,-9.286394,3.73811,0.480726,0.337883,0.245582,0.415849
1700753596117187,-9.325394,3.72011,0.494726,0.345683,0.237582,0.420549
1700753596125000,-9.369394,3.72611,0.526726,0.356583,0.228582,0.429449
1700753596132812,-9.391394,3.75511,0.533726,0.354983,0.230382,0.429649
1700753596140625,-9.343394,3.75411,0.537726,0.367283,0.245582,0.441049
1700753596148437,-9.318394,3.74011,0.560726,0.382483,0.257582,0.444349
1700753596156250,-9.293394,3.70411,0.578726,0.390183,0.259382,0.445949
1700753596164062,-9.272394,3.71311,0.576726,0.407083,0.267482,0.455249
1700753596171875,-9.215394,3.77911,0.569726,0.417783,0.267882,0.456849
1700753596179687,-9.97394,3.82711,0.537726,0.433083,0.266082,0.462949
1700753596187500,-8.961394,3.78711,0.494726,0.448383,0.271482,0.466249
1700753596195312,-8.892394,3.73011,0.471726,0.460783,0.264582,0.478649
1700753596203125,-8.948394,3.81311,0.451726,0.476483,0.250682,0.498649
1700753596210937,-9.64394,4.311,0.426726,0.478183,0.240482,0.508049
1700753596218750,-9.121394,4.20911,0.406726,0.484283,0.242182,0.504749
1700753596226562,-9.126394,4.32111,0.404726,0.485783,0.230482,0.502849
1700753596234375,-9.155394,4.47111,0.402726,0.484083,0.227382,0.490149
1700753596242187,-9.205394,4.67211,0.389726,0.479283,0.219582,0.472649
1700753596250000,-9.220394,4.85411,0.360726,0.466783,0.205282,0.450549
1700753596257812,-9.169394,4.98811,0.340726,0.444983,0.205782,0.420649
1700753596265625,-9.97394,5.4111,0.333726,0.435083,0.190482,0.374749
1700753596273437,-9.45394,5.1011,0.337726,0.405683,0.179482,0.346549
1700753596281250,-9.37394,4.93311,0.376726,0.382583,0.174182,0.330549
1700753596289062,-9.43394,4.82511,0.394726,0.374683,0.155082,0.305249
1700753596296875,-9.56394,4.76511,0.428726,0.356183,0.145482,0.287849
1700753596304687,-9.76394,4.75711,0.464726,0.334683,0.143582,0.278449
1700753596312500,-9.78394,4.78011,0.480726,0.328483,0.136782,0.271949
1700753596320312,-9.80394,4.82111,0.492726,0.332783,0.128982,0.251149
1700753596328125,-9.63394,4.86211,0.512726,0.315683,0.124482,0.233949
1700753596335937,-9.25394,4.86211,0.528726,0.307783,0.118282,0.214949
1700753596343750,-9.11394,4.84411,0.571726,0.290783,0.118382,0.200849
1700753596351562,-9.8394,4.77311,0.601726,0.275383,0.116682,0.191449
1700753596359375,-9.43394,4.71511,0.660726,0.279883,0.120382,0.185249
1700753596367187,-9.80394,4.72011,0.706726,0.261483,0.120282,0.180649
1700753596375000,-9.121394,4.79011,0.694726,0.242883,0.123682,0.165049
1700753596382812,-9.161394,4.88611,0.692726,0.233483,0.129082,0.152649
1700753596390625,-9.146394,4.94611,0.692726,0.227083,0.131282,0.135449
1700753596398437,-9.77394,4.93211,0.692726,0.219183,0.146682,0.123149
1700753596406250,-9.19394,4.90711,0.692726,0.197683,0.148582,0.110849
1700753596414062,-8.988394,4.87811,0.694726,0.179183,0.146782,0.98249
1700753596421875,-8.977394,4.85111,0.701726,0.180383,0.149082,0.82549
1700753596429687,-8.991394,4.85011,0.692726,0.161883,0.147782,0.70149
1700753596437500,-8.989394,4.86811,0.672726,0.152583,0.147882,0.59149
1700753596445312,-8.948394,4.86611,0.647726,0.138583,0.141482,0.43349
1700753596453125,-8.921394,4.89611,0.610726,0.129283,0.136782,0.30649
1700753596460937,-8.929394,4.95611,0.622726,0.109083,0.133882,0.8749
1700753596468750,-8.943394,5.511,0.599726,0.93483,0.126082,0.14951
1700753596476562,-8.968394,5.2211,0.608726,0.76483,0.119482,0.30751
1700753596484375,-8.949394,4.96411,0.617726,0.60983,0.124582,0.43151
1700753596492187,-8.936394,4.85911,0.631726,0.38083,0.107482,0.51351
1700753596500000,-8.925394,4.69811,0.658726,0.33383,0.109582,0.59051
1700753596507812,-8.926394,4.59611,0.653726,0.13483,0.109182,0.63751
1700753596515625,-8.952394,4.51111,0.644726,0.10583,0.117482,0.55551
1700753596523437,-8.981394,4.47411,0.671726,0.4583,0.108282,0.47951
1700753596531250,-9.1394,4.48211,0.668726,0.6183,0.111582,0.46351
1700753596539062,-8.985394,4.49511,0.639726,0.1683,0.111282,0.41651
1700753596546875,-8.967394,4.49411,0.625726,0.4317,0.105982,0.35351
1700753596554687,-8.981394,4.49911,0.650726,0.7417,0.104282,0.38551
1700753596562500,-9.27394,4.52611,0.657726,0.8917,0.95982,0.40251
1700753596570312,-9.81394,4.51111,0.655726,0.8817,0.100982,0.36951
1700753596578125,-9.103394,4.47811,0.662726,0.11617,0.98782,0.21151
1700753596585937,-9.94394,4.44611,0.662726,0.16217,0.116882,0.12851
1700753596593750,-9.69394,4.47011,0.646726,0.14517,0.118182,0.3451
1700753596601562,-9.69394,4.47711,0.621726,0.15817,0.102682,0.4149
1700753596609375,-9.86394,4.50211,0.619726,0.8217,0.106282,0.4149
1700753596617187,-9.112394,4.49811,0.593726,0.2383,0.114782,0.2649
1700753596625000,-9.86394,4.49511,0.568726,0.983,0.111282,0.10549
1700753596632812,-9.55394,4.48011,0.557726,0.10183,0.109482,0.8749
1700753596640625,-9.47394,4.50411,0.543726,0.7083,0.109582,0.8749
1700753596648437,-9.52394,4.56011,0.548726,0.22083,0.110282,0.5551
1700753596656250,-9.76394,4.60111,0.546726,0.21983,0.101182,0.18151
1700753596664062,-9.64394,4.59111,0.566726,0.27983,0.96182,0.26351
1700753596671875,-9.59394,4.58711,0.575726,0.21883,0.105982,0.21351
1700753596679687,-9.50394,4.57711,0.569726,0.12583,0.102882,0.30751
1700753596687500,-9.50394,4.56611,0.566726,0.34083,0.98182,0.24651
1700753596695312,-9.34394,4.53211,0.584726,0.23483,0.96082,0.21451
1700753596703125,-9.16394,4.50111,0.584726,0.14183,0.89482,0.27851
1700753596710937,-8.995394,4.49111,0.578726,0.8183,0.92482,0.21451
1700753596718750,-8.990394,4.49211,0.577726,0.8183,0.89282,0.27851
1700753596726562,-9.4394,4.48811,0.568726,0.9683,0.90782,0.24751
1700753596734375,-8.997394,4.48011,0.557726,0.6683,0.94182,0.24551
1700753596742187,-9.2394,4.46411,0.548726,0.6783,0.85782,0.19951
1700753596750000,-9.4394,4.43811,0.552726,0.3817,0.81982,0.13651
1700753596757812,-9.37394,4.43711,0.564726,0.5483,0.73082,0.9351
1700753596765625,-9.73394,4.46911,0.550726,0.11683,0.87982,0.349
1700753596773437,-9.81394,4.52011,0.536726,0.3517,0.91082,0.2149
1700753596781250,-9.52394,4.54211,0.530726,0.8117,0.84282,0.2049
1700753596789062,-9.28394,4.53811,0.521726,0.8017,0.77782,0.5249
1700753596796875,-9.36394,4.54111,0.518726,0.17117,0.82282,0.6849
1700753596804687,-9.49394,4.52911,0.523726,0.14217,0.77182,0.249
1700753596812500,-9.47394,4.48111,0.532726,0.15717,0.77482,0.1949
1700753596820312,-9.53394,4.46611,0.536726,0.15617,0.75782,0.3549
1700753596828125,-9.70394,4.47411,0.534726,0.14117,0.69282,0.1849
1700753596835937,-9.94394,4.48611,0.516726,0.12517,0.65682,0.4849
1700753596843750,-9.125394,4.50111,0.525726,0.15617,0.66982,0.0
1700753596851562,-9.149394,4.51011,0.541726,0.14117,0.68882,0.3249
1700753596859375,-9.160394,4.51611,0.548726,0.15817,0.71082,0.6051
1700753596867187,-9.110394,4.46611,0.546726,0.8117,0.77882,0.449
1700753596875000,-9.64394,4.44411,0.564726,0.12717,0.75882,0.1251
1700753596882812,-9.44394,4.47211,0.587726,0.14217,0.77682,0.2751
1700753596890625,-9.54394,4.48111,0.559726,0.12617,0.79482,0.2149
1700753596898437,-9.74394,4.45911,0.557726,0.4183,0.81282,0.5149
1700753596906250,-9.106394,4.48211,0.566726,0.3417,0.84382,0.8449
1700753596914062,-9.106394,4.52211,0.566726,0.11117,0.90682,0.8549
1700753596921875,-9.106394,4.53811,0.571726,0.8117,0.94182,0.6949
1700753596929687,-9.128394,4.57311,0.566726,0.11217,0.84482,0.649
1700753596937500,-9.125394,4.58111,0.555726,0.17317,0.90882,0.2249
1700753596945312,-9.141394,4.57211,0.548726,0.17317,0.90882,0.649
1700753596953125,-9.136394,4.57211,0.544726,0.17317,0.95982,0.2349
1700753596960937,-9.118394,4.53811,0.518726,0.32617,0.100682,0.2649
1700753596968750,-9.79394,4.48111,0.505726,0.20417,0.104482,0.1049
1700753596976562,-9.41394,4.44811,0.482726,0.18817,0.97282,0.3949
1700753596984375,-9.19394,4.42511,0.457726,0.20217,0.90682,0.7049
1700753596992187,-9.33394,4.43311,0.455726,0.15617,0.77582,0.6849
1700753597000000,-9.31394,4.45411,0.464726,0.18417,0.70282,0.17749
1700753597007812,-9.14394,4.47011,0.448726,0.15517,0.76882,0.12949
1700753597015625,-9.12394,4.48811,0.434726,0.20017,0.69982,0.15949
1700753597023437,-9.17394,4.50411,0.454726,0.16917,0.60082,0.10949
1700753597031250,-9.15394,4.51511,0.443726,0.13817,0.48382,0.10749
1700753597039062,-8.963394,4.53811,0.455726,0.20017,0.50282,0.6149
1700753597046875,-8.928394,4.54611,0.466726,0.29017,0.44882,0.12449
1700753597054687,-8.936394,4.49811,0.477726,0.24217,0.31082,0.21449
1700753597062500,-8.962394,4.44911,0.502726,0.28617,0.28982,0.29349
1700753597070312,-9.1394,4.43411,0.532726,0.36117,0.21882,0.35549
1700753597078125,-9.37394,4.42711,0.550726,0.25317,0.27082,0.43649
1700753597085937,-9.21394,4.43011,0.570726,0.28217,0.28082,0.51349
1700753597093750,-9.4394,4.47811,0.569726,0.17617,0.33782,0.50049
1700753597101562,-9.25394,4.54111,0.585726,0.20617,0.31882,0.51549
1700753597109375,-9.41394,4.59511,0.585726,0.23817,0.31882,0.45149
1700753597117187,-9.49394,4.66111,0.594726,0.25517,0.35682,0.37449
1700753597125000,-9.32394,4.72411,0.585726,0.31917,0.36182,0.18549
1700753597132812,-9.3394,4.73011,0.589726,0.33517,0.33082,0.10649
1700753597140625,-8.991394,4.72111,0.592726,0.36817,0.31982,0.1851
1700753597148437,-8.977394,4.69411,0.598726,0.30917,0.25682,0.13151
1700753597156250,-9.17394,4.68211,0.605726,0.38617,0.20682,0.22751
1700753597164062,-9.49394,4.69111,0.601726,0.35617,0.22482,0.27451
1700753597171875,-9.74394,4.69111,0.614726,0.38917,0.31382,0.36651
1700753597179687,-9.78394,4.64211,0.644726,0.35917,0.33382,0.41351
1700753597187500,-9.59394,4.54411,0.653726,0.32917,0.38382,0.41251
1700753597195312,-9.67394,4.46611,0.680726,0.39017,0.39882,0.37951
1700753597203125,-9.81394,4.47511,0.673726,0.37217,0.44482,0.23651
1700753597210937,-9.93394,4.50411,0.662726,0.34317,0.47982,0.26851
1700753597218750,-9.100394,4.51111,0.662726,0.28317,0.56882,0.31351
1700753597226562,-9.83394,4.47711,0.669726,0.20617,0.61782,0.25051
1700753597234375,-9.74394,4.45511,0.673726,0.17717,0.65382,0.31251
1700753597242187,-9.76394,4.44611,0.669726,0.19117,0.68282,0.21851
1700753597250000,-9.58394,4.47211,0.637726,0.17417,0.72982,0.12251
1700753597257812,-9.25394,4.49811,0.614726,0.14517,0.75282,0.18351
1700753597265625,-8.995394,4.50511,0.577726,0.16117,0.76682,0.23251
1700753597273437,-8.994394,4.52911,0.560726,0.23717,0.76982,0.24651
1700753597281250,-8.980394,4.58311,0.550726,0.26717,0.69782,0.21651
1700753597289062,-8.965394,4.62211,0.546726,0.39017,0.74982,0.27751
1700753597296875,-8.969394,4.59111,0.555726,0.43517,0.56182,0.26551
1700753597304687,-8.993394,4.57011,0.557726,0.46517,0.55982,0.26651
1700753597312500,-9.394,4.55211,0.578726,0.52617,0.45982,0.28351
1700753597320312,-9.14394,4.51611,0.569726,0.58717,0.47682,0.29751
1700753597328125,-9.42394,4.48311,0.578726,0.64817,0.39282,0.34651
1700753597335937,-9.81394,4.49611,0.600726,0.63217,0.33882,0.31751
1700753597343750,-9.92394,4.48711,0.591726,0.64817,0.35582,0.33251
1700753597351562,-9.98394,4.47811,0.602726,0.63217,0.33882,0.31751
1700753597359375,-9.112394,4.46911,0.621726,0.64817,0.42382,0.31551
1700753597367187,-9.113394,4.46611,0.635726,0.63217,0.39082,0.28351
1700753597375000,-9.117394,4.44411,0.650726,0.64817,0.42582,0.29851
1700753597382812,-9.116394,4.41311,0.648726,0.61717,0.45782,0.26651
1700753597390625,-9.88394,4.37811,0.643726,0.48017,0.45882,0.26851
1700753597398437,-9.79394,4.37611,0.645726,0.38817,0.47582,0.26951
1700753597406250,-9.93394,4.40911,0.648726,0.41817,0.49282,0.23651
1700753597414062,-9.80394,4.42811,0.634726,0.49617,0.51082,0.28251
1700753597421875,-9.60394,4.43711,0.614726,0.40517,0.51482,0.31451
1700753597429687,-9.37394,4.43411,0.605726,0.38817,0.47882,0.25251
1700753597437500,-9.39394,4.44211,0.618726,0.40317,0.42582,0.25451
1700753597445312,-9.55394,4.45011,0.616726,0.38717,0.39282,0.23851
1700753597453125,-9.73394,4.44711,0.621726,0.37217,0.50782,0.20551
1700753597460937,-9.85394,4.44411,0.623726,0.38817,0.54482,0.21951
1700753597468750,-9.87394,4.43311,0.623726,0.44817,0.40782,0.19051
1700753597476562,-9.98394,4.40111,0.650726,0.41817,0.41182,0.25251
1700753597484375,-9.111394,4.40011,0.641726,0.38817,0.47782,0.26851
1700753597492187,-9.114394,4.40011,0.639726,0.40317,0.52682,0.23551
1700753597500000,-9.125394,4.41311,0.653726,0.40317,0.51082,0.23551
1700753597507812,-9.135394,4.43111,0.659726,0.40417,0.49582,0.26751
1700753597515625,-9.149394,4.43311,0.685726,0.40417,0.41482,0.28351
1700753597523437,-9.162394,4.43611,0.671726,0.39017,0.51582,0.32951
1700753597531250,-9.132394,4.42911,0.655726,0.37517,0.56682,0.34451
1700753597539062,-9.103394,4.43311,0.639726,0.39117,0.60182,0.39151
1700753597546875,-9.76394,4.47311,0.646726,0.37617,0.59982,0.39251
1700753597554687,-9.65394,4.47211,0.646726,0.40717,0.60282,0.42251
1700753597562500,-9.10394,4.42911,0.641726,0.39217,0.63682,0.40551
1700753597570312,-9.5394,4.36211,0.641726,0.40417,0.53082,0.28151
1700753597578125,-9.40394,4.31211,0.648726,0.40217,0.52382,0.17351
1700753597585937,-9.67394,4.29611,0.657726,0.40217,0.49182,0.14051
1700753597593750,-9.76394,4.29511,0.666726,0.40017,0.51982,0.6251
1700753597601562,-9.99394,4.29711,0.675726,0.39817,0.49882,0.7849
1700753597609375,-9.110394,4.32511,0.670726,0.38417,0.53282,0.3149
1700753597617187,-9.81394,4.35711,0.659726,0.39717,0.52882,0.14149
1700753597625000,-9.21394,4.39411,0.648726,0.38217,0.57982,0.14349
1700753597632812,-8.999394,4.45211,0.646726,0.47217,0.54382,0.19049
1700753597640625,-8.986394,4.50811,0.628726,0.62417,0.55282,0.25349
1700753597648437,-8.964394,4.54111,0.619726,0.62517,0.50582,0.19049
1700753597656250,-9.1394,4.59711,0.621726,0.70117,0.42182,0.17349
1700753597664062,-9.3394,4.64811,0.623726,0.88417,0.34982,0.14049
1700753597671875,-9.12394,4.64011,0.632726,0.88317,0.33182,0.15549
1700753597679687,-9.46394,4.58411,0.642726,0.86817,0.30182,0.14049
1700753597687500,-9.95394,4.55111,0.685726,0.105217,0.21582,0.7749
1700753597695312,-9.124394,4.51411,0.703726,0.112917,0.31682,0.3249
1700753597703125,-9.130394,4.50111,0.700726,0.111617,0.33582,0.7851
1700753597710937,-9.169394,4.48111,0.719726,0.113317,0.40782,0.15451
1700753597718750,-9.191394,4.43911,0.748726,0.111817,0.44082,0.17051
1700753597726562,-9.212394,4.33111,0.736726,0.113417,0.59082,0.16751
1700753597734375,-9.217394,4.21011,0.725726,0.95117,0.62782,0.10451
1700753597742187,-9.199394,4.16711,0.716726,0.87517,0.66382,0.10351
1700753597750000,-9.154394,4.18911,0.691726,0.82817,0.69382,0.2551
1700753597757812,-9.132394,4.24211,0.682726,0.66017,0.76482,0.749
1700753597765625,-9.117394,4.31811,0.657726,0.63117,0.80182,0.5551
1700753597773437,-9.98394,4.39511,0.653726,0.60017,0.85182,0.2251
1700753597781250,-9.83394,4.43511,0.614726,0.61617,0.78782,0.8651
1700753597789062,-9.69394,4.43911,0.605726,0.54117,0.90782,0.13151
1700753597796875,-9.35394,4.43411,0.584726,0.41817,0.87582,0.10151
1700753597804687,-8.994394,4.40211,0.573726,0.43417,0.79282,0.13551
1700753597812500,-8.993394,4.36911,0.566726,0.40217,0.72382,0.7351
1700753597820312,-9.394,4.35311,0.568726,0.38617,0.65782,0.5851
1700753597828125,-9.31394,4.35711,0.563726,0.43117,0.66782,0.349
1700753597835937,-9.47394,4.33711,0.572726,0.38217,0.64582,0.14349
1700753597843750,-9.49394,4.31511,0.586726,0.44217,0.65682,0.23849
1700753597851562,-9.77394,4.32811,0.584726,0.40917,0.69082,0.36749
1700753597859375,-9.108394,4.35411,0.575726,0.40917,0.73582,0.39749
1700753597867187,-9.145394,4.41411,0.559726,0.43817,0.64882,0.49149
1700753597875000,-9.176394,4.47811,0.575726,0.60617,0.64882,0.46149
1700753597882812,-9.176394,4.48311,0.546726,0.62117,0.64882,0.44549
1700753597890625,-9.135394,4.48011,0.550726,0.60617,0.63182,0.46149
1700753597898437,-9.71394,4.44211,0.536726,0.63617,0.64582,0.44449
1700753597906250,-9.10394,4.45611,0.500726,0.65117,0.54782,0.42849
1700753597914062,-8.982394,4.50711,0.496726,0.72917,0.48382,0.30149
1700753597921875,-8.984394,4.52511,0.496726,0.68417,0.40082,0.25149
1700753597929687,-9.8394,4.50811,0.500726,0.66817,0.29982,0.24849
1700753597937500,-9.68394,4.54611,0.539726,0.77417,0.24682,0.26449
1700753597945312,-9.82394,4.57311,0.546726,0.77417,0.21482,0.28049
1700753597953125,-9.93394,4.54711,0.573726,0.79017,0.19782,0.23249
1700753597960937,-9.90394,4.51311,0.582726,0.76217,0.22082,0.10649
1700753597968750,-9.88394,4.50411,0.603726,0.68717,0.17482,0.1049
1700753597976562,-9.87394,4.49611,0.618726,0.64317,0.21182,0.8451
1700753597984375,-9.106394,4.47711,0.628726,0.62917,0.20182,0.14551
1700753597992187,-9.112394,4.47811,0.664726,0.61417,0.16782,0.19451
1700753598000000,-9.142394,4.46711,0.675726,0.46317,0.22282,0.25751
1700753598007812,-9.153394,4.47211,0.680726,0.44717,0.22282,0.21051
1700753598015625,-9.145394,4.52311,0.680726,0.47917,0.27582,0.30351
1700753598023437,-9.136394,4.60111,0.651726,0.57217,0.27582,0.38251
1700753598031250,-9.134394,4.69411,0.635726,0.64917,0.37882,0.40951
1700753598039062,-9.91394,4.80611,0.612726,0.80417,0.40982,0.50451
1700753598046875,-9.77394,4.89011,0.599726,0.110817,0.43582,0.48551
1700753598054687,-9.74394,4.88111,0.592726,0.127817,0.40382,0.59551
1700753598062500,-9.58394,4.84511,0.576726,0.152317,0.26982,0.70551
1700753598070312,-9.40394,4.81511,0.555726,0.181417,0.25082,0.81451
1700753598078125,-9.54394,4.86411,0.517726,0.204417,0.21782,0.90751
1700753598085937,-9.10394,4.95711,0.453726,0.242917,0.16682,0.115951
1700753598093750,-8.939394,5.6111,0.390726,0.279617,0.9482,0.125251
1700753598101562,-8.914394,5.12611,0.342726,0.324017,0.12818,0.142851
1700753598109375,-8.917394,5.18611,0.292726,0.377717,0.34718,0.171351
1700753598117187,-8.896394,5.22711,0.256726,0.428417,0.59518,0.206051
1700753598125000,-8.898394,5.30911,0.249726,0.485217,0.88418,0.237951
1700753598132812,-8.916394,5.42011,0.247726,0.539017,0.111818,0.269551
1700753598140625,-8.936394,5.53311,0.238726,0.615617,0.147218,0.304451
1700753598148437,-8.972394,5.71011,0.200726,0.693817,0.171118,0.339051
1700753598156250,-8.986394,5.94011,0.152726,0.790217,0.192118,0.370351
1700753598164062,-8.958394,6.19811,0.121726,0.898917,0.224918,0.409751
1700753598171875,-8.794394,6.27511,0.124726,-1.4717,0.246818,0.456651
1700753598179687,-8.573394,5.98211,0.191726,-1.109017,0.279418,0.500751
1700753598187500,-8.495394,5.41811,0.297726,-1.188517,0.310318,0.529251
1700753598195312,-8.472394,4.87211,0.435726,-1.257117,0.351818,0.540751
1700753598203125,-8.393394,4.34811,0.495726,-1.310117,0.383518,0.533151
1700753598210937,-8.452394,3.91011,0.578726,-1.329117,0.414318,0.492851
1700753598218750,-8.714394,3.64611,0.621726,-1.337317,0.456218,0.454251
1700753598226562,-9.24394,3.60511,0.585726,-1.347117,0.499918,0.417351
1700753598234375,-9.287394,3.78211,0.553726,-1.352617,0.509418,0.385951
1700753598242187,-9.456394,4.15111,0.520726,-1.370917,0.503718,0.381151
1700753598250000,-9.505394,4.54311,0.464726,-1.399817,0.512518,0.384251
1700753598257812,-9.516394,4.86911,0.458726,-1.438317,0.502618,0.401051
1700753598265625,-9.425394,5.3411,0.460726,-1.476917,0.498818,0.430651
1700753598273437,-9.210394,4.94911,0.567726,-1.529217,0.498418,0.461651
1700753598281250,-9.42394,4.58611,0.780726,-1.552417,0.500018,0.480551
1700753598289062,-9.1394,4.12511,0.943726,-1.566417,0.510018,0.496451
1700753598296875,-9.13394,3.81411,0.984726,-1.590817,0.508718,0.499451
1700753598304687,-9.47394,3.64211,-1.6726,-1.581617,0.505218,0.493051
1700753598312500,-9.157394,3.59311,-1.4726,-1.576917,0.515418,0.490151
1700753598320312,-9.267394,3.65211,0.967726,-1.561717,0.510118,0.488551
1700753598328125,-9.323394,3.78311,0.886726,-1.557217,0.514518,0.499651
1700753598335937,-9.370394,3.91111,0.815726,-1.552817,0.514218,0.506051
1700753598343750,-9.396394,3.97411,0.766726,-1.553117,0.506918,0.523151
1700753598351562,-9.298394,3.89911,0.788726,-1.547317,0.497818,0.534051
1700753598359375,-9.96394,3.58911,0.865726,-1.524617,0.503718,0.545351
1700753598367187,-8.984394,3.14211,0.952726,-1.494317,0.501218,0.555051
1700753598375000,-9.58394,2.76911,-1.29726,-1.458917,0.519518,0.541451
1700753598382812,-9.232394,2.53911,-1.72726,-1.425017,0.527518,0.526051
1700753598390625,-9.419394,2.45811,-1.97726,-1.360317,0.517918,0.483851
1700753598398437,-9.631394,2.52011,-1.77726,-1.315617,0.509518,0.452351
1700753598406250,-9.766394,2.68711,-1.29726,-1.275917,0.479218,0.434651
1700753598414062,-9.759394,2.81111,-1.16726,-1.225317,0.456818,0.413951
1700753598421875,-9.588394,2.76911,-1.27726,-1.187117,0.426718,0.396351
1700753598429687,-9.439394,2.55111,-1.81726,-1.129017,0.404118,0.377251
1700753598437500,-9.494394,2.32511,-1.145726,-1.70917,0.396818,0.364951
1700753598445312,-9.601394,2.20411,-1.199726,-1.17417,0.392918,0.352651
1700753598453125,-9.644394,2.18911,-1.231726,0.950317,0.366518,0.344651
1700753598460937,-9.748394,2.30811,-1.236726,0.882917,0.342518,0.319451
1700753598468750,-9.860394,2.53911,-1.179726,0.841717,0.315118,0.304851
1700753598476562,-9.967394,2.76711,-1.125726,0.791017,0.294918,0.276451
1700753598484375,-10.58394,2.97611,-1.73726,0.763617,0.266218,0.268151
1700753598492187,-10.135394,3.18211,0.994726,0.750217,0.219018,0.265751
1700753598500000,-10.201394,3.34711,0.887726,0.742817,0.186518,0.269751
1700753598507812,-10.229394,3.56511,0.813726,0.747817,0.143818,0.281251
1700753598515625,-10.165394,3.76611,0.733726,0.768317,0.98318,0.305451
1700753598523437,-9.883394,3.82611,0.670726,0.792017,0.68618,0.340851
1700753598531250,-9.472394,3.62311,0.660726,0.792717,0.55618,0.380051
1700753598539062,-9.140394,3.19511,0.636726,0.776417,0.69218,0.413551
1700753598546875,-9.16394,2.77211,0.647726,0.774917,0.95418,0.423451
1700753598554687,-8.973394,2.45511,0.708726,0.745417,0.135818,0.405551
1700753598562500,-8.993394,2.22511,0.723726,0.700617,0.167618,0.379751
1700753598570312,-9.135394,2.17611,0.730726,0.661617,0.208618,0.346251
1700753598578125,-9.368394,2.33311,0.712726,0.633517,0.234618,0.312351
1700753598585937,-9.592394,2.54311,0.706726,0.590217,0.245018,0.284551
1700753598593750,-9.726394,2.72311,0.749726,0.570017,0.232218,0.252951
1700753598601562,-9.837394,2.82011,0.745726,0.555917,0.213318,0.224451
1700753598609375,-9.971394,2.90711,0.798726,0.572417,0.187318,0.199951
1700753598617187,-10.68394,2.99711,0.864726,0.578617,0.148718,0.195851
1700753598625000,-10.63394,2.99711,0.900726,0.578817,0.123418,0.198551
1700753598632812,-9.918394,2.89811,0.930726,0.565517,0.94318,0.210751
1700753598640625,-9.690394,2.77311,0.941726,0.556617,0.82018,0.219951
1700753598648437,-9.576394,2.68411,0.902726,0.543017,0.76318,0.222951
1700753598656250,-9.594394,2.67811,0.895726,0.523317,0.82618,0.232851
1700753598664062,-9.555394,2.66811,0.856726,0.494417,0.83318,0.239351
1700753598671875,-9.507394,2.73811,0.790726,0.479117,0.77818,0.232851
1700753598679687,-9.553394,2.85011,0.784726,0.469717,0.70018,0.217051
1700753598687500,-9.628394,2.87611,0.743726,0.455717,0.62218,0.193351
1700753598695312,-9.756394,2.93311,0.675726,0.458417,0.59818,0.172851
1700753598703125,-9.910394,3.8211,0.659726,0.473317,0.44118,0.148751
1700753598710937,-9.949394,3.21111,0.641726,0.483817,0.18518,0.127851
1700753598718750,-9.890394,3.28911,0.628726,0.500717,0.8382,0.126951
1700753598726562,-9.771394,3.36511,0.571726,0.531417,0.32982,0.130951
1700753598734375,-9.553394,3.37611,0.552726,0.563617,0.41082,0.138451
1700753598742187,-9.370394,3.22011,0.600726,0.576017,0.16182,0.157851
1700753598750000,-9.289394,2.92011,0.615726,0.577617,0.11718,0.175751
1700753598757812,-9.304394,2.68211,0.637726,0.576117,0.36718,0.182651
1700753598765625,-9.332394,2.53011,0.676726,0.577517,0.64918,0.187851
1700753598773437,-9.396394,2.45111,0.689726,0.555917,0.79918,0.180451
1700753598781250,-9.496394,2.48911,0.683726,0.543517,0.97018,0.169951
1700753598789062,-9.661394,2.59311,0.665726,0.528117,0.108518,0.167051
1700753598796875,-9.809394,2.66711,0.685726,0.526517,0.110518,0.162451
1700753598804687,-9.889394,2.69711,0.688726,0.509917,0.91318,0.168451
1700753598812500,-9.976394,2.77811,0.690726,0.508517,0.71118,0.166451
1700753598820312,-10.33394,2.86611,0.686726,0.513117,0.54618,0.164551
1700753598828125,-10.7394,2.92811,0.713726,0.527017,0.34718,0.165551
1700753598835937,-9.873394,2.89311,0.725726,0.528817,0.10918,0.171351
1700753598843750,-9.709394,2.79211,0.704726,0.535017,0.7782,0.173951
1700753598851562,-9.617394,2.72711,0.699726,0.535117,0.6182,0.181951
1700753598859375,-9.567394,2.64511,0.692726,0.527317,0.8618,0.175851
1700753598867187,-9.566394,2.61611,0.681726,0.524217,0.7418,0.169651
1700753598875000,-9.595394,2.60811,0.676726,0.533317,0.14518,0.169851
1700753598882812,-9.654394,2.61811,0.667726,0.525617,0.14418,0.163551
1700753598890625,-9.704394,2.63211,0.672726,0.511717,0.9418,0.154051
1700753598898437,-9.734394,2.63411,0.656726,0.504217,0.17418,0.162151
1700753598906250,-9.738394,2.63211,0.644726,0.505617,0.17718,0.159051
1700753598914062,-9.759394,2.63711,0.640726,0.502717,0.14018,0.163751
1700753598921875,-9.825394,2.66211,0.631726,0.499717,0.8818,0.163551
1700753598929687,-9.825394,2.67311,0.615726,0.505917,0.7982,0.164751
1700753598937500,-9.790394,2.67111,0.615726,0.504417,0.9382,0.163251
1700753598945312,-9.727394,2.62711,0.581726,0.506117,0.21682,0.170751
1700753598953125,-9.672394,2.61811,0.578726,0.516817,0.26382,0.169051
1700753598960937,-9.705394,2.65311,0.581726,0.529017,0.29582,0.168851
1700753598968750,-9.734394,2.65211,0.567726,0.531917,0.25782,0.162651
1700753598976562,-9.734394,2.61211,0.553726,0.535017,0.37482,0.160751
1700753598984375,-9.688394,2.57311,0.567726,0.551717,0.30482,0.160751
1700753598992187,-9.669394,2.51011,0.580726,0.554617,0.21782,0.156251
1700753599000000,-9.688394,2.44411,0.578726,0.554817,0.17082,0.167351
1700753599007812,-9.751394,2.38711,0.587726,0.554817,0.12182,0.170651
1700753599015625,-9.777394,2.33911,0.593726,0.538417,0.8082,0.191351
1700753599023437,-9.791394,2.31911,0.607726,0.514117,0.2282,0.201151
1700753599031250,-9.820394,2.30811,0.605726,0.494617,0.1782,0.218551
1700753599039062,-9.865394,2.31511,0.580726,0.482517,0.5582,0.224851
1700753599046875,-9.863394,2.31711,0.575726,0.458417,0.10182,0.240651
1700753599054687,-9.832394,2.33511,0.580726,0.445017,0.21082,0.256251
1700753599062500,-9.804394,2.32811,0.584726,0.422517,0.25582,0.272051
1700753599070312,-9.806394,2.29411,0.566726,0.407317,0.26082,0.275251
1700753599078125,-9.768394,2.28511,0.582726,0.390617,0.31482,0.278451
1700753599085937,-9.665394,2.21611,0.534726,0.384317,0.39582,0.267251
1700753599093750,-9.677394,2.12311,0.547726,0.362517,0.32282,0.240851
1700753599101562,-9.732394,2.10711,0.577726,0.353017,0.37082,0.220151
1700753599109375,-9.711394,2.5611,0.534726,0.336117,0.35382,0.212451
1700753599117187,-9.721394,2.2111,0.545726,0.322117,0.34882,0.195351
1700753599125000,-9.764394,2.4011,0.565726,0.305217,0.34782,0.189251
1700753599132812,-9.771394,2.3511,0.552726,0.289917,0.44882,0.179651
1700753599140625,-9.759394,2.1311,0.538726,0.262117,0.34682,0.164351
1700753599148437,-9.766394,2.811,0.527726,0.260617,0.30082,0.167451
1700753599156250,-9.821394,2.3611,0.506726,0.237717,0.36982,0.159651
1700753599164062,-9.842394,2.6511,0.509726,0.237717,0.48482,0.154651
1700753599171875,-9.842394,2.6911,0.511726,0.222417,0.53682,0.149951
1700753599179687,-9.848394,2.4711,0.504726,0.211617,0.60082,0.138851
1700753599187500,-9.837394,2.4511,0.497726,0.212817,0.59682,0.124651
1700753599195312,-9.842394,2.3311,0.506726,0.209617,0.66182,0.113451
1700753599203125,-9.836394,2.3011,0.506726,0.204717,0.65082,0.91651
1700753599210937,-9.809394,2.11,0.479726,0.195417,0.69982,0.82151
1700753599218750,-9.784394,1.98711,0.465726,0.198217,0.69382,0.69551
1700753599226562,-9.770394,1.95711,0.451726,0.188817,0.65782,0.53851
1700753599234375,-9.765394,1.94611,0.438726,0.185717,0.58782,0.50951
1700753599242187,-9.765394,1.95111,0.454726,0.178017,0.55582,0.49551
1700753599250000,-9.808394,1.96511,0.465726,0.162717,0.50682,0.48151
1700753599257812,-9.845394,1.97211,0.470726,0.159717,0.45982,0.49751
1700753599265625,-9.860394,1.98111,0.467726,0.145917,0.46082,0.48351
1700753599273437,-9.852394,1.99611,0.481726,0.138317,0.46382,0.49951
1700753599281250,-9.852394,1.99811,0.490726,0.133717,0.48182,0.45051
1700753599289062,-9.836394,1.98311,0.495726,0.123017,0.49782,0.42051
1700753599296875,-9.852394,2.311,0.502726,0.118417,0.51582,0.40451
1700753599304687,-9.879394,2.4411,0.506726,0.110717,0.49782,0.37451
1700753599312500,-9.880394,2.9211,0.502726,0.112217,0.54782,0.34151
1700753599320312,-9.865394,2.9011,0.472726,0.109217,0.65182,0.37051
1700753599328125,-9.867394,2.6511,0.470726,0.89317,0.63582,0.27751
1700753599335937,-9.857394,2.4111,0.463726,0.93817,0.73382,0.24351
1700753599343750,-9.855394,2.3211,0.449726,0.87817,0.70282,0.27651
1700753599351562,-9.860394,2.1511,0.452726,0.83217,0.67382,0.27551
1700753599359375,-9.857394,2.1611,0.449726,0.87717,0.60382,0.29351
1700753599367187,-9.850394,2.911,0.443726,0.77117,0.60682,0.29451
1700753599375000,-9.855394,2.2011,0.452726,0.71117,0.60882,0.34251
1700753599382812,-9.853394,2.2011,0.434726,0.65017,0.52982,0.39051
1700753599390625,-9.849394,2.3111,0.438726,0.63417,0.56082,0.31151
1700753599398437,-9.834394,2.1811,0.427726,0.58917,0.56182,0.35951
1700753599406250,-9.828394,2.2411,0.422726,0.54417,0.67982,0.37351
1700753599414062,-9.836394,2.3411,0.431726,0.46617,0.60982,0.28151
1700753599421875,-9.853394,2.3211,0.431726,0.43417,0.50882,0.23651
1700753599429687,-9.862394,2.3111,0.434726,0.39017,0.53082,0.33051
1700753599437500,-9.871394,2.4011,0.431726,0.42017,0.51282,0.31451
1700753599445312,-9.878394,2.5811,0.425726,0.42017,0.49782,0.34651
1700753599453125,-9.842394,2.4411,0.415726,0.36017,0.60082,0.36051
1700753599460937,-9.810394,2.5011,0.427726,0.34417,0.60182,0.32851
1700753599468750,-9.817394,2.6711,0.427726,0.36017,0.49982,0.41051
1700753599476562,-9.840394,2.6911,0.413726,0.37717,0.51982,0.47251
1700753599484375,-9.856394,2.7311,0.436726,0.25517,0.47482,0.50451
1700753599492187,-9.833394,2.5711,0.431726,0.28517,0.47382,0.48851
1700753599500000,-9.831394,2.2811,0.434726,0.19417,0.59282,0.45551
1700753599507812,-9.841394,2.911,0.424726,0.26917,0.50182,0.39551
1700753599515625,-9.850394,1.99711,0.413726,0.20717,0.55382,0.34651
1700753599523437,-9.859394,1.97711,0.415726,0.19317,0.52282,0.39451
1700753599531250,-9.848394,1.98011,0.415726,0.22317,0.48682,0.37951
1700753599539062,-9.837394,2.411,0.429726,0.25317,0.55282,0.34551
1700753599546875,-9.861394,2.2111,0.429726,0.28317,0.54882,0.34651
1700753599554687,-9.882394,2.3811,0.445726,0.31417,0.51682,0.34651
1700753599562500,-9.894394,2.5111,0.454726,0.37517,0.48482,0.37751
1700753599570312,-9.912394,2.4811,0.450726,0.40617,0.51682,0.39351
1700753599578125,-9.905394,2.3411,0.461726,0.40717,0.50282,0.44051
1700753599585937,-9.880394,2.2711,0.468726,0.43817,0.52182,0.50251
1700753599593750,-9.864394,1.99411,0.463726,0.45317,0.46882,0.48851
1700753599601562,-9.850394,1.97711,0.472726,0.43717,0.43582,0.47351
1700753599609375,-9.854394,1.95511,0.484726,0.39217,0.50382,0.48751
1700753599617187,-9.854394,1.95611,0.481726,0.40717,0.51682,0.45751
1700753599625000,-9.854394,1.94211,0.481726,0.40817,0.50382,0.50351
1700753599632812,-9.856394,1.92411,0.479726,0.39217,0.48782,0.47151
1700753599640625,-9.851394,1.91811,0.483726,0.40617,0.51582,0.40951
1700753599648437,-9.849394,1.91511,0.465726,0.37617,0.53482,0.42451
1700753599656250,-9.856394,1.91811,0.477726,0.26817,0.51782,0.34751
1700753599664062,-9.878394,1.92311,0.474726,0.19117,0.50082,0.31651
1700753599671875,-9.863394,1.91311,0.470726,0.28317,0.53382,0.29851
1700753599679687,-9.865394,1.94011,0.463726,0.19317,0.55382,0.37851
1700753599687500,-9.877394,1.98511,0.454726,0.22217,0.51882,0.33151
1700753599695312,-9.878394,2.1711,0.450726,0.34317,0.51682,0.29751
1700753599703125,-9.905394,2.2511,0.425726,0.39117,0.66982,0.37351
1700753599710937,-9.927394,2.3411,0.411726,0.34517,0.68382,0.34351
1700753599718750,-9.900394,2.3211,0.402726,0.33017,0.66782,0.34351
1700753599726562,-9.834394,2.1311,0.383726,0.36017,0.68082,0.29651
1700753599734375,-9.775394,1.98711,0.379726,0.35917,0.64882,0.27951
1700753599742187,-9.759394,1.95411,0.372726,0.31317,0.61582,0.28151
1700753599750000,-9.756394,1.95411,0.370726,0.34217,0.45982,0.22251
1700753599757812,-9.793394,1.96111,0.386726,0.35817,0.42982,0.28551
1700753599765625,-9.838394,1.97111,0.411726,0.38817,0.37782,0.27051
1700753599773437,-9.879394,1.97111,0.438726,0.37317,0.39482,0.26951
1700753599781250,-9.888394,1.96711,0.452726,0.37217,0.32782,0.25551
1700753599789062,-9.881394,1.95411,0.470726,0.38717,0.29182,0.24051
1700753599796875,-9.874394,1.94311,0.467726,0.38717,0.35982,0.25551
1700753599804687,-9.876394,1.92911,0.474726,0.37217,0.32582,0.24051
1700753599812500,-9.890394,1.92711,0.490726,0.41717,0.27582,0.25651
1700753599820312,-9.882394,1.91711,0.497726,0.49317,0.46982,0.17451
1700753599828125,-9.874394,1.91111,0.506726,0.43317,0.45982,0.22051
1700753599835937,-9.876394,1.90311,0.504726,0.40317,0.46082,0.25251
1700753599843750,-9.875394,1.90611,0.506726,0.40317,0.52982,0.20251
1700753599851562,-9.886394,1.91311,0.499726,0.41817,0.54482,0.21851
1700753599859375,-9.884394,1.90911,0.491726,0.43317,0.49982,0.21651
1700753599867187,-9.872394,1.91111,0.474726,0.35817,0.56382,0.23451
1700753599875000,-9.876394,1.91511,0.468726,0.32917,0.54982,0.31351
1700753599882812,-9.872394,1.93311,0.459726,0.42117,0.58482,0.34351
1700753599890625,-9.852394,1.92811,0.443726,0.39117,0.53582,0.37651
1700753599898437,-9.842394,1.91111,0.436726,0.29917,0.60282,0.37651
1700753599906250,-9.858394,1.92011,0.436726,0.29917,0.53582,0.36151
1700753599914062,-9.863394,1.91711,0.447726,0.33117,0.58782,0.42351
1700753599921875,-9.852394,1.92211,0.454726,0.23817,0.55482,0.37651
1700753599929687,-9.873394,1.91211,0.461726,0.25417,0.57482,0.40651
1700753599937500,-9.911394,1.91911,0.465726,0.34517,0.52282,0.40751
1700753599945312,-9.907394,1.92811,0.463726,0.37517,0.52182,0.39151
1700753599953125,-9.864394,1.90811,0.461726,0.34517,0.53982,0.40651
1700753599960937,-9.834394,1.89711,0.465726,0.42217,0.52182,0.45451
1700753599968750,-9.899394,1.92411,0.470726,0.39117,0.46882,0.40951
1700753599976562,-9.922394,1.94911,0.465726,0.57417,0.51482,0.39151
1700753599984375,-9.870394,1.93311,0.445726,0.60417,0.46382,0.40851
1700753599992187,-9.864394,1.93211,0.463726,0.48217,0.60182,0.37351
1700753600000000,-9.863394,1.92411,0.456726,0.57217,0.59582,0.27851
1700753600007812,-9.847394,1.90611,0.451726,0.64817,0.52282,0.26551
1700753600015625,-9.829394,1.86511,0.454726,0.63217,0.52682,0.23251
1700753600023437,-9.833394,1.81611,0.447726,0.55717,0.49682,0.29651
1700753600031250,-9.839394,1.81611,0.442726,0.54217,0.52982,0.29651
1700753600039062,-9.844394,1.80511,0.442726,0.52517,0.46082,0.25051
1700753600046875,-9.854394,1.81311,0.456726,0.41817,0.37482,0.23951
1700753600054687,-9.861394,1.80211,0.463726,0.44917,0.37382,0.25551
1700753600062500,-9.875394,1.80211,0.474726,0.41817,0.39382,0.23751
1700753600070312,-9.906394,1.81911,0.490726,0.41717,0.35682,0.22451
1700753600078125,-9.912394,1.83311,0.493726,0.35517,0.32682,0.17551
1700753600085937,-9.927394,1.83611,0.495726,0.40017,0.38782,0.11251
1700753600093750,-9.920394,1.83611,0.495726,0.38617,0.40482,0.12851
1700753600101562,-9.920394,1.83911,0.508726,0.40117,0.52182,0.12651
1700753600109375,-9.927394,1.85611,0.497726,0.38517,0.42082,0.9651
1700753600117187,-9.896394,1.85311,0.490726,0.40117,0.55682,0.7651
1700753600125000,-9.875394,1.84011,0.488726,0.38717,0.50882,0.15751
1700753600132812,-9.873394,1.84211,0.481726,0.40217,0.57282,0.14051
1700753600140625,-9.875394,1.84011,0.488726,0.38617,0.49082,0.10951
1700753600148437,-9.882394,1.83511,0.476726,0.49217,0.53782,0.7651
1700753600156250,-9.857394,1.83311,0.470726,0.49217,0.51882,0.7751
1700753600164062,-9.838394,1.81711,0.453726,0.41517,0.46682,0.1651
1700753600171875,-9.836394,1.80811,0.449726,0.44517,0.51682,0.1649
1700753600179687,-9.841394,1.81511,0.474726,0.39817,0.41482,0.1349
1700753600187500,-9.865394,1.81211,0.467726,0.45817,0.44282,0.10749
1700753600195312,-9.872394,1.82011,0.476726,0.48917,0.39582,0.4549
1700753600203125,-9.882394,1.83111,0.499726,0.41317,0.39882,0.2949
1700753600210937,-9.904394,1.85711,0.501726,0.39717,0.27982,0.4149
1700753600218750,-9.900394,1.88311,0.499726,0.38317,0.43282,0.2949
1700753600226562,-9.903394,1.89211,0.511726,0.35117,0.46282,0.12449
1700753600234375,-9.903394,1.88711,0.508726,0.36717,0.41482,0.6049
1700753600242187,-9.887394,1.89011,0.506726,0.42917,0.51582,0.3149
1700753600250000,-9.873394,1.89411,0.497726,0.52117,0.44782,0.0
1700753600257812,-9.873394,1.90511,0.504726,0.41417,0.46482,0.1449
1700753600265625,-9.876394,1.89611,0.486726,0.44517,0.51582,0.0
1700753600273437,-9.876394,1.88511,0.472726,0.59717,0.52982,0.1749
1700753600281250,-9.864394,1.86711,0.470726,0.52117,0.53082,0.0
1700753600289062,-9.841394,1.87311,0.470726,0.49017,0.51382,0.3149
1700753600296875,-9.848394,1.87011,0.476726,0.64317,0.52482,0.3149
1700753600304687,-9.855394,1.86911,0.485726,0.58217,0.51182,0.3249
1700753600312500,-9.850394,1.87211,0.483726,0.59717,0.47782,0.0
1700753600320312,-9.860394,1.87611,0.495726,0.56517,0.42682,0.9349
1700753600328125,-9.854394,1.89211,0.510726,0.65717,0.38782,0.6049
1700753600335937,-9.871394,1.88911,0.504726,0.62717,0.42882,0.1549
1700753600343750,-9.871394,1.88711,0.511726,0.58117,0.40982,0.6149
1700753600351562,-9.870394,1.86111,0.524726,0.59717,0.41082,0.151
1700753600359375,-9.873394,1.82011,0.524726,0.56617,0.42982,0.1549
1700753600367187,-9.884394,1.81811,0.524726,0.53617,0.44782,0.1549
1700753600375000,-9.886394,1.80911,0.531726,0.45917,0.44682,0.4649
1700753600382812,-9.891394,1.80711,0.527726,0.42917,0.46782,0.3149
1700753600390625,-9.907394,1.80511,0.508726,0.41417,0.39982,0.1349
1700753600398437,-9.908394,1.81211,0.510726,0.36717,0.49482,0.10849
1700753600406250,-9.900394,1.82111,0.497726,0.38417,0.53382,0.3149
1700753600414062,-9.909394,1.82911,0.490726,0.32217,0.51882,0.4749
1700753600421875,-9.905394,1.85611,0.497726,0.26217,0.55282,0.3149
1700753600429687,-9.887394,1.86711,0.497726,0.27817,0.57082,0.0
1700753600437500,-9.873394,1.86011,0.486726,0.29317,0.57082,0.1649
1700753600445312,-9.873394,1.85511,0.470726,0.30817,0.51982,0.1549
1700753600453125,-9.873394,1.85811,0.472726,0.16917,0.50082,0.9249
1700753600460937,-9.875394,1.86011,0.481726,0.24817,0.53882,0.3251
1700753600468750,-9.869394,1.86611,0.486726,0.24617,0.40582,0.251
1700753600476562,-9.869394,1.87511,0.486726,0.29217,0.41982,0.251
1700753600484375,-9.885394,1.88511,0.506726,0.35317,0.51782,0.6349
1700753600492187,-9.887394,1.89111,0.495726,0.36717,0.51482,0.12649
1700753600500000,-9.878394,1.88911,0.522726,0.35417,0.51882,0.0
1700753600507812,-9.846394,1.88411,0.511726,0.39917,0.46782,0.1549
1700753600515625,-9.837394,1.87811,0.499726,0.38417,0.43182,0.251
1700753600523437,-9.849394,1.88211,0.513726,0.30817,0.53682,0.1649
1700753600531250,-9.878394,1.89211,0.499726,0.38417,0.45082,0.151
1700753600539062,-9.906394,1.91011,0.513726,0.39917,0.48482,0.0
1700753600546875,-9.913394,1.91811,0.511726,0.41417,0.43582,0.1549
1700753600554687,-9.899394,1.91811,0.511726,0.46017,0.53682,0.249
1700753600562500,-9.883394,1.91011,0.529726,0.43017,0.53282,0.1649
1700753600570312,-9.845394,1.88411,0.520726,0.52217,0.53682,0.6051
1700753600578125,-9.819394,1.86711,0.536726,0.50717,0.48282,0.4751
1700753600585937,-9.817394,1.85711,0.540726,0.50817,0.47182,0.10951
1700753600593750,-9.846394,1.87611,0.549726,0.44617,0.45282,0.9551
1700753600601562,-9.873394,1.88711,0.556726,0.37117,0.50582,0.14251
1700753600609375,-9.890394,1.89111,0.549726,0.43117,0.42182,0.12751
1700753600617187,-9.883394,1.89111,0.556726,0.43217,0.50882,0.14051
