time,Acceleration X (m/s^2),Acceleration Y (m/s^2),Acceleration Z (m/s^2),Angular Velocity X (rad/s),Angular Velocity Y (rad/s),Angular Velocity Z (rad/s)
1694788101140625,-8.949928,1.616701,3.332979,2.28323,-0.228465,
1694788101148437,-8.994928,1.609701,3.350979,2.28823,0.217565,0.723824
1694788101156250,-9.6928,1.572701,3.296979,2.30443,0.197365,0.736624
1694788101164062,-9.13928,1.530701,3.242979,2.30463,0.186465,0.747824
1694788101171875,-9.45928,1.469701,3.256979,2.30923,0.160165,0.765424
1694788101179687,-9.58928,1.411701,3.210979,2.31573,0.143165,0.783024
1694788101195312,-9.54928,1.376701,3.125979,2.32693,0.102965,0.816624
1694788101203125,-9.73928,1.382701,3.39979,2.33563,0.88765,0.829324
1694788101210937,-9.153928,1.422701,3.48979,2.33503,0.90665,0.834224
1694788101218750,-9.269928,1.483701,3.150979,2.32873,0.87565,0.839024
1694788101242187,-9.388928,1.541701,3.16979,2.36243,0.37965,0.869524
1694788101250000,-9.447928,1.572701,2.964979,2.35643,0.31465,0.871024
1694788101257812,-9.467928,1.581701,2.967979,2.35653,0.36065,0.866124
1694788101265625,-9.453928,1.566701,2.942979,2.36083,0.25265,0.859824
1694788101273437,-9.460928,1.519701,2.899979,2.35803,0.24965,0.850224
1694788101281250,-9.505928,1.458701,2.858979,2.33953,0.26865,0.843924
1694788101289062,-9.484928,1.403701,2.845979,2.33623,0.36365,0.848724
1694788101296875,-9.389928,1.330701,2.813979,2.32033,0.42365,0.839124
1694788101304687,-9.263928,1.262701,2.725979,2.30713,0.36365,0.840724
1694788101312500,-9.119928,1.213701,2.612979,2.29253,0.36365,0.840724
1694788101320312,-9.1928,1.163701,2.524979,2.28063,0.30365,0.836124
1694788101328125,-8.880928,1.154701,2.474979,2.26193,0.29865,0.824724
1694788101335937,-8.779928,1.137701,2.442979,2.24253,0.20565,0.823124
1694788101343750,-8.707928,1.114701,2.404979,2.21753,0.3765,0.821724
1694788101351562,-8.658928,1.89701,2.406979,2.19043,0.21335,0.821624
1694788101359375,-8.640928,1.75701,2.413979,2.17423,0.52835,0.808824
1694788101367187,-8.669928,1.51701,2.471979,2.16593,0.76235,0.800924
1694788101375000,-8.755928,0.970701,2.533979,2.15583,0.121435,0.794624
1694788101382812,-8.882928,0.826701,2.447979,2.13903,0.177435,0.788324
1694788101390625,-9.21928,0.697701,2.427979,2.13073,0.205635,0.775524
1694788101398437,-9.187928,0.536701,2.429979,2.10503,0.227635,0.772324
1694788101406250,-9.357928,0.359701,2.341979,2.7893,0.249335,0.767624
1694788101414062,-9.472928,0.193701,2.219979,2.5553,0.252135,0.766124
1694788101421875,-9.564928,0.11299,2.115979,2.3023,0.250835,0.759624
1694788101429687,-9.679928,0.182299,2.95979,1.99733,0.250435,0.759724
1694788101437500,-9.791928,0.355299,2.210979,1.96153,0.230035,0.750224
1694788101445312,-9.889928,0.515299,2.271979,1.93433,0.225535,0.748624
1694788101453125,-10.6928,0.625299,2.222979,1.91203,0.217935,0.743724
1694788101460937,-10.126928,0.725299,2.141979,1.87333,0.206935,0.737324
1694788101468750,-10.196928,0.819299,2.82979,1.85223,0.181935,0.732524
1694788101476562,-10.237928,0.880299,2.118979,1.80673,0.147435,0.723024
1694788101484375,-10.322928,0.906299,2.215979,1.77213,0.121335,0.719624
1694788101492187,-10.426928,0.865299,2.243979,1.75603,0.105835,0.708424
1694788101500000,-10.529928,0.840299,2.195979,1.76003,0.106835,0.711824
1694788101507812,-10.628928,0.792299,2.134979,1.76853,0.94835,0.697324
1694788101515625,-10.716928,0.722299,2.107979,1.77023,0.69835,0.702124
1694788101523437,-10.798928,0.677299,2.139979,1.76433,0.29435,0.702024
1694788101531250,-10.815928,0.602299,2.220979,1.76643,0.17265,0.705124
1694788101539062,-10.760928,0.545299,2.229979,1.76333,0.43865,0.709924
1694788101546875,-10.677928,0.515299,2.166979,1.77303,0.76665,0.705124
1694788101554687,-10.552928,0.517299,2.139979,1.78643,0.121765,0.708224
1694788101562500,-10.417928,0.525299,2.172979,1.79763,0.141965,0.698624
1694788101570312,-10.290928,0.510299,2.301979,1.81563,0.176165,0.688924
1694788101578125,-10.170928,0.460299,2.398979,1.81703,0.204165,0.671424
1694788101585937,-10.12928,0.412299,2.466979,1.81993,0.222865,0.657024
1694788101593750,-9.813928,0.391299,2.479979,1.82183,0.236665,0.645824
1694788101601562,-9.654928,0.393299,2.468979,1.83493,0.241165,0.636124
1694788101609375,-9.528928,0.406299,2.488979,1.84253,0.247365,0.615424
1694788101617187,-9.419928,0.428299,2.540979,1.85423,0.257965,0.605824
1694788101625000,-9.333928,0.422299,2.581979,1.86983,0.272165,0.594724
1694788101632812,-9.253928,0.403299,2.608979,1.89053,0.272165,0.589924
1694788101640625,-9.150928,0.411299,2.601979,1.91793,0.281365,0.580324
1694788101648437,-9.58928,0.422299,2.549979,1.92953,0.274965,0.583424
1694788101656250,-8.962928,0.446299,2.494979,1.96193,0.282565,0.569024
1694788101664062,-8.907928,0.482299,2.447979,1.97623,0.282565,0.561124
1694788101671875,-8.871928,0.569299,2.413979,1.98943,0.276065,0.557824
1694788101679687,-8.938928,0.647299,2.440979,2.773,0.264065,0.548424
1694788101687500,-9.81928,0.714299,2.472979,2.2593,0.240165,0.541924
1694788101695312,-9.270928,0.766299,2.587979,2.4183,0.235565,0.537224
1694788101703125,-9.491928,0.808299,2.678979,2.4993,0.210565,0.543524
1694788101710937,-9.686928,0.818299,2.698979,2.4833,0.188765,0.551624
1694788101718750,-9.854928,0.809299,2.920979,2.7103,0.193465,0.559524
1694788101726562,-9.976928,0.754299,2.904979,2.8093,0.166965,0.570724
1694788101734375,-10.57928,0.711299,2.872979,2.10493,0.153065,0.578724
1694788101742187,-10.90928,0.648299,2.843979,2.11353,0.160865,0.596224
1694788101750000,-10.101928,0.585299,2.814979,2.10493,0.184665,0.602724
1694788101757812,-10.66928,0.557299,2.859979,2.9103,0.206365,0.610624
1694788101765625,-10.30928,0.529299,2.816979,2.8103,0.223665,0.602724
1694788101773437,-9.977928,0.499299,2.766979,2.8633,0.234265,0.601024
1694788101781250,-9.895928,0.471299,2.710979,2.7813,0.246765,0.591424
1694788101789062,-9.810928,0.462299,2.651979,2.7483,0.245065,0.581824
1694788101796875,-9.715928,0.478299,2.606979,2.8253,0.251565,0.583524
1694788101804687,-9.646928,0.497299,2.619979,2.7793,0.246665,0.573924
1694788101812500,-9.572928,0.514299,2.673979,2.7443,0.243565,0.569124
1694788101820312,-9.506928,0.550299,2.664979,2.7623,0.238765,0.564324
1694788101828125,-9.427928,0.605299,2.612979,2.8103,0.219965,0.562724
1694788101835937,-9.377928,0.663299,2.569979,2.8073,0.202965,0.565924
1694788101843750,-9.342928,0.710299,2.517979,2.7553,0.190665,0.570824
1694788101851562,-9.340928,0.744299,2.497979,2.7303,0.176365,0.581924
1694788101859375,-9.360928,0.759299,2.493979,2.6323,0.167165,0.585124
1694788101867187,-9.377928,0.757299,2.510979,2.5403,0.145965,0.590124
1694788101875000,-9.398928,0.738299,2.522979,2.3053,0.143965,0.585224
1694788101882812,-9.434928,0.710299,2.497979,2.1393,0.126965,0.588424
1694788101890625,-9.477928,0.686299,2.475979,1.99173,0.119165,0.594824
1694788101898437,-9.511928,0.681299,2.434979,1.97053,0.119165,0.590024
1694788101906250,-9.513928,0.676299,2.407979,1.95243,0.117765,0.585324
1694788101914062,-9.511928,0.667299,2.362979,1.92453,0.99165,0.579024
1694788101921875,-9.509928,0.652299,2.325979,1.90893,0.106665,0.569324
1694788101929687,-9.515928,0.649299,2.294979,1.88063,0.102165,0.553424
1694788101937500,-9.545928,0.647299,2.260979,1.86653,0.105065,0.550224
1694788101945312,-9.552928,0.656299,2.267979,1.85563,0.110965,0.538924
1694788101953125,-9.540928,0.670299,2.260979,1.84073,0.111065,0.527824
1694788101960937,-9.511928,0.692299,2.222979,1.82463,0.112565,0.521324
1694788101968750,-9.481928,0.701299,2.181979,1.80633,0.120665,0.519924
1694788101976562,-9.490928,0.737299,2.154979,1.79393,0.121865,0.513424
1694788101984375,-9.509928,0.740299,2.138979,1.77033,0.120765,0.504024
1694788101992187,-9.541928,0.762299,2.133979,1.74633,0.122165,0.500724
1694788102000000,-9.581928,0.762299,2.129979,1.73513,0.136065,0.487924
1694788102007812,-9.635928,0.750299,2.149979,1.72213,0.140665,0.476724
1694788102015625,-9.700928,0.742299,2.183979,1.68763,0.145565,0.464024
1694788102023437,-9.772928,0.697299,2.204979,1.66713,0.160665,0.443124
1694788102031250,-9.856928,0.638299,2.292979,1.64413,0.173265,0.433624
1694788102039062,-9.962928,0.561299,2.421979,1.61663,0.180865,0.408024
1694788102046875,-10.13928,0.460299,2.497979,1.58413,0.191665,0.387324
1694788102054687,-10.58928,0.358299,2.509979,1.56333,0.196065,0.368024
1694788102062500,-10.118928,0.249299,2.549979,1.54553,0.209865,0.345724
1694788102070312,-10.184928,0.161299,2.610979,1.51263,0.220965,0.328224
1694788102078125,-10.235928,0.77299,2.669979,1.48703,0.236265,0.308924
1694788102085937,-10.191928,0.2701,2.719979,1.46103,0.256565,0.294624
1694788102093750,-10.123928,0.93701,2.737979,1.43393,0.270265,0.278524
1694788102101562,-10.54928,0.170701,2.757979,1.41053,0.287665,0.261124
1694788102109375,-9.994928,0.255701,2.816979,1.39003,0.304665,0.257824
1694788102117187,-9.918928,0.317701,2.870979,1.36023,0.322165,0.249924
1694788102125000,-9.821928,0.383701,2.897979,1.35613,0.329365,0.237024
1694788102132812,-9.689928,0.400701,2.892979,1.35383,0.327965,0.222724
1694788102140625,-9.511928,0.377701,2.861979,1.34723,0.326365,0.211524
1694788102148437,-9.354928,0.357701,2.797979,1.33913,0.321765,0.211524
1694788102156250,-9.206928,0.317701,2.772979,1.33123,0.312265,0.208324
1694788102164062,-9.49928,0.268701,2.743979,1.32963,0.309065,0.203524
1694788102171875,-8.871928,0.248701,2.686979,1.32273,0.301465,0.200424
1694788102179687,-8.688928,0.236701,2.616979,1.31783,0.296765,0.200424
1694788102187500,-8.542928,0.275701,2.600979,1.30573,0.290065,0.203424
1694788102195312,-8.461928,0.350701,2.578979,1.29353,0.282765,0.206824
1694788102203125,-8.431928,0.461701,2.614979,1.29683,0.281265,0.211624
1694788102210937,-8.438928,0.578701,2.724979,1.30983,0.271965,0.219624
1694788102218750,-8.469928,0.703701,2.849979,1.32093,0.267365,0.221224
1694788102226562,-8.493928,0.800701,2.941979,1.33413,0.239065,0.226024
1694788102234375,-8.527928,0.849701,2.941979,1.35823,0.222065,0.237224
1694788102242187,-8.573928,0.899701,2.916979,1.39053,0.197165,0.246824
1694788102250000,-8.681928,0.974701,2.928979,1.40803,0.166065,0.251624
1694788102257812,-8.821928,1.42701,2.950979,1.44533,0.142565,0.259624
1694788102265625,-8.992928,1.100701,3.32979,1.48243,0.117565,0.262824
1694788102273437,-9.181928,1.145701,3.32979,1.51933,0.86465,0.274024
1694788102281250,-9.384928,1.261701,3.16979,1.55823,0.61365,0.278824
1694788102289062,-9.607928,1.360701,3.48979,1.59223,0.63065,0.291624
1694788102296875,-9.819928,1.416701,3.32979,1.62963,0.48865,0.304324
1694788102304687,-10.3928,1.443701,3.37979,1.64733,0.61465,0.310724
1694788102312500,-10.130928,1.470701,3.8979,1.66833,0.66265,0.315524
1694788102320312,-10.229928,1.464701,2.908979,1.68783,0.64665,0.323524
1694788102328125,-10.293928,1.457701,2.895979,1.70083,0.67965,0.339524
1694788102335937,-10.309928,1.486701,2.868979,1.71193,0.83665,0.339524
1694788102343750,-10.279928,1.527701,2.805979,1.72893,0.89665,0.352124
1694788102351562,-10.221928,1.546701,2.777979,1.74193,0.106765,0.350524
1694788102359375,-10.120928,1.538701,2.728979,1.73363,0.131865,0.347424
1694788102367187,-9.997928,1.518701,2.696979,1.75353,0.150465,0.361724
1694788102375000,-9.895928,1.481701,2.667979,1.76013,0.172265,0.360024
1694788102382812,-9.812928,1.454701,2.635979,1.76343,0.183365,0.366424
1694788102390625,-9.713928,1.401701,2.605979,1.77833,0.206665,0.376024
1694788102398437,-9.638928,1.381701,2.585979,1.78753,0.216365,0.380924
1694788102406250,-9.528928,1.350701,2.580979,1.81213,0.228665,0.382424
1694788102414062,-9.432928,1.333701,2.585979,1.84173,0.239565,0.401524
1694788102421875,-9.347928,1.305701,2.585979,1.86463,0.245765,0.409424
1694788102429687,-9.263928,1.284701,2.580979,1.89213,0.259865,0.419024
1694788102437500,-9.198928,1.271701,2.558979,1.91843,0.272265,0.433324
1694788102445312,-9.135928,1.273701,2.524979,1.95403,0.278765,0.460524
1694788102453125,-9.111928,1.290701,2.553979,1.97533,0.286565,0.474824
1694788102460937,-9.89928,1.297701,2.544979,2.1103,0.292965,0.490824
1694788102468750,-9.49928,1.318701,2.530979,2.5323,0.296165,0.511524
1694788102476562,-9.68928,1.363701,2.578979,2.8613,0.296065,0.535424
1694788102484375,-9.79928,1.392701,2.614979,2.11513,0.283865,0.556224
1694788102492187,-9.62928,1.429701,2.567979,2.14283,0.272865,0.569024
1694788102500000,-9.71928,1.496701,2.549979,2.17673,0.274665,0.589824
1694788102507812,-9.102928,1.558701,2.533979,2.20613,0.271565,0.608924
1694788102515625,-9.128928,1.625701,2.501979,2.23253,0.263665,0.624824
1694788102523437,-9.148928,1.672701,2.497979,2.25493,0.268565,0.639224
1694788102531250,-9.200928,1.686701,2.499979,2.27793,0.265465,0.656824
1694788102539062,-9.276928,1.696701,2.517979,2.29723,0.264065,0.671224
1694788102546875,-9.336928,1.706701,2.492979,2.31163,0.247065,0.682424
1694788102554687,-9.419928,1.703701,2.476979,2.34403,0.247265,0.701624
1694788102562500,-9.493928,1.688701,2.474979,2.36423,0.243865,0.715824
1694788102570312,-9.578928,1.670701,2.515979,2.38523,0.239465,0.741424
1694788102578125,-9.647928,1.662701,2.562979,2.38853,0.244265,0.755824
1694788102585937,-9.673928,1.628701,2.576979,2.38823,0.247865,0.771924
1694788102593750,-9.681928,1.576701,2.621979,2.39193,0.246265,0.792624
1694788102601562,-9.647928,1.532701,2.621979,2.38093,0.263565,0.813324
1694788102609375,-9.605928,1.538701,2.784979,2.36803,0.284065,0.821324
1694788102617187,-9.515928,1.530701,2.915979,2.37463,0.280965,0.832524
1694788102625000,-9.386928,1.536701,2.854979,2.38963,0.272965,0.840424
1694788102632812,-9.294928,1.550701,2.849979,2.40103,0.262165,0.854824
1694788102640625,-9.239928,1.594701,2.795979,2.38813,0.248065,0.856424
1694788102648437,-9.197928,1.656701,2.786979,2.38413,0.268765,0.848524
1694788102656250,-9.218928,1.723701,2.865979,2.36993,0.273365,0.848524
1694788102664062,-9.164928,1.736701,2.905979,2.36083,0.275465,0.845524
1694788102671875,-9.135928,1.735701,2.865979,2.36323,0.263865,0.832524
1694788102679687,-9.149928,1.736701,2.837979,2.36043,0.247365,0.831124
1694788102687500,-9.205928,1.724701,2.844979,2.36343,0.235465,0.824424
1694788102695312,-9.276928,1.688701,2.863979,2.34803,0.218765,0.824624
1694788102703125,-9.333928,1.636701,2.860979,2.33963,0.190665,0.813524
1694788102710937,-9.384928,1.605701,2.878979,2.32533,0.168565,0.807024
1694788102718750,-9.449928,1.562701,2.912979,2.30903,0.145165,0.803924
1694788102726562,-9.455928,1.520701,2.872979,2.30683,0.120365,0.794424
1694788102734375,-9.405928,1.470701,2.799979,2.28623,0.110765,0.797524
1694788102742187,-9.326928,1.429701,2.714979,2.26203,0.91965,0.792724
1694788102750000,-9.237928,1.370701,2.614979,2.23403,0.73465,0.789624
1694788102757812,-9.133928,1.316701,2.530979,2.20253,0.69365,0.788224
1694788102765625,-9.43928,1.261701,2.460979,2.17623,0.65565,0.783224
1694788102773437,-8.943928,1.173701,2.377979,2.15463,0.59465,0.775324
1694788102781250,-8.902928,1.90701,2.300979,2.15003,0.42065,0.768824
1694788102789062,-8.937928,0.940701,2.318979,2.15453,0.35965,0.764124
1694788102796875,-9.18928,0.777701,2.366979,2.15293,0.24965,0.762524
1694788102804687,-9.150928,0.615701,2.406979,2.15293,0.15665,0.765724
1694788102812500,-9.309928,0.445701,2.474979,2.15793,0.1765,0.786524
1694788102820312,-9.474928,0.259701,2.531979,2.17103,0.1865,0.802424
1694788102828125,-9.648928,0.94701,2.578979,2.16923,0.2065,0.813724
1694788102835937,-9.742928,0.106299,2.606979,2.16543,0.16065,0.842324
1694788102843750,-9.782928,0.274299,2.581979,2.16093,0.24065,0.871024
1694788102851562,-9.811928,0.411299,2.531979,2.13553,0.28965,0.902924
1694788102859375,-9.816928,0.479299,2.533979,2.12783,0.55765,0.931724
1694788102867187,-9.805928,0.553299,2.547979,2.9503,0.86865,0.955524
1694788102875000,-9.770928,0.566299,2.597979,2.7863,0.102865,0.979524
1694788102882812,-9.741928,0.520299,2.601979,2.7013,0.112765,0.994024
1694788102890625,-9.716928,0.452299,2.558979,2.5613,0.127965,0.987524
1694788102898437,-9.715928,0.352299,2.551979,2.5233,0.137665,0.979624
1694788102906250,-9.737928,0.228299,2.570979,2.5443,0.143465,0.966724
1694788102914062,-9.790928,0.141299,2.551979,2.5263,0.148065,0.953924
1694788102921875,-9.861928,0.49299,2.538979,2.5403,0.146265,0.928424
1694788102929687,-9.951928,0.5299,2.522979,2.6043,0.152365,0.918824
1694788102937500,-10.64928,0.40701,2.484979,2.5343,0.147565,0.883724
1694788102945312,-10.203928,0.80701,2.477979,2.7543,0.163065,0.853424
1694788102953125,-10.290928,0.90701,2.455979,2.8023,0.180065,0.839024
1694788102960937,-10.360928,0.111701,2.385979,2.8363,0.195465,0.821424
1694788102968750,-10.420928,0.112701,2.400979,2.10583,0.226765,0.807124
1694788102976562,-10.416928,0.116701,2.480979,2.10453,0.259265,0.799024
1694788102984375,-10.335928,0.115701,2.516979,2.12213,0.288965,0.791024
1694788102992187,-10.226928,0.118701,2.543979,2.12363,0.312465,0.787924
1694788103000000,-10.107928,0.103701,2.644979,2.12763,0.349565,0.789324
1694788103007812,-9.977928,0.101701,2.725979,2.11943,0.379265,0.778124
1694788103015625,-9.837928,0.132701,2.687979,2.10043,0.392965,0.766924
1694788103023437,-9.788928,0.137701,2.872979,2.8603,0.414565,0.750824
1694788103031250,-9.689928,0.139701,2.852979,2.7073,0.422665,0.741424
1694788103039062,-9.636928,0.178701,2.845979,2.5393,0.435365,0.720724
1694788103046875,-9.560928,0.205701,2.953979,2.2713,0.442665,0.704624
1694788103054687,-9.484928,0.233701,2.967979,1.99083,0.452165,0.679224
1694788103062500,-9.391928,0.256701,2.983979,1.96483,0.454965,0.644024
1694788103070312,-9.306928,0.286701,3.39979,1.93233,0.454865,0.628024
1694788103078125,-9.199928,0.313701,3.102979,1.89203,0.451565,0.613624
1694788103085937,-9.106928,0.336701,3.197979,1.85763,0.457865,0.591324
1694788103093750,-9.48928,0.359701,3.274979,1.82703,0.446465,0.560924
1694788103101562,-9.17928,0.379701,3.346979,1.78883,0.442165,0.538724
1694788103109375,-8.997928,0.408701,3.396979,1.75283,0.420265,0.518024
1694788103117187,-8.977928,0.425701,3.414979,1.71893,0.412265,0.497224
1694788103125000,-8.989928,0.437701,3.475979,1.68583,0.401665,0.484624
1694788103132812,-9.15928,0.425701,3.477979,1.64753,0.388665,0.466924
1694788103140625,-9.55928,0.397701,3.484979,1.61623,0.369965,0.446224
1694788103148437,-9.95928,0.387701,3.511979,1.57563,0.362165,0.433524
1694788103156250,-9.128928,0.357701,3.545979,1.53443,0.348365,0.414524
1694788103164062,-9.157928,0.331701,3.558979,1.49883,0.343765,0.408124
1694788103171875,-9.170928,0.306701,3.545979,1.45503,0.320365,0.404924
1694788103179687,-9.184928,0.315701,3.592979,1.43103,0.313765,0.390524
1694788103187500,-9.190928,0.305701,3.592979,1.39493,0.317265,0.382624
1694788103195312,-9.181928,0.257701,3.592979,1.36653,0.302765,0.379324
1694788103203125,-9.151928,0.197701,3.556979,1.34963,0.292165,0.368224
1694788103210937,-9.120928,0.115701,3.549979,1.33013,0.284365,0.365024
1694788103218750,-9.106928,0.77701,3.581979,1.30413,0.265665,0.357124
1694788103226562,-9.74928,0.17701,3.642979,1.27513,0.248365,0.353924
1694788103234375,-9.45928,0.0,3.660979,1.25133,0.237165,0.352224
1694788103242187,-9.33928,0.36299,3.637979,1.23743,0.223565,0.344424
1694788103250000,-9.75928,0.68299,3.608979,1.22243,0.209665,0.334924
1694788103257812,-9.129928,0.75299,3.608979,1.20373,0.201365,0.333124
1694788103265625,-9.169928,0.78299,3.606979,1.16693,0.205365,0.327024
1694788103273437,-9.236928,0.48299,3.594979,1.14103,0.211565,0.322224
1694788103281250,-9.306928,0.21299,3.617979,1.11483,0.218565,0.315624
1694788103289062,-9.381928,0.12701,3.640979,1.9033,0.220365,0.312424
1694788103296875,-9.411928,0.43701,3.653979,1.7143,0.230965,0.312324
1694788103304687,-9.413928,0.55701,3.705979,1.6093,0.228265,0.302924
1694788103312500,-9.392928,0.32701,3.728979,1.4703,0.231165,0.310824
1694788103320312,-9.354928,0.3299,3.703979,1.3543,0.234465,0.310824
1694788103328125,-9.300928,0.44299,3.717979,1.2143,0.235765,0.312324
1694788103335937,-9.225928,0.75299,3.665979,0.99163,0.237765,0.312524
1694788103343750,-9.153928,0.97299,3.624979,0.97303,0.234165,0.309124
1694788103351562,-9.86928,0.109299,3.624979,0.94373,0.226465,0.304424
1694788103359375,-9.16928,0.121299,3.610979,0.93223,0.228165,0.306024
1694788103367187,-8.969928,0.106299,3.594979,0.91553,0.222265,0.309324
1694788103375000,-8.925928,0.100299,3.633979,0.88843,0.222265,0.314124
1694788103382812,-8.925928,0.84299,3.628979,0.86403,0.215965,0.306124
1694788103390625,-8.917928,0.45299,3.628979,0.84173,0.207865,0.298024
1694788103398437,-8.938928,0.12299,3.669979,0.82423,0.195265,0.299624
1694788103406250,-8.967928,0.18701,3.685979,0.80793,0.190565,0.288424
1694788103414062,-8.999928,0.75701,3.750979,0.78603,0.190965,0.280624
1694788103421875,-9.78928,0.125701,3.827979,0.76943,0.175565,0.269524
1694788103429687,-9.140928,0.161701,3.872979,0.74263,0.171865,0.258224
1694788103437500,-9.216928,0.194701,3.850979,0.72853,0.152065,0.245624
1694788103445312,-9.295928,0.228701,3.866979,0.72213,0.137865,0.237624
1694788103453125,-9.365928,0.266701,3.877979,0.70473,0.126565,0.224724
1694788103460937,-9.428928,0.301701,3.839979,0.68513,0.120365,0.215224
1694788103468750,-9.462928,0.354701,3.784979,0.65253,0.117365,0.210424
1694788103476562,-9.512928,0.406701,3.714979,0.62823,0.123565,0.205624
1694788103484375,-9.553928,0.474701,3.685979,0.61153,0.133165,0.196224
1694788103492187,-9.581928,0.518701,3.660979,0.57823,0.143665,0.178424
1694788103500000,-9.557928,0.542701,3.611979,0.54873,0.157965,0.176924
1694788103507812,-9.468928,0.580701,3.746979,0.52493,0.190365,0.157624
1694788103515625,-9.337928,0.591701,3.766979,0.50103,0.196365,0.148024
1694788103523437,-9.206928,0.570701,3.741979,0.48783,0.194865,0.143324
1694788103531250,-9.96928,0.542701,3.757979,0.45823,0.196565,0.127424
1694788103539062,-8.985928,0.503701,3.759979,0.42363,0.195265,0.117924
1694788103546875,-8.904928,0.466701,3.841979,0.39793,0.196665,0.101924
1694788103554687,-8.810928,0.444701,3.908979,0.37873,0.185665,0.103524
1694788103562500,-8.749928,0.417701,3.883979,0.36483,0.167365,0.95724
1694788103570312,-8.711928,0.381701,3.863979,0.35553,0.151465,0.94024
1694788103578125,-8.728928,0.359701,3.877979,0.34243,0.135865,0.89224
1694788103585937,-8.800928,0.353701,3.877979,0.33443,0.127865,0.79624
1694788103593750,-8.878928,0.362701,3.859979,0.32253,0.114165,0.78124
1694788103601562,-8.959928,0.381701,3.852979,0.32053,0.115865,0.71824
1694788103609375,-9.33928,0.402701,3.872979,0.31113,0.112565,0.71824
1694788103617187,-9.110928,0.431701,3.852979,0.31133,0.110865,0.70124
1694788103625000,-9.182928,0.462701,3.870979,0.31043,0.101965,0.65524
1694788103632812,-9.218928,0.508701,3.913979,0.30813,0.109265,0.70124
1694788103640625,-9.255928,0.542701,3.911979,0.29193,0.112465,0.70124
1694788103648437,-9.271928,0.568701,3.909979,0.28113,0.107565,0.71624
1694788103656250,-9.254928,0.622701,3.890979,0.27553,0.109465,0.68624
1694788103664062,-9.241928,0.659701,3.872979,0.26633,0.109165,0.66924
1694788103671875,-9.212928,0.676701,3.881979,0.27913,0.96665,0.65324
1694788103679687,-9.134928,0.689701,3.875979,0.27233,0.93665,0.60624
1694788103687500,-9.69928,0.691701,3.863979,0.27613,0.79265,0.57224
1694788103695312,-9.22928,0.682701,3.823979,0.28733,0.71565,0.58824
1694788103703125,-8.999928,0.678701,3.771979,0.29013,0.66965,0.58924
1694788103710937,-9.2928,0.693701,3.694979,0.29323,0.51365,0.57324
1694788103718750,-9.18928,0.700701,3.642979,0.29183,0.46565,0.50924
1694788103726562,-9.54928,0.734701,3.637979,0.29123,0.42165,0.49424
1694788103734375,-9.70928,0.774701,3.633979,0.28503,0.45165,0.47824
1694788103742187,-9.71928,0.820701,3.626979,0.28213,0.44965,0.47724
1694788103750000,-9.31928,0.876701,3.597979,0.26523,0.46765,0.35124
1694788103757812,-9.25928,0.906701,3.522979,0.25413,0.41965,0.28624
1694788103765625,-9.15928,0.961701,3.497979,0.24983,0.46265,0.28524
1694788103773437,-9.9928,1.14701,3.515979,0.23993,0.47865,0.22124
1694788103781250,-9.1928,1.70701,3.527979,0.22503,0.51265,0.20624
1694788103789062,-8.971928,1.129701,3.538979,0.23173,0.54065,0.4624
1694788103796875,-8.942928,1.159701,3.549979,0.22173,0.50965,0.6576
1694788103804687,-8.886928,1.178701,3.592979,0.21853,0.47665,0.16176
1694788103812500,-8.835928,1.191701,3.596979,0.21793,0.38465,0.27176
1694788103820312,-8.815928,1.222701,3.574979,0.20483,0.32165,0.36776
1694788103828125,-8.794928,1.263701,3.574979,0.20353,0.30365,0.48076
1694788103835937,-8.772928,1.319701,3.576979,0.18513,0.30465,0.62276
1694788103843750,-8.761928,1.383701,3.587979,0.15853,0.19865,0.76576
1694788103851562,-8.749928,1.461701,3.608979,0.14023,0.15265,0.93976
1694788103859375,-8.784928,1.518701,3.646979,0.11663,0.17865,0.105376
1694788103867187,-8.838928,1.562701,3.700979,0.9833,0.16265,0.129276
1694788103875000,-8.910928,1.596701,3.759979,0.10283,0.5635,0.149976
1694788103882812,-8.989928,1.619701,3.791979,0.9173,0.4335,0.156476
1694788103890625,-9.70928,1.658701,3.770979,0.7683,0.24635,0.170776
1694788103898437,-9.183928,1.686701,3.800979,0.7363,0.35635,0.177176
1694788103906250,-9.297928,1.689701,3.829979,0.7243,0.40635,0.185276
1694788103914062,-9.386928,1.698701,3.838979,0.7293,0.54235,0.192976
1694788103921875,-9.467928,1.700701,3.872979,0.5323,0.44735,0.197776
1694788103929687,-9.476928,1.708701,3.809979,0.3943,0.38935,0.202776
1694788103937500,-9.481928,1.706701,3.789979,0.2483,0.35835,0.204276
1694788103945312,-9.481928,1.726701,3.773979,0.83,0.34235,0.201176
1694788103953125,-9.443928,1.719701,3.773979,0.1397,0.29335,0.199476
1694788103960937,-9.393928,1.710701,3.748979,0.4027,0.30535,0.196176
1694788103968750,-9.326928,1.701701,3.714979,0.5237,0.27835,0.197976
1694788103976562,-9.279928,1.696701,3.701979,0.9227,0.12435,0.196476
1694788103984375,-9.214928,1.670701,3.705979,0.10697,0.18535,0.198076
1694788103992187,-9.155928,1.650701,3.678979,0.12037,0.27635,0.194676
1694788104000000,-9.92928,1.625701,3.685979,0.14127,0.24535,0.188376
1694788104007812,-9.40928,1.602701,3.687979,0.16217,0.25935,0.183576
1694788104015625,-9.6928,1.561701,3.662979,0.17157,0.27635,0.177176
1694788104023437,-8.995928,1.536701,3.651979,0.18757,0.24535,0.174076
1694788104031250,-8.974928,1.527701,3.633979,0.20537,0.29035,0.169176
1694788104039062,-8.972928,1.501701,3.635979,0.21017,0.30535,0.162876
1694788104046875,-8.983928,1.483701,3.664979,0.21647,0.29035,0.161276
1694788104054687,-9.2928,1.464701,3.694979,0.22467,0.14835,0.156476
1694788104062500,-9.7928,1.470701,3.746979,0.22137,0.10335,0.166076
1694788104070312,-9.928,1.478701,3.646979,0.22547,0.20835,0.170676
1694788104078125,-8.996928,1.491701,3.563979,0.21567,0.11535,0.169076
1694788104085937,-9.26928,1.520701,3.603979,0.21507,0.3765,0.172376
1694788104093750,-9.83928,1.510701,3.610979,0.21047,0.5465,0.170776
1694788104101562,-9.90928,1.498701,3.572979,0.20847,0.1035,0.172476
1694788104109375,-9.54928,1.458701,3.484979,0.21047,0.935,0.181976
1694788104117187,-9.53928,1.445701,3.502979,0.20597,0.10265,0.181876
1694788104125000,-9.65928,1.472701,3.624979,0.20267,0.13065,0.194676
1694788104132812,-9.77928,1.512701,3.728979,0.21397,0.16165,0.201076
1694788104140625,-9.99928,1.618701,3.775979,0.22557,0.2065,0.213876
1694788104148437,-9.107928,1.703701,3.757979,0.24327,0.1135,0.221876
1694788104156250,-9.119928,1.760701,3.698979,0.25607,0.7535,0.233076
1694788104164062,-9.130928,1.785701,3.682979,0.29507,0.6565,0.237776
1694788104171875,-9.128928,1.787701,3.667979,0.32907,0.11265,0.247376
1694788104179687,-9.128928,1.791701,3.689979,0.36467,0.1865,0.258576
1694788104187500,-9.135928,1.794701,3.635979,0.41187,0.21535,0.274476
1694788104195312,-9.126928,1.807701,3.640979,0.44597,0.32435,0.279276
1694788104203125,-9.122928,1.833701,3.628979,0.49947,0.48035,0.287276
1694788104210937,-9.78928,1.882701,3.653979,0.53037,0.68135,0.285576
1694788104218750,-9.48928,1.941701,3.644979,0.57727,0.94635,0.285576
1694788104226562,-9.44928,1.972701,3.581979,0.62087,0.103935,0.283976
1694788104234375,-9.19928,1.985701,3.558979,0.65967,0.111735,0.287176
1694788104242187,-9.11928,2.11701,3.526979,0.70997,0.131835,0.287076
1694788104250000,-9.10928,2.32701,3.497979,0.75807,0.137435,0.297976
1694788104257812,-9.6928,2.45701,3.477979,0.80137,0.159535,0.302876
1694788104265625,-9.928,2.70701,3.458979,0.84127,0.162035,0.310576
1694788104273437,-9.24928,2.52701,3.436979,0.87817,0.167035,0.328176
1694788104281250,-9.38928,2.23701,3.429979,0.90477,0.175535,0.346076
1694788104289062,-9.53928,1.990701,3.420979,0.94537,0.172435,0.360376
1694788104296875,-9.74928,1.960701,3.402979,0.97877,0.178235,0.376176
1694788104304687,-9.110928,1.946701,3.429979,-1.1707,0.180335,0.400276
1694788104312500,-9.94928,1.922701,3.402979,-1.5907,0.178835,0.408276
1694788104320312,-9.62928,1.895701,3.386979,-1.8997,0.183535,0.425776
1694788104328125,-9.33928,1.881701,3.362979,-1.12247,0.177235,0.432176
1694788104335937,-8.992928,1.863701,3.325979,-1.16127,0.175735,0.440176
1694788104343750,-8.970928,1.869701,3.283979,-1.18077,0.180435,0.448076
1694788104351562,-8.968928,1.899701,3.258979,-1.21747,0.175135,0.462176
1694788104359375,-8.957928,1.929701,3.224979,-1.24257,0.175635,0.463976
1694788104367187,-8.971928,1.965701,3.199979,-1.26717,0.177035,0.473476
1694788104375000,-8.999928,2.13701,3.201979,-1.29387,0.177435,0.478576
1694788104382812,-9.67928,2.88701,3.206979,-1.33317,0.174035,0.481576
1694788104390625,-9.133928,2.166701,3.183979,-1.35417,0.177335,0.494376
1694788104398437,-9.175928,2.220701,3.152979,-1.38807,0.180435,0.502376
1694788104406250,-9.251928,2.230701,3.97979,-1.43017,0.185135,0.510376
1694788104414062,-9.276928,2.260701,3.188979,-1.46337,0.179935,0.511676
1694788104421875,-9.310928,2.299701,3.251979,-1.49637,0.188235,0.513576
1694788104429687,-9.355928,2.329701,3.174979,-1.50627,0.196135,0.529476
1694788104437500,-9.429928,2.332701,3.172979,-1.54027,0.194535,0.539076
1694788104445312,-9.460928,2.327701,3.118979,-1.57857,0.194035,0.551576
1694788104453125,-9.442928,2.297701,3.100979,-1.60667,0.183635,0.551876
1694788104460937,-9.430928,2.262701,3.61979,-1.64507,0.178235,0.557876
1694788104468750,-9.423928,2.213701,3.34979,-1.68127,0.164835,0.570976
1694788104476562,-9.388928,2.161701,3.18979,-1.71527,0.161635,0.577276
1694788104484375,-9.366928,2.127701,3.16979,-1.75887,0.155535,0.590176
1694788104492187,-9.314928,2.100701,3.27979,-1.79777,0.154035,0.604476
1694788104500000,-9.231928,2.87701,3.23979,-1.84427,0.146335,0.612576
1694788104507812,-9.160928,2.81701,3.21979,-1.88297,0.140235,0.620576
1694788104515625,-9.106928,2.97701,3.16979,-1.91277,0.147735,0.631576
1694788104523437,-9.77928,2.92701,3.23979,-1.94507,0.154235,0.650876
1694788104531250,-9.54928,2.105701,3.30979,-1.96787,0.154135,0.657176
1694788104539062,-9.61928,2.114701,3.48979,-1.99207,0.143335,0.666776
1694788104546875,-9.41928,2.98701,3.61979,-2.997,0.141835,0.684376
1694788104554687,-9.52928,2.71701,3.102979,-2.2487,0.144935,0.697076
1694788104562500,-9.84928,2.21701,3.154979,-2.2997,0.151235,0.704976
1694788104570312,-9.125928,1.981701,3.213979,-2.5367,0.145235,0.709976
1694788104578125,-9.168928,1.925701,3.233979,-2.7837,0.146635,0.722676
1694788104585937,-9.223928,1.855701,3.287979,-2.8507,0.162235,0.724176
1694788104593750,-9.280928,1.778701,3.290979,-2.9617,0.181035,0.722676
1694788104601562,-9.322928,1.685701,3.276979,-2.9777,0.184235,0.730676
1694788104609375,-9.374928,1.600701,3.272979,-2.11607,0.183935,0.728876
1694788104617187,-9.421928,1.510701,3.240979,-2.11757,0.183935,0.722476
1694788104625000,-9.436928,1.433701,3.222979,-2.12307,0.188235,0.723976
1694788104632812,-9.457928,1.371701,3.215979,-2.12757,0.177435,0.719276
1694788104640625,-9.474928,1.283701,3.213979,-2.12877,0.171335,0.717776
1694788104648437,-9.448928,1.209701,3.206979,-2.13027,0.162135,0.719376
1694788104656250,-9.427928,1.131701,3.177979,-2.11237,0.151235,0.717776
1694788104664062,-9.415928,1.53701,3.159979,-2.10577,0.134035,0.713076
1694788104671875,-9.369928,0.973701,3.134979,-2.10537,0.123235,0.709976
1694788104679687,-9.324928,0.895701,3.127979,-2.9957,0.111935,0.708176
1694788104687500,-9.261928,0.839701,3.100979,-2.8627,0.94935,0.706676
1694788104695312,-9.163928,0.817701,3.120979,-2.9227,0.90435,0.703576
1694788104703125,-9.59928,0.816701,3.140979,-2.7967,0.82535,0.708276
1694788104710937,-8.959928,0.834701,3.111979,-2.7947,0.85735,0.703576
1694788104718750,-8.869928,0.842701,3.68979,-2.7987,0.93435,0.708276
1694788104726562,-8.802928,0.832701,3.30979,-2.8147,0.102835,0.716276
1694788104734375,-8.774928,0.808701,2.955979,-2.7777,0.108435,0.715876
1694788104742187,-8.805928,0.770701,2.865979,-2.8187,0.124735,0.727376
1694788104750000,-8.866928,0.735701,2.772979,-2.7527,0.143635,0.738576
1694788104757812,-8.961928,0.695701,2.666979,-2.7897,0.149735,0.743276
1694788104765625,-9.81928,0.650701,2.612979,-2.7647,0.160535,0.757476
1694788104773437,-9.248928,0.624701,2.641979,-2.8927,0.160735,0.768776
1694788104781250,-9.425928,0.613701,2.736979,-2.8747,0.154735,0.783176
1694788104789062,-9.566928,0.589701,2.849979,-2.9727,0.156235,0.786376
1694788104796875,-9.670928,0.542701,2.917979,-2.10477,0.152835,0.810076
1694788104804687,-9.723928,0.467701,3.1979,-2.10457,0.151535,0.819776
1694788104812500,-9.758928,0.381701,3.23979,-2.12197,0.151635,0.811876
1694788104820312,-9.745928,0.286701,3.35979,-2.14177,0.160835,0.818176
1694788104828125,-9.681928,0.203701,2.987979,-2.15757,0.164235,0.819876
1694788104835937,-9.635928,0.134701,3.3979,-2.17627,0.169835,0.817976
1694788104843750,-9.596928,0.62701,3.26979,-2.18027,0.181335,0.821476
1694788104851562,-9.564928,0.6701,3.82979,-2.19177,0.179635,0.822976
1694788104859375,-9.564928,0.26299,3.139979,-2.20307,0.184435,0.834176
1694788104867187,-9.558928,0.83299,3.55979,-2.21107,0.192935,0.835376
1694788104875000,-9.544928,0.151299,3.141979,-2.20167,0.195435,0.845376
1694788104882812,-9.571928,0.243299,3.220979,-2.20527,0.198235,0.838876
1694788104890625,-9.613928,0.326299,3.285979,-2.20427,0.211935,0.837076
1694788104898437,-9.634928,0.384299,3.380979,-2.19937,0.229335,0.845076
1694788104906250,-9.655928,0.367299,3.450979,-2.19847,0.240735,0.843776
1694788104914062,-9.703928,0.306299,3.491979,-2.20547,0.256135,0.845276
1694788104921875,-9.715928,0.237299,3.509979,-2.20027,0.267335,0.846976
1694788104929687,-9.709928,0.173299,3.414979,-2.18797,0.303135,0.856376
1694788104937500,-9.679928,0.116299,3.256979,-2.18317,0.320235,0.849976
1694788104945312,-9.686928,0.86299,3.168979,-2.17617,0.325935,0.857676
1694788104953125,-9.693928,0.67299,3.136979,-2.15687,0.334535,0.850176
1694788104960937,-9.739928,0.13299,3.98979,-2.14917,0.345335,0.850076
1694788104968750,-9.726928,0.43701,3.44979,-2.13927,0.332935,0.850176
1694788104976562,-9.700928,0.108701,2.987979,-2.13207,0.327835,0.856276
1694788104984375,-9.674928,0.167701,3.17979,-2.13337,0.307835,0.862776
1694788104992187,-9.630928,0.220701,2.976979,-2.14277,0.292335,0.869176
1694788105000000,-9.545928,0.258701,2.867979,-2.16237,0.286035,0.870776
1694788105007812,-9.495928,0.342701,2.928979,-2.16407,0.278335,0.885076
1694788105015625,-9.449928,0.383701,3.12979,-2.17667,0.261335,0.888476
1694788105023437,-9.423928,0.406701,2.992979,-2.20197,0.255435,0.904576
1694788105031250,-9.385928,0.444701,2.953979,-2.21907,0.253635,0.917176
1694788105039062,-9.352928,0.481701,2.998979,-2.25277,0.244235,0.920376
1694788105046875,-9.350928,0.516701,3.177979,-2.26757,0.239735,0.941176
1694788105054687,-9.304928,0.542701,3.364979,-2.29347,0.258435,0.945976
1694788105062500,-9.228928,0.577701,3.416979,-2.31827,0.259835,0.955376
1694788105070312,-9.173928,0.603701,3.398979,-2.32817,0.277035,0.961676
1694788105078125,-9.202928,0.594701,3.369979,-2.34067,0.302235,0.961876
1694788105085937,-9.316928,0.591701,3.351979,-2.36207,0.309735,0.961676
1694788105093750,-9.446928,0.597701,3.321979,-2.38427,0.313135,0.966676
1694788105101562,-9.558928,0.617701,3.288979,-2.40687,0.305335,0.973076
1694788105109375,-9.683928,0.628701,3.297979,-2.42557,0.301935,0.985576
1694788105117187,-9.752928,0.607701,3.304979,-2.43687,0.303535,0.988776
1694788105125000,-9.741928,0.560701,3.351979,-2.45437,0.291235,1.76
1694788105132812,-9.716928,0.551701,3.335979,-2.47687,0.274135,1.8176
1694788105140625,-9.678928,0.535701,3.317979,-2.49317,0.271035,1.14476
1694788105148437,-9.568928,0.504701,3.145979,-2.49457,0.271135,1.20976
1694788105156250,-9.484928,0.465701,2.987979,-2.51427,0.271035,1.25676
1694788105164062,-9.452928,0.426701,2.962979,-2.52467,0.273935,1.33476
1694788105171875,-9.424928,0.389701,2.858979,-2.52137,0.283435,1.43076
1694788105179687,-9.435928,0.392701,2.786979,-2.54067,0.285135,1.49476
1694788105187500,-9.456928,0.396701,2.764979,-2.54867,0.285135,1.47876
1694788105195312,-9.457928,0.451701,2.571979,-2.55507,0.282235,1.59176
1694788105203125,-9.489928,0.501701,2.596979,-2.56807,0.280535,1.57576
1694788105210937,-9.507928,0.532701,2.623979,-2.57267,0.282135,1.47976
1694788105218750,-9.503928,0.549701,2.630979,-2.57417,0.280635,1.48076
1694788105226562,-9.478928,0.547701,2.644979,-2.58067,0.271135,1.44876
1694788105234375,-9.475928,0.510701,2.671979,-2.56777,0.263235,1.39976
1694788105242187,-9.447928,0.447701,2.653979,-2.56297,0.260135,1.39976
1694788105250000,-9.429928,0.373701,2.705979,-2.54647,0.255535,1.33676
1694788105257812,-9.381928,0.311701,2.666979,-2.54137,0.246135,1.20876
1694788105265625,-9.322928,0.223701,2.730979,-2.51957,0.226135,1.19576
1694788105273437,-9.250928,0.138701,2.626979,-2.51697,0.233435,0.996976
1694788105281250,-9.279928,0.60701,2.619979,-2.49507,0.224335,0.985976
1694788105289062,-9.299928,0.31299,2.723979,-2.49067,0.223935,0.961876
1694788105296875,-9.262928,0.106299,2.529979,-2.49677,0.236135,0.929876
1694788105304687,-9.201928,0.147299,2.481979,-2.49547,0.235635,0.902576
1694788105312500,-9.205928,0.180299,2.526979,-2.49147,0.251235,0.873976
1694788105320312,-9.245928,0.180299,2.465979,-2.50237,0.258835,0.840476
1694788105328125,-9.367928,0.131299,2.524979,-2.51347,0.263235,0.810076
1694788105335937,-9.521928,0.23299,2.777979,-2.52267,0.253935,0.797376
1694788105343750,-9.588928,0.133701,2.845979,-2.51487,0.255135,0.776476
1694788105351562,-9.689928,0.309701,2.883979,-2.49357,0.255235,0.768576
1694788105359375,-9.801928,0.466701,2.958979,-2.49027,0.245835,0.766976
1694788105367187,-9.875928,0.587701,2.994979,-2.48257,0.233135,0.771676
1694788105375000,-9.939928,0.688701,3.73979,-2.47507,0.211135,0.789076
1694788105382812,-9.940928,0.737701,3.100979,-2.46427,0.201535,0.792176
1694788105390625,-9.932928,0.796701,3.100979,-2.44567,0.196135,0.811676
1694788105398437,-9.915928,0.880701,3.75979,-2.43437,0.189935,0.819676
1694788105406250,-9.886928,0.985701,3.103979,-2.41427,0.182635,0.824676
1694788105414062,-9.816928,1.97701,3.82979,-2.39697,0.179535,0.842176
1694788105421875,-9.678928,1.189701,2.976979,-2.38827,0.177435,0.843476
1694788105429687,-9.489928,1.303701,2.863979,-2.36967,0.167035,0.845276
1694788105437500,-9.324928,1.427701,2.795979,-2.35637,0.164035,0.843776
1694788105445312,-9.142928,1.600701,2.779979,-2.34237,0.165335,0.838876
1694788105453125,-8.955928,1.759701,2.792979,-2.33327,0.161235,0.845576
1694788105460937,-8.763928,1.894701,2.855979,-2.31557,0.155035,0.850376
1694788105468750,-8.597928,1.972701,2.914979,-2.29567,0.162335,0.854876
1694788105476562,-8.444928,1.998701,2.941979,-2.27877,0.169235,0.867876
1694788105484375,-8.294928,2.27701,2.966979,-2.26467,0.178435,0.870976
1694788105492187,-8.191928,2.24701,2.959979,-2.23807,0.192235,0.880376
1694788105500000,-8.155928,2.57701,2.979979,-2.23687,0.218635,0.883476
1694788105507812,-8.167928,2.56701,2.972979,-2.23167,0.244035,0.894776
1694788105515625,-8.237928,2.84701,2.948979,-2.21597,0.275235,0.904276
1694788105523437,-8.356928,2.139701,2.961979,-2.21947,0.303335,0.908976
1694788105531250,-8.538928,2.193701,2.946979,-2.23427,0.328335,0.918576
1694788105539062,-8.745928,2.247701,2.916979,-2.23607,0.351635,0.920176
1694788105546875,-8.956928,2.281701,2.917979,-2.23467,0.373535,0.929676
1694788105554687,-9.154928,2.310701,2.912979,-2.23437,0.390935,0.926576
1694788105562500,-9.333928,2.340701,2.933979,-2.22977,0.407935,0.921676
1694788105570312,-9.512928,2.365701,2.958979,-2.23307,0.395235,0.915276
1694788105578125,-9.676928,2.367701,2.944979,-2.23717,0.389235,0.905876
1694788105585937,-9.779928,2.348701,2.969979,-2.23207,0.362735,0.894776
1694788105593750,-9.863928,2.295701,2.987979,-2.23267,0.341935,0.889776
1694788105601562,-9.911928,2.242701,3.12979,-2.23147,0.312535,0.866076
1694788105609375,-9.950928,2.149701,3.69979,-2.25217,0.290635,0.851676
1694788105617187,-9.953928,2.48701,3.121979,-2.26177,0.268635,0.840476
1694788105625000,-9.898928,1.938701,3.136979,-2.26787,0.256035,0.819776
1694788105632812,-9.798928,1.819701,3.96979,-2.28217,0.249635,0.800576
1694788105640625,-9.700928,1.707701,3.96979,-2.28837,0.233935,0.789476
1694788105648437,-9.624928,1.617701,3.100979,-2.30577,0.221335,0.767076
1694788105656250,-9.530928,1.535701,3.102979,-2.31127,0.198135,0.757776
1694788105664062,-9.450928,1.488701,3.98979,-2.32107,0.180735,0.741676
1694788105671875,-9.393928,1.457701,3.102979,-2.31517,0.164535,0.725476
1694788105679687,-9.319928,1.434701,3.127979,-2.32927,0.150535,0.712876
1694788105687500,-9.281928,1.440701,3.161979,-2.32457,0.144135,0.706376
1694788105695312,-9.239928,1.434701,3.206979,-2.30767,0.135135,0.701776
1694788105703125,-9.221928,1.446701,3.253979,-2.31157,0.125235,0.693576
1694788105710937,-9.217928,1.438701,3.323979,-2.30407,0.127435,0.693876
1694788105718750,-9.221928,1.436701,3.373979,-2.28817,0.125635,0.684176
1694788105726562,-9.236928,1.410701,3.418979,-2.28347,0.125535,0.680976
1694788105734375,-9.227928,1.374701,3.434979,-2.27317,0.119535,0.682676
1694788105742187,-9.188928,1.327701,3.423979,-2.27187,0.117835,0.680976
1694788105750000,-9.159928,1.300701,3.411979,-2.25577,0.117935,0.685776
1694788105757812,-9.154928,1.283701,3.423979,-2.25307,0.112935,0.688876
1694788105765625,-9.167928,1.261701,3.457979,-2.23417,0.114235,0.690376
1694788105773437,-9.191928,1.259701,3.461979,-2.20937,0.109935,0.690476
1694788105781250,-9.192928,1.258701,3.441979,-2.18927,0.104135,0.692276
1694788105789062,-9.187928,1.263701,3.423979,-2.18127,0.102635,0.697076
1694788105796875,-9.163928,1.280701,3.407979,-2.16677,0.88635,0.700276
1694788105804687,-9.132928,1.322701,3.382979,-2.15607,0.83635,0.703276
1694788105812500,-9.93928,1.385701,3.391979,-2.13927,0.60635,0.706676
1694788105820312,-9.72928,1.460701,3.429979,-2.12627,0.55935,0.708276
1694788105828125,-9.41928,1.540701,3.448979,-2.12957,0.37235,0.713076
1694788105835937,-9.5928,1.630701,3.502979,-2.12467,0.31135,0.724276
1694788105843750,-8.977928,1.714701,3.560979,-2.14247,0.21935,0.740276
1694788105851562,-8.922928,1.810701,3.540979,-2.15237,0.12535,0.748276
1694788105859375,-8.881928,1.879701,3.531979,-2.15797,0.9235,0.768876
1694788105867187,-8.898928,1.939701,3.565979,-2.17037,0.1265,0.783376
1694788105875000,-8.896928,1.981701,3.596979,-2.17597,0.1465,0.797576
1694788105882812,-8.856928,2.18701,3.576979,-2.17387,0.5235,0.810576
1694788105890625,-8.818928,2.53701,3.558979,-2.16007,0.5235,0.834376
1694788105898437,-8.820928,2.35701,3.531979,-2.17477,0.6835,0.843976
1694788105906250,-8.859928,2.24701,3.447979,-2.18757,0.25835,0.864776
1694788105914062,-8.926928,2.19701,3.479979,-2.19597,0.24435,0.890376
1694788105921875,-9.24928,1.998701,3.481979,-2.20297,0.32035,0.898176
1694788105929687,-9.147928,1.978701,3.391979,-2.20937,0.30835,0.914276
1694788105937500,-9.245928,1.973701,3.249979,-2.23567,0.32235,0.931676
1694788105945312,-9.294928,1.996701,3.168979,-2.25637,0.16835,0.941376
1694788105953125,-9.335928,2.41701,3.188979,-2.26687,0.12035,0.963576
1694788105960937,-9.374928,2.86701,3.294979,-2.26497,0.7635,0.973276
1694788105968750,-9.410928,2.122701,3.299979,-2.27147,0.0,0.987676
1694788105976562,-9.464928,2.120701,3.283979,-2.26677,0.9535,1.3676
1694788105984375,-9.562928,2.73701,3.281979,-2.26067,0.14235,1.16376
1694788105992187,-9.630928,1.990701,3.274979,-2.26227,0.6635,1.33976
1694788106000000,-9.646928,1.866701,3.240979,-2.24447,0.8335,1.45276
1694788106007812,-9.651928,1.706701,3.132979,-2.24287,0.5235,1.46876
1694788106015625,-9.710928,1.490701,3.30979,-2.25267,0.2665,1.43576
1694788106023437,-9.812928,1.266701,3.8979,-2.24117,0.7365,1.34076
1694788106031250,-9.865928,1.42701,3.21979,-2.24377,0.11865,1.29476
1694788106039062,-9.863928,0.816701,3.69979,-2.25197,0.35465,1.19776
1694788106046875,-9.757928,0.591701,3.100979,-2.25647,0.54365,1.2176
1694788106054687,-9.574928,0.365701,3.80979,-2.25437,0.80965,0.975076
1694788106062500,-9.368928,0.180701,3.96979,-2.26857,0.106065,0.957576
1694788106070312,-9.187928,0.42701,3.118979,-2.27927,0.121765,0.935276
1694788106078125,-9.49928,0.39299,3.125979,-2.30687,0.136065,0.920876
1694788106085937,-8.881928,0.23299,3.179979,-2.34757,0.141265,0.901476
1694788106093750,-8.741928,0.58701,3.240979,-2.39097,0.125665,0.896776
1694788106101562,-8.611928,0.164701,3.287979,-2.41527,0.114765,0.895176
1694788106109375,-8.478928,0.279701,3.330979,-2.41507,0.97465,0.896776
1694788106117187,-8.375928,0.380701,3.348979,-2.42147,0.72465,0.895176
1694788106125000,-8.322928,0.430701,3.336979,-2.40897,0.42765,0.912776
1694788106132812,-8.320928,0.437701,3.316979,-2.40137,0.19365,0.925476
1694788106140625,-8.447928,0.412701,3.339979,-2.38737,0.15135,0.950976
1694788106148437,-8.661928,0.378701,3.348979,-2.36677,0.40135,0.965276
1694788106156250,-8.914928,0.328701,3.339979,-2.36037,0.85735,0.987776
1694788106164062,-9.204928,0.268701,3.400979,-2.36437,0.107535,1.3576
1694788106171875,-9.523928,0.225701,3.500979,-2.37167,0.133735,1.9676
1694788106179687,-9.838928,0.194701,3.631979,-2.38777,0.147935,1.17776
1694788106187500,-10.116928,0.186701,3.783979,-2.41457,0.159235,1.24376
1694788106195312,-10.259928,0.184701,3.842979,-2.44887,0.168335,1.21076
1694788106203125,-10.264928,0.209701,3.936979,-2.48277,0.168135,1.14576
1694788106210937,-10.157928,0.254701,3.959979,-2.50227,0.175835,1.9776
1694788106218750,-9.909928,0.285701,3.932979,-2.52797,0.178935,1.6576
1694788106226562,-9.616928,0.299701,3.823979,-2.55697,0.202235,0.993876
1694788106234375,-9.399928,0.311701,3.818979,-2.57297,0.194335,0.985876
1694788106242187,-9.223928,0.332701,3.992979,-2.57127,0.197535,0.989076
1694788106250000,-9.47928,0.332701,4.6979,-2.56147,0.207135,0.992376
1694788106257812,-8.906928,0.363701,4.91979,-2.53267,0.229035,1.5076
1694788106265625,-8.839928,0.366701,4.152979,-2.52197,0.255535,1.22576
1694788106273437,-8.875928,0.382701,4.245979,-2.50267,0.279235,1.41776
1694788106281250,-8.965928,0.393701,4.374979,-2.49027,0.293335,1.59276
1694788106289062,-9.50928,0.407701,4.430979,-2.47617,0.312135,1.78376
1694788106296875,-9.115928,0.442701,4.455979,-2.45577,0.346435,1.89376
1694788106304687,-9.212928,0.479701,4.485979,-2.45937,0.363735,1.110176
1694788106312500,-9.298928,0.495701,4.478979,-2.47217,0.382635,1.118276
1694788106320312,-9.389928,0.514701,4.449979,-2.46917,0.384035,1.118176
1694788106328125,-9.420928,0.518701,4.340979,-2.48277,0.393235,1.127576
1694788106335937,-9.474928,0.529701,4.241979,-2.49857,0.396435,1.127676
1694788106343750,-9.520928,0.545701,4.187979,-2.49837,0.391835,1.127676
1694788106351562,-9.525928,0.603701,4.153979,-2.50347,0.390435,1.146876
1694788106359375,-9.477928,0.680701,4.105979,-2.51797,0.385835,1.156476
1694788106367187,-9.383928,0.736701,4.31979,-2.52477,0.385835,1.164376
1694788106375000,-9.283928,0.781701,3.875979,-2.53287,0.392135,1.170776
1694788106382812,-9.209928,0.796701,3.782979,-2.53657,0.393735,1.193076
1694788106390625,-9.115928,0.777701,3.667979,-2.55147,0.401435,1.200976
1694788106398437,-8.951928,0.749701,3.441979,-2.56907,0.407935,1.217076
1694788106406250,-8.812928,0.717701,3.294979,-2.57907,0.406335,1.223376
1694788106414062,-8.749928,0.673701,3.235979,-2.58867,0.420635,1.245876
1694788106421875,-8.723928,0.624701,3.185979,-2.59377,0.433235,1.260176
1694788106429687,-8.720928,0.574701,3.106979,-2.59467,0.431235,1.263076
1694788106437500,-8.737928,0.526701,3.2979,-2.60027,0.452835,1.270876
1694788106445312,-8.774928,0.482701,2.846979,-2.60657,0.466935,1.269376
1694788106453125,-8.784928,0.440701,2.679979,-2.61467,0.473235,1.272576
1694788106460937,-8.813928,0.407701,2.537979,-2.63057,0.485735,1.259876
1694788106468750,-8.858928,0.414701,2.395979,-2.62677,0.493635,1.247176
1694788106476562,-8.972928,0.452701,2.359979,-2.63607,0.494435,1.243576
1694788106484375,-9.220928,0.510701,2.499979,-2.64897,0.481135,1.231276
1694788106492187,-9.447928,0.549701,2.608979,-2.65547,0.481035,1.226476
1694788106500000,-9.631928,0.625701,2.626979,-2.65417,0.480935,1.231176
1694788106507812,-9.780928,0.687701,2.637979,-2.66347,0.463835,1.223276
1694788106515625,-9.897928,0.724701,2.621979,-2.66617,0.442135,1.220176
1694788106523437,-10.928,0.759701,2.673979,-2.67427,0.415435,1.212176
1694788106531250,-10.84928,0.788701,2.732979,-2.69567,0.389935,1.197576
1694788106539062,-10.187928,0.799701,2.764979,-2.69927,0.370135,1.188376
1694788106546875,-10.214928,0.807701,2.762979,-2.70767,0.327535,1.176976
1694788106554687,-10.167928,0.821701,2.764979,-2.70667,0.287435,1.172476
1694788106562500,-10.55928,0.829701,2.766979,-2.70407,0.255635,1.162676
1694788106570312,-9.901928,0.820701,2.809979,-2.70357,0.216535,1.145176
1694788106578125,-9.737928,0.785701,2.858979,-2.68537,0.189935,1.122776
1694788106585937,-9.571928,0.764701,2.933979,-2.67377,0.163335,1.111676
1694788106593750,-9.420928,0.706701,3.37979,-2.65487,0.156135,1.103976
1694788106601562,-9.279928,0.669701,3.107979,-2.63087,0.155735,1.83076
1694788106609375,-9.133928,0.666701,3.183979,-2.61127,0.154135,1.70376
1694788106617187,-9.13928,0.686701,3.233979,-2.59457,0.176135,1.51376
1694788106625000,-8.895928,0.745701,3.325979,-2.56277,0.186535,1.23976
1694788106632812,-8.758928,0.846701,3.368979,-2.52447,0.208735,0.997076
1694788106640625,-8.623928,0.944701,3.373979,-2.49367,0.217835,0.973076
1694788106648437,-8.519928,1.43701,3.370979,-2.45577,0.228035,0.945676
1694788106656250,-8.438928,1.172701,3.354979,-2.40517,0.235935,0.920176
1694788106664062,-8.402928,1.313701,3.323979,-2.37577,0.232935,0.915476
1694788106671875,-8.402928,1.470701,3.309979,-2.32387,0.231535,0.913976
1694788106679687,-8.438928,1.637701,3.348979,-2.28007,0.228535,0.910776
1694788106687500,-8.503928,1.807701,3.440979,-2.22407,0.225235,0.910676
1694788106695312,-8.607928,1.957701,3.583979,-2.17077,0.222235,0.912276
1694788106703125,-8.714928,2.66701,3.689979,-2.10717,0.233635,0.914076
1694788106710937,-8.825928,2.146701,3.766979,-2.3617,0.241435,0.910876
1694788106718750,-8.964928,2.186701,3.818979,-1.97347,0.253935,0.910776
1694788106726562,-9.87928,2.181701,3.850979,-1.91217,0.271035,0.897976
1694788106734375,-9.221928,2.127701,3.884979,-1.85037,0.279135,0.891776
1694788106742187,-9.373928,2.101701,3.886979,-1.78897,0.291635,0.883776
1694788106750000,-9.535928,2.48701,3.906979,-1.74717,0.294435,0.862876
1694788106757812,-9.698928,2.701,3.927979,-1.69857,0.284835,0.832476
1694788106765625,-9.849928,1.942701,3.938979,-1.65617,0.261335,0.813376
1694788106773437,-9.937928,1.828701,3.904979,-1.60687,0.255235,0.781576
1694788106781250,-9.948928,1.691701,3.762979,-1.57537,0.247335,0.743376
1694788106789062,-9.911928,1.592701,3.660979,-1.54387,0.231535,0.695576
1694788106796875,-9.842928,1.524701,3.608979,-1.50567,0.198035,0.663376
1694788106804687,-9.756928,1.440701,3.579979,-1.47547,0.170135,0.628376
1694788106812500,-9.648928,1.385701,3.534979,-1.44737,0.154535,0.602976
1694788106820312,-9.547928,1.371701,3.493979,-1.42867,0.142935,0.581976
1694788106828125,-9.479928,1.370701,3.513979,-1.39627,0.134935,0.561176
1694788106835937,-9.423928,1.333701,3.610979,-1.36927,0.105635,0.542176
1694788106843750,-9.323928,1.349701,3.674979,-1.34257,0.90235,0.519976
1694788106851562,-9.258928,1.369701,3.728979,-1.30757,0.85135,0.508676
1694788106859375,-9.258928,1.378701,3.759979,-1.26577,0.56735,0.494176
1694788106867187,-9.270928,1.386701,3.735979,-1.24177,0.30835,0.483376
1694788106875000,-9.272928,1.379701,3.798979,-1.19107,0.1865,0.464276
1694788106882812,-9.233928,1.342701,3.850979,-1.15407,0.33565,0.436976
1694788106890625,-9.205928,1.293701,3.908979,-1.10277,0.59065,0.414476
1694788106898437,-9.176928,1.228701,3.963979,-1.4817,0.69665,0.379576
1694788106906250,-9.72928,1.157701,3.940979,0.99387,0.84865,0.359076
1694788106914062,-8.988928,1.105701,3.944979,0.93257,0.99465,0.317376
1694788106921875,-8.911928,1.68701,3.940979,0.86517,0.103865,0.282476
1694788106929687,-8.832928,1.19701,3.947979,0.80377,0.108965,0.245676
1694788106937500,-8.789928,0.983701,3.992979,0.73297,0.117365,0.203976
1694788106945312,-8.785928,0.978701,4.26979,0.65377,0.123065,0.169276
1694788106953125,-8.765928,0.991701,3.974979,0.57887,0.121665,0.121376
1694788106960937,-8.727928,1.21701,3.849979,0.51037,0.129565,0.84676
1694788106968750,-8.705928,1.74701,3.784979,0.44397,0.142365,0.46376
1694788106976562,-8.713928,1.136701,3.748979,0.37547,0.145465,0.12876
1694788106984375,-8.716928,1.205701,3.739979,0.31567,0.148965,0.25524
1694788106992187,-8.733928,1.258701,3.730979,0.23607,0.159765,0.43024
1694788107000000,-8.754928,1.323701,3.666979,0.18047,0.169065,0.71624
1694788107007812,-8.748928,1.371701,3.612979,0.12187,0.181565,0.95524
1694788107015625,-8.807928,1.414701,3.633979,0.6027,0.192465,0.106724
1694788107023437,-8.840928,1.433701,3.633979,0.707,0.208165,0.114724
1694788107031250,-8.839928,1.423701,3.567979,0.4213,0.212565,0.127324
1694788107039062,-8.881928,1.408701,3.565979,0.10043,0.229665,0.133724
1694788107046875,-8.945928,1.383701,3.578979,0.15363,0.239165,0.144924
1694788107054687,-8.982928,1.342701,3.603979,0.20823,0.253465,0.154624
1694788107062500,-9.55928,1.259701,3.689979,0.24783,0.273365,0.162424
1694788107070312,-9.156928,1.152701,3.818979,0.30113,0.286065,0.180024
1694788107078125,-9.277928,1.89701,4.6979,0.32453,0.296865,0.202224
1694788107085937,-9.336928,0.983701,4.24979,0.35403,0.293665,0.216524
1694788107093750,-9.271928,0.868701,3.954979,0.36663,0.292465,0.235824
1694788107101562,-9.181928,0.800701,3.868979,0.38953,0.270665,0.259724
1694788107109375,-9.138928,0.756701,3.931979,0.38563,0.289265,0.281924
1694788107117187,-9.120928,0.774701,4.114979,0.37523,0.295865,0.282124
1694788107125000,-9.49928,0.807701,4.73979,0.37213,0.288165,0.290124
1694788107132812,-8.948928,0.807701,4.89979,0.37743,0.292665,0.294824
1694788107140625,-8.792928,0.825701,4.80979,0.35783,0.294265,0.286824
1694788107148437,-8.624928,0.837701,4.102979,0.34173,0.292665,0.282024
1694788107156250,-8.456928,0.826701,4.141979,0.31903,0.286265,0.272424
1694788107164062,-8.292928,0.804701,4.165979,0.29413,0.280265,0.258224
1694788107171875,-8.166928,0.762701,4.174979,0.27473,0.258165,0.235824
1694788107179687,-8.110928,0.735701,4.201979,0.25153,0.248765,0.215124
1694788107187500,-8.125928,0.706701,4.238979,0.21713,0.222265,0.199224
1694788107195312,-8.189928,0.707701,4.303979,0.19083,0.195265,0.185324
1694788107203125,-8.320928,0.714701,4.369979,0.17563,0.153665,0.162624
1694788107210937,-8.472928,0.689701,4.416979,0.16923,0.125265,0.148224
1694788107218750,-8.648928,0.658701,4.455979,0.14633,0.100265,0.130724
1694788107226562,-8.821928,0.654701,4.471979,0.12993,0.76765,0.113124
1694788107234375,-8.995928,0.635701,4.480979,0.11133,0.56665,0.102124
1694788107242187,-9.150928,0.626701,4.464979,0.9213,0.40765,0.84424
1694788107250000,-9.299928,0.613701,4.419979,0.8043,0.22065,0.70124
1694788107257812,-9.437928,0.598701,4.351979,0.5583,0.20565,0.60624
1694788107265625,-9.538928,0.563701,4.304979,0.4473,0.14065,0.52524
1694788107273437,-9.612928,0.535701,4.261979,0.2853,0.10865,0.33324
1694788107281250,-9.633928,0.523701,4.243979,0.2663,0.15565,0.31824
1694788107289062,-9.605928,0.535701,4.227979,0.2503,0.21565,0.4624
1694788107296875,-9.531928,0.523701,4.220979,0.2633,0.18365,0.8076
1694788107304687,-9.449928,0.500701,4.214979,0.2263,0.20065,0.15976
1694788107312500,-9.344928,0.485701,4.175979,0.2413,0.24665,0.25576
1694788107320312,-9.251928,0.487701,4.143979,0.4423,0.35165,0.35376
1694788107328125,-9.158928,0.476701,4.107979,0.5013,0.38465,0.43276
1694788107335937,-9.51928,0.480701,4.73979,0.4913,0.58465,0.44976
1694788107343750,-8.943928,0.468701,4.37979,0.3583,0.72765,0.40076
1694788107351562,-8.833928,0.446701,4.17979,0.5073,0.89665,0.44976
1694788107359375,-8.716928,0.407701,4.23979,0.5213,0.102365,0.38476
1694788107367187,-8.619928,0.376701,4.44979,0.5243,0.108465,0.40176
1694788107375000,-8.536928,0.349701,4.64979,0.4873,0.121365,0.32076
1694788107382812,-8.448928,0.315701,4.84979,0.4393,0.124465,0.30476
1694788107390625,-8.383928,0.303701,4.125979,0.2583,0.124865,0.20776
1694788107398437,-8.322928,0.280701,4.129979,0.3923,0.121465,0.16076
1694788107406250,-8.295928,0.268701,4.118979,0.3803,0.112065,0.1776
1694788107414062,-8.297928,0.268701,4.109979,0.2473,0.99765,0.4876
1694788107421875,-8.360928,0.280701,4.136979,0.1483,0.96865,0.4724
1694788107429687,-8.472928,0.287701,4.145979,0.1653,0.92265,0.14324
1694788107437500,-8.598928,0.301701,4.179979,0.1413,0.88765,0.17324
1694788107445312,-8.758928,0.332701,4.188979,0.293,0.76365,0.28524
1694788107453125,-8.933928,0.357701,4.227979,0.133,0.77965,0.33324
1694788107460937,-9.67928,0.374701,4.254979,0.167,0.88765,0.34824
1694788107468750,-9.195928,0.392701,4.268979,0.327,0.88765,0.33324
1694788107476562,-9.316928,0.413701,4.290979,0.487,0.90365,0.31724
1694788107484375,-9.451928,0.417701,4.277979,0.1577,0.96565,0.44424
1694788107492187,-9.574928,0.442701,4.275979,0.2307,0.112665,0.46224
1694788107500000,-9.686928,0.472701,4.311979,0.3067,0.131065,0.39724
1694788107507812,-9.743928,0.527701,4.365979,0.3867,0.154565,0.41324
1694788107515625,-9.734928,0.545701,4.372979,0.4237,0.165865,0.46224
1694788107523437,-9.685928,0.551701,4.324979,0.5197,0.184565,0.43024
1694788107531250,-9.582928,0.560701,4.322979,0.4967,0.207665,0.47624
1694788107539062,-9.432928,0.554701,4.351979,0.5197,0.225165,0.39824
1694788107546875,-9.265928,0.546701,4.433979,0.4607,0.235565,0.41124
1694788107554687,-9.83928,0.539701,4.530979,0.4667,0.253065,0.39724
1694788107562500,-8.888928,0.514701,4.507979,0.4817,0.248165,0.34824
1694788107570312,-8.705928,0.544701,4.351979,0.3327,0.249565,0.33224
1694788107578125,-8.576928,0.498701,4.543979,0.2377,0.249565,0.31624
1694788107585937,-8.484928,0.466701,4.403979,0.2407,0.226365,0.31724
1694788107593750,-8.457928,0.495701,4.247979,0.1157,0.223265,0.22124
1694788107601562,-8.493928,0.480701,4.267979,0.293,0.220165,0.23724
1694788107609375,-8.560928,0.485701,4.141979,0.347,0.217065,0.23724
1694788107617187,-8.607928,0.454701,4.283979,0.137,0.218265,0.22024
1694788107625000,-8.546928,0.408701,4.461979,0.117,0.195665,0.25624
1694788107632812,-8.411928,0.383701,4.649979,0.1157,0.173265,0.30124
1694788107640625,-8.273928,0.400701,4.863979,0.657,0.132665,0.34924
1694788107648437,-8.155928,0.430701,5.37979,0.207,0.93765,0.44524
1694788107656250,-8.88928,0.438701,5.128979,0.733,0.37865,0.59024
1694788107664062,-8.53928,0.475701,5.150979,0.393,0.22935,0.63824
1694788107671875,-8.38928,0.533701,5.304979,0.1913,0.70835,0.70524
1694788107679687,-8.38928,0.552701,5.315979,0.2583,0.113235,0.75224
1694788107687500,-8.115928,0.588701,5.146979,0.3723,0.149235,0.76724
1694788107695312,-8.283928,0.639701,4.897979,0.4893,0.173535,0.77024
1694788107703125,-8.615928,0.671701,4.701979,0.5943,0.164935,0.60824
1694788107710937,-9.29928,0.675701,4.710979,0.7893,0.157335,0.49624
1694788107718750,-9.358928,0.689701,4.659979,0.8213,0.132435,0.40024
1694788107726562,-9.627928,0.712701,4.496979,0.7683,0.107235,0.28924
1694788107734375,-9.804928,0.699701,4.388979,0.6903,0.73135,0.17624
1694788107742187,-9.836928,0.650701,4.349979,0.4983,0.29635,0.4824
1694788107750000,-9.726928,0.609701,4.376979,0.3833,0.3265,0.6276
1694788107757812,-9.560928,0.571701,4.442979,0.1083,0.28365,0.4676
1694788107765625,-9.410928,0.555701,4.471979,0.143,0.39165,0.3176
1694788107773437,-9.239928,0.549701,4.448979,0.247,0.41165,0.1376
1694788107781250,-9.87928,0.556701,4.423979,0.77,0.30365,0.14624
1694788107789062,-8.976928,0.567701,4.403979,0.7,0.23665,0.9624
1694788107796875,-8.864928,0.586701,4.362979,0.107,0.17165,0.19124
1694788107804687,-8.818928,0.632701,4.326979,0.33,0.14065,0.11124
1694788107812500,-8.803928,0.666701,4.270979,0.183,0.14065,0.6324
1694788107820312,-8.772928,0.696701,4.218979,0.337,0.10965,0.6376
1694788107828125,-8.709928,0.704701,4.200979,0.1767,0.9265,0.6376
1694788107835937,-8.677928,0.695701,4.152979,0.4707,0.7735,0.7976
1694788107843750,-8.666928,0.666701,4.123979,0.6347,0.20235,0.20676
1694788107851562,-8.677928,0.632701,4.114979,0.8437,0.28235,0.28776
1694788107859375,-8.651928,0.591701,4.141979,0.8017,0.43435,0.30176
1694788107867187,-8.638928,0.575701,4.161979,0.9777,0.56035,0.28576
1694788107875000,-8.583928,0.551701,4.213979,0.9947,0.70735,0.31376
1694788107882812,-8.540928,0.516701,4.247979,0.8077,0.83835,0.31676
1694788107890625,-8.538928,0.497701,4.249979,0.7177,0.84335,0.27076
1694788107898437,-8.563928,0.496701,4.238979,0.5577,0.95135,0.25476
1694788107906250,-8.614928,0.513701,4.220979,0.5797,0.85335,0.20476
1694788107914062,-8.666928,0.515701,4.199979,0.5767,0.76135,0.18976
1694788107921875,-8.718928,0.531701,4.166979,0.6047,0.57835,0.28676
1694788107929687,-8.776928,0.532701,4.154979,0.6327,0.39135,0.20776
1694788107937500,-8.836928,0.551701,4.127979,0.7197,0.27935,0.26976
1694788107945312,-8.875928,0.571701,4.98979,0.7797,0.12635,0.31876
1694788107953125,-8.908928,0.582701,4.80979,0.8857,0.365,0.39676
1694788107960937,-8.915928,0.579701,4.57979,0.10777,0.6465,0.44476
1694788107968750,-8.900928,0.594701,4.55979,0.10257,0.7865,0.42976
1694788107976562,-8.886928,0.594701,4.39979,0.12237,0.9565,0.50876
1694788107984375,-8.875928,0.585701,4.53979,0.13157,0.6165,0.54176
1694788107992187,-8.908928,0.565701,4.5979,0.14127,0.8035,0.59076
1694788108000000,-8.913928,0.554701,4.146979,0.14777,0.3335,0.65476
1694788108007812,-8.919928,0.552701,4.227979,0.14627,0.135,0.62176
1694788108015625,-8.917928,0.525701,4.188979,0.14107,0.8235,0.68676
1694788108023437,-8.928928,0.505701,4.200979,0.13627,0.23735,0.63876
1694788108031250,-8.934928,0.481701,4.209979,0.13487,0.17535,0.70276
1694788108039062,-8.961928,0.476701,4.247979,0.13537,0.24935,0.66876
1694788108046875,-8.958928,0.458701,4.306979,0.13057,0.17135,0.68476
1694788108054687,-8.985928,0.467701,4.333979,0.13077,0.6135,0.70076
1694788108062500,-8.988928,0.478701,4.315979,0.13177,0.4835,0.60576
1694788108070312,-8.990928,0.477701,4.319979,0.11517,0.2035,0.68676
1694788108078125,-9.2928,0.518701,4.315979,0.10237,0.435,0.67076
1694788108085937,-9.27928,0.532701,4.333979,0.9617,0.4835,0.62176
1694788108093750,-9.49928,0.554701,4.351979,0.7667,0.3535,0.70276
1694788108101562,-9.70928,0.586701,4.365979,0.5647,0.9335,0.68476
1694788108109375,-9.99928,0.617701,4.380979,0.3367,0.9635,0.76476
1694788108117187,-9.114928,0.654701,4.367979,0.2637,0.14735,0.73476
1694788108125000,-9.99928,0.685701,4.344979,0.237,0.27135,0.73476
1694788108132812,-9.115928,0.723701,4.347979,0.1843,0.19235,0.71876
1694788108140625,-9.120928,0.759701,4.331979,0.3623,0.25535,0.68676
1694788108148437,-9.98928,0.792701,4.301979,0.4923,0.31735,0.60676
1694788108156250,-9.78928,0.805701,4.279979,0.6873,0.30135,0.51076
1694788108164062,-9.47928,0.811701,4.234979,0.8183,0.27035,0.49476
1694788108171875,-9.7928,0.819701,4.195979,0.9833,0.28735,0.43176
1694788108179687,-8.991928,0.812701,4.157979,0.10123,0.28635,0.44776
1694788108187500,-8.950928,0.821701,4.116979,0.10533,0.7635,0.28576
1694788108195312,-8.905928,0.816701,4.100979,0.11853,0.1535,0.28576
1694788108203125,-8.877928,0.833701,4.75979,0.12243,0.1835,0.17576
1694788108210937,-8.854928,0.833701,4.55979,0.12013,0.1865,0.10976
1694788108218750,-8.852928,0.832701,4.44979,0.12943,0.335,0.3276
1694788108226562,-8.849928,0.822701,4.64979,0.12743,0.1735,0.0
1694788108234375,-8.856928,0.815701,4.66979,0.13103,0.12465,0.15924
1694788108242187,-8.856928,0.806701,4.62979,0.12003,0.21765,0.22324
1694788108250000,-8.874928,0.806701,4.71979,0.10723,0.13965,0.28624
1694788108257812,-8.914928,0.800701,4.96979,0.10243,0.18665,0.30224
1694788108265625,-8.961928,0.794701,4.107979,0.10423,0.18565,0.33424
1694788108273437,-8.999928,0.793701,4.141979,0.8463,0.14165,0.39824
1694788108281250,-9.33928,0.786701,4.159979,0.7663,0.20465,0.46224
1694788108289062,-9.73928,0.796701,4.168979,0.6823,0.22365,0.54324
1694788108296875,-9.102928,0.794701,4.179979,0.4933,0.23665,0.55824
1694788108304687,-9.122928,0.797701,4.198979,0.4443,0.30065,0.59024
1694788108312500,-9.120928,0.799701,4.195979,0.2023,0.36265,0.59024
1694788108320312,-9.113928,0.799701,4.204979,0.1023,0.38065,0.57524
1694788108328125,-9.77928,0.790701,4.209979,0.987,0.50965,0.54524
1694788108335937,-9.41928,0.767701,4.216979,0.2197,0.50265,0.39924
1694788108343750,-8.992928,0.768701,4.213979,0.4477,0.48965,0.46324
1694788108351562,-8.943928,0.763701,4.211979,0.5737,0.48665,0.35024
1694788108359375,-8.891928,0.753701,4.222979,0.6707,0.51765,0.28624
1694788108367187,-8.835928,0.735701,4.213979,0.7697,0.43865,0.22324
1694788108375000,-8.808928,0.723701,4.206979,0.9677,0.37665,0.1624
1694788108382812,-8.788928,0.707701,4.209979,0.10467,0.37465,0.8076
1694788108390625,-8.767928,0.699701,4.211979,0.10407,0.31565,0.18976
1694788108398437,-8.756928,0.687701,4.206979,0.10337,0.18565,0.25576
1694788108406250,-8.753928,0.665701,4.206979,0.11307,0.13965,0.23976
1694788108414062,-8.782928,0.634701,4.215979,0.11337,0.3065,0.30276
1694788108421875,-8.828928,0.597701,4.220979,0.10867,0.4535,0.23876
1694788108429687,-8.884928,0.577701,4.213979,0.10787,0.2535,0.26876
1694788108437500,-8.937928,0.565701,4.218979,0.10697,0.5235,0.25076
1694788108445312,-8.987928,0.560701,4.234979,0.10397,0.20235,0.27076
1694788108453125,-9.18928,0.556701,4.231979,0.9757,0.28035,0.28676
1694788108460937,-9.36928,0.553701,4.240979,0.9367,0.17235,0.14376
1694788108468750,-9.67928,0.559701,4.252979,0.8887,0.9335,0.11176
1694788108476562,-9.81928,0.584701,4.249979,0.8607,0.2735,0.3076
1694788108484375,-9.63928,0.555701,4.238979,0.7787,0.365,0.6524
1694788108492187,-9.58928,0.535701,4.249979,0.7987,0.835,0.13024
1694788108500000,-9.42928,0.530701,4.238979,0.7487,0.11665,0.17824
1694788108507812,-9.22928,0.534701,4.252979,0.5777,0.14265,0.20724
1694788108515625,-8.980928,0.551701,4.313979,0.4497,0.23665,0.20724
1694788108523437,-8.926928,0.571701,4.324979,0.3817,0.18165,0.21124
1694788108531250,-8.879928,0.567701,4.215979,0.5027,0.4235,0.22424
1694788108539062,-8.886928,0.592701,4.229979,0.4027,0.2835,0.24024
1694788108546875,-8.889928,0.598701,4.240979,0.2877,0.17465,0.23924
1694788108554687,-8.909928,0.565701,4.195979,0.1877,0.18765,0.22324
1694788108562500,-8.924928,0.559701,4.114979,0.1947,0.9765,0.20824
1694788108570312,-8.939928,0.550701,3.996979,0.797,0.18865,0.8024
1694788108578125,-8.987928,0.566701,4.78979,0.13,0.20165,0.3276
1694788108585937,-8.998928,0.555701,4.222979,0.43,0.30965,0.9676
1694788108593750,-8.987928,0.555701,4.270979,0.493,0.18465,0.22376
1694788108601562,-9.11928,0.560701,4.254979,0.433,0.10765,0.35076
1694788108609375,-9.928,0.551701,4.166979,0.943,0.2665,0.43176
1694788108617187,-8.977928,0.540701,4.127979,0.123,0.10565,0.44776
1694788108625000,-8.955928,0.533701,4.139979,0.1187,0.21565,0.51076
1694788108632812,-8.928928,0.519701,4.141979,0.1857,0.26365,0.52576
1694788108640625,-8.955928,0.517701,4.137979,0.2617,0.26065,0.57576
1694788108648437,-8.988928,0.493701,4.134979,0.2597,0.22765,0.57576
1694788108656250,-8.993928,0.484701,4.139979,0.2767,0.15065,0.52776
1694788108664062,-8.988928,0.491701,4.143979,0.2487,0.15365,0.54276
1694788108671875,-8.988928,0.505701,4.186979,0.2187,0.24865,0.52576
1694788108679687,-8.988928,0.480701,4.202979,0.2827,0.23265,0.52576
1694788108687500,-8.988928,0.477701,4.193979,0.2567,0.24365,0.48076
1694788108695312,-8.988928,0.498701,4.168979,0.2687,0.23465,0.46176
1694788108703125,-8.999928,0.508701,4.166979,0.3377,0.26965,0.44476
1694788108710937,-8.992928,0.505701,4.170979,0.4107,0.23365,0.39876
1694788108718750,-8.988928,0.515701,4.146979,0.5027,0.20065,0.36776
1694788108726562,-8.988928,0.506701,4.159979,0.5017,0.23065,0.36776
1694788108734375,-8.988928,0.498701,4.179979,0.4707,0.21665,0.35176
1694788108742187,-8.982928,0.510701,4.182979,0.2737,0.19765,0.41676
1694788108750000,-8.988928,0.514701,4.184979,0.2997,0.21965,0.36576
1694788108757812,-8.991928,0.517701,4.186979,0.2577,0.19765,0.40076
1694788108765625,-8.993928,0.527701,4.195979,0.2647,0.17165,0.33476
1694788108773437,-8.989928,0.522701,4.188979,0.2427,0.18465,0.33576
1694788108781250,-8.991928,0.515701,4.186979,0.517,0.19965,0.39976
1694788108789062,-8.977928,0.518701,4.173979,0.907,0.12665,0.34976
1694788108796875,-8.966928,0.516701,4.173979,0.257,0.15765,0.31776
1694788108804687,-8.968928,0.514701,4.152979,0.107,0.20565,0.30176
1694788108812500,-8.975928,0.515701,4.146979,0.177,0.21565,0.28776
1694788108820312,-8.984928,0.522701,4.139979,0.167,0.16865,0.30376
1694788108828125,-8.975928,0.530701,4.130979,0.23,0.16765,0.27276
1694788108835937,-8.973928,0.524701,4.114979,0.167,0.21465,0.33576
1694788108843750,-8.973928,0.545701,4.71979,0.183,0.20665,0.36476
1694788108851562,-8.966928,0.535701,4.55979,0.443,0.18565,0.33476
1694788108859375,-8.988928,0.536701,3.985979,0.907,0.7965,0.38176
1694788108867187,-8.989928,0.544701,4.19979,0.1797,0.18465,0.36776
1694788108875000,-8.989928,0.575701,4.127979,0.1667,0.15365,0.39876
1694788108882812,-8.989928,0.585701,4.69979,0.1237,0.165,0.38176
1694788108890625,-9.9928,0.617701,4.68979,0.887,0.635,0.39476
1694788108898437,-9.7928,0.623701,4.44979,0.1257,0.1235,0.30076
1694788108906250,-8.994928,0.615701,4.30979,0.2487,0.4835,0.39876
1694788108914062,-8.989928,0.603701,4.44979,0.3047,0.2835,0.44476
1694788108921875,-8.996928,0.596701,4.62979,0.4157,0.2935,0.42976
1694788108929687,-9.3928,0.589701,4.37979,0.5687,0.4935,0.41576
1694788108937500,-9.11928,0.587701,4.12979,0.5427,0.6235,0.46176
1694788108945312,-9.20928,0.590701,4.17979,0.5297,0.3035,0.52476
1694788108953125,-9.4928,0.558701,4.21979,0.6077,0.4635,0.46176
1694788108960937,-9.2928,0.552701,4.14979,0.7557,0.2935,0.54076
1694788108968750,-8.993928,0.542701,4.1979,0.7817,0.11135,0.52676
1694788108976562,-9.15928,0.541701,4.3979,0.8037,0.10935,0.62176
1694788108984375,-9.15928,0.536701,3.974979,0.7407,0.10835,0.57276
1694788108992187,-9.26928,0.541701,3.931979,0.7207,0.12735,0.68576
1694788109000000,-9.31928,0.552701,3.949979,0.7517,0.5135,0.74976
1694788109007812,-9.41928,0.564701,3.958979,0.6997,0.6835,0.76676
1694788109015625,-9.50928,0.577701,3.951979,0.7767,0.5435,0.76776
1694788109023437,-9.61928,0.587701,3.965979,0.7627,0.3835,0.78376
1694788109031250,-9.66928,0.594701,3.972979,0.7167,0.5335,0.81476
1694788109039062,-9.61928,0.603701,3.972979,0.7187,0.3635,0.79876
1694788109046875,-9.79928,0.595701,3.990979,0.7877,0.435,0.90976
1694788109054687,-9.76928,0.588701,3.983979,0.7927,0.135,0.95576
1694788109062500,-9.84928,0.605701,3.985979,0.7327,0.3765,0.102276
1694788109070312,-9.70928,0.598701,3.990979,0.7817,0.7065,0.99076
1694788109078125,-9.66928,0.611701,3.972979,0.7017,0.735,0.94276
1694788109085937,-9.78928,0.638701,3.967979,0.6857,0.8665,0.95876
1694788109093750,-9.98928,0.663701,3.988979,0.7677,0.4065,0.94276
1694788109101562,-9.119928,0.672701,3.978979,0.6857,0.5465,0.99076
1694788109109375,-9.116928,0.690701,3.978979,0.7187,0.7065,0.99076
1694788109117187,-9.101928,0.694701,3.954979,0.7687,0.5565,0.95776
1694788109125000,-9.96928,0.696701,3.938979,0.7517,0.16465,0.99076
1694788109132812,-9.114928,0.708701,3.960979,0.7687,0.19665,0.100576
1694788109140625,-9.115928,0.728701,3.985979,0.8327,0.14965,0.100576
1694788109148437,-9.108928,0.731701,3.987979,0.9207,0.17065,0.95576
1694788109156250,-9.103928,0.735701,3.965979,0.8547,0.16865,0.98876
1694788109164062,-9.99928,0.729701,3.951979,0.9767,0.21165,0.99076
1694788109171875,-9.94928,0.727701,3.958979,0.10427,0.14965,0.97476
1694788109179687,-9.113928,0.736701,3.967979,0.10557,0.21065,0.97476
1694788109187500,-9.101928,0.730701,3.947979,0.10267,0.19765,0.94176
1694788109195312,-9.97928,0.723701,3.936979,0.10417,0.21265,0.95876
1694788109203125,-9.81928,0.729701,3.933979,0.10417,0.24365,0.94276
1694788109210937,-9.81928,0.729701,3.958979,0.10537,0.27365,0.87976
1694788109218750,-9.79928,0.731701,3.958979,0.11187,0.30665,0.81476
1694788109226562,-9.72928,0.730701,3.974979,0.11097,0.26365,0.81376
1694788109234375,-9.63928,0.726701,3.981979,0.11127,0.28065,0.82876
1694788109242187,-9.51928,0.714701,3.976979,0.11557,0.33965,0.82976
1694788109250000,-9.36928,0.698701,3.963979,0.12017,0.29265,0.71876
1694788109257812,-9.32928,0.704701,3.951979,0.11017,0.33865,0.70376
1694788109265625,-9.27928,0.698701,3.958979,0.11547,0.27865,0.68576
1694788109273437,-9.27928,0.700701,3.965979,0.11507,0.24465,0.68776
1694788109281250,-9.27928,0.702701,3.967979,0.11367,0.27765,0.70276
1694788109289062,-9.13928,0.694701,3.972979,0.11247,0.29565,0.66976
1694788109296875,-9.9928,0.686701,3.985979,0.11017,0.23065,0.59076
1694788109304687,-9.6928,0.693701,3.987979,0.11557,0.21865,0.54176
1694788109312500,-9.4928,0.698701,4.1979,0.11527,0.18565,0.52676
1694788109320312,-9.7928,0.704701,3.999979,0.11367,0.20165,0.54276
1694788109328125,-9.5928,0.708701,3.996979,0.10527,0.18465,0.49576
1694788109335937,-9.20928,0.707701,3.999979,0.10397,0.17065,0.46276
1694788109343750,-9.34928,0.700701,3.996979,0.11167,0.24665,0.46376
1694788109351562,-9.67928,0.685701,3.967979,0.10837,0.21565,0.43176
1694788109359375,-9.83928,0.663701,3.949979,0.10817,0.26165,0.44776
1694788109367187,-9.98928,0.659701,3.945979,0.10677,0.37265,0.41576
1694788109375000,-9.107928,0.663701,3.990979,0.10497,0.44965,0.43176
1694788109382812,-9.110928,0.663701,4.60979,0.10147,0.47965,0.43276
1694788109390625,-9.82928,0.652701,4.12979,0.10347,0.37265,0.36776
1694788109398437,-9.67928,0.660701,3.958979,0.10497,0.37265,0.35176
1694788109406250,-9.56928,0.685701,3.985979,0.10977,0.43565,0.30376
1694788109414062,-9.18928,0.668701,3.958979,0.10797,0.51265,0.30476
1694788109421875,-8.977928,0.657701,3.945979,0.10327,0.60665,0.31976
1694788109429687,-8.956928,0.644701,3.879979,0.10837,0.46665,0.39976
1694788109437500,-8.960928,0.617701,3.807979,0.10877,0.50065,0.38276
1694788109445312,-8.970928,0.635701,3.965979,0.10367,0.52965,0.41476
1694788109453125,-8.967928,0.636701,4.96979,0.9317,0.44065,0.42876
1694788109460937,-8.979928,0.640701,4.109979,0.7667,0.26565,0.41476
1694788109468750,-9.6928,0.640701,4.12979,0.5917,0.12665,0.42976
1694788109476562,-8.999928,0.665701,3.901979,0.7057,0.12665,0.44576
1694788109484375,-8.995928,0.676701,3.859979,0.8807,0.23365,0.49376
1694788109492187,-9.8928,0.647701,3.897979,0.7987,0.31165,0.47776
1694788109500000,-9.42928,0.569701,3.913979,0.8627,0.25965,0.41076
1694788109507812,-9.80928,0.535701,3.847979,0.8767,0.23265,0.41476
1694788109515625,-9.199928,0.561701,3.782979,0.7947,0.18565,0.39976
1694788109523437,-9.275928,0.567701,3.796979,0.7817,0.31265,0.39876
1694788109531250,-9.235928,0.535701,3.868979,0.7897,0.48165,0.28776
1694788109539062,-9.158928,0.523701,3.911979,0.7807,0.51765,0.22276
1694788109546875,-9.96928,0.544701,3.881979,0.8057,0.52965,0.14476
1694788109554687,-9.34928,0.582701,3.809979,0.8517,0.43665,0.6476
1694788109562500,-9.928,0.612701,3.820979,0.9107,0.36265,0.15876
1694788109570312,-9.23928,0.603701,3.825979,0.9387,0.26665,0.15976
1694788109578125,-9.57928,0.605701,3.816979,0.9667,0.38865,0.20876
1694788109585937,-9.34928,0.621701,3.877979,0.10197,0.35865,0.27176
1694788109593750,-8.999928,0.640701,3.931979,0.10027,0.38665,0.47976
1694788109601562,-8.991928,0.650701,3.958979,0.9357,0.38565,0.49676
1694788109609375,-8.993928,0.646701,4.10979,0.7897,0.33765,0.52876
1694788109617187,-8.999928,0.631701,4.21979,0.7137,0.35465,0.59176
1694788109625000,-9.12928,0.613701,4.26979,0.5687,0.40165,0.55976
1694788109632812,-9.28928,0.614701,4.15979,0.5197,0.51065,0.55976
1694788109640625,-9.45928,0.607701,4.15979,0.5217,0.48065,0.59076
1694788109648437,-9.56928,0.604701,4.24979,0.5107,0.51465,0.57376
1694788109656250,-9.74928,0.622701,4.14979,0.5347,0.50365,0.63576
1694788109664062,-9.88928,0.635701,4.26979,0.4987,0.70465,0.63676
1694788109671875,-9.73928,0.650701,4.28979,0.5417,0.82565,0.68576
1694788109679687,-9.64928,0.670701,4.33979,0.5067,0.88665,0.70276
1694788109687500,-9.56928,0.682701,4.57979,0.5647,0.94565,0.67176
1694788109695312,-9.40928,0.694701,4.66979,0.5597,0.98365,0.68576
1694788109703125,-9.18928,0.714701,4.66979,0.7257,0.106465,0.65176
1694788109710937,-8.998928,0.716701,4.64979,0.7987,0.109165,0.66976
1694788109718750,-8.989928,0.729701,4.55979,0.7997,0.95065,0.70176
1694788109726562,-8.957928,0.710701,3.985979,0.9877,0.104165,0.68676
1694788109734375,-8.927928,0.705701,4.157979,0.10457,0.121065,0.70476
1694788109742187,-8.908928,0.716701,4.224979,0.10377,0.105965,0.60676
1694788109750000,-8.911928,0.747701,4.136979,0.9687,0.93165,0.65576
1694788109757812,-8.893928,0.769701,4.143979,0.9877,0.96465,0.59176
1694788109765625,-8.880928,0.746701,4.139979,0.10477,0.96165,0.62476
1694788109773437,-8.859928,0.722701,4.154979,0.10347,0.105865,0.57576
1694788109781250,-8.839928,0.704701,4.186979,0.10567,0.101465,0.55776
1694788109789062,-8.848928,0.675701,4.161979,0.10297,0.93065,0.57676
1694788109796875,-8.856928,0.644701,4.148979,0.10487,0.86865,0.60876
1694788109804687,-8.863928,0.653701,4.143979,0.10317,0.86765,0.68876
1694788109812500,-8.855928,0.616701,4.132979,0.10537,0.76165,0.63876
1694788109820312,-8.864928,0.618701,4.132979,0.10357,0.79165,0.68776
1694788109828125,-8.880928,0.593701,4.139979,0.10497,0.74365,0.70376
1694788109835937,-8.898928,0.575701,4.130979,0.9987,0.78865,0.72076
1694788109843750,-8.904928,0.597701,4.152979,0.9447,0.74665,0.71776
1694788109851562,-8.927928,0.592701,4.143979,0.9397,0.66565,0.79976
1694788109859375,-8.956928,0.586701,4.141979,0.7787,0.69765,0.71876
1694788109867187,-8.967928,0.588701,4.143979,0.6987,0.71165,0.83076
1694788109875000,-8.994928,0.589701,4.150979,0.6877,0.71465,0.82976
1694788109882812,-9.20928,0.587701,4.148979,0.5437,0.70065,0.78176
1694788109890625,-9.41928,0.590701,4.152979,0.4357,0.78165,0.81176
1694788109898437,-9.61928,0.583701,4.152979,0.3427,0.85165,0.79976
1694788109906250,-9.103928,0.580701,4.146979,0.2497,0.82365,0.76676
1694788109914062,-9.117928,0.578701,4.112979,0.457,0.71665,0.76476
1694788109921875,-9.132928,0.562701,4.80979,0.323,0.74165,0.70376
