time,Acceleration X (m/s^2),Acceleration Y (m/s^2),Acceleration Z (m/s^2),Angular Velocity X (rad/s),Angular Velocity Y (rad/s),Angular Velocity Z (rad/s)
1694638509632812,-8.857335,-0.578069,4.584686,,,
1694638509640625,-8.849335,0.579069,4.573686,0.40991,0.43684,0.31873
1694638509648437,-8.818335,0.598069,4.575686,0.34191,0.48284,0.28773
1694638509656250,-8.796335,0.601069,4.575686,0.26191,0.48284,0.33573
1694638509664062,-8.787335,0.594069,4.589686,0.30691,0.57584,0.25573
1694638509671875,-8.778335,0.581069,4.602686,0.26091,0.57784,0.19173
1694638509687500,-8.761335,0.557069,4.593686,0.28991,0.49784,0.22373
1694638509695312,-8.736335,0.555069,4.586686,0.24191,0.45084,0.20773
1694638509703125,-8.729335,0.539069,4.579686,0.30991,0.49984,0.22373
1694638509710937,-8.716335,0.526069,4.564686,0.21191,0.40584,0.19173
1694638509734375,-8.732335,0.491069,4.579686,0.23091,0.24984,0.22273
1694638509742187,-8.760335,0.489069,4.584686,0.24091,0.27784,0.16073
1694638509750000,-8.786335,0.486069,4.595686,0.22891,0.31184,0.20773
1694638509757812,-8.806335,0.487069,4.598686,0.31291,0.29784,0.20673
1694638509765625,-8.845335,0.487069,4.593686,0.32391,0.35684,0.23973
1694638509773437,-8.853335,0.493069,4.586686,0.39191,0.40584,0.25473
1694638509781250,-8.851335,0.507069,4.584686,0.42391,0.43684,0.27073
1694638509789062,-8.846335,0.508069,4.577686,0.42691,0.40684,0.28673
1694638509796875,-8.840335,0.504069,4.561686,0.44091,0.35884,0.25473
1694638509804687,-8.813335,0.492069,4.570686,0.47291,0.40584,0.30273
1694638509812500,-8.793335,0.494069,4.579686,0.47191,0.40484,0.27173
1694638509820312,-8.782335,0.508069,4.586686,0.45391,0.45184,0.27173
1694638509828125,-8.752335,0.515069,4.579686,0.35791,0.45084,0.33573
1694638509835937,-8.748335,0.497069,4.595686,0.39191,0.35784,0.33473
1694638509843750,-8.757335,0.499069,4.593686,0.45791,0.35884,0.35073
1694638509851562,-8.758335,0.491069,4.607686,0.41991,0.32384,0.30473
1694638509859375,-8.768335,0.495069,4.627686,0.42191,0.38884,0.30373
1694638509867187,-8.762335,0.487069,4.618686,0.46691,0.36884,0.27273
1694638509875000,-8.760335,0.500069,4.625686,0.45391,0.27984,0.25573
1694638509882812,-8.771335,0.497069,4.613686,0.46791,0.30884,0.20873
1694638509890625,-8.771335,0.497069,4.607686,0.45491,0.27984,0.23973
1694638509898437,-8.797335,0.505069,4.602686,0.47391,0.26584,0.27073
1694638509906250,-8.804335,0.505069,4.586686,0.45691,0.24884,0.28673
1694638509914062,-8.809335,0.490069,4.584686,0.45491,0.23284,0.27173
1694638509921875,-8.804335,0.503069,4.582686,0.46991,0.27884,0.30373
1694638509929687,-8.804335,0.496069,4.582686,0.45591,0.32784,0.25573
1694638509937500,-8.793335,0.490069,4.568686,0.47391,0.31384,0.22273
1694638509945312,-8.779335,0.497069,4.575686,0.45591,0.45284,0.27073
1694638509953125,-8.777335,0.505069,4.588686,0.50591,0.32784,0.27073
1694638509960937,-8.768335,0.492069,4.588686,0.45991,0.35984,0.28673
1694638509968750,-8.768335,0.490069,4.607686,0.42491,0.28084,0.27073
1694638509976562,-8.775335,0.493069,4.595686,0.46991,0.29484,0.28773
1694638509984375,-8.784335,0.483069,4.607686,0.45691,0.23384,0.30273
1694638509992187,-8.791335,0.490069,4.609686,0.46991,0.26384,0.30373
1694638510000000,-8.782335,0.481069,4.607686,0.45691,0.18684,0.28673
1694638510007812,-8.787335,0.470069,4.607686,0.47291,0.23384,0.33473
1694638510015625,-8.786335,0.476069,4.618686,0.46191,0.21984,0.36573
1694638510023437,-8.786335,0.470069,4.618686,0.47591,0.21884,0.31873
1694638510031250,-8.780335,0.479069,4.595686,0.50591,0.20184,0.33473
1694638510039062,-8.770335,0.486069,4.582686,0.47391,0.26484,0.31873
1694638510046875,-8.770335,0.503069,4.591686,0.50491,0.24884,0.31873
1694638510054687,-8.765335,0.499069,4.582686,0.50991,0.20384,0.33373
1694638510062500,-8.765335,0.501069,4.588686,0.54291,0.25184,0.31773
1694638510070312,-8.768335,0.492069,4.577686,0.57191,0.28084,0.36673
1694638510078125,-8.770335,0.485069,4.570686,0.55691,0.24984,0.35073
1694638510085937,-8.775335,0.490069,4.582686,0.65391,0.23484,0.38273
1694638510093750,-8.777335,0.496069,4.584686,0.52491,0.17184,0.36673
1694638510101562,-8.781335,0.510069,4.575686,0.45791,0.18584,0.39873
1694638510109375,-8.783335,0.523069,4.550686,0.49391,0.20384,0.36573
1694638510117187,-8.799335,0.541069,4.539686,0.47591,0.7784,0.36673
1694638510125000,-8.808335,0.536069,4.530686,0.46091,0.12584,0.33473
1694638510132812,-8.821335,0.542069,4.537686,0.42691,0.4684,0.28673
1694638510140625,-8.826335,0.541069,4.550686,0.43891,0.9184,0.30373
1694638510148437,-8.835335,0.525069,4.546686,0.47491,0.3084,0.31873
1694638510156250,-8.835335,0.511069,4.541686,0.44091,0.6284,0.25473
1694638510164062,-8.838335,0.494069,4.539686,0.45491,0.16984,0.30373
1694638510171875,-8.837335,0.482069,4.548686,0.47591,0.14184,0.30273
1694638510179687,-8.840335,0.480069,4.539686,0.45891,0.10984,0.27073
1694638510187500,-8.831335,0.491069,4.541686,0.45791,0.10984,0.23873
1694638510195312,-8.830335,0.504069,4.550686,0.47791,0.17284,0.33373
1694638510203125,-8.835335,0.491069,4.539686,0.45791,0.24984,0.33473
1694638510210937,-8.838335,0.491069,4.539686,0.43991,0.26484,0.28673
1694638510218750,-8.831335,0.482069,4.559686,0.47691,0.26684,0.30173
1694638510226562,-8.824335,0.474069,4.557686,0.45591,0.20284,0.22273
1694638510234375,-8.820335,0.476069,4.543686,0.47191,0.23384,0.20673
1694638510242187,-8.826335,0.478069,4.528686,0.45891,0.18884,0.25473
1694638510250000,-8.837335,0.486069,4.507686,0.54091,0.17384,0.22173
1694638510257812,-8.840335,0.511069,4.498686,0.48891,0.18684,0.27073
1694638510265625,-8.846335,0.524069,4.496686,0.57091,0.17184,0.27073
1694638510273437,-8.862335,0.529069,4.512686,0.56791,0.18684,0.23973
1694638510281250,-8.868335,0.542069,4.494686,0.47091,0.23384,0.25573
1694638510289062,-8.855335,0.544069,4.476686,0.48991,0.28084,0.30273
1694638510296875,-8.848335,0.529069,4.487686,0.45891,0.23484,0.30273
1694638510304687,-8.830335,0.527069,4.496686,0.47391,0.20184,0.33473
1694638510312500,-8.816335,0.518069,4.498686,0.46191,0.23584,0.30173
1694638510320312,-8.797335,0.494069,4.476686,0.49091,0.26484,0.33473
1694638510328125,-8.806335,0.489069,4.460686,0.47591,0.28084,0.35073
1694638510335937,-8.819335,0.489069,4.464686,0.45891,0.31284,0.31873
1694638510343750,-8.842335,0.480069,4.462686,0.39291,0.29684,0.28673
1694638510351562,-8.853335,0.491069,4.478686,0.43891,0.21784,0.23973
1694638510359375,-8.867335,0.500069,4.473686,0.46991,0.20184,0.23973
1694638510367187,-8.880335,0.516069,4.437686,0.48391,0.30884,0.22473
1694638510375000,-8.889335,0.515069,4.424686,0.50391,0.24984,0.22273
1694638510382812,-8.882335,0.508069,4.415686,0.47191,0.23484,0.19173
1694638510390625,-8.882335,0.524069,4.410686,0.45491,0.34184,0.27173
1694638510398437,-8.864335,0.520069,4.388686,0.48691,0.21784,0.23973
1694638510406250,-8.857335,0.515069,4.383686,0.47391,0.26684,0.22273
1694638510414062,-8.853335,0.508069,4.403686,0.45991,0.20484,0.22173
1694638510421875,-8.855335,0.500069,4.428686,0.47291,0.23484,0.17473
1694638510429687,-8.857335,0.489069,4.433686,0.45791,0.18884,0.17473
1694638510437500,-8.887335,0.478069,4.462686,0.45491,0.18684,0.23973
1694638510445312,-8.912335,0.470069,4.476686,0.45791,0.17184,0.27073
1694638510453125,-8.909335,0.472069,4.494686,0.45691,0.20384,0.22273
1694638510460937,-8.911335,0.481069,4.494686,0.45791,0.23484,0.27073
1694638510468750,-8.901335,0.477069,4.476686,0.45491,0.24884,0.22373
1694638510476562,-8.887335,0.480069,4.462686,0.48591,0.20184,0.23973
1694638510484375,-8.858335,0.489069,4.462686,0.53591,0.29584,0.27173
1694638510492187,-8.833335,0.490069,4.469686,0.56591,0.35784,0.23973
1694638510500000,-8.826335,0.487069,4.469686,0.56991,0.37484,0.28673
1694638510507812,-8.810335,0.485069,4.469686,0.55591,0.37584,0.25473
1694638510515625,-8.810335,0.505069,4.482686,0.50591,0.32784,0.30273
1694638510523437,-8.820335,0.496069,4.471686,0.48791,0.34184,0.33573
1694638510531250,-8.824335,0.494069,4.462686,0.58691,0.32784,0.28673
1694638510539062,-8.840335,0.500069,4.451686,0.53591,0.34184,0.30373
1694638510546875,-8.839335,0.486069,4.451686,0.48191,0.30484,0.30573
1694638510554687,-8.849335,0.487069,4.453686,0.52091,0.23284,0.33573
1694638510562500,-8.856335,0.487069,4.430686,0.48491,0.27784,0.28873
1694638510570312,-8.887335,0.493069,4.426686,0.47291,0.31284,0.27073
1694638510578125,-8.911335,0.497069,4.435686,0.50791,0.26584,0.35073
1694638510585937,-8.927335,0.492069,4.437686,0.47391,0.28084,0.30273
1694638510593750,-8.934335,0.497069,4.458686,0.48891,0.26484,0.33473
1694638510601562,-8.938335,0.501069,4.478686,0.50791,0.23484,0.31873
1694638510609375,-8.936335,0.503069,4.476686,0.47291,0.24884,0.31873
1694638510617187,-8.929335,0.519069,4.460686,0.45691,0.26484,0.28673
1694638510625000,-8.895335,0.512069,4.469686,0.45791,0.31184,0.30273
1694638510632812,-8.873335,0.501069,4.453686,0.47491,0.40684,0.27073
1694638510640625,-8.846335,0.504069,4.458686,0.46191,0.40884,0.26973
1694638510648437,-8.837335,0.505069,4.471686,0.43891,0.42084,0.27173
1694638510656250,-8.840335,0.509069,4.482686,0.47091,0.46784,0.27173
1694638510664062,-8.838335,0.494069,4.498686,0.45491,0.42084,0.25573
1694638510671875,-8.841335,0.520069,4.503686,0.47391,0.46884,0.28673
1694638510679687,-8.857335,0.522069,4.489686,0.45391,0.43584,0.30373
1694638510687500,-8.864335,0.513069,4.469686,0.47091,0.42084,0.25573
1694638510695312,-8.871335,0.500069,4.462686,0.45691,0.42084,0.31873
1694638510703125,-8.849335,0.496069,4.446686,0.45291,0.43484,0.30373
1694638510710937,-8.840335,0.485069,4.448686,0.46891,0.41984,0.28773
1694638510718750,-8.816335,0.488069,4.446686,0.44891,0.42984,0.30573
1694638510726562,-8.804335,0.485069,4.442686,0.47291,0.40584,0.28673
1694638510734375,-8.815335,0.484069,4.455686,0.46091,0.29884,0.25373
1694638510742187,-8.829335,0.489069,4.467686,0.43891,0.35784,0.28773
1694638510750000,-8.837335,0.518069,4.464686,0.47291,0.32784,0.27073
1694638510757812,-8.846335,0.520069,4.467686,0.45591,0.42084,0.30373
1694638510765625,-8.861335,0.533069,4.462686,0.35991,0.49884,0.31873
1694638510773437,-8.861335,0.542069,4.464686,0.43791,0.49884,0.22373
1694638510781250,-8.877335,0.546069,4.462686,0.45491,0.45184,0.28773
1694638510789062,-8.884335,0.542069,4.460686,0.40591,0.46684,0.31973
1694638510796875,-8.854335,0.533069,4.446686,0.47491,0.48484,0.23873
1694638510804687,-8.846335,0.520069,4.426686,0.45491,0.42084,0.22373
1694638510812500,-8.828335,0.523069,4.426686,0.42191,0.40584,0.19173
1694638510820312,-8.808335,0.518069,4.426686,0.34191,0.34284,0.19173
1694638510828125,-8.815335,0.498069,4.430686,0.36191,0.40784,0.20673
1694638510835937,-8.820335,0.485069,4.446686,0.37391,0.32784,0.19173
1694638510843750,-8.838335,0.478069,4.442686,0.40591,0.31284,0.14373
1694638510851562,-8.845335,0.467069,4.448686,0.46991,0.23384,0.17573
1694638510859375,-8.854335,0.451069,4.439686,0.48891,0.31284,0.20673
1694638510867187,-8.852335,0.451069,4.442686,0.47191,0.26484,0.23873
1694638510875000,-8.858335,0.445069,4.435686,0.45591,0.29584,0.25473
1694638510882812,-8.881335,0.436069,4.421686,0.50391,0.35784,0.33573
1694638510890625,-8.887335,0.451069,4.415686,0.56991,0.35784,0.33473
1694638510898437,-8.883335,0.444069,4.426686,0.74891,0.34384,0.36673
1694638510906250,-8.886335,0.442069,4.435686,0.66391,0.35784,0.30373
1694638510914062,-8.889335,0.470069,4.444686,0.65091,0.34384,0.28673
1694638510921875,-8.887335,0.484069,4.442686,0.73091,0.38984,0.31873
1694638510929687,-8.909335,0.508069,4.462686,0.71291,0.38884,0.30373
1694638510937500,-8.931335,0.528069,4.478686,0.72891,0.40484,0.30373
1694638510945312,-8.936335,0.532069,4.467686,0.67991,0.38884,0.33573
1694638510953125,-8.930335,0.558069,4.464686,0.53791,0.46784,0.31873
1694638510960937,-8.915335,0.559069,4.446686,0.50191,0.45084,0.33573
1694638510968750,-8.888335,0.564069,4.462686,0.45291,0.45084,0.31973
1694638510976562,-8.850335,0.562069,4.476686,0.47591,0.49984,0.33473
1694638510984375,-8.818335,0.555069,4.464686,0.45891,0.51584,0.31873
1694638510992187,-8.805335,0.533069,4.451686,0.47691,0.42284,0.28573
1694638511000000,-8.808335,0.520069,4.460686,0.44291,0.42284,0.30273
1694638511007812,-8.815335,0.523069,4.500686,0.40891,0.46784,0.35073
1694638511015625,-8.833335,0.515069,4.539686,0.39391,0.46784,0.38273
1694638511023437,-8.853335,0.511069,4.548686,0.48991,0.45284,0.30273
1694638511031250,-8.856335,0.491069,4.519686,0.43791,0.46684,0.28773
1694638511039062,-8.905335,0.488069,4.539686,0.34291,0.49884,0.28673
1694638511046875,-8.927335,0.486069,4.534686,0.34191,0.57584,0.31973
1694638511054687,-8.945335,0.496069,4.507686,0.29391,0.49784,0.31973
1694638511062500,-8.934335,0.524069,4.473686,0.33691,0.57084,0.33773
1694638511070312,-8.918335,0.537069,4.462686,0.35491,0.46584,0.25573
1694638511078125,-8.893335,0.553069,4.462686,0.37191,0.41984,0.27173
1694638511085937,-8.868335,0.546069,4.478686,0.39091,0.57684,0.27173
1694638511093750,-8.844335,0.540069,4.485686,0.40191,0.65384,0.22473
1694638511101562,-8.812335,0.529069,4.480686,0.27491,0.67084,0.14373
1694638511109375,-8.775335,0.524069,4.480686,0.23891,0.60484,0.12873
1694638511117187,-8.752335,0.519069,4.505686,0.25791,0.52984,0.15973
1694638511125000,-8.741335,0.522069,4.514686,0.25891,0.43784,0.4773
1694638511132812,-8.723335,0.493069,4.537686,0.27691,0.46884,0.12773
1694638511140625,-8.733335,0.469069,4.564686,0.29091,0.45284,0.7973
1694638511148437,-8.751335,0.462069,4.573686,0.38891,0.45284,0.15973
1694638511156250,-8.783335,0.455069,4.561686,0.43391,0.49584,0.17673
1694638511164062,-8.818335,0.456069,4.557686,0.35491,0.52984,0.17573
1694638511171875,-8.839335,0.430069,4.530686,0.46891,0.48284,0.20773
1694638511179687,-8.839335,0.432069,4.505686,0.46891,0.43584,0.20773
1694638511187500,-8.839335,0.439069,4.496686,0.58091,0.41984,0.22373
1694638511195312,-8.839335,0.450069,4.505686,0.61291,0.44884,0.30473
1694638511203125,-8.827335,0.452069,4.498686,0.72991,0.43684,0.27173
1694638511210937,-8.816335,0.452069,4.500686,0.74591,0.42084,0.30373
1694638511218750,-8.821335,0.479069,4.496686,0.70891,0.43184,0.28873
1694638511226562,-8.820335,0.489069,4.500686,0.74791,0.42184,0.30273
1694638511234375,-8.814335,0.502069,4.505686,0.72091,0.42584,0.29073
1694638511242187,-8.820335,0.525069,4.505686,0.54891,0.41784,0.30473
1694638511250000,-8.815335,0.541069,4.507686,0.53391,0.43484,0.28773
1694638511257812,-8.819335,0.548069,4.505686,0.41991,0.38584,0.30473
1694638511265625,-8.821335,0.552069,4.512686,0.34091,0.43584,0.27173
1694638511273437,-8.823335,0.546069,4.530686,0.41091,0.39184,0.25473
1694638511281250,-8.837335,0.538069,4.525686,0.37391,0.40584,0.22373
1694638511289062,-8.838335,0.521069,4.532686,0.28891,0.38684,0.19273
1694638511296875,-8.852335,0.499069,4.512686,0.31791,0.34984,0.19473
1694638511304687,-8.858335,0.483069,4.541686,0.40191,0.40284,0.20873
1694638511312500,-8.853335,0.480069,4.550686,0.42191,0.37484,0.17573
1694638511320312,-8.851335,0.480069,4.528686,0.40591,0.38984,0.19173
1694638511328125,-8.837335,0.480069,4.528686,0.44191,0.40784,0.20673
1694638511335937,-8.838335,0.464069,4.521686,0.44391,0.45384,0.33473
1694638511343750,-8.840335,0.458069,4.534686,0.45891,0.46884,0.28673
1694638511351562,-8.823335,0.463069,4.534686,0.45391,0.45084,0.31973
1694638511359375,-8.820335,0.458069,4.550686,0.49091,0.46884,0.33473
1694638511367187,-8.804335,0.465069,4.550686,0.49291,0.40784,0.25373
1694638511375000,-8.806335,0.471069,4.552686,0.52391,0.43984,0.18973
1694638511382812,-8.822335,0.476069,4.550686,0.63691,0.42284,0.30273
1694638511390625,-8.826335,0.482069,4.539686,0.61991,0.43884,0.25473
1694638511398437,-8.819335,0.491069,4.546686,0.63691,0.42284,0.28673
1694638511406250,-8.819335,0.487069,4.546686,0.60391,0.51584,0.30273
1694638511414062,-8.822335,0.491069,4.516686,0.66691,0.45284,0.28673
1694638511421875,-8.808335,0.491069,4.503686,0.71891,0.39284,0.30173
1694638511429687,-8.810335,0.500069,4.509686,0.58591,0.45284,0.28673
1694638511437500,-8.813335,0.498069,4.530686,0.57091,0.43784,0.30273
1694638511445312,-8.814335,0.513069,4.512686,0.58991,0.43884,0.28573
1694638511453125,-8.819335,0.499069,4.514686,0.62591,0.39384,0.30073
1694638511460937,-8.817335,0.493069,4.505686,0.62391,0.36184,0.33373
1694638511468750,-8.813335,0.514069,4.503686,0.52191,0.38984,0.28673
1694638511476562,-8.801335,0.529069,4.505686,0.57091,0.34484,0.25473
1694638511484375,-8.801335,0.525069,4.507686,0.66491,0.40584,0.22373
1694638511492187,-8.821335,0.522069,4.523686,0.66991,0.39284,0.18973
1694638511500000,-8.830335,0.522069,4.516686,0.60291,0.40684,0.20673
1694638511507812,-8.825335,0.524069,4.521686,0.52591,0.47084,0.25373
1694638511515625,-8.837335,0.547069,4.523686,0.56991,0.42184,0.30273
1694638511523437,-8.834335,0.560069,4.512686,0.48691,0.43684,0.25573
1694638511531250,-8.831335,0.561069,4.489686,0.46291,0.47084,0.30173
1694638511539062,-8.827335,0.564069,4.491686,0.47791,0.45484,0.31773
1694638511546875,-8.834335,0.546069,4.482686,0.46191,0.39284,0.23773
1694638511554687,-8.834335,0.542069,4.487686,0.47691,0.43984,0.22173
1694638511562500,-8.837335,0.531069,4.498686,0.45791,0.35984,0.22273
1694638511570312,-8.837335,0.517069,4.507686,0.44191,0.40784,0.20673
1694638511578125,-8.832335,0.509069,4.498686,0.50691,0.39184,0.23873
1694638511585937,-8.835335,0.489069,4.498686,0.44091,0.32984,0.12673
1694638511593750,-8.822335,0.480069,4.505686,0.45691,0.34484,0.17473
1694638511601562,-8.822335,0.474069,4.514686,0.42491,0.31384,0.14273
1694638511609375,-8.819335,0.473069,4.516686,0.47691,0.26784,0.18973
1694638511617187,-8.807335,0.463069,4.518686,0.40591,0.24984,0.17573
1694638511625000,-8.818335,0.456069,4.512686,0.40991,0.25184,0.14273
1694638511632812,-8.836335,0.449069,4.514686,0.48891,0.31284,0.23873
1694638511640625,-8.838335,0.451069,4.514686,0.60191,0.35984,0.23873
1694638511648437,-8.845335,0.454069,4.516686,0.45391,0.35784,0.23973
1694638511656250,-8.833335,0.478069,4.503686,0.50791,0.37584,0.28673
1694638511664062,-8.830335,0.486069,4.498686,0.57591,0.43984,0.28573
1694638511671875,-8.828335,0.511069,4.498686,0.56991,0.42184,0.30273
1694638511679687,-8.822335,0.519069,4.478686,0.66391,0.37284,0.31973
1694638511687500,-8.830335,0.554069,4.467686,0.61691,0.45184,0.33573
1694638511695312,-8.821335,0.560069,4.480686,0.50491,0.49884,0.33473
1694638511703125,-8.818335,0.560069,4.487686,0.45891,0.39084,0.31873
1694638511710937,-8.818335,0.564069,4.482686,0.45891,0.32784,0.31873
1694638511718750,-8.834335,0.560069,4.480686,0.39491,0.35984,0.30273
1694638511726562,-8.834335,0.558069,4.496686,0.28091,0.40584,0.31873
1694638511734375,-8.836335,0.564069,4.514686,0.26591,0.28384,0.17373
1694638511742187,-8.844335,0.551069,4.514686,0.21191,0.21784,0.17573
1694638511750000,-8.859335,0.549069,4.507686,0.19691,0.18784,0.11173
1694638511757812,-8.861335,0.524069,4.482686,0.21591,0.36084,0.14273
1694638511765625,-8.882335,0.521069,4.480686,0.19891,0.28184,0.15873
1694638511773437,-8.887335,0.513069,4.489686,0.21291,0.23384,0.14373
1694638511781250,-8.907335,0.494069,4.498686,0.19891,0.29884,0.4673
1694638511789062,-8.902335,0.490069,4.498686,0.24691,0.32884,0.15873
1694638511796875,-8.907335,0.490069,4.496686,0.24391,0.34384,0.11173
1694638511804687,-8.882335,0.484069,4.494686,0.37691,0.42284,0.19073
1694638511812500,-8.862335,0.482069,4.487686,0.40791,0.43784,0.19073
1694638511820312,-8.847335,0.485069,4.471686,0.43591,0.45084,0.23973
1694638511828125,-8.829335,0.487069,4.467686,0.45291,0.43484,0.28773
1694638511835937,-8.815335,0.492069,4.476686,0.47191,0.53084,0.23873
1694638511843750,-8.777335,0.494069,4.500686,0.44291,0.45384,0.28673
1694638511851562,-8.770335,0.508069,4.523686,0.30891,0.43684,0.20773
1694638511859375,-8.784335,0.497069,4.543686,0.43791,0.40484,0.27173
1694638511867187,-8.800335,0.486069,4.550686,0.33791,0.41784,0.24073
1694638511875000,-8.818335,0.488069,4.546686,0.41991,0.43584,0.20773
1694638511882812,-8.820335,0.472069,4.543686,0.24491,0.37384,0.22373
1694638511890625,-8.829335,0.458069,4.528686,0.34191,0.37384,0.20773
1694638511898437,-8.825335,0.447069,4.516686,0.43791,0.42184,0.15973
1694638511906250,-8.822335,0.449069,4.523686,0.44091,0.37584,0.20673
1694638511914062,-8.824335,0.460069,4.516686,0.45691,0.45484,0.14273
1694638511921875,-8.833335,0.462069,4.512686,0.47391,0.48584,0.15873
1694638511929687,-8.836335,0.469069,4.534686,0.59791,0.46784,0.19173
1694638511937500,-8.844335,0.473069,4.519686,0.49091,0.39184,0.20673
1694638511945312,-8.853335,0.484069,4.509686,0.47491,0.45384,0.22273
1694638511953125,-8.851335,0.486069,4.496686,0.57091,0.45384,0.27073
1694638511960937,-8.853335,0.484069,4.500686,0.62191,0.45484,0.28573
1694638511968750,-8.855335,0.487069,4.487686,0.60091,0.46884,0.25473
1694638511976562,-8.851335,0.482069,4.480686,0.55391,0.51584,0.28673
1694638511984375,-8.851335,0.484069,4.489686,0.50791,0.45384,0.28673
1694638511992187,-8.842335,0.488069,4.503686,0.45991,0.53184,0.30173
1694638512000000,-8.833335,0.498069,4.512686,0.50591,0.51584,0.25473
1694638512007812,-8.837335,0.502069,4.539686,0.45691,0.65584,0.31873
1694638512015625,-8.838335,0.492069,4.543686,0.46991,0.54484,0.28773
1694638512023437,-8.822335,0.494069,4.541686,0.45691,0.43784,0.23873
1694638512031250,-8.813335,0.492069,4.541686,0.51791,0.45184,0.23973
1694638512039062,-8.791335,0.492069,4.543686,0.48491,0.54384,0.30373
1694638512046875,-8.782335,0.492069,4.525686,0.45391,0.52884,0.28773
1694638512054687,-8.781335,0.496069,4.530686,0.44091,0.43784,0.25473
1694638512062500,-8.777335,0.490069,4.521686,0.47291,0.46784,0.30273
1694638512070312,-8.795335,0.488069,4.521686,0.45591,0.43584,0.31973
1694638512078125,-8.813335,0.489069,4.525686,0.45691,0.46784,0.33473
1694638512085937,-8.831335,0.494069,4.528686,0.48891,0.45184,0.31873
1694638512093750,-8.833335,0.491069,4.532686,0.48891,0.46784,0.33473
1694638512101562,-8.860335,0.489069,4.539686,0.51891,0.48184,0.31973
1694638512109375,-8.851335,0.485069,4.543686,0.53591,0.51384,0.35173
1694638512117187,-8.840335,0.482069,4.539686,0.60191,0.43684,0.28673
1694638512125000,-8.838335,0.487069,4.525686,0.46991,0.41984,0.27173
1694638512132812,-8.819335,0.494069,4.514686,0.47391,0.43784,0.27073
1694638512140625,-8.801335,0.498069,4.512686,0.52391,0.40684,0.27073
1694638512148437,-8.792335,0.498069,4.521686,0.50891,0.40784,0.26973
1694638512156250,-8.785335,0.496069,4.518686,0.52591,0.48584,0.30173
1694638512164062,-8.785335,0.505069,4.539686,0.47691,0.43884,0.28573
1694638512171875,-8.777335,0.497069,4.564686,0.50591,0.37484,0.28673
1694638512179687,-8.795335,0.490069,4.573686,0.56891,0.45184,0.30373
1694638512187500,-8.788335,0.494069,4.584686,0.63591,0.39084,0.25473
1694638512195312,-8.789335,0.495069,4.573686,0.49991,0.45084,0.22373
1694638512203125,-8.780335,0.484069,4.573686,0.47091,0.40484,0.28773
1694638512210937,-8.779335,0.499069,4.559686,0.45691,0.40584,0.30273
1694638512218750,-8.779335,0.516069,4.552686,0.60291,0.43784,0.25473
1694638512226562,-8.768335,0.526069,4.559686,0.55291,0.39084,0.19073
1694638512234375,-8.792335,0.529069,4.579686,0.61891,0.43784,0.23873
1694638512242187,-8.817335,0.525069,4.582686,0.48891,0.37484,0.28673
1694638512250000,-8.833335,0.532069,4.582686,0.45091,0.36884,0.28873
1694638512257812,-8.838335,0.545069,4.562686,0.46591,0.41584,0.24173
1694638512265625,-8.839335,0.540069,4.561686,0.45791,0.39084,0.25473
1694638512273437,-8.846335,0.524069,4.559686,0.47291,0.45284,0.28673
1694638512281250,-8.828335,0.522069,4.550686,0.44091,0.48484,0.27073
1694638512289062,-8.806335,0.517069,4.564686,0.40291,0.41784,0.25673
1694638512296875,-8.784335,0.496069,4.555686,0.47191,0.46884,0.20673
1694638512304687,-8.770335,0.483069,4.564686,0.45891,0.40784,0.20673
1694638512312500,-8.766335,0.468069,4.586686,0.45691,0.40584,0.27073
1694638512320312,-8.766335,0.468069,4.584686,0.43991,0.39084,0.23873
1694638512328125,-8.769335,0.464069,4.595686,0.47091,0.37484,0.22373
1694638512335937,-8.762335,0.464069,4.604686,0.45591,0.35984,0.19073
1694638512343750,-8.762335,0.475069,4.604686,0.47091,0.38984,0.20773
1694638512351562,-8.778335,0.499069,4.598686,0.45091,0.37084,0.22473
1694638512359375,-8.777335,0.479069,4.579686,0.45891,0.32984,0.19073
1694638512367187,-8.782335,0.479069,4.570686,0.47091,0.34384,0.20773
1694638512375000,-8.804335,0.487069,4.568686,0.45691,0.26484,0.28673
1694638512382812,-8.809335,0.485069,4.550686,0.48991,0.28084,0.28673
1694638512390625,-8.811335,0.481069,4.532686,0.46791,0.38884,0.19173
1694638512398437,-8.802335,0.478069,4.516686,0.45691,0.29684,0.23873
1694638512406250,-8.815335,0.483069,4.537686,0.45791,0.26584,0.27073
1694638512414062,-8.810335,0.485069,4.534686,0.44291,0.28284,0.17473
1694638512421875,-8.813335,0.487069,4.541686,0.47391,0.40784,0.19073
1694638512429687,-8.815335,0.494069,4.548686,0.47091,0.40584,0.23973
1694638512437500,-8.820335,0.497069,4.566686,0.43591,0.32484,0.24073
1694638512445312,-8.815335,0.492069,4.566686,0.40791,0.34284,0.31873
1694638512453125,-8.799335,0.505069,4.550686,0.47291,0.39084,0.25473
1694638512460937,-8.795335,0.501069,4.564686,0.45891,0.34384,0.30273
1694638512468750,-8.786335,0.493069,4.579686,0.45391,0.38784,0.35173
1694638512476562,-8.784335,0.487069,4.584686,0.49191,0.32784,0.33473
1694638512484375,-8.781335,0.481069,4.566686,0.47591,0.34484,0.25473
1694638512492187,-8.790335,0.487069,4.530686,0.48991,0.31384,0.19073
1694638512500000,-8.818335,0.474069,4.512686,0.47091,0.29584,0.28773
1694638512507812,-8.840335,0.478069,4.523686,0.45491,0.40584,0.25573
1694638512515625,-8.862335,0.493069,4.525686,0.47191,0.39084,0.22273
1694638512523437,-8.866335,0.511069,4.530686,0.45791,0.42184,0.23873
1694638512531250,-8.862335,0.531069,4.534686,0.58391,0.45284,0.22373
1694638512539062,-8.857335,0.522069,4.516686,0.58691,0.40684,0.25473
1694638512546875,-8.851335,0.518069,4.519686,0.56891,0.42084,0.28773
1694638512554687,-8.837335,0.502069,4.505686,0.53591,0.40584,0.27173
1694638512562500,-8.819335,0.487069,4.498686,0.47391,0.35984,0.25473
1694638512570312,-8.792335,0.480069,4.516686,0.45991,0.43884,0.25373
1694638512578125,-8.772335,0.485069,4.509686,0.47591,0.39284,0.22173
1694638512585937,-8.742335,0.480069,4.530686,0.45291,0.37384,0.19173
1694638512593750,-8.735335,0.473069,4.552686,0.45491,0.37484,0.20773
1694638512601562,-8.735335,0.471069,4.579686,0.46791,0.37284,0.20773
1694638512609375,-8.755335,0.484069,4.588686,0.38991,0.32684,0.23973
1694638512617187,-8.775335,0.452069,4.600686,0.39591,0.36084,0.26973
1694638512625000,-8.786335,0.467069,4.598686,0.44191,0.28184,0.22273
1694638512632812,-8.800335,0.470069,4.586686,0.47091,0.32684,0.28773
1694638512640625,-8.813335,0.481069,4.566686,0.47291,0.37484,0.27073
1694638512648437,-8.819335,0.494069,4.546686,0.57191,0.32884,0.27073
1694638512656250,-8.833335,0.482069,4.534686,0.54391,0.34584,0.33373
1694638512664062,-8.830335,0.493069,4.532686,0.54491,0.34684,0.31773
1694638512671875,-8.819335,0.486069,4.530686,0.51191,0.37784,0.31773
1694638512679687,-8.805335,0.511069,4.496686,0.62391,0.33084,0.28573
1694638512687500,-8.792335,0.523069,4.482686,0.57091,0.31284,0.28673
1694638512695312,-8.781335,0.523069,4.478686,0.55791,0.28384,0.23773
1694638512703125,-8.799335,0.496069,4.476686,0.53691,0.28084,0.28673
1694638512710937,-8.806335,0.485069,4.473686,0.55291,0.31184,0.30273
1694638512718750,-8.820335,0.488069,4.473686,0.48591,0.27984,0.27173
1694638512726562,-8.820335,0.485069,4.491686,0.45691,0.20284,0.25473
1694638512734375,-8.837335,0.486069,4.498686,0.55591,0.23684,0.19073
1694638512742187,-8.838335,0.476069,4.489686,0.50491,0.18684,0.27073
1694638512750000,-8.849335,0.482069,4.491686,0.47691,0.17384,0.25373
1694638512757812,-8.851335,0.484069,4.491686,0.45891,0.18884,0.27073
1694638512765625,-8.851335,0.493069,4.503686,0.52491,0.17384,0.23773
1694638512773437,-8.850335,0.508069,4.494686,0.63791,0.26684,0.28573
1694638512781250,-8.851335,0.516069,4.478686,0.71391,0.18684,0.23973
1694638512789062,-8.842335,0.520069,4.476686,0.64891,0.21784,0.28773
1694638512796875,-8.846335,0.514069,4.476686,0.64891,0.31184,0.28773
1694638512804687,-8.855335,0.511069,4.480686,0.70191,0.31384,0.23873
1694638512812500,-8.875335,0.508069,4.489686,0.58891,0.31384,0.30173
1694638512820312,-8.898335,0.515069,4.498686,0.63391,0.38984,0.31873
1694638512828125,-8.891335,0.519069,4.496686,0.57191,0.37484,0.33473
1694638512835937,-8.873335,0.508069,4.473686,0.49291,0.43884,0.33373
1694638512843750,-8.884335,0.519069,4.453686,0.46091,0.48484,0.31773
1694638512851562,-8.855335,0.520069,4.446686,0.47391,0.40484,0.35073
1694638512859375,-8.840335,0.511069,4.444686,0.43991,0.34284,0.31873
1694638512867187,-8.828335,0.500069,4.451686,0.43991,0.35884,0.28773
1694638512875000,-8.830335,0.491069,4.469686,0.50791,0.40684,0.28673
1694638512882812,-8.839335,0.491069,4.476686,0.47591,0.40784,0.23773
1694638512890625,-8.846335,0.484069,4.494686,0.49391,0.34684,0.22173
1694638512898437,-8.887335,0.484069,4.514686,0.47191,0.37484,0.19073
1694638512906250,-8.881335,0.507069,4.523686,0.46291,0.34684,0.20573
1694638512914062,-8.873335,0.524069,4.537686,0.47291,0.32884,0.20673
1694638512921875,-8.870335,0.535069,4.519686,0.42591,0.37584,0.20673
1694638512929687,-8.857335,0.544069,4.532686,0.42691,0.35984,0.27073
1694638512937500,-8.845335,0.543069,4.519686,0.44591,0.42484,0.23773
1694638512945312,-8.832335,0.540069,4.514686,0.47291,0.42284,0.20673
1694638512953125,-8.816335,0.533069,4.507686,0.46091,0.42384,0.22173
1694638512960937,-8.814335,0.524069,4.512686,0.47591,0.43884,0.26973
1694638512968750,-8.806335,0.518069,4.521686,0.45591,0.48384,0.28673
1694638512976562,-8.806335,0.512069,4.512686,0.50391,0.48384,0.23873
1694638512984375,-8.781335,0.519069,4.498686,0.45491,0.46784,0.27173
1694638512992187,-8.779335,0.515069,4.500686,0.41991,0.43484,0.27173
1694638513000000,-8.779335,0.512069,4.505686,0.47091,0.43684,0.27173
1694638513007812,-8.784335,0.508069,4.521686,0.45591,0.46784,0.27073
1694638513015625,-8.804335,0.507069,4.523686,0.37591,0.43684,0.25473
1694638513023437,-8.835335,0.498069,4.543686,0.42091,0.38984,0.20773
1694638513031250,-8.844335,0.513069,4.552686,0.44291,0.36084,0.20673
1694638513039062,-8.862335,0.497069,4.534686,0.47391,0.34484,0.19073
1694638513046875,-8.873335,0.515069,4.523686,0.45691,0.31284,0.20673
1694638513054687,-8.889335,0.501069,4.516686,0.48991,0.36084,0.19073
1694638513062500,-8.864335,0.488069,4.512686,0.47491,0.31384,0.20673
1694638513070312,-8.844335,0.489069,4.509686,0.45691,0.37584,0.20673
1694638513078125,-8.828335,0.480069,4.523686,0.45791,0.37684,0.17473
1694638513085937,-8.806335,0.463069,4.518686,0.47291,0.42284,0.22273
1694638513093750,-8.777335,0.457069,4.530686,0.52091,0.43784,0.19073
1694638513101562,-8.764335,0.452069,4.546686,0.50791,0.43984,0.18973
1694638513109375,-8.771335,0.457069,4.568686,0.55391,0.48484,0.20673
1694638513117187,-8.791335,0.452069,4.573686,0.53591,0.42084,0.23973
1694638513125000,-8.798335,0.476069,4.555686,0.47091,0.43684,0.22373
1694638513132812,-8.809335,0.487069,4.548686,0.45391,0.45284,0.19173
1694638513140625,-8.831335,0.489069,4.537686,0.45691,0.46884,0.23873
1694638513148437,-8.835335,0.495069,4.512686,0.55691,0.46984,0.30173
1694638513156250,-8.839335,0.498069,4.498686,0.60291,0.45384,0.25473
1694638513164062,-8.846335,0.495069,4.498686,0.60391,0.48484,0.28673
1694638513171875,-8.840335,0.484069,4.482686,0.58891,0.37584,0.30273
1694638513179687,-8.837335,0.486069,4.496686,0.52591,0.37684,0.30173
1694638513187500,-8.840335,0.485069,4.482686,0.63191,0.40484,0.28773
1694638513195312,-8.835335,0.498069,4.498686,0.53991,0.32784,0.33473
1694638513203125,-8.837335,0.502069,4.519686,0.52291,0.45284,0.36673
1694638513210937,-8.838335,0.526069,4.516686,0.56091,0.43984,0.36573
1694638513218750,-8.835335,0.536069,4.534686,0.50591,0.42084,0.33473
1694638513226562,-8.843335,0.544069,4.548686,0.47691,0.51584,0.34973
1694638513234375,-8.845335,0.546069,4.580686,0.46091,0.39184,0.30173
1694638513242187,-8.836335,0.551069,4.559686,0.47391,0.39084,0.27073
1694638513250000,-8.820335,0.528069,4.530686,0.46391,0.44084,0.25273
1694638513257812,-8.814335,0.527069,4.539686,0.47391,0.42284,0.19073
1694638513265625,-8.830335,0.522069,4.537686,0.45591,0.43784,0.20673
1694638513273437,-8.819335,0.520069,4.528686,0.45691,0.43784,0.23873
1694638513281250,-8.814335,0.542069,4.530686,0.45691,0.48584,0.14273
1694638513289062,-8.818335,0.544069,4.539686,0.45891,0.45484,0.19073
1694638513296875,-8.817335,0.547069,4.543686,0.45591,0.46884,0.20673
1694638513304687,-8.814335,0.522069,4.532686,0.45791,0.46984,0.20673
1694638513312500,-8.813335,0.521069,4.514686,0.45491,0.42084,0.23973
1694638513320312,-8.782335,0.508069,4.507686,0.45291,0.43584,0.22373
1694638513328125,-8.763335,0.497069,4.494686,0.45791,0.35984,0.23873
1694638513335937,-8.750335,0.493069,4.512686,0.45691,0.32784,0.22273
1694638513343750,-8.743335,0.481069,4.525686,0.45791,0.34484,0.20673
1694638513351562,-8.749335,0.482069,4.532686,0.45191,0.23084,0.24073
1694638513359375,-8.775335,0.474069,4.541686,0.45791,0.21984,0.17473
1694638513367187,-8.806335,0.483069,4.552686,0.45491,0.26584,0.14373
1694638513375000,-8.835335,0.487069,4.541686,0.45591,0.31284,0.15873
1694638513382812,-8.844335,0.494069,4.546686,0.45491,0.26584,0.19173
1694638513390625,-8.871335,0.506069,4.528686,0.42591,0.36084,0.19073
1694638513398437,-8.888335,0.525069,4.525686,0.50791,0.39284,0.20573
1694638513406250,-8.889335,0.520069,4.512686,0.45391,0.35784,0.23973
1694638513414062,-8.864335,0.511069,4.489686,0.55391,0.26684,0.19073
1694638513421875,-8.855335,0.488069,4.498686,0.53991,0.37584,0.23873
1694638513429687,-8.842335,0.467069,4.505686,0.55291,0.34384,0.20673
1694638513437500,-8.837335,0.473069,4.512686,0.52391,0.31384,0.20673
1694638513445312,-8.831335,0.487069,4.509686,0.50791,0.28284,0.23873
1694638513453125,-8.828335,0.478069,4.512686,0.45991,0.32884,0.25473
1694638513460937,-8.815335,0.487069,4.514686,0.47391,0.34484,0.20673
1694638513468750,-8.815335,0.491069,4.514686,0.45891,0.36084,0.20673
1694638513476562,-8.801335,0.489069,4.507686,0.47491,0.36084,0.23873
1694638513484375,-8.806335,0.496069,4.537686,0.45591,0.37484,0.22273
1694638513492187,-8.791335,0.501069,4.550686,0.46791,0.43284,0.27273
1694638513500000,-8.788335,0.494069,4.550686,0.50791,0.39184,0.27073
1694638513507812,-8.790335,0.501069,4.550686,0.48791,0.34284,0.23973
1694638513515625,-8.806335,0.512069,4.539686,0.45691,0.40584,0.27073
1694638513523437,-8.821335,0.515069,4.559686,0.47791,0.29884,0.28573
1694638513531250,-8.817335,0.525069,4.543686,0.51991,0.27984,0.28773
1694638513539062,-8.824335,0.527069,4.534686,0.53691,0.31184,0.27073
1694638513546875,-8.828335,0.529069,4.541686,0.52091,0.23384,0.28673
1694638513554687,-8.826335,0.521069,4.541686,0.53591,0.27984,0.25573
1694638513562500,-8.828335,0.511069,4.507686,0.48791,0.37484,0.23973
1694638513570312,-8.826335,0.525069,4.494686,0.45591,0.37384,0.28773
1694638513578125,-8.828335,0.515069,4.498686,0.50991,0.36084,0.36573
1694638513585937,-8.837335,0.495069,4.485686,0.49391,0.29784,0.33373
1694638513593750,-8.848335,0.502069,4.503686,0.45991,0.39084,0.35073
1694638513601562,-8.855335,0.491069,4.505686,0.45991,0.46884,0.35073
1694638513609375,-8.857335,0.503069,4.494686,0.41591,0.34684,0.25273
1694638513617187,-8.844335,0.504069,4.478686,0.45691,0.34384,0.23873
1694638513625000,-8.846335,0.487069,4.471686,0.45691,0.32784,0.25473
1694638513632812,-8.842335,0.491069,4.464686,0.47191,0.39084,0.20673
1694638513640625,-8.824335,0.491069,4.476686,0.45591,0.37484,0.20673
1694638513648437,-8.808335,0.505069,4.480686,0.48891,0.37484,0.22273
1694638513656250,-8.803335,0.518069,4.498686,0.47391,0.35984,0.23873
1694638513664062,-8.794335,0.525069,4.496686,0.45691,0.34384,0.23873
1694638513671875,-8.799335,0.530069,4.505686,0.48691,0.37484,0.22373
1694638513679687,-8.803335,0.534069,4.498686,0.43991,0.34384,0.20673
1694638513687500,-8.805335,0.538069,4.491686,0.45791,0.32884,0.19073
1694638513695312,-8.819335,0.525069,4.498686,0.48891,0.25084,0.20673
1694638513703125,-8.826335,0.522069,4.494686,0.47491,0.34484,0.20673
1694638513710937,-8.834335,0.533069,4.478686,0.45991,0.28284,0.23873
1694638513718750,-8.839335,0.529069,4.473686,0.50691,0.29784,0.28673
1694638513726562,-8.837335,0.541069,4.464686,0.46891,0.24584,0.28873
1694638513734375,-8.841335,0.538069,4.464686,0.48891,0.24984,0.25473
1694638513742187,-8.852335,0.541069,4.453686,0.51191,0.25284,0.30173
1694638513750000,-8.857335,0.540069,4.460686,0.47091,0.26484,0.27173
1694638513757812,-8.868335,0.542069,4.455686,0.45791,0.29684,0.28673
1694638513765625,-8.879335,0.544069,4.464686,0.47491,0.25084,0.28673
1694638513773437,-8.883335,0.541069,4.467686,0.45991,0.29884,0.17373
1694638513781250,-8.883335,0.554069,4.478686,0.49191,0.22084,0.20673
1694638513789062,-8.885335,0.552069,4.489686,0.47591,0.29884,0.18973
1694638513796875,-8.876335,0.570069,4.496686,0.42691,0.36084,0.20673
1694638513804687,-8.868335,0.562069,4.512686,0.47191,0.40684,0.17473
1694638513812500,-8.859335,0.561069,4.505686,0.45891,0.40784,0.22273
1694638513820312,-8.841335,0.558069,4.496686,0.43791,0.42084,0.20773
1694638513828125,-8.832335,0.551069,4.489686,0.40791,0.43784,0.17473
1694638513835937,-8.812335,0.534069,4.487686,0.42391,0.42284,0.15873
1694638513843750,-8.803335,0.523069,4.489686,0.42291,0.43784,0.15973
1694638513851562,-8.803335,0.523069,4.476686,0.37491,0.42184,0.19073
1694638513859375,-8.799335,0.516069,4.476686,0.43991,0.43784,0.17473
1694638513867187,-8.804335,0.503069,4.480686,0.32791,0.42284,0.17473
1694638513875000,-8.835335,0.515069,4.487686,0.44091,0.43784,0.20673
1694638513882812,-8.839335,0.502069,4.478686,0.47191,0.42284,0.12673
1694638513890625,-8.850335,0.509069,4.487686,0.45691,0.42284,0.19073
1694638513898437,-8.850335,0.511069,4.473686,0.45891,0.37584,0.23873
1694638513906250,-8.851335,0.516069,4.462686,0.46791,0.41984,0.22373
1694638513914062,-8.853335,0.516069,4.446686,0.45491,0.42084,0.20773
1694638513921875,-8.845335,0.517069,4.437686,0.50891,0.43984,0.22173
1694638513929687,-8.842335,0.516069,4.444686,0.47191,0.42184,0.22273
1694638513937500,-8.837335,0.525069,4.455686,0.58391,0.40584,0.20773
1694638513945312,-8.834335,0.537069,4.462686,0.54091,0.36184,0.22173
1694638513953125,-8.836335,0.540069,4.478686,0.49091,0.37584,0.23873
1694638513960937,-8.843335,0.551069,4.487686,0.50591,0.43884,0.15873
1694638513968750,-8.856335,0.559069,4.482686,0.45891,0.36084,0.22273
1694638513976562,-8.859335,0.560069,4.476686,0.45591,0.35884,0.27173
1694638513984375,-8.868335,0.564069,4.476686,0.37591,0.34384,0.20673
1694638513992187,-8.872335,0.570069,4.498686,0.42391,0.37484,0.20673
1694638514000000,-8.872335,0.577069,4.498686,0.35891,0.37484,0.20673
1694638514007812,-8.872335,0.566069,4.487686,0.43691,0.42084,0.22373
1694638514015625,-8.863335,0.550069,4.467686,0.47491,0.43884,0.22273
1694638514023437,-8.877335,0.533069,4.462686,0.39191,0.42184,0.23873
1694638514031250,-8.895335,0.523069,4.473686,0.40991,0.43884,0.19073
1694638514039062,-8.910335,0.527069,4.476686,0.41091,0.40784,0.20573
1694638514046875,-8.888335,0.532069,4.469686,0.37691,0.45384,0.19073
1694638514054687,-8.864335,0.526069,4.519686,0.42091,0.63984,0.20773
1694638514062500,-8.868335,0.530069,4.503686,0.47291,0.59384,0.23873
1694638514070312,-8.848335,0.540069,4.487686,0.45391,0.68684,0.22373
1694638514078125,-8.837335,0.540069,4.469686,0.47291,0.46984,0.19073
1694638514085937,-8.815335,0.523069,4.462686,0.45091,0.57584,0.20873
1694638514093750,-8.791335,0.524069,4.462686,0.41391,0.61684,0.17873
1694638514101562,-8.770335,0.530069,4.478686,0.45191,0.46784,0.15973
1694638514109375,-8.748335,0.522069,4.503686,0.41691,0.46284,0.19373
1694638514117187,-8.757335,0.524069,4.537686,0.43591,0.46784,0.17573
1694638514125000,-8.789335,0.511069,4.548686,0.41691,0.44684,0.22573
1694638514132812,-8.816335,0.488069,4.564686,0.37091,0.46384,0.28873
1694638514140625,-8.835335,0.500069,4.546686,0.45391,0.46784,0.20773
1694638514148437,-8.849335,0.516069,4.525686,0.42091,0.45184,0.25573
1694638514156250,-8.868335,0.531069,4.530686,0.45591,0.49984,0.22273
1694638514164062,-8.862335,0.533069,4.525686,0.45491,0.54384,0.38373
1694638514171875,-8.861335,0.524069,4.521686,0.50791,0.53284,0.28573
1694638514179687,-8.851335,0.518069,4.514686,0.48291,0.49584,0.20873
1694638514187500,-8.844335,0.513069,4.514686,0.56991,0.42184,0.30273
1694638514195312,-8.839335,0.500069,4.509686,0.63591,0.50084,0.25473
1694638514203125,-8.828335,0.493069,4.505686,0.48891,0.49984,0.25473
1694638514210937,-8.820335,0.514069,4.514686,0.51791,0.49884,0.22373
1694638514218750,-8.808335,0.518069,4.512686,0.61691,0.49984,0.20673
1694638514226562,-8.808335,0.527069,4.512686,0.56691,0.48384,0.22373
1694638514234375,-8.808335,0.525069,4.505686,0.53491,0.56184,0.23973
1694638514242187,-8.815335,0.520069,4.496686,0.48791,0.56184,0.28673
1694638514250000,-8.801335,0.522069,4.503686,0.53991,0.51684,0.25373
1694638514257812,-8.806335,0.518069,4.512686,0.53691,0.56184,0.30273
1694638514265625,-8.804335,0.503069,4.534686,0.60091,0.53084,0.28673
1694638514273437,-8.802335,0.501069,4.550686,0.50391,0.52984,0.33573
1694638514281250,-8.802335,0.501069,4.566686,0.68091,0.45084,0.33573
1694638514289062,-8.802335,0.507069,4.577686,0.64891,0.46784,0.28773
1694638514296875,-8.807335,0.511069,4.566686,0.48091,0.38084,0.30673
1694638514304687,-8.827335,0.510069,4.546686,0.53291,0.40184,0.30473
1694638514312500,-8.824335,0.507069,4.541686,0.60391,0.42184,0.35073
1694638514320312,-8.831335,0.528069,4.559686,0.56391,0.46284,0.33673
1694638514328125,-8.839335,0.531069,4.564686,0.55291,0.45184,0.33573
1694638514335937,-8.833335,0.534069,4.552686,0.61791,0.45184,0.35173
1694638514343750,-8.830335,0.544069,4.555686,0.47391,0.49984,0.30273
1694638514351562,-8.825335,0.549069,4.552686,0.53891,0.53084,0.35073
1694638514359375,-8.818335,0.526069,4.557686,0.54291,0.54784,0.34973
1694638514367187,-8.823335,0.522069,4.546686,0.53891,0.45284,0.30273
1694638514375000,-8.828335,0.520069,4.548686,0.47291,0.49984,0.22273
1694638514382812,-8.806335,0.523069,4.550686,0.48891,0.50084,0.19073
1694638514390625,-8.788335,0.521069,4.548686,0.47091,0.43684,0.20773
1694638514398437,-8.783335,0.523069,4.573686,0.45391,0.42184,0.19173
1694638514406250,-8.777335,0.521069,4.561686,0.45191,0.46684,0.20773
1694638514414062,-8.768335,0.523069,4.564686,0.47091,0.46784,0.25573
1694638514421875,-8.766335,0.513069,4.561686,0.48491,0.48184,0.27173
1694638514429687,-8.766335,0.495069,4.575686,0.46991,0.43584,0.30373
1694638514437500,-8.768335,0.492069,4.586686,0.60391,0.40684,0.31873
1694638514445312,-8.773335,0.504069,4.546686,0.63191,0.38884,0.28773
1694638514453125,-8.788335,0.521069,4.555686,0.59891,0.45084,0.33573
1694638514460937,-8.803335,0.525069,4.557686,0.55391,0.40584,0.30273
1694638514468750,-8.805335,0.540069,4.550686,0.60191,0.42184,0.30273
1694638514476562,-8.803335,0.545069,4.552686,0.56891,0.46784,0.31973
1694638514484375,-8.802335,0.553069,4.539686,0.64291,0.45584,0.36473
1694638514492187,-8.803335,0.565069,4.534686,0.66591,0.42084,0.35073
1694638514500000,-8.787335,0.559069,4.541686,0.66591,0.43584,0.33473
1694638514507812,-8.781335,0.563069,4.534686,0.59991,0.46684,0.31973
1694638514515625,-8.787335,0.572069,4.550686,0.47191,0.45184,0.33573
1694638514523437,-8.794335,0.572069,4.555686,0.42191,0.46684,0.33573
1694638514531250,-8.818335,0.578069,4.539686,0.42391,0.38884,0.33473
1694638514539062,-8.821335,0.578069,4.539686,0.38891,0.34084,0.33573
1694638514546875,-8.828335,0.572069,4.541686,0.35291,0.36984,0.20973
1694638514554687,-8.845335,0.558069,4.546686,0.47291,0.39084,0.23873
1694638514562500,-8.846335,0.558069,4.548686,0.47091,0.45184,0.23973
1694638514570312,-8.841335,0.554069,4.543686,0.42091,0.32684,0.19173
1694638514578125,-8.828335,0.545069,4.534686,0.33791,0.35584,0.20873
1694638514585937,-8.823335,0.527069,4.539686,0.40991,0.34484,0.20673
1694638514593750,-8.810335,0.527069,4.543686,0.43791,0.37384,0.23973
1694638514601562,-8.808335,0.523069,4.564686,0.47291,0.37484,0.23873
1694638514609375,-8.801335,0.521069,4.561686,0.47091,0.42084,0.20773
1694638514617187,-8.797335,0.532069,4.570686,0.45191,0.41984,0.23973
1694638514625000,-8.805335,0.533069,4.564686,0.49091,0.43784,0.27073
1694638514632812,-8.792335,0.545069,4.552686,0.47391,0.42184,0.23873
1694638514640625,-8.796335,0.532069,4.568686,0.45791,0.42184,0.31873
1694638514648437,-8.808335,0.527069,4.568686,0.43891,0.43684,0.25573
1694638514656250,-8.801335,0.521069,4.568686,0.47091,0.42084,0.25573
1694638514664062,-8.805335,0.522069,4.557686,0.45891,0.43784,0.30273
1694638514671875,-8.788335,0.524069,4.543686,0.46791,0.41784,0.28873
1694638514679687,-8.794335,0.527069,4.550686,0.45791,0.43784,0.28673
1694638514687500,-8.801335,0.531069,4.548686,0.48991,0.39084,0.25473
1694638514695312,-8.803335,0.534069,4.546686,0.47291,0.42084,0.30273
1694638514703125,-8.821335,0.545069,4.555686,0.40691,0.46884,0.20673
1694638514710937,-8.819335,0.542069,4.541686,0.42391,0.42184,0.23873
1694638514718750,-8.823335,0.553069,4.532686,0.41091,0.32984,0.23873
1694638514726562,-8.836335,0.562069,4.519686,0.44391,0.37684,0.22173
1694638514734375,-8.834335,0.558069,4.519686,0.40891,0.40684,0.19073
1694638514742187,-8.834335,0.569069,4.530686,0.40891,0.34484,0.20673
1694638514750000,-8.841335,0.564069,4.543686,0.40891,0.37584,0.22273
1694638514757812,-8.856335,0.573069,4.541686,0.39091,0.39084,0.20673
1694638514765625,-8.849335,0.575069,4.541686,0.31391,0.39184,0.23873
1694638514773437,-8.837335,0.558069,4.550686,0.34191,0.43784,0.19073
1694638514781250,-8.825335,0.551069,4.570686,0.35991,0.43784,0.20673
1694638514789062,-8.814335,0.536069,4.577686,0.34391,0.40684,0.22273
1694638514796875,-8.795335,0.512069,4.579686,0.34091,0.45284,0.19173
1694638514804687,-8.775335,0.495069,4.555686,0.35591,0.45184,0.19173
1694638514812500,-8.770335,0.483069,4.548686,0.32691,0.53084,0.22273
1694638514820312,-8.768335,0.485069,4.570686,0.24591,0.43784,0.15873
1694638514828125,-8.795335,0.485069,4.586686,0.37491,0.45284,0.20673
1694638514835937,-8.808335,0.512069,4.564686,0.35891,0.45284,0.19073
1694638514843750,-8.817335,0.525069,4.552686,0.43791,0.45184,0.22373
1694638514851562,-8.830335,0.529069,4.534686,0.47191,0.43684,0.23873
1694638514859375,-8.830335,0.535069,4.548686,0.45791,0.54784,0.25473
1694638514867187,-8.814335,0.531069,4.528686,0.47391,0.45284,0.27073
1694638514875000,-8.819335,0.547069,4.507686,0.48991,0.48484,0.27073
1694638514882812,-8.805335,0.538069,4.489686,0.52091,0.45284,0.28673
1694638514890625,-8.785335,0.538069,4.498686,0.45891,0.49884,0.36673
1694638514898437,-8.763335,0.541069,4.509686,0.35991,0.43684,0.31873
1694638514906250,-8.763335,0.539069,4.550686,0.21591,0.46784,0.33473
1694638514914062,-8.774335,0.543069,4.591686,0.25091,0.40684,0.31773
1694638514921875,-8.796335,0.538069,4.613686,0.26791,0.40784,0.28573
1694638514929687,-8.808335,0.525069,4.622686,0.24491,0.38984,0.25573
1694638514937500,-8.824335,0.536069,4.618686,0.30691,0.40384,0.22373
1694638514945312,-8.830335,0.533069,4.600686,0.27991,0.43784,0.25473
1694638514953125,-8.817335,0.525069,4.591686,0.40691,0.46784,0.27173
1694638514960937,-8.799335,0.516069,4.593686,0.40991,0.51584,0.23873
1694638514968750,-8.795335,0.494069,4.579686,0.42491,0.46884,0.22273
1694638514976562,-8.786335,0.488069,4.584686,0.47091,0.51384,0.27173
1694638514984375,-8.778335,0.490069,4.579686,0.45191,0.43584,0.23973
1694638514992187,-8.777335,0.492069,4.561686,0.47491,0.42284,0.25473
1694638515000000,-8.779335,0.519069,4.570686,0.45491,0.45184,0.23973
1694638515007812,-8.779335,0.519069,4.570686,0.47391,0.43784,0.28673
1694638515015625,-8.799335,0.549069,4.575686,0.45691,0.42084,0.30273
1694638515023437,-8.817335,0.556069,4.548686,0.45391,0.45084,0.28773
1694638515031250,-8.817335,0.543069,4.561686,0.45191,0.52884,0.30373
1694638515039062,-8.815335,0.541069,4.575686,0.45191,0.46584,0.27173
1694638515046875,-8.810335,0.527069,4.568686,0.45591,0.43684,0.25473
1694638515054687,-8.797335,0.534069,4.568686,0.47191,0.48284,0.31973
1694638515062500,-8.786335,0.525069,4.577686,0.45591,0.49984,0.27073
1694638515070312,-8.774335,0.523069,4.593686,0.47391,0.48384,0.33473
1694638515078125,-8.777335,0.519069,4.631686,0.45591,0.45184,0.33573
1694638515085937,-8.786335,0.521069,4.643686,0.48891,0.46784,0.28673
1694638515093750,-8.774335,0.528069,4.613686,0.50391,0.45184,0.33573
1694638515101562,-8.768335,0.521069,4.598686,0.45691,0.45184,0.35073
1694638515109375,-8.781335,0.516069,4.609686,0.50591,0.48284,0.36673
1694638515117187,-8.775335,0.512069,4.577686,0.53691,0.43684,0.25473
1694638515125000,-8.772335,0.516069,4.564686,0.57091,0.43784,0.31873
1694638515132812,-8.777335,0.524069,4.566686,0.56591,0.51284,0.33573
1694638515140625,-8.785335,0.530069,4.566686,0.56991,0.43684,0.28673
1694638515148437,-8.808335,0.534069,4.573686,0.53791,0.38984,0.30273
1694638515156250,-8.833335,0.529069,4.573686,0.47091,0.45184,0.28773
1694638515164062,-8.839335,0.538069,4.575686,0.48991,0.46884,0.31873
1694638515171875,-8.837335,0.547069,4.573686,0.47391,0.34384,0.30273
1694638515179687,-8.844335,0.531069,4.555686,0.47191,0.40484,0.28773
1694638515187500,-8.828335,0.535069,4.573686,0.40991,0.35984,0.28673
1694638515195312,-8.814335,0.536069,4.595686,0.34391,0.38984,0.31873
1694638515203125,-8.815335,0.522069,4.589686,0.47391,0.39084,0.27073
1694638515210937,-8.803335,0.523069,4.589686,0.45691,0.42084,0.30273
1694638515218750,-8.783335,0.521069,4.600686,0.45691,0.43684,0.30273
1694638515226562,-8.775335,0.511069,4.613686,0.41791,0.44684,0.27373
1694638515234375,-8.766335,0.514069,4.627686,0.43991,0.49984,0.25473
1694638515242187,-8.768335,0.506069,4.643686,0.47191,0.46784,0.25473
1694638515250000,-8.750335,0.517069,4.645686,0.47091,0.49884,0.30373
1694638515257812,-8.744335,0.529069,4.643686,0.43391,0.47784,0.27373
1694638515265625,-8.757335,0.526069,4.645686,0.43891,0.57584,0.33573
1694638515273437,-8.750335,0.537069,4.622686,0.51891,0.54484,0.33573
1694638515281250,-8.755335,0.535069,4.604686,0.48391,0.44884,0.33673
1694638515289062,-8.752335,0.528069,4.611686,0.45591,0.46684,0.31973
1694638515296875,-8.761335,0.527069,4.611686,0.47591,0.46884,0.36673
1694638515304687,-8.781335,0.527069,4.609686,0.42591,0.40584,0.31873
1694638515312500,-8.797335,0.518069,4.607686,0.42391,0.43684,0.28673
1694638515320312,-8.808335,0.520069,4.604686,0.47291,0.42184,0.28673
1694638515328125,-8.811335,0.523069,4.584686,0.45291,0.43484,0.31973
1694638515335937,-8.799335,0.540069,4.573686,0.47391,0.42184,0.30273
1694638515343750,-8.790335,0.543069,4.573686,0.38791,0.43484,0.28773
1694638515351562,-8.792335,0.532069,4.586686,0.37391,0.43584,0.30373
1694638515359375,-8.781335,0.517069,4.584686,0.37391,0.35784,0.28773
1694638515367187,-8.773335,0.515069,4.593686,0.41991,0.45084,0.27173
1694638515375000,-8.773335,0.515069,4.607686,0.44891,0.41684,0.19373
1694638515382812,-8.766335,0.495069,4.611686,0.32091,0.44884,0.20873
1694638515390625,-8.768335,0.490069,4.609686,0.34191,0.37384,0.23973
1694638515398437,-8.780335,0.490069,4.620686,0.33991,0.40384,0.27173
1694638515406250,-8.780335,0.490069,4.620686,0.37391,0.48284,0.28773
1694638515414062,-8.775335,0.490069,4.627686,0.38991,0.40384,0.30373
1694638515421875,-8.778335,0.486069,4.620686,0.41891,0.43284,0.28873
1694638515429687,-8.778335,0.489069,4.613686,0.46691,0.41584,0.30473
1694638515437500,-8.775335,0.486069,4.618686,0.45291,0.43484,0.27173
1694638515445312,-8.777335,0.488069,4.588686,0.45391,0.41984,0.27173
1694638515453125,-8.777335,0.483069,4.591686,0.47391,0.42084,0.33473
1694638515460937,-8.770335,0.495069,4.586686,0.43991,0.43584,0.33573
1694638515468750,-8.763335,0.492069,4.577686,0.45791,0.42184,0.31873
1694638515476562,-8.772335,0.494069,4.579686,0.45991,0.40684,0.35073
1694638515484375,-8.784335,0.496069,4.595686,0.37791,0.42184,0.35073
1694638515492187,-8.775335,0.486069,4.604686,0.42491,0.32784,0.30273
1694638515500000,-8.772335,0.492069,4.618686,0.42691,0.37484,0.35073
1694638515507812,-8.768335,0.493069,4.604686,0.40691,0.27984,0.30373
1694638515515625,-8.780335,0.490069,4.593686,0.39091,0.31084,0.30373
1694638515523437,-8.797335,0.489069,4.607686,0.49091,0.31284,0.28673
1694638515531250,-8.798335,0.486069,4.607686,0.45191,0.37084,0.30473
1694638515539062,-8.802335,0.512069,4.593686,0.47191,0.38984,0.27173
1694638515546875,-8.781335,0.523069,4.577686,0.42391,0.32784,0.22273
1694638515554687,-8.799335,0.516069,4.591686,0.39591,0.32884,0.30273
1694638515562500,-8.808335,0.509069,4.613686,0.39491,0.29784,0.27073
1694638515570312,-8.809335,0.492069,4.607686,0.39091,0.34284,0.28773
1694638515578125,-8.807335,0.481069,4.622686,0.45391,0.34184,0.30373
1694638515585937,-8.807335,0.472069,4.636686,0.38991,0.34184,0.25573
1694638515593750,-8.780335,0.473069,4.627686,0.37291,0.38884,0.25573
1694638515601562,-8.776335,0.457069,4.609686,0.32391,0.38784,0.30373
1694638515609375,-8.787335,0.457069,4.611686,0.34291,0.35784,0.28773
1694638515617187,-8.789335,0.452069,4.631686,0.33991,0.40484,0.20773
1694638515625000,-8.795335,0.476069,4.640686,0.32791,0.37484,0.25473
1694638515632812,-8.807335,0.481069,4.636686,0.29291,0.46784,0.22373
1694638515640625,-8.804335,0.494069,4.634686,0.42291,0.46784,0.27173
1694638515648437,-8.815335,0.492069,4.629686,0.47291,0.45284,0.28673
1694638515656250,-8.817335,0.494069,4.629686,0.45591,0.51484,0.30273
1694638515664062,-8.781335,0.492069,4.622686,0.47491,0.51484,0.36673
1694638515671875,-8.765335,0.494069,4.604686,0.46091,0.45384,0.31773
1694638515679687,-8.721335,0.486069,4.597686,0.47391,0.43784,0.30273
1694638515687500,-8.701335,0.493069,4.577686,0.39091,0.42084,0.27173
1694638515695312,-8.706335,0.494069,4.607686,0.35691,0.40484,0.28773
1694638515703125,-8.693335,0.487069,4.611686,0.21091,0.37284,0.25573
1694638515710937,-8.701335,0.489069,4.634686,0.19791,0.35884,0.19073
1694638515718750,-8.738335,0.483069,4.647686,0.20691,0.28984,0.20973
1694638515726562,-8.775335,0.452069,4.647686,0.19991,0.26684,0.19073
1694638515734375,-8.808335,0.441069,4.643686,0.20991,0.30884,0.25673
1694638515742187,-8.821335,0.432069,4.631686,0.31091,0.21784,0.25473
1694638515750000,-8.830335,0.434069,4.620686,0.43891,0.26484,0.25573
1694638515757812,-8.836335,0.438069,4.611686,0.32591,0.28084,0.19173
1694638515765625,-8.825335,0.445069,4.602686,0.43691,0.31084,0.27173
1694638515773437,-8.816335,0.447069,4.586686,0.45691,0.26584,0.23873
1694638515781250,-8.807335,0.436069,4.598686,0.53591,0.38984,0.22373
1694638515789062,-8.787335,0.444069,4.591686,0.53191,0.38684,0.25673
1694638515796875,-8.775335,0.452069,4.588686,0.47491,0.39084,0.30273
1694638515804687,-8.753335,0.450069,4.588686,0.52191,0.42184,0.27073
1694638515812500,-8.747335,0.458069,4.598686,0.48191,0.43184,0.27373
1694638515820312,-8.748335,0.457069,4.604686,0.47491,0.46884,0.30273
1694638515828125,-8.751335,0.471069,4.609686,0.42391,0.43584,0.33573
1694638515835937,-8.759335,0.475069,4.607686,0.39391,0.29684,0.28673
1694638515843750,-8.771335,0.477069,4.611686,0.47391,0.38984,0.36673
1694638515851562,-8.775335,0.479069,4.620686,0.42491,0.43684,0.33473
1694638515859375,-8.791335,0.468069,4.622686,0.46991,0.40484,0.25573
1694638515867187,-8.789335,0.465069,4.602686,0.42491,0.32784,0.28673
1694638515875000,-8.802335,0.470069,4.609686,0.47191,0.21784,0.30373
1694638515882812,-8.786335,0.472069,4.582686,0.45691,0.28084,0.25473
1694638515890625,-8.778335,0.459069,4.566686,0.47091,0.17084,0.22373
1694638515898437,-8.782335,0.461069,4.561686,0.45791,0.26584,0.28673
1694638515906250,-8.776335,0.450069,4.566686,0.47191,0.21784,0.28773
1694638515914062,-8.784335,0.472069,4.566686,0.45991,0.17284,0.30273
1694638515921875,-8.802335,0.472069,4.566686,0.47291,0.23384,0.30273
1694638515929687,-8.807335,0.474069,4.579686,0.48791,0.34284,0.27173
1694638515937500,-8.822335,0.480069,4.586686,0.45691,0.35984,0.23873
1694638515945312,-8.835335,0.480069,4.589686,0.50491,0.42184,0.22273
1694638515953125,-8.840335,0.478069,4.607686,0.45591,0.29584,0.28673
1694638515960937,-8.836335,0.467069,4.586686,0.40791,0.40584,0.25473
1694638515968750,-8.834335,0.472069,4.579686,0.37191,0.37284,0.25573
1694638515976562,-8.812335,0.457069,4.543686,0.45191,0.38684,0.27273
1694638515984375,-8.787335,0.470069,4.543686,0.37191,0.40384,0.27173
1694638515992187,-8.773335,0.470069,4.573686,0.32591,0.35684,0.31973
1694638516000000,-8.764335,0.470069,4.579686,0.34291,0.34284,0.25573
1694638516007812,-8.760335,0.457069,4.577686,0.27891,0.31084,0.28773
1694638516015625,-8.760335,0.460069,4.586686,0.38791,0.32384,0.28873
1694638516023437,-8.767335,0.442069,4.598686,0.37391,0.35784,0.30373
1694638516031250,-8.776335,0.453069,4.598686,0.40491,0.29484,0.25573
1694638516039062,-8.787335,0.455069,4.607686,0.46791,0.26284,0.20873
1694638516046875,-8.784335,0.479069,4.593686,0.38991,0.23384,0.22373
1694638516054687,-8.807335,0.490069,4.591686,0.46891,0.20184,0.19173
1694638516062500,-8.826335,0.494069,4.582686,0.45691,0.21784,0.27073
1694638516070312,-8.834335,0.484069,4.571686,0.44891,0.20984,0.22673
1694638516078125,-8.839335,0.465069,4.573686,0.46791,0.19984,0.19273
1694638516085937,-8.840335,0.462069,4.561686,0.45891,0.28184,0.25473
1694638516093750,-8.823335,0.463069,4.557686,0.43691,0.29584,0.20773
1694638516101562,-8.816335,0.470069,4.566686,0.47291,0.31184,0.30273
1694638516109375,-8.820335,0.470069,4.570686,0.45591,0.38884,0.35073
1694638516117187,-8.812335,0.466069,4.555686,0.45191,0.38584,0.30473
1694638516125000,-8.789335,0.468069,4.566686,0.43891,0.34184,0.30373
1694638516132812,-8.767335,0.453069,4.575686,0.47191,0.42084,0.28773
1694638516140625,-8.774335,0.453069,4.595686,0.45291,0.41984,0.25573
1694638516148437,-8.773335,0.450069,4.604686,0.47491,0.43784,0.28673
1694638516156250,-8.777335,0.454069,4.582686,0.44091,0.42284,0.17473
1694638516164062,-8.767335,0.462069,4.593686,0.41991,0.37284,0.20773
1694638516171875,-8.762335,0.450069,4.570686,0.37991,0.26784,0.18973
1694638516179687,-8.764335,0.473069,4.546686,0.39091,0.32784,0.23973
1694638516187500,-8.750335,0.479069,4.546686,0.44091,0.26584,0.23873
1694638516195312,-8.775335,0.470069,4.566686,0.44391,0.18984,0.19073
1694638516203125,-8.789335,0.457069,4.568686,0.47291,0.25084,0.20673
1694638516210937,-8.802335,0.454069,4.555686,0.45691,0.29684,0.20673
1694638516218750,-8.818335,0.451069,4.548686,0.44491,0.25184,0.23773
1694638516226562,-8.836335,0.431069,4.550686,0.46091,0.26784,0.18973
1694638516234375,-8.840335,0.431069,4.532686,0.44291,0.23484,0.28673
1694638516242187,-8.839335,0.416069,4.516686,0.50591,0.20384,0.25473
1694638516250000,-8.841335,0.414069,4.509686,0.45491,0.29584,0.25573
1694638516257812,-8.832335,0.414069,4.523686,0.47291,0.34384,0.23873
1694638516265625,-8.825335,0.416069,4.523686,0.61691,0.31184,0.25473
1694638516273437,-8.807335,0.414069,4.528686,0.58591,0.29584,0.30273
1694638516281250,-8.812335,0.419069,4.534686,0.58391,0.29584,0.28773
1694638516289062,-8.827335,0.430069,4.548686,0.66591,0.32784,0.30273
1694638516296875,-8.836335,0.438069,4.537686,0.58491,0.37384,0.28773
1694638516304687,-8.845335,0.451069,4.568686,0.60191,0.34284,0.30273
1694638516312500,-8.847335,0.449069,4.573686,0.61891,0.29684,0.28673
1694638516320312,-8.849335,0.453069,4.570686,0.60491,0.34484,0.30173
1694638516328125,-8.842335,0.460069,4.559686,0.55491,0.28084,0.28673
1694638516335937,-8.824335,0.460069,4.539686,0.54091,0.31384,0.31773
1694638516343750,-8.817335,0.478069,4.521686,0.45891,0.26584,0.30273
1694638516351562,-8.800335,0.474069,4.518686,0.48591,0.32684,0.22373
1694638516359375,-8.800335,0.469069,4.534686,0.52191,0.40684,0.20673
1694638516367187,-8.807335,0.470069,4.546686,0.43891,0.37384,0.27173
1694638516375000,-8.803335,0.457069,4.548686,0.50291,0.27984,0.27173
1694638516382812,-8.800335,0.459069,4.555686,0.47191,0.26584,0.20773
1694638516390625,-8.793335,0.465069,4.564686,0.45491,0.34384,0.20773
1694638516398437,-8.802335,0.454069,4.568686,0.47491,0.35984,0.30273
1694638516406250,-8.804335,0.454069,4.559686,0.45791,0.34284,0.30273
1694638516414062,-8.807335,0.441069,4.566686,0.47091,0.38884,0.28773
1694638516421875,-8.812335,0.434069,4.539686,0.45591,0.42084,0.31973
1694638516429687,-8.839335,0.418069,4.537686,0.51891,0.41984,0.27173
1694638516437500,-8.852335,0.416069,4.541686,0.53591,0.34184,0.28773
1694638516445312,-8.886335,0.414069,4.532686,0.54791,0.38484,0.30473
1694638516453125,-8.892335,0.440069,4.528686,0.66291,0.40484,0.27173
1694638516460937,-8.885335,0.460069,4.537686,0.63291,0.43684,0.30373
1694638516468750,-8.883335,0.473069,4.519686,0.63091,0.41984,0.28773
1694638516476562,-8.871335,0.491069,4.516686,0.66591,0.43584,0.35073
1694638516484375,-8.849335,0.476069,4.507686,0.68191,0.42084,0.30373
1694638516492187,-8.824335,0.471069,4.498686,0.57391,0.43884,0.30173
1694638516500000,-8.775335,0.477069,4.491686,0.55391,0.42184,0.28673
1694638516507812,-8.748335,0.481069,4.507686,0.50391,0.43784,0.20673
1694638516515625,-8.717335,0.464069,4.530686,0.45991,0.40784,0.23773
1694638516523437,-8.719335,0.457069,4.566686,0.47391,0.37684,0.15873
1694638516531250,-8.728335,0.450069,4.568686,0.39391,0.32984,0.17473
1694638516539062,-8.749335,0.451069,4.575686,0.37291,0.39084,0.11173
1694638516546875,-8.802335,0.451069,4.598686,0.31491,0.40884,0.18973
1694638516554687,-8.822335,0.458069,4.595686,0.35891,0.37484,0.15873
1694638516562500,-8.825335,0.452069,4.573686,0.40391,0.43684,0.17573
1694638516570312,-8.815335,0.456069,4.557686,0.42691,0.45484,0.20673
1694638516578125,-8.807335,0.450069,4.532686,0.47191,0.32884,0.17473
1694638516585937,-8.812335,0.436069,4.523686,0.48691,0.34384,0.19173
1694638516593750,-8.807335,0.434069,4.512686,0.61991,0.28184,0.25473
1694638516601562,-8.803335,0.421069,4.494686,0.53591,0.29684,0.20773
1694638516609375,-8.803335,0.424069,4.482686,0.56591,0.24884,0.17573
1694638516617187,-8.816335,0.416069,4.467686,0.58491,0.23484,0.17573
1694638516625000,-8.841335,0.418069,4.476686,0.60191,0.18784,0.22273
1694638516632812,-8.847335,0.434069,4.478686,0.53591,0.31284,0.19173
1694638516640625,-8.869335,0.439069,4.485686,0.55891,0.36184,0.25373
1694638516648437,-8.881335,0.455069,4.489686,0.60191,0.42184,0.25473
1694638516656250,-8.902335,0.465069,4.500686,0.68691,0.32984,0.26973
1694638516664062,-8.901335,0.473069,4.514686,0.64991,0.34284,0.28673
1694638516671875,-8.902335,0.486069,4.521686,0.53791,0.35984,0.22273
1694638516679687,-8.916335,0.477069,4.539686,0.53791,0.45384,0.25473
1694638516687500,-8.914335,0.484069,4.559686,0.50091,0.40484,0.22373
1694638516695312,-8.907335,0.491069,4.573686,0.50091,0.46684,0.23973
1694638516703125,-8.878335,0.499069,4.566686,0.50591,0.45384,0.25473
1694638516710937,-8.851335,0.500069,4.564686,0.45491,0.45184,0.22373
1694638516718750,-8.842335,0.493069,4.575686,0.47191,0.48384,0.27073
1694638516726562,-8.812335,0.484069,4.570686,0.46191,0.53384,0.22173
1694638516734375,-8.775335,0.488069,4.577686,0.45591,0.64084,0.20673
1694638516742187,-8.748335,0.508069,4.557686,0.40391,0.63884,0.23973
1694638516750000,-8.743335,0.502069,4.559686,0.43691,0.67084,0.19173
1694638516757812,-8.730335,0.506069,4.548686,0.35791,0.53084,0.15973
1694638516765625,-8.741335,0.515069,4.566686,0.29191,0.54584,0.15973
1694638516773437,-8.762335,0.490069,4.573686,0.24191,0.48284,0.11173
1694638516781250,-8.768335,0.497069,4.566686,0.32591,0.43884,0.7873
1694638516789062,-8.792335,0.487069,4.555686,0.31491,0.50184,0.17373
1694638516796875,-8.792335,0.482069,4.541686,0.29791,0.39384,0.7773
1694638516804687,-8.802335,0.465069,4.521686,0.40491,0.39084,0.9573
1694638516812500,-8.811335,0.454069,4.530686,0.46791,0.37484,0.7973
1694638516820312,-8.820335,0.445069,4.541686,0.47291,0.32984,0.12673
1694638516828125,-8.838335,0.454069,4.546686,0.50291,0.31284,0.14373
1694638516835937,-8.838335,0.453069,4.543686,0.43991,0.39184,0.12673
1694638516843750,-8.833335,0.462069,4.537686,0.51891,0.45384,0.9573
1694638516851562,-8.840335,0.467069,4.543686,0.50491,0.36084,0.9473
1694638516859375,-8.838335,0.471069,4.541686,0.61791,0.39184,0.14273
1694638516867187,-8.824335,0.483069,4.534686,0.59791,0.43684,0.19173
1694638516875000,-8.806335,0.487069,4.523686,0.57091,0.42284,0.20673
1694638516882812,-8.795335,0.501069,4.534686,0.66591,0.43884,0.11073
1694638516890625,-8.781335,0.514069,4.550686,0.60191,0.42284,0.15873
1694638516898437,-8.785335,0.523069,4.561686,0.55191,0.46984,0.9473
1694638516906250,-8.798335,0.540069,4.559686,0.50791,0.45484,0.17473
1694638516914062,-8.817335,0.549069,4.548686,0.48691,0.45284,0.20773
1694638516921875,-8.834335,0.564069,4.552686,0.50491,0.47084,0.11073
1694638516929687,-8.839335,0.558069,4.561686,0.45391,0.40584,0.14373
1694638516937500,-8.834335,0.556069,4.559686,0.45291,0.46884,0.12773
1694638516945312,-8.821335,0.556069,4.561686,0.41991,0.46884,0.4773
1694638516953125,-8.819335,0.547069,4.561686,0.38791,0.45284,0.6373
1694638516960937,-8.819335,0.536069,4.552686,0.30891,0.46884,0.7973
1694638516968750,-8.808335,0.534069,4.557686,0.33691,0.45184,0.9673
1694638516976562,-8.824335,0.516069,4.557686,0.21191,0.48484,0.9573
1694638516984375,-8.827335,0.494069,4.559686,0.19091,0.48284,0.4873
1694638516992187,-8.829335,0.488069,4.552686,0.22091,0.43284,0.1773
1694638517000000,-8.814335,0.481069,4.555686,0.25391,0.41684,0.8173
1694638517007812,-8.803335,0.473069,4.566686,0.26991,0.58984,0.6473
1694638517015625,-8.783335,0.473069,4.568686,0.41491,0.57284,0.8173
1694638517023437,-8.780335,0.470069,4.582686,0.41791,0.45184,0.8073
1694638517031250,-8.794335,0.473069,4.591686,0.43191,0.58984,0.9673
1694638517039062,-8.802335,0.468069,4.616686,0.43591,0.60884,0.9573
1694638517046875,-8.802335,0.481069,4.616686,0.46991,0.60984,0.14373
1694638517054687,-8.802335,0.490069,4.607686,0.43691,0.65584,0.11173
1694638517062500,-8.815335,0.492069,4.595686,0.45191,0.65584,0.12773
1694638517070312,-8.819335,0.487069,4.589686,0.47391,0.56484,0.9473
1694638517078125,-8.818335,0.483069,4.598686,0.45391,0.51584,0.12773
1694638517085937,-8.802335,0.485069,4.595686,0.50191,0.46884,0.14373
1694638517093750,-8.800335,0.488069,4.598686,0.53091,0.49884,0.12873
1694638517101562,-8.778335,0.491069,4.598686,0.47991,0.43084,0.12973
1694638517109375,-8.771335,0.473069,4.586686,0.56491,0.46784,0.15973
1694638517117187,-8.777335,0.475069,4.584686,0.62991,0.48484,0.7973
1694638517125000,-8.778335,0.473069,4.607686,0.59691,0.42084,0.19173
1694638517132812,-8.777335,0.486069,4.611686,0.66291,0.51584,0.15973
1694638517140625,-8.780335,0.486069,4.620686,0.53391,0.53084,0.14373
1694638517148437,-8.773335,0.497069,4.634686,0.65991,0.62384,0.12873
1694638517156250,-8.784335,0.497069,4.634686,0.64291,0.71684,0.14473
1694638517164062,-8.773335,0.526069,4.625686,0.69291,0.63884,0.19273
1694638517171875,-8.770335,0.528069,4.629686,0.69391,0.60784,0.19173
1694638517179687,-8.763335,0.530069,4.618686,0.64491,0.66984,0.20773
1694638517187500,-8.747335,0.539069,4.618686,0.64791,0.60884,0.23973
1694638517195312,-8.758335,0.530069,4.602686,0.73191,0.53184,0.28673
1694638517203125,-8.761335,0.539069,4.609686,0.56991,0.45384,0.22273
1694638517210937,-8.761335,0.528069,4.625686,0.58191,0.48284,0.19173
1694638517218750,-8.759335,0.521069,4.611686,0.53791,0.43784,0.20673
1694638517226562,-8.741335,0.529069,4.582686,0.64591,0.48284,0.25573
1694638517234375,-8.750335,0.506069,4.559686,0.53591,0.48484,0.20673
1694638517242187,-8.763335,0.501069,4.570686,0.48791,0.46884,0.23873
1694638517250000,-8.779335,0.512069,4.566686,0.50191,0.46784,0.22373
1694638517257812,-8.803335,0.536069,4.595686,0.43691,0.60884,0.17573
1694638517265625,-8.813335,0.536069,4.602686,0.58091,0.45184,0.19173
1694638517273437,-8.825335,0.549069,4.591686,0.53691,0.53184,0.20673
1694638517281250,-8.836335,0.553069,4.593686,0.65391,0.56484,0.18973
1694638517289062,-8.837335,0.551069,4.609686,0.48691,0.53084,0.20773
1694638517296875,-8.823335,0.547069,4.591686,0.64891,0.60884,0.22373
1694638517304687,-8.792335,0.545069,4.577686,0.60091,0.54784,0.19073
1694638517312500,-8.738335,0.533069,4.573686,0.51991,0.46884,0.20673
1694638517320312,-8.714335,0.526069,4.573686,0.49091,0.53184,0.25473
1694638517328125,-8.687335,0.540069,4.607686,0.45691,0.48484,0.20673
1694638517335937,-8.698335,0.526069,4.634686,0.47591,0.45484,0.20573
1694638517343750,-8.709335,0.537069,4.636686,0.48891,0.50084,0.22273
1694638517351562,-8.739335,0.533069,4.645686,0.45291,0.46684,0.22373
1694638517359375,-8.767335,0.534069,4.645686,0.49091,0.48484,0.23873
1694638517367187,-8.776335,0.523069,4.649686,0.61991,0.43884,0.23873
1694638517375000,-8.792335,0.532069,4.649686,0.61591,0.46784,0.22373
1694638517382812,-8.781335,0.536069,4.625686,0.64891,0.48484,0.20673
1694638517390625,-8.783335,0.554069,4.618686,0.71491,0.42184,0.23873
1694638517398437,-8.776335,0.556069,4.604686,0.65391,0.43884,0.25373
1694638517406250,-8.771335,0.556069,4.591686,0.66691,0.42284,0.17473
1694638517414062,-8.758335,0.570069,4.611686,0.69491,0.43684,0.19173
1694638517421875,-8.765335,0.565069,4.611686,0.60391,0.40784,0.19073
1694638517429687,-8.767335,0.561069,4.618686,0.49091,0.42284,0.20673
1694638517437500,-8.758335,0.559069,4.611686,0.50491,0.43784,0.19073
1694638517445312,-8.767335,0.552069,4.604686,0.57091,0.43884,0.19073
1694638517453125,-8.761335,0.553069,4.602686,0.51791,0.42084,0.20773
1694638517460937,-8.781335,0.550069,4.611686,0.50591,0.43784,0.23873
1694638517468750,-8.776335,0.552069,4.620686,0.53891,0.45484,0.19073
1694638517476562,-8.772335,0.556069,4.634686,0.50491,0.48484,0.17473
1694638517484375,-8.765335,0.545069,4.634686,0.48891,0.46984,0.19073
1694638517492187,-8.776335,0.554069,4.640686,0.47091,0.45384,0.15973
1694638517500000,-8.765335,0.546069,4.647686,0.47091,0.42084,0.23973
1694638517507812,-8.751335,0.554069,4.663686,0.45791,0.43884,0.20673
1694638517515625,-8.738335,0.564069,4.661686,0.51891,0.48384,0.20773
1694638517523437,-8.740335,0.561069,4.663686,0.47291,0.40784,0.14273
1694638517531250,-8.758335,0.563069,4.649686,0.48791,0.35984,0.14273
1694638517539062,-8.761335,0.561069,4.645686,0.47091,0.45284,0.20773
1694638517546875,-8.762335,0.578069,4.636686,0.49191,0.42384,0.22173
1694638517554687,-8.780335,0.578069,4.634686,0.47291,0.43784,0.19073
1694638517562500,-8.785335,0.580069,4.634686,0.47291,0.42284,0.19073
1694638517570312,-8.799335,0.574069,4.638686,0.53391,0.43684,0.20773
1694638517578125,-8.803335,0.571069,4.645686,0.47191,0.43684,0.25473
1694638517585937,-8.799335,0.570069,4.643686,0.45191,0.41984,0.19173
1694638517593750,-8.797335,0.550069,4.640686,0.47091,0.43684,0.20773
1694638517601562,-8.781335,0.550069,4.625686,0.45691,0.39184,0.20673
1694638517609375,-8.774335,0.559069,4.640686,0.46991,0.35784,0.22373
1694638517617187,-8.760335,0.556069,4.622686,0.45791,0.43884,0.19073
1694638517625000,-8.744335,0.556069,4.645686,0.45891,0.42384,0.18973
1694638517632812,-8.738335,0.561069,4.668686,0.47191,0.43884,0.14273
1694638517640625,-8.740335,0.570069,4.670686,0.45591,0.42184,0.19073
1694638517648437,-8.728335,0.574069,4.668686,0.47491,0.43984,0.17473
1694638517656250,-8.728335,0.588069,4.661686,0.47591,0.42384,0.23773
1694638517664062,-8.731335,0.583069,4.665686,0.66691,0.43884,0.19073
1694638517671875,-8.735335,0.585069,4.654686,0.60391,0.42284,0.25473
1694638517679687,-8.733335,0.595069,4.647686,0.58591,0.42284,0.20673
1694638517687500,-8.728335,0.610069,4.649686,0.53491,0.43684,0.22373
1694638517695312,-8.729335,0.606069,4.652686,0.43691,0.48284,0.22373
1694638517703125,-8.739335,0.610069,4.638686,0.48991,0.43784,0.27073
1694638517710937,-8.751335,0.606069,4.636686,0.48791,0.42084,0.27173
1694638517718750,-8.764335,0.614069,4.643686,0.45591,0.49984,0.23873
1694638517726562,-8.784335,0.611069,4.643686,0.45791,0.45284,0.27073
1694638517734375,-8.791335,0.605069,4.643686,0.47191,0.40484,0.27173
1694638517742187,-8.796335,0.594069,4.645686,0.42391,0.40584,0.20673
1694638517750000,-8.780335,0.592069,4.649686,0.35791,0.42084,0.22373
1694638517757812,-8.757335,0.592069,4.656686,0.36291,0.43884,0.20573
1694638517765625,-8.746335,0.594069,4.647686,0.32791,0.43784,0.23873
1694638517773437,-8.737335,0.587069,4.643686,0.39591,0.42484,0.15773
1694638517781250,-8.722335,0.579069,4.643686,0.39091,0.43784,0.20673
1694638517789062,-8.711335,0.584069,4.649686,0.47391,0.39084,0.22273
1694638517796875,-8.715335,0.586069,4.668686,0.50291,0.40584,0.15973
1694638517804687,-8.711335,0.586069,4.688686,0.45591,0.43884,0.15873
1694638517812500,-8.719335,0.590069,4.690686,0.47591,0.37684,0.17373
1694638517820312,-8.735335,0.592069,4.677686,0.42391,0.42284,0.15873
1694638517828125,-8.744335,0.606069,4.683686,0.38791,0.38984,0.14373
1694638517835937,-8.755335,0.623069,4.677686,0.37491,0.39184,0.11073
1694638517843750,-8.764335,0.614069,4.672686,0.40591,0.42084,0.20773
1694638517851562,-8.773335,0.589069,4.652686,0.39491,0.39284,0.22173
1694638517859375,-8.774335,0.583069,4.629686,0.47091,0.43684,0.27173
1694638517867187,-8.771335,0.568069,4.627686,0.45591,0.42184,0.23873
1694638517875000,-8.756335,0.559069,4.643686,0.46791,0.41984,0.17573
1694638517882812,-8.738335,0.550069,4.645686,0.43791,0.49884,0.22373
1694638517890625,-8.732335,0.560069,4.643686,0.43591,0.43584,0.22373
1694638517898437,-8.727335,0.562069,4.649686,0.48691,0.42184,0.19173
1694638517906250,-8.731335,0.574069,4.670686,0.41091,0.47084,0.17473
1694638517914062,-8.735335,0.575069,4.679686,0.37591,0.42284,0.20673
1694638517921875,-8.751335,0.583069,4.674686,0.44291,0.42284,0.23873
1694638517929687,-8.742335,0.586069,4.668686,0.40991,0.37584,0.25473
1694638517937500,-8.758335,0.588069,4.668686,0.48891,0.39084,0.22273
1694638517945312,-8.772335,0.595069,4.661686,0.44991,0.31984,0.30573
1694638517953125,-8.780335,0.590069,4.656686,0.47191,0.34284,0.25573
1694638517960937,-8.779335,0.584069,4.654686,0.37091,0.29284,0.22473
1694638517968750,-8.779335,0.582069,4.650686,0.40091,0.31984,0.28973
1694638517976562,-8.779335,0.575069,4.643686,0.38391,0.32084,0.22573
1694638517984375,-8.769335,0.584069,4.645686,0.37091,0.40384,0.20773
1694638517992187,-8.744335,0.595069,4.649686,0.34191,0.34284,0.19173
1694638518000000,-8.724335,0.593069,4.647686,0.32391,0.38984,0.17573
1694638518007812,-8.716335,0.587069,4.643686,0.28891,0.44884,0.24073
1694638518015625,-8.718335,0.584069,4.640686,0.32391,0.38784,0.25573
1694638518023437,-8.725335,0.580069,4.640686,0.37291,0.43584,0.27173
1694638518031250,-8.727335,0.591069,4.677686,0.19191,0.38384,0.30573
1694638518039062,-8.726335,0.590069,4.692686,0.26391,0.32784,0.28673
1694638518046875,-8.716335,0.569069,4.668686,0.37191,0.32584,0.23973
1694638518054687,-8.730335,0.553069,4.659686,0.35591,0.35484,0.35273
1694638518062500,-8.750335,0.541069,4.658686,0.37391,0.40484,0.23973
1694638518070312,-8.766335,0.542069,4.683686,0.43691,0.34184,0.25573
1694638518078125,-8.765335,0.550069,4.683686,0.40891,0.39084,0.22273
1694638518085937,-8.763335,0.568069,4.659686,0.45191,0.38884,0.20773
1694638518093750,-8.756335,0.588069,4.649686,0.45491,0.38984,0.25573
1694638518101562,-8.765335,0.597069,4.643686,0.46691,0.39984,0.27373
1694638518109375,-8.761335,0.595069,4.645686,0.45191,0.43284,0.28873
1694638518117187,-8.770335,0.580069,4.643686,0.46691,0.33784,0.24073
1694638518125000,-8.783335,0.581069,4.645686,0.40591,0.37284,0.30373
1694638518132812,-8.762335,0.572069,4.649686,0.44191,0.40584,0.31873
1694638518140625,-8.742335,0.577069,4.625686,0.42691,0.31284,0.30273
1694638518148437,-8.711335,0.562069,4.636686,0.44291,0.34384,0.30273
1694638518156250,-8.693335,0.553069,4.649686,0.35991,0.29684,0.25473
1694638518164062,-8.689335,0.542069,4.677686,0.42491,0.32784,0.25473
1694638518171875,-8.674335,0.521069,4.692686,0.42291,0.24884,0.30373
1694638518179687,-8.696335,0.515069,4.717686,0.24891,0.29684,0.27073
1694638518187500,-8.727335,0.526069,4.738686,0.34791,0.32984,0.28573
1694638518195312,-8.752335,0.532069,4.738686,0.42791,0.35984,0.31873
1694638518203125,-8.763335,0.547069,4.724686,0.41191,0.32884,0.30273
1694638518210937,-8.781335,0.557069,4.688686,0.45691,0.32684,0.31873
1694638518218750,-8.776335,0.563069,4.679686,0.43991,0.34284,0.28773
1694638518226562,-8.765335,0.565069,4.661686,0.53991,0.31284,0.33473
1694638518234375,-8.754335,0.561069,4.661686,0.50691,0.24984,0.36673
1694638518242187,-8.745335,0.559069,4.652686,0.61691,0.18684,0.28773
1694638518250000,-8.738335,0.560069,4.647686,0.50291,0.18584,0.30373
1694638518257812,-8.744335,0.553069,4.638686,0.48291,0.19584,0.32173
1694638518265625,-8.756335,0.543069,4.638686,0.47491,0.24984,0.36673
1694638518273437,-8.760335,0.568069,4.645686,0.45791,0.26484,0.31873
1694638518281250,-8.764335,0.563069,4.649686,0.47791,0.32984,0.31773
1694638518289062,-8.759335,0.562069,4.652686,0.45491,0.23184,0.33573
1694638518296875,-8.747335,0.568069,4.670686,0.42791,0.31284,0.33373
1694638518304687,-8.742335,0.561069,4.670686,0.47491,0.35984,0.30273
1694638518312500,-8.736335,0.553069,4.677686,0.42491,0.32784,0.28673
1694638518320312,-8.729335,0.550069,4.686686,0.42891,0.18884,0.30173
1694638518328125,-8.725335,0.548069,4.697686,0.47291,0.15584,0.25473
1694638518335937,-8.734335,0.540069,4.708686,0.45591,0.17084,0.25573
1694638518343750,-8.738335,0.537069,4.686686,0.45791,0.26584,0.30273
1694638518351562,-8.736335,0.541069,4.668686,0.44291,0.18784,0.31873
1694638518359375,-8.729335,0.544069,4.652686,0.47291,0.23384,0.30273
1694638518367187,-8.740335,0.559069,4.649686,0.45991,0.17284,0.31873
1694638518375000,-8.743335,0.557069,4.649686,0.47491,0.26484,0.35073
1694638518382812,-8.756335,0.559069,4.638686,0.45591,0.18584,0.31973
1694638518390625,-8.769335,0.552069,4.645686,0.49391,0.26684,0.30173
1694638518398437,-8.790335,0.543069,4.640686,0.47591,0.28184,0.31873
1694638518406250,-8.805335,0.554069,4.627686,0.40991,0.21884,0.28673
1694638518414062,-8.801335,0.547069,4.629686,0.42491,0.23384,0.30273
1694638518421875,-8.794335,0.545069,4.618686,0.39191,0.29584,0.28673
1694638518429687,-8.777335,0.548069,4.613686,0.37491,0.17084,0.30373
1694638518437500,-8.755335,0.540069,4.591686,0.24291,0.21484,0.28873
1694638518445312,-8.743335,0.553069,4.588686,0.29391,0.24784,0.30373
1694638518453125,-8.729335,0.557069,4.620686,0.27691,0.24884,0.22373
1694638518460937,-8.727335,0.540069,4.620686,0.27791,0.21684,0.31973
1694638518468750,-8.730335,0.527069,4.618686,0.19291,0.22884,0.22473
1694638518476562,-8.775335,0.517069,4.634686,0.25691,0.24484,0.20873
1694638518484375,-8.779335,0.530069,4.643686,0.24391,0.20084,0.25573
1694638518492187,-8.801335,0.527069,4.640686,0.21491,0.18784,0.19073
1694638518500000,-8.806335,0.521069,4.629686,0.21191,0.13884,0.20773
1694638518507812,-8.810335,0.522069,4.620686,0.31291,0.18884,0.19073
1694638518515625,-8.806335,0.521069,4.600686,0.32591,0.13984,0.22373
1694638518523437,-8.799335,0.527069,4.586686,0.37691,0.15684,0.19073
1694638518531250,-8.792335,0.545069,4.570686,0.37791,0.14184,0.19073
1694638518539062,-8.788335,0.538069,4.561686,0.34491,0.10984,0.20673
1694638518546875,-8.778335,0.559069,4.575686,0.31191,0.20284,0.25473
1694638518554687,-8.781335,0.550069,4.575686,0.34291,0.17184,0.20673
1694638518562500,-8.785335,0.545069,4.579686,0.34391,0.18784,0.20673
1694638518570312,-8.806335,0.532069,4.595686,0.31191,0.18784,0.19073
1694638518578125,-8.806335,0.518069,4.620686,0.32691,0.20284,0.20673
1694638518585937,-8.806335,0.523069,4.625686,0.30891,0.13884,0.22373
1694638518593750,-8.813335,0.510069,4.622686,0.22691,0.21684,0.20773
1694638518601562,-8.817335,0.503069,4.616686,0.27891,0.21784,0.23873
1694638518609375,-8.811335,0.507069,4.604686,0.29491,0.17184,0.25473
1694638518617187,-8.797335,0.494069,4.602686,0.21891,0.25184,0.26973
1694638518625000,-8.781335,0.487069,4.586686,0.33191,0.17384,0.22173
1694638518632812,-8.786335,0.489069,4.561686,0.31591,0.25184,0.23773
1694638518640625,-8.777335,0.492069,4.552686,0.26791,0.23584,0.25373
1694638518648437,-8.770335,0.481069,4.570686,0.23291,0.23484,0.25473
1694638518656250,-8.773335,0.485069,4.591686,0.26591,0.24984,0.30273
1694638518664062,-8.757335,0.494069,4.591686,0.28291,0.31284,0.34973
1694638518671875,-8.766335,0.490069,4.577686,0.37591,0.20184,0.33573
1694638518679687,-8.755335,0.486069,4.564686,0.40691,0.20184,0.28773
1694638518687500,-8.755335,0.482069,4.552686,0.35891,0.18584,0.30373
1694638518695312,-8.764335,0.492069,4.570686,0.40991,0.23384,0.28673
1694638518703125,-8.757335,0.488069,4.548686,0.37491,0.18584,0.28773
1694638518710937,-8.777335,0.485069,4.532686,0.39591,0.18884,0.30173
1694638518718750,-8.780335,0.488069,4.518686,0.40791,0.15484,0.28773
1694638518726562,-8.811335,0.485069,4.539686,0.34691,0.10984,0.30273
1694638518734375,-8.824335,0.487069,4.550686,0.34691,0.9484,0.25473
1694638518742187,-8.842335,0.487069,4.548686,0.37891,0.6384,0.23873
1694638518750000,-8.853335,0.507069,4.532686,0.32791,0.2984,0.28673
1694638518757812,-8.853335,0.518069,4.505686,0.38991,0.3416,0.27173
1694638518765625,-8.862335,0.520069,4.487686,0.37791,0.1416,0.22273
1694638518773437,-8.853335,0.502069,4.485686,0.40891,0.6284,0.22273
1694638518781250,-8.851335,0.487069,4.496686,0.47391,0.9484,0.19073
1694638518789062,-8.860335,0.480069,4.505686,0.49191,0.11084,0.23873
1694638518796875,-8.858335,0.475069,4.516686,0.47491,0.18884,0.20673
1694638518804687,-8.847335,0.475069,4.525686,0.45891,0.12584,0.23873
1694638518812500,-8.842335,0.482069,4.525686,0.52191,0.17284,0.23873
1694638518820312,-8.826335,0.480069,4.534686,0.47291,0.21984,0.20673
1694638518828125,-8.819335,0.480069,4.534686,0.47791,0.20484,0.28573
1694638518835937,-8.814335,0.498069,4.534686,0.46291,0.22084,0.30173
1694638518843750,-8.810335,0.514069,4.537686,0.47591,0.21884,0.31873
1694638518851562,-8.799335,0.520069,4.530686,0.46091,0.20384,0.33373
1694638518859375,-8.817335,0.522069,4.541686,0.47691,0.21984,0.31773
1694638518867187,-8.817335,0.516069,4.550686,0.46091,0.14184,0.28573
1694638518875000,-8.817335,0.498069,4.543686,0.50991,0.17284,0.30173
1694638518882812,-8.835335,0.496069,4.512686,0.47191,0.20184,0.28773
1694638518890625,-8.848335,0.481069,4.496686,0.47991,0.12784,0.30173
1694638518898437,-8.889335,0.486069,4.505686,0.41191,0.12584,0.28673
1694638518906250,-8.907335,0.483069,4.510686,0.41091,0.18784,0.30273
1694638518914062,-8.913335,0.512069,4.500686,0.44191,0.20284,0.27073
1694638518921875,-8.904335,0.517069,4.500686,0.42491,0.26584,0.27073
1694638518929687,-8.884335,0.506069,4.491686,0.47191,0.29584,0.25473
1694638518937500,-8.878335,0.491069,4.476686,0.45491,0.34284,0.23973
1694638518945312,-8.849335,0.480069,4.476686,0.45591,0.32784,0.23973
1694638518953125,-8.818335,0.476069,4.462686,0.47391,0.28084,0.27073
1694638518960937,-8.789335,0.472069,4.469686,0.42391,0.23384,0.22273
1694638518968750,-8.757335,0.475069,4.478686,0.43991,0.20284,0.22273
1694638518976562,-8.745335,0.462069,4.496686,0.41991,0.23084,0.20873
1694638518984375,-8.747335,0.471069,4.503686,0.45091,0.25984,0.24073
1694638518992187,-8.763335,0.464069,4.516686,0.46691,0.24484,0.20873
1694638519000000,-8.769335,0.470069,4.509686,0.34291,0.20284,0.19173
1694638519007812,-8.802335,0.463069,4.516686,0.31091,0.21884,0.22273
1694638519015625,-8.833335,0.471069,4.521686,0.45991,0.20384,0.33473
1694638519023437,-8.858335,0.469069,4.519686,0.44091,0.21784,0.33473
1694638519031250,-8.887335,0.478069,4.494686,0.56991,0.17084,0.35073
1694638519039062,-8.911335,0.474069,4.467686,0.68691,0.10984,0.34973
1694638519046875,-8.923335,0.470069,4.467686,0.72091,0.17284,0.41373
1694638519054687,-8.932335,0.472069,4.462686,0.71691,0.20184,0.46273
1694638519062500,-8.918335,0.470069,4.462686,0.73691,0.21984,0.39773
1694638519070312,-8.909335,0.474069,4.455686,0.65491,0.17184,0.42973
1694638519078125,-8.896335,0.481069,4.433686,0.66991,0.18684,0.41473
1694638519085937,-8.880335,0.484069,4.435686,0.57491,0.20384,0.38173
1694638519093750,-8.855335,0.486069,4.453686,0.49291,0.32884,0.34973
1694638519101562,-8.842335,0.491069,4.467686,0.49291,0.25084,0.31773
1694638519109375,-8.839335,0.498069,4.494686,0.45791,0.32884,0.25473
1694638519117187,-8.837335,0.520069,4.512686,0.47391,0.34484,0.23873
1694638519125000,-8.845335,0.519069,4.516686,0.30091,0.34684,0.18973
1694638519132812,-8.843335,0.522069,4.512686,0.39391,0.32984,0.20673
1694638519140625,-8.832335,0.518069,4.509686,0.47591,0.32884,0.28673
1694638519148437,-8.837335,0.488069,4.509686,0.36391,0.34584,0.23773
1694638519156250,-8.838335,0.483069,4.514686,0.43991,0.32684,0.28673
1694638519164062,-8.842335,0.480069,4.507686,0.45691,0.26484,0.28673
1694638519171875,-8.856335,0.471069,4.498686,0.44191,0.21884,0.30273
1694638519179687,-8.853335,0.471069,4.485686,0.47491,0.32884,0.28673
1694638519187500,-8.847335,0.475069,4.471686,0.45891,0.34384,0.31873
1694638519195312,-8.867335,0.470069,4.489686,0.47691,0.32784,0.39773
1694638519203125,-8.880335,0.477069,4.482686,0.45891,0.35884,0.36673
1694638519210937,-8.880335,0.494069,4.469686,0.47791,0.31384,0.33373
1694638519218750,-8.873335,0.515069,4.462686,0.45791,0.37384,0.39873
1694638519226562,-8.868335,0.525069,4.464686,0.48091,0.40784,0.39673
1694638519234375,-8.886335,0.526069,4.458686,0.45691,0.34284,0.35073
1694638519242187,-8.886335,0.517069,4.442686,0.42791,0.37584,0.33473
1694638519250000,-8.882335,0.515069,4.439686,0.37791,0.39084,0.28673
1694638519257812,-8.855335,0.517069,4.449686,0.32891,0.39084,0.27073
1694638519265625,-8.841335,0.517069,4.469686,0.28291,0.39184,0.28573
1694638519273437,-8.834335,0.515069,4.482686,0.30091,0.34584,0.25373
1694638519281250,-8.810335,0.505069,4.498686,0.28091,0.34484,0.19073
1694638519289062,-8.794335,0.512069,4.507686,0.36091,0.40684,0.23873
1694638519296875,-8.798335,0.504069,4.505686,0.38191,0.28484,0.17373
1694638519304687,-8.801335,0.483069,4.494686,0.36191,0.29884,0.17473
1694638519312500,-8.808335,0.487069,4.489686,0.37691,0.29784,0.19073
1694638519320312,-8.822335,0.484069,4.491686,0.42691,0.26784,0.15873
1694638519328125,-8.818335,0.487069,4.478686,0.37491,0.28084,0.23973
1694638519335937,-8.819335,0.480069,4.478686,0.37891,0.21984,0.23773
1694638519343750,-8.829335,0.476069,4.476686,0.39391,0.26584,0.27073
1694638519351562,-8.837335,0.487069,4.482686,0.47491,0.32884,0.27073
1694638519359375,-8.846335,0.471069,4.478686,0.45991,0.31384,0.28673
1694638519367187,-8.849335,0.477069,4.451686,0.47591,0.26684,0.23873
1694638519375000,-8.842335,0.496069,4.433686,0.47391,0.28084,0.30273
1694638519382812,-8.847335,0.489069,4.439686,0.45491,0.32684,0.31973
1694638519390625,-8.859335,0.508069,4.444686,0.44291,0.28184,0.33473
1694638519398437,-8.861335,0.506069,4.444686,0.44591,0.25184,0.33373
1694638519406250,-8.877335,0.512069,4.444686,0.37991,0.21984,0.33373
1694638519414062,-8.886335,0.524069,4.453686,0.36091,0.31184,0.30273
1694638519421875,-8.893335,0.520069,4.462686,0.35691,0.29484,0.28773
1694638519429687,-8.884335,0.510069,4.473686,0.34591,0.31284,0.27073
1694638519437500,-8.902335,0.488069,4.473686,0.27891,0.37484,0.25473
1694638519445312,-8.892335,0.486069,4.467686,0.27391,0.37284,0.19173
1694638519453125,-8.882335,0.484069,4.476686,0.37791,0.36084,0.20673
1694638519460937,-8.876335,0.482069,4.485686,0.34491,0.35984,0.22273
1694638519468750,-8.855335,0.475069,4.482686,0.32791,0.32884,0.19073
1694638519476562,-8.851335,0.458069,4.491686,0.42491,0.34484,0.17473
1694638519484375,-8.842335,0.451069,4.478686,0.45791,0.29784,0.19073
1694638519492187,-8.838335,0.449069,4.471686,0.47491,0.28184,0.23873
1694638519500000,-8.841335,0.447069,4.473686,0.43791,0.38884,0.27173
1694638519507812,-8.833335,0.447069,4.462686,0.45891,0.39184,0.25473
1694638519515625,-8.820335,0.445069,4.478686,0.45791,0.40684,0.28673
1694638519523437,-8.834335,0.449069,4.494686,0.47191,0.42084,0.28773
1694638519531250,-8.843335,0.452069,4.487686,0.45391,0.40284,0.36773
1694638519539062,-8.861335,0.449069,4.471686,0.50291,0.45084,0.28773
1694638519546875,-8.874335,0.444069,4.467686,0.50791,0.42184,0.33473
1694638519554687,-8.849335,0.442069,4.478686,0.60491,0.46884,0.33473
1694638519562500,-8.841335,0.450069,4.464686,0.71191,0.35784,0.31973
1694638519570312,-8.837335,0.455069,4.455686,0.59191,0.40784,0.33373
1694638519578125,-8.838335,0.464069,4.455686,0.55691,0.42284,0.31873
1694638519585937,-8.837335,0.471069,4.455686,0.52491,0.32884,0.34973
1694638519593750,-8.837335,0.482069,4.462686,0.47791,0.28284,0.33373
1694638519601562,-8.837335,0.487069,4.471686,0.50791,0.31284,0.31873
1694638519609375,-8.837335,0.488069,4.453686,0.51391,0.22184,0.33273
1694638519617187,-8.840335,0.480069,4.435686,0.53991,0.21984,0.25473
1694638519625000,-8.842335,0.486069,4.444686,0.52491,0.23584,0.28573
1694638519632812,-8.846335,0.480069,4.453686,0.50991,0.15784,0.30173
1694638519640625,-8.853335,0.475069,4.451686,0.51091,0.20484,0.30173
1694638519648437,-8.856335,0.464069,4.451686,0.58891,0.15684,0.28673
1694638519656250,-8.856335,0.460069,4.462686,0.52091,0.28084,0.30273
1694638519664062,-8.876335,0.451069,4.460686,0.52291,0.28084,0.31873
1694638519671875,-8.878335,0.448069,4.449686,0.50691,0.34384,0.28673
1694638519679687,-8.871335,0.446069,4.462686,0.60591,0.40784,0.31773
1694638519687500,-8.864335,0.450069,4.462686,0.52891,0.37784,0.33373
1694638519695312,-8.854335,0.449069,4.453686,0.50591,0.32784,0.31873
1694638519703125,-8.869335,0.448069,4.455686,0.57491,0.37584,0.39773
1694638519710937,-8.885335,0.450069,4.464686,0.58891,0.34384,0.35073
1694638519718750,-8.878335,0.464069,4.442686,0.47391,0.31084,0.39873
1694638519726562,-8.885335,0.478069,4.442686,0.47191,0.32584,0.39973
1694638519734375,-8.887335,0.482069,4.471686,0.45591,0.31084,0.33573
1694638519742187,-8.896335,0.469069,4.478686,0.50391,0.34184,0.33573
1694638519750000,-8.887335,0.464069,4.464686,0.50391,0.35884,0.27173
1694638519757812,-8.896335,0.453069,4.451686,0.45791,0.40484,0.35073
1694638519765625,-8.925335,0.452069,4.464686,0.50991,0.37584,0.34973
1694638519773437,-8.920335,0.452069,4.476686,0.45991,0.48584,0.30173
1694638519781250,-8.900335,0.474069,4.458686,0.47691,0.45384,0.33373
1694638519789062,-8.882335,0.492069,4.446686,0.47591,0.45284,0.35073
1694638519796875,-8.869335,0.488069,4.433686,0.45791,0.46884,0.31873
1694638519804687,-8.853335,0.493069,4.430686,0.47491,0.57784,0.30273
1694638519812500,-8.851335,0.486069,4.446686,0.45991,0.53184,0.28573
1694638519820312,-8.859335,0.479069,4.444686,0.59091,0.53284,0.36573
1694638519828125,-8.848335,0.466069,4.442686,0.52691,0.53384,0.25373
1694638519835937,-8.819335,0.460069,4.417686,0.47791,0.42384,0.25373
1694638519843750,-8.784335,0.445069,4.419686,0.47891,0.43984,0.30173
1694638519851562,-8.777335,0.445069,4.435686,0.42991,0.39284,0.28573
1694638519859375,-8.768335,0.441069,4.446686,0.44491,0.31384,0.28573
1694638519867187,-8.796335,0.439069,4.448686,0.42591,0.26584,0.30273
1694638519875000,-8.820335,0.429069,4.473686,0.39791,0.29884,0.28573
1694638519882812,-8.849335,0.431069,4.478686,0.49191,0.31284,0.33473
