time,Acceleration X (m/s^2),Acceleration Y (m/s^2),Acceleration Z (m/s^2),Angular Velocity X (rad/s),Angular Velocity Y (rad/s),Angular Velocity Z (rad/s)
1694639205632812,-8.411538,-0.755194,5.310761,,,
1694639205640625,-8.419538,0.751194,5.332761,0.25791,0.22962,0.24074
1694639205648437,-8.412538,0.735194,5.335761,0.19391,0.23062,0.25674
1694639205656250,-8.414538,0.733194,5.344761,0.13291,0.24962,0.31874
1694639205664062,-8.396538,0.735194,5.339761,0.19691,0.34362,0.31874
1694639205671875,-8.384538,0.735194,5.328761,0.18491,0.31762,0.31774
1694639205687500,-8.380538,0.726194,5.339761,0.26491,0.34862,0.28574
1694639205695312,-8.365538,0.736194,5.330761,0.24491,0.28162,0.28674
1694639205703125,-8.354538,0.736194,5.319761,0.35591,0.29362,0.28874
1694639205710937,-8.355538,0.745194,5.303761,0.43991,0.28162,0.31874
1694639205734375,-8.395538,0.737194,5.294761,0.36091,0.28462,0.30174
1694639205742187,-8.416538,0.746194,5.283761,0.37191,0.16662,0.32074
1694639205750000,-8.420538,0.757194,5.285761,0.39291,0.25162,0.30274
1694639205757812,-8.421538,0.764194,5.294761,0.44991,0.27162,0.32274
1694639205765625,-8.425538,0.766194,5.305761,0.38691,0.29162,0.30474
1694639205773437,-8.430538,0.757194,5.305761,0.35691,0.23062,0.33674
1694639205781250,-8.416538,0.751194,5.296761,0.35491,0.22862,0.32074
1694639205789062,-8.410538,0.740194,5.276761,0.35591,0.29262,0.32074
1694639205796875,-8.398538,0.735194,5.278761,0.35891,0.28162,0.28674
1694639205804687,-8.396538,0.749194,5.290761,0.32291,0.26062,0.28874
1694639205812500,-8.394538,0.737194,5.294761,0.25891,0.35762,0.23974
1694639205820312,-8.392538,0.726194,5.289761,0.24291,0.41962,0.27174
1694639205828125,-8.405538,0.731194,5.296761,0.19491,0.38862,0.25574
1694639205835937,-8.409538,0.714194,5.314761,0.31391,0.39762,0.28474
1694639205843750,-8.410538,0.715194,5.314761,0.19591,0.42162,0.23974
1694639205851562,-8.410538,0.713194,5.299761,0.19491,0.41962,0.30374
1694639205859375,-8.407538,0.717194,5.271761,0.27791,0.37662,0.27074
1694639205867187,-8.401538,0.710194,5.267761,0.37591,0.37662,0.31874
1694639205875000,-8.392538,0.702194,5.265761,0.34291,0.34562,0.30274
1694639205882812,-8.387538,0.711194,5.276761,0.44091,0.31462,0.30274
1694639205890625,-8.390538,0.709194,5.274761,0.42191,0.38862,0.31974
1694639205898437,-8.381538,0.732194,5.276761,0.41791,0.27362,0.30574
1694639205906250,-8.378538,0.738194,5.271761,0.37391,0.26362,0.35174
1694639205914062,-8.385538,0.746194,5.276761,0.40691,0.16962,0.35174
1694639205921875,-8.386538,0.764194,5.271761,0.36191,0.22262,0.30174
1694639205929687,-8.386538,0.766194,5.278761,0.35891,0.31162,0.35074
1694639205937500,-8.403538,0.764194,5.281761,0.37191,0.25962,0.38474
1694639205945312,-8.413538,0.761194,5.294761,0.35991,0.18762,0.31874
1694639205953125,-8.436538,0.752194,5.301761,0.32691,0.18762,0.31874
1694639205960937,-8.442538,0.738194,5.305761,0.36491,0.22562,0.36474
1694639205968750,-8.427538,0.739194,5.280761,0.40591,0.26362,0.30374
1694639205976562,-8.427538,0.732194,5.271761,0.40791,0.33062,0.25474
1694639205984375,-8.414538,0.732194,5.280761,0.26191,0.39162,0.30274
1694639205992187,-8.385538,0.731194,5.278761,0.27491,0.37062,0.33674
1694639206000000,-8.376538,0.722194,5.271761,0.29291,0.38762,0.33574
1694639206007812,-8.372538,0.713194,5.278761,0.25991,0.27962,0.27174
1694639206015625,-8.370538,0.713194,5.289761,0.25991,0.26362,0.27174
1694639206023437,-8.369538,0.716194,5.289761,0.32691,0.31162,0.38274
1694639206031250,-8.378538,0.722194,5.307761,0.40691,0.31262,0.30274
1694639206039062,-8.396538,0.718194,5.312761,0.35791,0.26362,0.31974
1694639206046875,-8.398538,0.713194,5.317761,0.40791,0.28062,0.33474
1694639206054687,-8.407538,0.715194,5.308761,0.32691,0.26562,0.33474
1694639206062500,-8.418538,0.720194,5.301761,0.38291,0.25262,0.35574
1694639206070312,-8.408538,0.717194,5.294761,0.27691,0.27962,0.31974
1694639206078125,-8.418538,0.733194,5.278761,0.40591,0.32562,0.31974
1694639206085937,-8.427538,0.739194,5.276761,0.35891,0.26562,0.30274
1694639206093750,-8.441538,0.723194,5.276761,0.40691,0.17062,0.33574
1694639206101562,-8.452538,0.723194,5.276761,0.40691,0.20162,0.31974
1694639206109375,-8.446538,0.730194,5.294761,0.24391,0.29262,0.36874
1694639206117187,-8.429538,0.741194,5.283761,0.35891,0.29662,0.31874
1694639206125000,-8.423538,0.735194,5.271761,0.37491,0.24762,0.36774
1694639206132812,-8.414538,0.715194,5.274761,0.37691,0.29862,0.36674
1694639206140625,-8.410538,0.729194,5.274761,0.38891,0.18362,0.31974
1694639206148437,-8.407538,0.731194,5.280761,0.32491,0.32562,0.30374
1694639206156250,-8.407538,0.715194,5.294761,0.26091,0.39062,0.30374
1694639206164062,-8.405538,0.719194,5.310761,0.22891,0.31262,0.27074
1694639206171875,-8.414538,0.711194,5.323761,0.24391,0.32562,0.28774
1694639206179687,-8.428538,0.721194,5.305761,0.25991,0.31062,0.28774
1694639206187500,-8.434538,0.734194,5.298761,0.30991,0.29662,0.30274
1694639206195312,-8.427538,0.768194,5.278761,0.27591,0.38862,0.31974
1694639206203125,-8.427538,0.779194,5.299761,0.43491,0.39962,0.35274
1694639206210937,-8.427538,0.766194,5.317761,0.38591,0.49362,0.33674
1694639206218750,-8.429538,0.763194,5.292761,0.27791,0.42062,0.38274
1694639206226562,-8.425538,0.766194,5.283761,0.29391,0.40562,0.35074
1694639206234375,-8.407538,0.777194,5.260761,0.19591,0.43462,0.36774
1694639206242187,-8.371538,0.749194,5.240761,0.16391,0.38962,0.31974
1694639206250000,-8.348538,0.749194,5.255761,0.10291,0.36262,0.31774
1694639206257812,-8.320538,0.750194,5.274761,0.14691,0.32562,0.30374
1694639206265625,-8.329538,0.741194,5.294761,0.16291,0.32562,0.28774
1694639206273437,-8.336538,0.714194,5.330761,0.14891,0.36062,0.23874
1694639206281250,-8.349538,0.702194,5.343761,0.18391,0.33362,0.22174
1694639206289062,-8.374538,0.686194,5.355761,0.26291,0.40962,0.22174
1694639206296875,-8.381538,0.673194,5.339761,0.17991,0.34562,0.17474
1694639206304687,-8.399538,0.689194,5.335761,0.17791,0.36062,0.11174
1694639206312500,-8.394538,0.700194,5.301761,0.14591,0.35962,0.12774
1694639206320312,-8.401538,0.695194,5.276761,0.19791,0.25262,0.20674
1694639206328125,-8.393538,0.707194,5.269761,0.15591,0.25462,0.21074
1694639206335937,-8.415538,0.713194,5.240761,0.24191,0.19762,0.24074
1694639206343750,-8.427538,0.728194,5.262761,0.35891,0.18762,0.28674
1694639206351562,-8.434538,0.728194,5.276761,0.33991,0.21562,0.28874
1694639206359375,-8.435538,0.708194,5.278761,0.35591,0.27762,0.25674
1694639206367187,-8.426538,0.711194,5.287761,0.25791,0.30862,0.24074
1694639206375000,-8.423538,0.699194,5.296761,0.22891,0.34362,0.25574
1694639206382812,-8.417538,0.693194,5.289761,0.29391,0.37462,0.31874
1694639206390625,-8.399538,0.680194,5.294761,0.14691,0.46562,0.33574
1694639206398437,-8.374538,0.682194,5.301761,0.21091,0.40362,0.30374
1694639206406250,-8.373538,0.687194,5.319761,0.17591,0.42862,0.38574
1694639206414062,-8.377538,0.702194,5.330761,0.19491,0.29262,0.30474
1694639206421875,-8.367538,0.718194,5.353761,0.20991,0.26262,0.24074
1694639206429687,-8.383538,0.717194,5.335761,0.23091,0.23662,0.28674
1694639206437500,-8.390538,0.713194,5.323761,0.25891,0.27962,0.20774
1694639206445312,-8.390538,0.707194,5.323761,0.21091,0.23062,0.25674
1694639206453125,-8.410538,0.704194,5.308761,0.21091,0.26162,0.32074
1694639206460937,-8.409538,0.699194,5.287761,0.18191,0.30062,0.20574
1694639206468750,-8.410538,0.699194,5.278761,0.16491,0.28062,0.30274
1694639206476562,-8.417538,0.693194,5.290761,0.25891,0.29362,0.27274
1694639206484375,-8.417538,0.688194,5.292761,0.27691,0.37462,0.27174
1694639206492187,-8.409538,0.701194,5.301761,0.23291,0.36462,0.31774
1694639206500000,-8.413538,0.707194,5.310761,0.30591,0.35362,0.27274
1694639206507812,-8.417538,0.686194,5.308761,0.30891,0.37462,0.28774
1694639206515625,-8.402538,0.678194,5.292761,0.27391,0.35362,0.30474
1694639206523437,-8.397538,0.682194,5.287761,0.23991,0.35462,0.19374
1694639206531250,-8.383538,0.680194,5.301761,0.14591,0.34162,0.19174
1694639206539062,-8.375538,0.674194,5.287761,0.20691,0.25862,0.22574
1694639206546875,-8.377538,0.676194,5.299761,0.17691,0.21362,0.22474
1694639206554687,-8.374538,0.673194,5.314761,0.18091,0.32762,0.31874
1694639206562500,-8.377538,0.676194,5.312761,0.16291,0.27962,0.27174
1694639206570312,-8.390538,0.685194,5.321761,0.22591,0.29062,0.35274
1694639206578125,-8.393538,0.680194,5.312761,0.32391,0.37062,0.35274
1694639206585937,-8.399538,0.678194,5.326761,0.43691,0.30862,0.33674
1694639206593750,-8.408538,0.678194,5.317761,0.42091,0.27762,0.32074
1694639206601562,-8.397538,0.680194,5.294761,0.38891,0.29562,0.25574
1694639206609375,-8.390538,0.680194,5.314761,0.34091,0.37262,0.33574
1694639206617187,-8.379538,0.689194,5.310761,0.43891,0.28162,0.30274
1694639206625000,-8.381538,0.702194,5.303761,0.42091,0.29262,0.32074
1694639206632812,-8.388538,0.696194,5.294761,0.43691,0.27762,0.28874
1694639206640625,-8.389538,0.695194,5.298761,0.42491,0.34762,0.30174
1694639206648437,-8.399538,0.702194,5.294761,0.37091,0.33762,0.32074
1694639206656250,-8.406538,0.686194,5.301761,0.26091,0.27962,0.30374
1694639206664062,-8.397538,0.675194,5.299761,0.30891,0.32562,0.30374
1694639206671875,-8.399538,0.673194,5.289761,0.32591,0.28162,0.25474
1694639206679687,-8.402538,0.676194,5.276761,0.16191,0.29262,0.30474
1694639206687500,-8.401538,0.671194,5.276761,0.26191,0.32762,0.31874
1694639206695312,-8.400538,0.664194,5.299761,0.27491,0.24662,0.28874
1694639206703125,-8.393538,0.660194,5.312761,0.26191,0.24962,0.31874
1694639206710937,-8.388538,0.662194,5.312761,0.35691,0.29262,0.36874
1694639206718750,-8.378538,0.667194,5.310761,0.28891,0.32062,0.33774
1694639206726562,-8.386538,0.658194,5.303761,0.28991,0.21362,0.24074
1694639206734375,-8.367538,0.657194,5.292761,0.25491,0.19462,0.25874
1694639206742187,-8.373538,0.652194,5.299761,0.33891,0.15062,0.28874
1694639206750000,-8.386538,0.667194,5.296761,0.40391,0.13562,0.30474
1694639206757812,-8.392538,0.680194,5.298761,0.40591,0.17062,0.25574
1694639206765625,-8.403538,0.680194,5.317761,0.40791,0.17262,0.27074
1694639206773437,-8.412538,0.706194,5.317761,0.42391,0.15662,0.31874
1694639206781250,-8.415538,0.691194,5.310761,0.42291,0.24762,0.35174
1694639206789062,-8.415538,0.689194,5.276761,0.35591,0.22862,0.35274
1694639206796875,-8.410538,0.697194,5.253761,0.45591,0.26562,0.33474
1694639206804687,-8.412538,0.697194,5.242761,0.37491,0.24962,0.30274
1694639206812500,-8.406538,0.700194,5.267761,0.35691,0.31062,0.31974
1694639206820312,-8.410538,0.700194,5.285761,0.35491,0.24462,0.30474
1694639206828125,-8.399538,0.704194,5.292761,0.42091,0.21562,0.32074
1694639206835937,-8.387538,0.706194,5.296761,0.43991,0.23462,0.30274
1694639206843750,-8.388538,0.705194,5.294761,0.42191,0.16862,0.31974
1694639206851562,-8.393538,0.705194,5.294761,0.39991,0.20762,0.30674
1694639206859375,-8.390538,0.709194,5.303761,0.39191,0.29662,0.35074
1694639206867187,-8.383538,0.713194,5.276761,0.39291,0.23562,0.35074
1694639206875000,-8.359538,0.705194,5.265761,0.40291,0.29162,0.30474
1694639206882812,-8.352538,0.674194,5.237761,0.27991,0.26762,0.31874
1694639206890625,-8.394538,0.671194,5.249761,0.28091,0.14462,0.30174
1694639206898437,-8.426538,0.671194,5.253761,0.27591,0.5762,0.32074
1694639206906250,-8.457538,0.679194,5.231761,0.26091,0.2862,0.27174
1694639206914062,-8.477538,0.678194,5.235761,0.29491,0.10962,0.25474
1694639206921875,-8.486538,0.676194,5.237761,0.39391,0.14462,0.30174
1694639206929687,-8.502538,0.681194,5.244761,0.34091,0.10662,0.28774
1694639206937500,-8.504538,0.674194,5.238761,0.43891,0.20162,0.30374
1694639206945312,-8.507538,0.676194,5.229761,0.41991,0.22862,0.35274
1694639206953125,-8.496538,0.681194,5.217761,0.43591,0.29162,0.33674
1694639206960937,-8.464538,0.692194,5.219761,0.42291,0.26362,0.35174
1694639206968750,-8.427538,0.694194,5.219761,0.44291,0.19162,0.33374
1694639206976562,-8.408538,0.715194,5.235761,0.43791,0.16862,0.28874
1694639206984375,-8.391538,0.703194,5.267761,0.39891,0.16162,0.22674
1694639206992187,-8.368538,0.687194,5.292761,0.32191,0.15162,0.19274
1694639207000000,-8.379538,0.676194,5.301761,0.38591,0.22962,0.20874
1694639207007812,-8.386538,0.662194,5.307761,0.34291,0.29962,0.22274
1694639207015625,-8.388538,0.655194,5.312761,0.35691,0.31262,0.20774
1694639207023437,-8.397538,0.657194,5.314761,0.35891,0.36062,0.28674
1694639207031250,-8.417538,0.659194,5.301761,0.36091,0.36462,0.25374
1694639207039062,-8.438538,0.653194,5.280761,0.34091,0.27962,0.23974
1694639207046875,-8.448538,0.670194,5.262761,0.37391,0.29762,0.22274
1694639207054687,-8.482538,0.665194,5.231761,0.39091,0.22162,0.17474
1694639207062500,-8.493538,0.665194,5.233761,0.42191,0.29762,0.22274
1694639207070312,-8.493538,0.654194,5.213761,0.37691,0.23862,0.23774
1694639207078125,-8.483538,0.675194,5.208761,0.35391,0.19562,0.28974
1694639207085937,-8.464538,0.672194,5.204761,0.45491,0.21762,0.28774
1694639207093750,-8.439538,0.686194,5.222761,0.40791,0.28362,0.30274
1694639207101562,-8.428538,0.679194,5.237761,0.40891,0.39462,0.28574
1694639207109375,-8.414538,0.683194,5.251761,0.33091,0.35062,0.30074
1694639207117187,-8.405538,0.672194,5.260761,0.20091,0.30162,0.31774
1694639207125000,-8.410538,0.675194,5.276761,0.37691,0.33162,0.25374
1694639207132812,-8.412538,0.666194,5.292761,0.37491,0.31462,0.23874
1694639207140625,-8.430538,0.661194,5.319761,0.29591,0.33362,0.20574
1694639207148437,-8.431538,0.657194,5.317761,0.38791,0.34262,0.22374
1694639207156250,-8.433538,0.659194,5.294761,0.37191,0.40462,0.20774
1694639207164062,-8.428538,0.666194,5.269761,0.16191,0.37262,0.22374
1694639207171875,-8.425538,0.685194,5.240761,0.33291,0.33062,0.27574
1694639207179687,-8.415538,0.670194,5.219761,0.43991,0.31462,0.25474
1694639207187500,-8.424538,0.673194,5.195761,0.45491,0.31262,0.30274
1694639207195312,-8.446538,0.686194,5.199761,0.43491,0.41562,0.33674
1694639207203125,-8.469538,0.674194,5.201761,0.45391,0.35762,0.31974
1694639207210937,-8.474538,0.653194,5.208761,0.49891,0.33662,0.30574
1694639207218750,-8.472538,0.637194,5.224761,0.49991,0.36962,0.32074
1694639207226562,-8.469538,0.645194,5.235761,0.48691,0.39062,0.28674
1694639207234375,-8.458538,0.637194,5.235761,0.47091,0.37562,0.27074
1694639207242187,-8.437538,0.636194,5.228761,0.42691,0.33362,0.30174
1694639207250000,-8.424538,0.666194,5.235761,0.46891,0.33962,0.32074
1694639207257812,-8.423538,0.675194,5.265761,0.44191,0.31662,0.30174
1694639207265625,-8.436538,0.674194,5.273761,0.42891,0.24162,0.33274
1694639207273437,-8.453538,0.681194,5.280761,0.43791,0.27962,0.28774
1694639207281250,-8.451538,0.699194,5.281761,0.41991,0.25962,0.32074
1694639207289062,-8.454538,0.719194,5.271761,0.43791,0.21762,0.27174
1694639207296875,-8.457538,0.708194,5.267761,0.42291,0.32862,0.28674
1694639207304687,-8.426538,0.706194,5.260761,0.46691,0.38462,0.28874
1694639207312500,-8.410538,0.708194,5.260761,0.55091,0.45362,0.23974
1694639207320312,-8.408538,0.707194,5.276761,0.54691,0.39862,0.35374
1694639207328125,-8.401538,0.715194,5.290761,0.53291,0.44862,0.33674
1694639207335937,-8.379538,0.716194,5.296761,0.48491,0.44862,0.35274
1694639207343750,-8.381538,0.732194,5.292761,0.62791,0.39862,0.35374
1694639207351562,-8.387538,0.718194,5.285761,0.40491,0.40362,0.33574
1694639207359375,-8.408538,0.718194,5.265761,0.53391,0.43362,0.36874
1694639207367187,-8.421538,0.713194,5.240761,0.59691,0.35362,0.32074
1694639207375000,-8.448538,0.690194,5.242761,0.42191,0.34162,0.31974
1694639207382812,-8.453538,0.679194,5.224761,0.43791,0.37262,0.35174
1694639207390625,-8.455538,0.672194,5.224761,0.42291,0.37462,0.33474
1694639207398437,-8.452538,0.674194,5.222761,0.44291,0.39562,0.30174
1694639207406250,-8.430538,0.679194,5.224761,0.42591,0.36262,0.31774
1694639207414062,-8.425538,0.683194,5.222761,0.42491,0.37862,0.26974
1694639207421875,-8.412538,0.702194,5.228761,0.43691,0.31062,0.23974
1694639207429687,-8.408538,0.704194,5.233761,0.42091,0.29362,0.30474
1694639207437500,-8.426538,0.700194,5.226761,0.43191,0.38162,0.30674
1694639207445312,-8.457538,0.706194,5.238761,0.45391,0.34162,0.31974
1694639207453125,-8.464538,0.706194,5.256761,0.46891,0.32462,0.30474
1694639207460937,-8.437538,0.679194,5.271761,0.48591,0.34162,0.30374
1694639207468750,-8.448538,0.672194,5.280761,0.43791,0.34162,0.30374
1694639207476562,-8.444538,0.693194,5.278761,0.43491,0.38462,0.30474
1694639207484375,-8.432538,0.692194,5.258761,0.42291,0.37462,0.31874
1694639207492187,-8.421538,0.700194,5.265761,0.43591,0.37162,0.30474
1694639207500000,-8.408538,0.709194,5.278761,0.41991,0.38662,0.32074
1694639207507812,-8.421538,0.715194,5.296761,0.43791,0.41962,0.33574
1694639207515625,-8.414538,0.731194,5.321761,0.41991,0.46462,0.36874
1694639207523437,-8.424538,0.724194,5.328761,0.48091,0.41162,0.35474
1694639207531250,-8.430538,0.717194,5.332761,0.45391,0.51462,0.33574
1694639207539062,-8.448538,0.710194,5.314761,0.40791,0.50062,0.35074
1694639207546875,-8.453538,0.683194,5.305761,0.53491,0.41962,0.35174
1694639207554687,-8.422538,0.671194,5.271761,0.51691,0.37062,0.33674
1694639207562500,-8.406538,0.664194,5.256761,0.53291,0.38662,0.30474
1694639207570312,-8.386538,0.680194,5.265761,0.45091,0.36962,0.32074
1694639207578125,-8.379538,0.685194,5.278761,0.42191,0.32562,0.33574
1694639207585937,-8.383538,0.705194,5.260761,0.41991,0.36862,0.36874
1694639207593750,-8.383538,0.711194,5.265761,0.43891,0.37262,0.41574
1694639207601562,-8.410538,0.708194,5.271761,0.39191,0.39162,0.33474
1694639207609375,-8.419538,0.708194,5.274761,0.32391,0.40362,0.30374
1694639207617187,-8.450538,0.710194,5.271761,0.37391,0.37462,0.31874
1694639207625000,-8.477538,0.707194,5.265761,0.39091,0.38962,0.36674
1694639207632812,-8.497538,0.714194,5.269761,0.43491,0.36962,0.32074
1694639207640625,-8.488538,0.718194,5.276761,0.42391,0.39262,0.30274
1694639207648437,-8.484538,0.700194,5.294761,0.43991,0.42362,0.31874
1694639207656250,-8.464538,0.703194,5.292761,0.43891,0.40562,0.30374
1694639207664062,-8.433538,0.688194,5.267761,0.46891,0.51362,0.31974
1694639207671875,-8.419538,0.677194,5.235761,0.37291,0.51562,0.27174
1694639207679687,-8.386538,0.671194,5.238761,0.40191,0.63562,0.28874
1694639207687500,-8.348538,0.661194,5.235761,0.39991,0.58562,0.28974
1694639207695312,-8.326538,0.661194,5.235761,0.31991,0.60562,0.19274
1694639207703125,-8.323538,0.670194,5.258761,0.35391,0.46462,0.25674
1694639207710937,-8.321538,0.661194,5.280761,0.43691,0.51362,0.28774
1694639207718750,-8.330538,0.648194,5.298761,0.45091,0.44962,0.25674
1694639207726562,-8.342538,0.648194,5.332761,0.45091,0.41662,0.27274
1694639207734375,-8.353538,0.645194,5.350761,0.45191,0.45162,0.23974
1694639207742187,-8.348538,0.658194,5.350761,0.42291,0.37762,0.19074
1694639207750000,-8.370538,0.676194,5.346761,0.43391,0.38562,0.24074
1694639207757812,-8.392538,0.704194,5.308761,0.41991,0.34062,0.27274
1694639207765625,-8.410538,0.722194,5.296761,0.41691,0.30562,0.20974
1694639207773437,-8.425538,0.739194,5.271761,0.43491,0.38762,0.17674
1694639207781250,-8.438538,0.741194,5.262761,0.42191,0.31062,0.30374
1694639207789062,-8.448538,0.722194,5.267761,0.38591,0.38462,0.27274
1694639207796875,-8.450538,0.704194,5.253761,0.43591,0.37162,0.27274
1694639207804687,-8.447538,0.680194,5.258761,0.38391,0.38062,0.32274
1694639207812500,-8.443538,0.673194,5.267761,0.31891,0.45862,0.29074
1694639207820312,-8.425538,0.638194,5.276761,0.30391,0.54062,0.22574
1694639207828125,-8.393538,0.640194,5.285761,0.28691,0.66562,0.25774
1694639207835937,-8.385538,0.630194,5.290761,0.31991,0.58562,0.32174
1694639207843750,-8.349538,0.632194,5.308761,0.33791,0.62062,0.28874
1694639207851562,-8.316538,0.631194,5.330761,0.34991,0.61462,0.27474
1694639207859375,-8.288538,0.638194,5.344761,0.39991,0.58762,0.22574
1694639207867187,-8.311538,0.640194,5.375761,0.43191,0.53962,0.22574
1694639207875000,-8.341538,0.647194,5.382761,0.38991,0.32862,0.22374
1694639207882812,-8.353538,0.672194,5.380761,0.39891,0.38162,0.22674
1694639207890625,-8.374538,0.702194,5.355761,0.41991,0.42062,0.22374
1694639207898437,-8.401538,0.704194,5.328761,0.33691,0.41662,0.20974
1694639207906250,-8.413538,0.707194,5.285761,0.43391,0.38262,0.30574
1694639207914062,-8.429538,0.693194,5.294761,0.33691,0.35162,0.32174
1694639207921875,-8.444538,0.677194,5.310761,0.32691,0.42262,0.35074
1694639207929687,-8.449538,0.659194,5.312761,0.40391,0.38662,0.32074
1694639207937500,-8.433538,0.639194,5.323761,0.37291,0.38862,0.30374
1694639207945312,-8.422538,0.635194,5.321761,0.40391,0.37062,0.32074
1694639207953125,-8.373538,0.629194,5.312761,0.43991,0.37662,0.28674
1694639207960937,-8.320538,0.610194,5.312761,0.48291,0.49362,0.30574
1694639207968750,-8.282538,0.604194,5.326761,0.43691,0.43562,0.31974
1694639207976562,-8.275538,0.624194,5.339761,0.45091,0.36962,0.28874
1694639207984375,-8.277538,0.633194,5.373761,0.41791,0.38462,0.27274
1694639207992187,-8.281538,0.640194,5.400761,0.43591,0.37162,0.27274
1694639208000000,-8.313538,0.646194,5.405761,0.45291,0.38662,0.32074
1694639208007812,-8.341538,0.669194,5.396761,0.43991,0.34562,0.30274
1694639208015625,-8.357538,0.665194,5.377761,0.48791,0.28162,0.31874
1694639208023437,-8.381538,0.676194,5.353761,0.53391,0.35762,0.27174
1694639208031250,-8.389538,0.674194,5.321761,0.54691,0.32062,0.30574
1694639208039062,-8.406538,0.675194,5.301761,0.58191,0.29362,0.30474
1694639208046875,-8.412538,0.693194,5.265761,0.58491,0.32762,0.35074
1694639208054687,-8.413538,0.693194,5.285761,0.59691,0.35362,0.36874
1694639208062500,-8.416538,0.710194,5.307761,0.70091,0.30062,0.34974
1694639208070312,-8.437538,0.715194,5.328761,0.61091,0.28762,0.35374
1694639208078125,-8.441538,0.732194,5.332761,0.68191,0.40562,0.36674
1694639208085937,-8.434538,0.739194,5.344761,0.53791,0.39162,0.35074
1694639208093750,-8.422538,0.750194,5.346761,0.40791,0.42362,0.33474
1694639208101562,-8.402538,0.757194,5.350761,0.43791,0.40662,0.28774
1694639208109375,-8.389538,0.753194,5.346761,0.42391,0.43862,0.33474
1694639208117187,-8.378538,0.747194,5.348761,0.43591,0.38662,0.27274
1694639208125000,-8.358538,0.743194,5.375761,0.43591,0.37162,0.28874
1694639208132812,-8.372538,0.727194,5.387761,0.41691,0.39862,0.28974
1694639208140625,-8.372538,0.713194,5.389761,0.40591,0.40662,0.23974
1694639208148437,-8.355538,0.705194,5.387761,0.43291,0.41462,0.28974
1694639208156250,-8.350538,0.703194,5.389761,0.41691,0.54062,0.24174
1694639208164062,-8.341538,0.685194,5.384761,0.43491,0.52962,0.20774
1694639208171875,-8.320538,0.683194,5.380761,0.42091,0.61062,0.22274
1694639208179687,-8.312538,0.685194,5.377761,0.53391,0.57762,0.22374
1694639208187500,-8.316538,0.692194,5.377761,0.51791,0.46862,0.25574
1694639208195312,-8.334538,0.710194,5.387761,0.43591,0.43562,0.23974
1694639208203125,-8.363538,0.734194,5.375761,0.45291,0.38962,0.20774
1694639208210937,-8.372538,0.756194,5.357761,0.44891,0.41462,0.22574
1694639208218750,-8.369538,0.744194,5.341761,0.40491,0.46862,0.23974
1694639208226562,-8.380538,0.755194,5.341761,0.42191,0.37562,0.20774
1694639208234375,-8.400538,0.744194,5.339761,0.35591,0.40462,0.22374
1694639208242187,-8.405538,0.742194,5.317761,0.33991,0.41962,0.23974
1694639208250000,-8.403538,0.742194,5.328761,0.26091,0.39062,0.25574
1694639208257812,-8.396538,0.713194,5.332761,0.37291,0.46862,0.25574
1694639208265625,-8.394538,0.720194,5.332761,0.37291,0.51462,0.30374
1694639208273437,-8.387538,0.715194,5.366761,0.28991,0.65362,0.28874
1694639208281250,-8.372538,0.716194,5.380761,0.28991,0.59162,0.23974
1694639208289062,-8.356538,0.702194,5.418761,0.22691,0.46862,0.20774
1694639208296875,-8.359538,0.696194,5.439761,0.33891,0.49762,0.22374
1694639208304687,-8.345538,0.676194,5.445761,0.33991,0.40662,0.19174
1694639208312500,-8.329538,0.665194,5.420761,0.39091,0.53462,0.20674
1694639208320312,-8.328538,0.641194,5.400761,0.43491,0.46562,0.20874
1694639208328125,-8.316538,0.643194,5.384761,0.42491,0.41262,0.15774
1694639208335937,-8.330538,0.656194,5.373761,0.43791,0.37562,0.20774
1694639208343750,-8.336538,0.676194,5.348761,0.42391,0.41062,0.22174
1694639208351562,-8.333538,0.702194,5.370761,0.52391,0.50962,0.20474
1694639208359375,-8.317538,0.731194,5.377761,0.66791,0.53862,0.23674
1694639208367187,-8.316538,0.734194,5.384761,0.64691,0.46662,0.28774
1694639208375000,-8.315538,0.738194,5.377761,0.58791,0.63162,0.31674
1694639208382812,-8.319538,0.731194,5.377761,0.71791,0.61862,0.30074
1694639208390625,-8.306538,0.727194,5.371761,0.63391,0.56562,0.31774
1694639208398437,-8.282538,0.724194,5.366761,0.53491,0.39062,0.28674
1694639208406250,-8.264538,0.712194,5.366761,0.45791,0.37862,0.30174
1694639208414062,-8.237538,0.704194,5.362761,0.44091,0.31462,0.33474
1694639208421875,-8.220538,0.693194,5.382761,0.42391,0.28062,0.36674
1694639208429687,-8.229538,0.677194,5.404761,0.40991,0.30062,0.30174
1694639208437500,-8.252538,0.660194,5.429761,0.35891,0.26562,0.31874
1694639208445312,-8.280538,0.652194,5.463761,0.20191,0.14662,0.31674
1694639208453125,-8.330538,0.652194,5.452761,0.35991,0.18762,0.35074
1694639208460937,-8.353538,0.665194,5.425761,0.43691,0.16862,0.27274
1694639208468750,-8.363538,0.684194,5.418761,0.44091,0.15862,0.27074
1694639208476562,-8.368538,0.703194,5.407761,0.40391,0.21362,0.32074
1694639208484375,-8.374538,0.713194,5.398761,0.53691,0.24962,0.36674
1694639208492187,-8.374538,0.736194,5.382761,0.64791,0.15362,0.31974
1694639208500000,-8.371538,0.747194,5.366761,0.68091,0.18662,0.31974
1694639208507812,-8.360538,0.740194,5.348761,0.65291,0.14562,0.30174
1694639208515625,-8.360538,0.738194,5.346761,0.56691,0.15362,0.31974
1694639208523437,-8.367538,0.718194,5.366761,0.47091,0.18662,0.28774
1694639208531250,-8.360538,0.722194,5.371761,0.45891,0.12962,0.30174
1694639208539062,-8.358538,0.727194,5.389761,0.48691,0.26662,0.23874
1694639208546875,-8.347538,0.718194,5.398761,0.45291,0.23162,0.27274
1694639208554687,-8.338538,0.707194,5.389761,0.42391,0.23462,0.31874
1694639208562500,-8.329538,0.701194,5.387761,0.55291,0.20362,0.30274
1694639208570312,-8.334538,0.696194,5.393761,0.50291,0.15262,0.31974
1694639208578125,-8.336538,0.694194,5.400761,0.63691,0.17662,0.30174
1694639208585937,-8.330538,0.699194,5.393761,0.70791,0.20162,0.31474
1694639208593750,-8.333538,0.702194,5.409761,0.68591,0.20962,0.30074
1694639208601562,-8.340538,0.700194,5.409761,0.71591,0.17662,0.22174
1694639208609375,-8.342538,0.700194,5.407761,0.81691,0.19562,0.31674
1694639208617187,-8.349538,0.707194,5.398761,0.76391,0.7962,0.28674
1694639208625000,-8.357538,0.711194,5.382761,0.83391,0.7162,0.29974
1694639208632812,-8.359538,0.733194,5.384761,0.76991,0.18162,0.31574
1694639208640625,-8.364538,0.742194,5.357761,0.71891,0.17862,0.31674
1694639208648437,-8.360538,0.753194,5.319761,0.78091,0.15862,0.34974
1694639208656250,-8.355538,0.751194,5.319761,0.73391,0.17662,0.31774
1694639208664062,-8.346538,0.753194,5.321761,0.84891,0.22662,0.34874
1694639208671875,-8.355538,0.766194,5.325761,0.79891,0.25362,0.38174
1694639208679687,-8.369538,0.767194,5.335761,0.77691,0.13762,0.31974
1694639208687500,-8.382538,0.773194,5.319761,0.76091,0.11962,0.41674
1694639208695312,-8.385538,0.782194,5.310761,0.71091,0.18062,0.40174
1694639208703125,-8.377538,0.780194,5.328761,0.68191,0.24762,0.43174
1694639208710937,-8.360538,0.780194,5.348761,0.69591,0.18162,0.44874
1694639208718750,-8.342538,0.787194,5.362761,0.64991,0.24762,0.39974
1694639208726562,-8.346538,0.800194,5.373761,0.60391,0.22062,0.41374
1694639208734375,-8.346538,0.780194,5.382761,0.55591,0.15862,0.38174
1694639208742187,-8.353538,0.782194,5.380761,0.45591,0.15462,0.33574
1694639208750000,-8.371538,0.778194,5.389761,0.50291,0.15262,0.38374
1694639208757812,-8.375538,0.796194,5.375761,0.43691,0.16862,0.27274
1694639208765625,-8.389538,0.811194,5.342761,0.43691,0.15062,0.33674
1694639208773437,-8.399538,0.806194,5.335761,0.45791,0.12762,0.28674
1694639208781250,-8.408538,0.817194,5.314761,0.42491,0.14362,0.27074
1694639208789062,-8.422538,0.815194,5.305761,0.43791,0.13762,0.31974
1694639208796875,-8.422538,0.815194,5.323761,0.42091,0.18162,0.36874
1694639208804687,-8.418538,0.817194,5.342761,0.43691,0.13562,0.32074
1694639208812500,-8.404538,0.815194,5.332761,0.42091,0.23062,0.27274
1694639208820312,-8.401538,0.817194,5.359761,0.43991,0.23462,0.31874
1694639208828125,-8.388538,0.806194,5.366761,0.42691,0.38062,0.33374
1694639208835937,-8.370538,0.797194,5.368761,0.39491,0.35162,0.26874
1694639208843750,-8.359538,0.791194,5.359761,0.39291,0.39462,0.28574
1694639208851562,-8.333538,0.781194,5.348761,0.33791,0.33862,0.24074
1694639208859375,-8.319538,0.780194,5.350761,0.31091,0.26762,0.22274
1694639208867187,-8.306538,0.776194,5.348761,0.27691,0.25062,0.23874
1694639208875000,-8.308538,0.767194,5.348761,0.32691,0.14162,0.25474
1694639208882812,-8.305538,0.769194,5.346761,0.39291,0.16062,0.22174
1694639208890625,-8.313538,0.763194,5.335761,0.43491,0.19862,0.19274
1694639208898437,-8.326538,0.767194,5.330761,0.44091,0.25462,0.22174
1694639208906250,-8.360538,0.764194,5.339761,0.40691,0.17262,0.20674
1694639208914062,-8.383538,0.758194,5.346761,0.45291,0.12262,0.22474
1694639208921875,-8.387538,0.744194,5.332761,0.41991,0.20062,0.20874
1694639208929687,-8.391538,0.742194,5.337761,0.42391,0.20562,0.20674
1694639208937500,-8.399538,0.729194,5.330761,0.43591,0.13662,0.20874
1694639208945312,-8.389538,0.726194,5.296761,0.39191,0.17462,0.20674
1694639208953125,-8.371538,0.733194,5.294761,0.30991,0.20362,0.22274
1694639208960937,-8.381538,0.740194,5.310761,0.36991,0.13462,0.22574
1694639208968750,-8.385538,0.742194,5.321761,0.40291,0.10462,0.20874
1694639208976562,-8.392538,0.747194,5.323761,0.38891,0.5962,0.22374
1694639208984375,-8.404538,0.766194,5.321761,0.40791,0.14362,0.20674
1694639208992187,-8.413538,0.768194,5.332761,0.43991,0.12662,0.22274
1694639209000000,-8.414538,0.766194,5.335761,0.43691,0.29562,0.23974
1694639209007812,-8.409538,0.766194,5.332761,0.42091,0.15362,0.20874
1694639209015625,-8.409538,0.768194,5.312761,0.43691,0.24862,0.22374
1694639209023437,-8.398538,0.766194,5.294761,0.39091,0.23462,0.25474
1694639209031250,-8.382538,0.771194,5.294761,0.43591,0.18262,0.24074
1694639209039062,-8.374538,0.769194,5.296761,0.38591,0.16562,0.24174
1694639209046875,-8.361538,0.784194,5.298761,0.37691,0.17662,0.22174
1694639209054687,-8.355538,0.804194,5.323761,0.35891,0.17262,0.30274
1694639209062500,-8.376538,0.810194,5.332761,0.31391,0.16262,0.25274
1694639209070312,-8.399538,0.797194,5.335761,0.34391,0.15862,0.25474
1694639209078125,-8.417538,0.779194,5.303761,0.35991,0.15862,0.27074
1694639209085937,-8.427538,0.775194,5.285761,0.32491,0.20162,0.23974
1694639209093750,-8.434538,0.772194,5.299761,0.22891,0.9262,0.23974
1694639209101562,-8.453538,0.765194,5.319761,0.23291,0.17862,0.20474
1694639209109375,-8.449538,0.768194,5.319761,0.30591,0.32462,0.20874
1694639209117187,-8.433538,0.777194,5.294761,0.27491,0.29562,0.15974
1694639209125000,-8.418538,0.773194,5.271761,0.33991,0.29562,0.15974
1694639209132812,-8.404538,0.766194,5.262761,0.35891,0.28362,0.20674
1694639209140625,-8.389538,0.769194,5.233761,0.38791,0.24662,0.22474
1694639209148437,-8.360538,0.767194,5.224761,0.40091,0.21262,0.20974
1694639209156250,-8.356538,0.781194,5.235761,0.33691,0.16562,0.22574
1694639209164062,-8.344538,0.778194,5.258761,0.37391,0.15562,0.22374
1694639209171875,-8.336538,0.774194,5.269761,0.28891,0.16562,0.22574
1694639209179687,-8.345538,0.777194,5.294761,0.22191,0.14562,0.21074
1694639209187500,-8.354538,0.767194,5.296761,0.25591,0.14962,0.17774
1694639209195312,-8.373538,0.774194,5.292761,0.29091,0.16662,0.25674
1694639209203125,-8.389538,0.755194,5.280761,0.29391,0.10762,0.31974
1694639209210937,-8.394538,0.751194,5.294761,0.32491,0.16762,0.36774
1694639209218750,-8.392538,0.740194,5.294761,0.30591,0.14862,0.30574
1694639209226562,-8.408538,0.727194,5.299761,0.32391,0.16662,0.35274
1694639209234375,-8.410538,0.711194,5.323761,0.32491,0.7262,0.36874
1694639209242187,-8.414538,0.733194,5.305761,0.35591,0.4262,0.27274
1694639209250000,-8.425538,0.750194,5.294761,0.40991,0.6562,0.26974
1694639209257812,-8.425538,0.770194,5.285761,0.43891,0.12362,0.27174
1694639209265625,-8.427538,0.786194,5.271761,0.42291,0.9262,0.23974
1694639209273437,-8.424538,0.792194,5.249761,0.43891,0.10862,0.30374
1694639209281250,-8.426538,0.799194,5.235761,0.42391,0.11062,0.23874
1694639209289062,-8.422538,0.799194,5.240761,0.43691,0.8862,0.32074
1694639209296875,-8.427538,0.808194,5.238761,0.41891,0.11862,0.25774
1694639209304687,-8.442538,0.794194,5.242761,0.43891,0.10862,0.25574
1694639209312500,-8.440538,0.784194,5.260761,0.38791,0.15062,0.30474
1694639209320312,-8.429538,0.779194,5.285761,0.33991,0.15362,0.25674
1694639209328125,-8.422538,0.782194,5.301761,0.27491,0.24662,0.25674
1694639209335937,-8.411538,0.779194,5.310761,0.30791,0.21462,0.30474
1694639209343750,-8.393538,0.802194,5.310761,0.21091,0.27762,0.32074
1694639209351562,-8.389538,0.809194,5.310761,0.25891,0.19762,0.33674
1694639209359375,-8.382538,0.820194,5.294761,0.32491,0.12162,0.27174
1694639209367187,-8.399538,0.815194,5.278761,0.35891,0.14162,0.25474
1694639209375000,-8.411538,0.822194,5.258761,0.40591,0.13762,0.30374
1694639209382812,-8.412538,0.814194,5.269761,0.37691,0.12762,0.30274
1694639209390625,-8.451538,0.812194,5.274761,0.37591,0.20362,0.33474
1694639209398437,-8.480538,0.798194,5.267761,0.27591,0.16862,0.25674
1694639209406250,-8.484538,0.782194,5.253761,0.31191,0.19162,0.20574
1694639209414062,-8.485538,0.782194,5.242761,0.30991,0.20362,0.22274
1694639209421875,-8.462538,0.769194,5.242761,0.40691,0.34362,0.30274
1694639209429687,-8.422538,0.764194,5.233761,0.42091,0.37362,0.23974
1694639209437500,-8.425538,0.757194,5.238761,0.35391,0.29162,0.20874
1694639209445312,-8.417538,0.768194,5.226761,0.40891,0.31662,0.26974
1694639209453125,-8.418538,0.754194,5.237761,0.39191,0.25262,0.27074
1694639209460937,-8.408538,0.763194,5.253761,0.37891,0.31962,0.26874
1694639209468750,-8.402538,0.753194,5.260761,0.35891,0.31462,0.27074
1694639209476562,-8.400538,0.755194,5.244761,0.35991,0.31462,0.28674
1694639209484375,-8.395538,0.762194,5.231761,0.42191,0.28162,0.20674
1694639209492187,-8.395538,0.777194,5.222761,0.42391,0.31462,0.25474
1694639209500000,-8.409538,0.790194,5.224761,0.35791,0.21762,0.28774
1694639209507812,-8.406538,0.802194,5.222761,0.45391,0.16862,0.30374
1694639209515625,-8.408538,0.808194,5.228761,0.37491,0.20362,0.30274
1694639209523437,-8.422538,0.795194,5.238761,0.35691,0.16862,0.33574
1694639209531250,-8.440538,0.783194,5.251761,0.31391,0.17562,0.30174
1694639209539062,-8.442538,0.776194,5.260761,0.32991,0.20662,0.31774
1694639209546875,-8.442538,0.776194,5.233761,0.31491,0.16162,0.30074
1694639209554687,-8.429538,0.767194,5.215761,0.23291,0.20662,0.30174
1694639209562500,-8.424538,0.768194,5.217761,0.32691,0.24962,0.31874
1694639209570312,-8.415538,0.765194,5.217761,0.26791,0.24162,0.34874
1694639209578125,-8.400538,0.769194,5.229761,0.25991,0.19962,0.35274
1694639209585937,-8.408538,0.781194,5.244761,0.24891,0.15962,0.33374
1694639209593750,-8.405538,0.789194,5.244761,0.24291,0.15062,0.36874
1694639209601562,-8.404538,0.786194,5.240761,0.23091,0.21862,0.35074
1694639209609375,-8.411538,0.783194,5.226761,0.19991,0.17362,0.33474
1694639209617187,-8.413538,0.779194,5.220761,0.16291,0.12162,0.30374
1694639209625000,-8.429538,0.781194,5.228761,0.18291,0.14262,0.30274
1694639209632812,-8.442538,0.774194,5.233761,0.16891,0.14462,0.31774
1694639209640625,-8.458538,0.778194,5.235761,0.18191,0.12562,0.28674
1694639209648437,-8.467538,0.763194,5.238761,0.24591,0.21862,0.30274
1694639209656250,-8.456538,0.738194,5.267761,0.19991,0.26862,0.31774
1694639209664062,-8.490538,0.718194,5.274761,0.16591,0.18962,0.27074
1694639209671875,-8.495538,0.698194,5.271761,0.18391,0.14462,0.25374
1694639209679687,-8.492538,0.698194,5.260761,0.16691,0.14462,0.22174
1694639209687500,-8.454538,0.698194,5.219761,0.16691,0.20762,0.23774
1694639209695312,-8.417538,0.695194,5.201761,0.16291,0.26362,0.27174
1694639209703125,-8.390538,0.693194,5.222761,0.9891,0.23262,0.23974
1694639209710937,-8.383538,0.700194,5.222761,0.13291,0.20262,0.30274
1694639209718750,-8.378538,0.711194,5.228761,0.26391,0.18962,0.31874
1694639209726562,-8.401538,0.733194,5.251761,0.32191,0.11862,0.27374
1694639209734375,-8.411538,0.746194,5.283761,0.34291,0.17262,0.27074
1694639209742187,-8.423538,0.762194,5.281761,0.38791,0.18162,0.35274
1694639209750000,-8.423538,0.768194,5.269761,0.40491,0.19962,0.32074
1694639209757812,-8.418538,0.790194,5.256761,0.29191,0.19962,0.32074
1694639209765625,-8.404538,0.797194,5.231761,0.34491,0.28262,0.43074
1694639209773437,-8.408538,0.785194,5.224761,0.29791,0.19062,0.38174
1694639209781250,-8.410538,0.792194,5.256761,0.24791,0.15762,0.35074
1694639209789062,-8.422538,0.785194,5.251761,0.18291,0.17362,0.33474
1694639209796875,-8.418538,0.779194,5.251761,0.18091,0.15462,0.33574
1694639209804687,-8.420538,0.739194,5.237761,0.11691,0.12562,0.27074
1694639209812500,-8.443538,0.719194,5.238761,0.17791,0.7562,0.17674
1694639209820312,-8.461538,0.710194,5.231761,0.6691,0.9262,0.20774
1694639209828125,-8.481538,0.709194,5.204761,0.13491,0.14462,0.25374
1694639209835937,-8.487538,0.727194,5.179761,0.18391,0.12962,0.22174
1694639209843750,-8.489538,0.738194,5.176761,0.21591,0.25362,0.25374
1694639209851562,-8.493538,0.737194,5.179761,0.17091,0.30562,0.31574
1694639209859375,-8.486538,0.730194,5.199761,0.35491,0.29362,0.24074
1694639209867187,-8.477538,0.741194,5.168761,0.30791,0.32362,0.32074
1694639209875000,-8.467538,0.741194,5.174761,0.32591,0.26562,0.28674
1694639209882812,-8.436538,0.746194,5.168761,0.17991,0.24762,0.30374
1694639209890625,-8.405538,0.749194,5.186761,0.15891,0.22462,0.32274
1694639209898437,-8.374538,0.745194,5.192761,0.17891,0.19962,0.30474
1694639209906250,-8.344538,0.747194,5.219761,0.16491,0.13862,0.31974
1694639209914062,-8.347538,0.745194,5.253761,0.16391,0.10562,0.30374
1694639209921875,-8.369538,0.747194,5.274761,0.10091,0.9162,0.35174
1694639209929687,-8.385538,0.742194,5.274761,0.8491,0.6062,0.35174
1694639209937500,-8.408538,0.725194,5.265761,0.9491,0.8462,0.32174
1694639209945312,-8.422538,0.725194,5.240761,0.7791,0.14462,0.33874
1694639209953125,-8.437538,0.728194,5.222761,0.18091,0.5862,0.39974
1694639209960937,-8.456538,0.750194,5.215761,0.14991,0.6638,0.39974
1694639209968750,-8.478538,0.765194,5.204761,0.23091,0.3238,0.33574
1694639209976562,-8.467538,0.768194,5.204761,0.27791,0.4362,0.35174
1694639209984375,-8.469538,0.754194,5.185761,0.36291,0.11362,0.33374
1694639209992187,-8.459538,0.737194,5.183761,0.43691,0.11962,0.32074
1694639210000000,-8.481538,0.729194,5.163761,0.40991,0.14262,0.33474
1694639210007812,-8.521538,0.740194,5.177761,0.34191,0.13962,0.30374
1694639210015625,-8.546538,0.744194,5.190761,0.24691,0.12562,0.28674
1694639210023437,-8.543538,0.743194,5.163761,0.20191,0.16162,0.30074
1694639210031250,-8.525538,0.739194,5.125761,0.16891,0.14462,0.31774
1694639210039062,-8.516538,0.735194,5.127761,0.18691,0.13262,0.31674
1694639210046875,-8.495538,0.729194,5.140761,0.16391,0.13862,0.28774
1694639210054687,-8.497538,0.736194,5.170761,0.22991,0.18762,0.27074
1694639210062500,-8.499538,0.740194,5.204761,0.23091,0.15862,0.23874
1694639210070312,-8.508538,0.749194,5.240761,0.21191,0.13962,0.19174
1694639210078125,-8.505538,0.767194,5.233761,0.35791,0.18862,0.17474
1694639210085937,-8.495538,0.765194,5.202761,0.38491,0.24362,0.16174
1694639210093750,-8.494538,0.776194,5.177761,0.38591,0.30762,0.20874
1694639210101562,-8.503538,0.773194,5.138761,0.37391,0.17062,0.23974
1694639210109375,-8.501538,0.774194,5.134761,0.40391,0.18462,0.22474
1694639210117187,-8.487538,0.745194,5.129761,0.34291,0.12562,0.25474
1694639210125000,-8.470538,0.736194,5.149761,0.34091,0.20162,0.27174
1694639210132812,-8.448538,0.723194,5.179761,0.40591,0.26362,0.33574
1694639210140625,-8.452538,0.712194,5.204761,0.29591,0.31362,0.33474
1694639210148437,-8.454538,0.718194,5.201761,0.31491,0.30162,0.34874
1694639210156250,-8.468538,0.728194,5.183761,0.37091,0.30662,0.33674
1694639210164062,-8.477538,0.730194,5.174761,0.30891,0.35662,0.38374
1694639210171875,-8.477538,0.732194,5.181761,0.22791,0.34162,0.33574
1694639210179687,-8.499538,0.714194,5.195761,0.25991,0.32562,0.30374
1694639210187500,-8.510538,0.711194,5.201761,0.26091,0.31262,0.28674
1694639210195312,-8.504538,0.718194,5.183761,0.30691,0.24662,0.25674
1694639210203125,-8.493538,0.707194,5.154761,0.42191,0.34162,0.31974
1694639210210937,-8.472538,0.705194,5.125761,0.35791,0.35962,0.27174
1694639210218750,-8.448538,0.710194,5.102761,0.34191,0.32862,0.25474
1694639210226562,-8.419538,0.717194,5.97761,0.37291,0.35762,0.30374
1694639210234375,-8.409538,0.717194,5.102761,0.35891,0.28162,0.30274
1694639210242187,-8.421538,0.728194,5.134761,0.34191,0.32562,0.35174
1694639210250000,-8.423538,0.741194,5.167761,0.16591,0.20262,0.35074
1694639210257812,-8.444538,0.745194,5.179761,0.16891,0.28662,0.30174
1694639210265625,-8.452538,0.745194,5.192761,0.21391,0.26462,0.35074
1694639210273437,-8.479538,0.743194,5.197761,0.21291,0.12062,0.38374
1694639210281250,-8.481538,0.745194,5.165761,0.26091,0.7462,0.33574
1694639210289062,-8.492538,0.749194,5.156761,0.26191,0.12362,0.33574
1694639210296875,-8.490538,0.743194,5.150761,0.21291,0.13662,0.39974
1694639210304687,-8.499538,0.723194,5.177761,0.21291,0.12062,0.36774
1694639210312500,-8.495538,0.725194,5.204761,0.34291,0.13862,0.35174
1694639210320312,-8.491538,0.741194,5.220761,0.41991,0.16462,0.38574
1694639210328125,-8.517538,0.736194,5.238761,0.27691,0.16762,0.33574
1694639210335937,-8.523538,0.749194,5.238761,0.34291,0.23462,0.33474
1694639210343750,-8.506538,0.745194,5.206761,0.29291,0.32562,0.36774
1694639210351562,-8.475538,0.721194,5.190761,0.33591,0.41462,0.25774
1694639210359375,-8.450538,0.705194,5.176761,0.27791,0.40762,0.30274
1694639210367187,-8.435538,0.681194,5.147761,0.26191,0.32762,0.31874
1694639210375000,-8.428538,0.684194,5.145761,0.32591,0.28162,0.30274
1694639210382812,-8.422538,0.672194,5.136761,0.26891,0.33862,0.31574
1694639210390625,-8.441538,0.672194,5.131761,0.34491,0.31562,0.30174
1694639210398437,-8.463538,0.683194,5.133761,0.39591,0.17762,0.31674
1694639210406250,-8.472538,0.696194,5.127761,0.44191,0.23562,0.36674
1694639210414062,-8.506538,0.700194,5.136761,0.45891,0.20662,0.33374
1694639210421875,-8.530538,0.708194,5.145761,0.42791,0.14662,0.33274
1694639210429687,-8.536538,0.706194,5.149761,0.44591,0.13262,0.34874
1694639210437500,-8.553538,0.711194,5.154761,0.42291,0.13962,0.31974
1694639210445312,-8.553538,0.722194,5.159761,0.43991,0.12362,0.36774
1694639210453125,-8.544538,0.740194,5.170761,0.42391,0.13862,0.38374
1694639210460937,-8.533538,0.740194,5.170761,0.43691,0.16662,0.38474
1694639210468750,-8.516538,0.740194,5.167761,0.37691,0.26762,0.33474
1694639210476562,-8.503538,0.740194,5.163761,0.31191,0.26662,0.36674
1694639210484375,-8.492538,0.722194,5.165761,0.37791,0.19162,0.33374
1694639210492187,-8.476538,0.722194,5.176761,0.39491,0.19162,0.33374
1694639210500000,-8.470538,0.714194,5.161761,0.32691,0.28062,0.35074
1694639210507812,-8.463538,0.729194,5.174761,0.26391,0.29862,0.35074
1694639210515625,-8.462538,0.760194,5.174761,0.23491,0.25462,0.39674
1694639210523437,-8.465538,0.747194,5.158761,0.29591,0.32962,0.38274
1694639210531250,-8.438538,0.736194,5.152761,0.29491,0.42262,0.35074
1694639210539062,-8.438538,0.745194,5.154761,0.32891,0.26662,0.44674
1694639210546875,-8.462538,0.740194,5.145761,0.26991,0.36962,0.36374
1694639210554687,-8.483538,0.734194,5.134761,0.29291,0.23262,0.31974
1694639210562500,-8.519538,0.722194,5.122761,0.26491,0.20662,0.30174
1694639210570312,-8.537538,0.706194,5.131761,0.22991,0.23462,0.31874
1694639210578125,-8.552538,0.712194,5.154761,0.18491,0.30162,0.30174
1694639210585937,-8.566538,0.717194,5.163761,0.35991,0.26762,0.31874
1694639210593750,-8.548538,0.710194,5.143761,0.34291,0.32962,0.27074
1694639210601562,-8.532538,0.706194,5.118761,0.23191,0.28462,0.26974
1694639210609375,-8.505538,0.709194,5.88761,0.24791,0.30062,0.28574
1694639210617187,-8.474538,0.698194,5.59761,0.18391,0.25362,0.30174
1694639210625000,-8.434538,0.703194,5.73761,0.13391,0.34462,0.31874
1694639210632812,-8.414538,0.701194,5.82761,0.21691,0.37962,0.30174
1694639210640625,-8.410538,0.682194,5.98761,0.21091,0.27762,0.32074
1694639210648437,-8.419538,0.670194,5.134761,0.16391,0.29662,0.27074
1694639210656250,-8.453538,0.674194,5.158761,0.17991,0.32762,0.23974
1694639210664062,-8.478538,0.672194,5.170761,0.16291,0.32562,0.25574
1694639210671875,-8.493538,0.674194,5.165761,0.21091,0.38862,0.30374
1694639210679687,-8.487538,0.672194,5.152761,0.15991,0.38462,0.25774
1694639210687500,-8.481538,0.674194,5.127761,0.13491,0.33162,0.31774
1694639210695312,-8.484538,0.678194,5.120761,0.18091,0.32762,0.33474
1694639210703125,-8.481538,0.678194,5.124761,0.16891,0.23962,0.30074
1694639210710937,-8.483538,0.709194,5.111761,0.24791,0.22062,0.35074
1694639210718750,-8.472538,0.710194,5.98761,0.16391,0.18562,0.30374
1694639210726562,-8.490538,0.692194,5.107761,0.24591,0.24962,0.30274
1694639210734375,-8.517538,0.691194,5.116761,0.18291,0.23562,0.31874
1694639210742187,-8.524538,0.689194,5.122761,0.21391,0.18762,0.30274
1694639210750000,-8.549538,0.675194,5.111761,0.22791,0.23062,0.32074
1694639210757812,-8.539538,0.666194,5.111761,0.29791,0.27162,0.30074
1694639210765625,-8.546538,0.657194,5.113761,0.18391,0.33362,0.28574
1694639210773437,-8.544538,0.652194,5.111761,0.18691,0.33662,0.31574
1694639210781250,-8.533538,0.639194,5.111761,0.20191,0.38162,0.30074
1694639210789062,-8.517538,0.637194,5.127761,0.30191,0.40262,0.31474
1694639210796875,-8.491538,0.635194,5.140761,0.24991,0.38162,0.30074
1694639210804687,-8.466538,0.631194,5.169761,0.26791,0.38562,0.25174
1694639210812500,-8.455538,0.639194,5.165761,0.40791,0.39262,0.30274
1694639210820312,-8.450538,0.636194,5.174761,0.39491,0.31762,0.34874
1694639210828125,-8.450538,0.663194,5.165761,0.44091,0.31362,0.36674
1694639210835937,-8.446538,0.677194,5.163761,0.29591,0.32962,0.36674
1694639210843750,-8.452538,0.685194,5.158761,0.21491,0.32662,0.44674
1694639210851562,-8.458538,0.711194,5.124761,0.31491,0.36362,0.39674
1694639210859375,-8.475538,0.708194,5.118761,0.32391,0.30562,0.41674
1694639210867187,-8.490538,0.720194,5.113761,0.37691,0.34262,0.49474
1694639210875000,-8.515538,0.711194,5.113761,0.41091,0.20462,0.46174
1694639210882812,-8.543538,0.706194,5.124761,0.42991,0.25662,0.41274
1694639210890625,-8.571538,0.677194,5.140761,0.28191,0.17262,0.47774
1694639210898437,-8.571538,0.639194,5.125761,0.39591,0.27062,0.36474
1694639210906250,-8.572538,0.621194,5.104761,0.26491,0.23562,0.43074
1694639210914062,-8.567538,0.599194,5.86761,0.38291,0.28962,0.44374
1694639210921875,-8.561538,0.600194,5.68761,0.32691,0.29662,0.35074
1694639210929687,-8.559538,0.602194,5.68761,0.39391,0.23862,0.30174
1694639210937500,-8.567538,0.617194,5.82761,0.41091,0.27162,0.31674
1694639210945312,-8.570538,0.644194,5.82761,0.40491,0.35562,0.35274
1694639210953125,-8.565538,0.666194,5.98761,0.47191,0.38962,0.41474
1694639210960937,-8.555538,0.697194,5.109761,0.48891,0.37662,0.33474
1694639210968750,-8.544538,0.722194,5.129761,0.56591,0.41762,0.33674
1694639210976562,-8.519538,0.724194,5.140761,0.48691,0.42162,0.33474
1694639210984375,-8.497538,0.718194,5.150761,0.46891,0.37062,0.32074
1694639210992187,-8.488538,0.723194,5.152761,0.43891,0.39062,0.31874
1694639211000000,-8.483538,0.714194,5.165761,0.43891,0.46762,0.35174
1694639211007812,-8.470538,0.714194,5.161761,0.47291,0.56562,0.33374
1694639211015625,-8.447538,0.705194,5.140761,0.32891,0.56662,0.36574
1694639211023437,-8.443538,0.699194,5.131761,0.34391,0.50262,0.31774
1694639211031250,-8.434538,0.703194,5.124761,0.39391,0.38062,0.31774
1694639211039062,-8.435538,0.677194,5.100761,0.33891,0.38662,0.30474
1694639211046875,-8.441538,0.670194,5.115761,0.42391,0.37662,0.31874
1694639211054687,-8.451538,0.650194,5.109761,0.38991,0.40662,0.27174
1694639211062500,-8.480538,0.641194,5.120761,0.35891,0.39262,0.23874
1694639211070312,-8.507538,0.638194,5.115761,0.35991,0.37862,0.23774
1694639211078125,-8.534538,0.642194,5.104761,0.32491,0.39062,0.22374
1694639211085937,-8.548538,0.638194,5.91761,0.35291,0.43462,0.16074
1694639211093750,-8.570538,0.626194,5.75761,0.38591,0.44962,0.19274
1694639211101562,-8.574538,0.612194,5.79761,0.39291,0.34762,0.25374
1694639211109375,-8.559538,0.618194,5.77761,0.43691,0.37362,0.22374
1694639211117187,-8.566538,0.602194,5.84761,0.38891,0.26462,0.20774
1694639211125000,-8.537538,0.596194,5.86761,0.43691,0.31162,0.22374
1694639211132812,-8.537538,0.613194,5.82761,0.38791,0.38962,0.20774
1694639211140625,-8.532538,0.625194,5.114761,0.43391,0.36762,0.28974
1694639211148437,-8.518538,0.647194,5.140761,0.38891,0.38862,0.28774
1694639211156250,-8.515538,0.678194,5.163761,0.38891,0.43562,0.30374
1694639211164062,-8.504538,0.707194,5.170761,0.40291,0.43162,0.33674
1694639211171875,-8.517538,0.715194,5.163761,0.44191,0.39362,0.33374
1694639211179687,-8.510538,0.714194,5.159761,0.43791,0.41962,0.33574
1694639211187500,-8.495538,0.703194,5.158761,0.42191,0.45262,0.31974
1694639211195312,-8.482538,0.694194,5.183761,0.38791,0.59062,0.33574
1694639211203125,-8.488538,0.687194,5.188761,0.27691,0.57862,0.31874
1694639211210937,-8.500538,0.681194,5.197761,0.17791,0.49762,0.23974
1694639211218750,-8.518538,0.674194,5.183761,0.14391,0.49562,0.22474
1694639211226562,-8.513538,0.676194,5.163761,0.9591,0.54462,0.20874
1694639211234375,-8.504538,0.663194,5.131761,0.3191,0.46662,0.22374
1694639211242187,-8.518538,0.653194,5.134761,0.4991,0.48362,0.27174
1694639211250000,-8.514538,0.661194,5.156761,0.4591,0.41562,0.22574
1694639211257812,-8.528538,0.647194,5.168761,0.12591,0.39862,0.22574
1694639211265625,-8.541538,0.625194,5.152761,0.19291,0.44862,0.28874
1694639211273437,-8.558538,0.621194,5.159761,0.13791,0.51762,0.30774
1694639211281250,-8.573538,0.607194,5.161761,0.28891,0.57162,0.32174
1694639211289062,-8.577538,0.604194,5.131761,0.24191,0.68462,0.28874
1694639211296875,-8.561538,0.609194,5.136761,0.23991,0.76062,0.32074
1694639211304687,-8.534538,0.609194,5.122761,0.22591,0.76662,0.20674
1694639211312500,-8.520538,0.631194,5.140761,0.30591,0.78062,0.22374
1694639211320312,-8.503538,0.647194,5.163761,0.33591,0.72962,0.20874
1694639211328125,-8.489538,0.667194,5.168761,0.38591,0.71562,0.24074
1694639211335937,-8.469538,0.666194,5.163761,0.39791,0.69562,0.19474
1694639211343750,-8.446538,0.672194,5.163761,0.40291,0.68762,0.19174
1694639211351562,-8.426538,0.675194,5.177761,0.22391,0.70062,0.14474
1694639211359375,-8.419538,0.659194,5.183761,0.20991,0.59362,0.22374
1694639211367187,-8.415538,0.642194,5.176761,0.24191,0.59362,0.20774
1694639211375000,-8.393538,0.649194,5.190761,0.15791,0.63362,0.25774
1694639211382812,-8.382538,0.638194,5.190761,0.14091,0.64762,0.25774
1694639211390625,-8.378538,0.636194,5.188761,0.17391,0.61862,0.20974
1694639211398437,-8.386538,0.616194,5.213761,0.16191,0.65462,0.28774
1694639211406250,-8.410538,0.617194,5.206761,0.26491,0.55362,0.30074
1694639211414062,-8.451538,0.630194,5.208761,0.37291,0.40462,0.28774
1694639211421875,-8.474538,0.639194,5.215761,0.43691,0.51362,0.28774
1694639211429687,-8.489538,0.636194,5.220761,0.41991,0.45162,0.23974
1694639211437500,-8.500538,0.643194,5.222761,0.45491,0.37462,0.31874
1694639211445312,-8.500538,0.669194,5.224761,0.48891,0.48562,0.36674
1694639211453125,-8.513538,0.662194,5.215761,0.42391,0.53162,0.36674
1694639211460937,-8.503538,0.656194,5.201761,0.41991,0.55762,0.38474
1694639211468750,-8.505538,0.650194,5.186761,0.38691,0.58862,0.33674
1694639211476562,-8.496538,0.663194,5.197761,0.43391,0.58662,0.36974
1694639211484375,-8.466538,0.654194,5.222761,0.26191,0.51662,0.33474
1694639211492187,-8.438538,0.637194,5.215761,0.37191,0.53062,0.23974
1694639211500000,-8.420538,0.651194,5.219761,0.40291,0.66962,0.24074
1694639211507812,-8.410538,0.650194,5.231761,0.30991,0.59662,0.27074
1694639211515625,-8.410538,0.662194,5.262761,0.37391,0.56362,0.25474
1694639211523437,-8.410538,0.664194,5.274761,0.39091,0.59762,0.22274
1694639211531250,-8.406538,0.669194,5.267761,0.36991,0.63862,0.22474
1694639211539062,-8.388538,0.675194,5.271761,0.32391,0.60862,0.27174
1694639211546875,-8.372538,0.671194,5.274761,0.24191,0.60662,0.27174
1694639211554687,-8.389538,0.681194,5.267761,0.28191,0.49062,0.33274
1694639211562500,-8.398538,0.690194,5.246761,0.29491,0.45662,0.26974
1694639211570312,-8.413538,0.687194,5.231761,0.35291,0.38562,0.24074
1694639211578125,-8.424538,0.691194,5.231761,0.40291,0.49562,0.30474
1694639211585937,-8.433538,0.682194,5.253761,0.40391,0.44862,0.30474
1694639211593750,-8.445538,0.673194,5.235761,0.38491,0.52262,0.32174
1694639211601562,-8.453538,0.675194,5.235761,0.35291,0.50962,0.28974
1694639211609375,-8.455538,0.672194,5.226761,0.45191,0.48262,0.23974
1694639211617187,-8.447538,0.673194,5.217761,0.38591,0.44762,0.27374
1694639211625000,-8.448538,0.674194,5.219761,0.39091,0.48762,0.23774
1694639211632812,-8.426538,0.680194,5.215761,0.35291,0.43162,0.24174
1694639211640625,-8.415538,0.677194,5.217761,0.22791,0.40562,0.23974
1694639211648437,-8.408538,0.662194,5.222761,0.22591,0.41962,0.22374
1694639211656250,-8.410538,0.657194,5.237761,0.16591,0.40962,0.23774
1694639211664062,-8.401538,0.653194,5.260761,0.29591,0.44362,0.18974
1694639211671875,-8.392538,0.646194,5.289761,0.27891,0.41062,0.20574
1694639211679687,-8.383538,0.640194,5.274761,0.35891,0.42562,0.20574
1694639211687500,-8.379538,0.639194,5.296761,0.37791,0.46062,0.25274
1694639211695312,-8.390538,0.635194,5.328761,0.21491,0.42462,0.28574
1694639211703125,-8.410538,0.653194,5.335761,0.32691,0.37662,0.25474
1694639211710937,-8.412538,0.673194,5.319761,0.21191,0.42162,0.28774
1694639211718750,-8.408538,0.673194,5.307761,0.29491,0.42262,0.31874
1694639211726562,-8.412538,0.670194,5.292761,0.37591,0.37662,0.30274
1694639211734375,-8.415538,0.644194,5.299761,0.43791,0.37262,0.31974
1694639211742187,-8.431538,0.661194,5.278761,0.38991,0.40562,0.30374
1694639211750000,-8.420538,0.640194,5.251761,0.45291,0.45062,0.31974
1694639211757812,-8.411538,0.644194,5.235761,0.38991,0.37462,0.27174
1694639211765625,-8.415538,0.644194,5.237761,0.39091,0.42362,0.27074
1694639211773437,-8.414538,0.652194,5.231761,0.34591,0.44262,0.31774
1694639211781250,-8.421538,0.679194,5.222761,0.33991,0.48162,0.30374
1694639211789062,-8.413538,0.682194,5.238761,0.28991,0.40062,0.30474
1694639211796875,-8.426538,0.682194,5.249761,0.24191,0.43562,0.22374
1694639211804687,-8.446538,0.684194,5.256761,0.14591,0.38562,0.32074
1694639211812500,-8.447538,0.671194,5.281761,0.33791,0.40062,0.30474
1694639211820312,-8.446538,0.661194,5.274761,0.35791,0.42162,0.28774
1694639211828125,-8.433538,0.651194,5.276761,0.37191,0.40162,0.35274
1694639211835937,-8.413538,0.644194,5.285761,0.38791,0.40162,0.33674
1694639211843750,-8.402538,0.631194,5.301761,0.40491,0.43762,0.23974
1694639211851562,-8.413538,0.637194,5.278761,0.42191,0.42162,0.27174
1694639211859375,-8.407538,0.647194,5.258761,0.28891,0.40062,0.22574
1694639211867187,-8.418538,0.642194,5.256761,0.33691,0.36962,0.20974
1694639211875000,-8.425538,0.640194,5.262761,0.36891,0.38562,0.22574
1694639211882812,-8.437538,0.638194,5.278761,0.34891,0.39562,0.21074
1694639211890625,-8.453538,0.639194,5.278761,0.42091,0.37262,0.28774
1694639211898437,-8.467538,0.661194,5.283761,0.41991,0.38662,0.28874
1694639211906250,-8.465538,0.661194,5.294761,0.43591,0.43362,0.30474
1694639211914062,-8.467538,0.646194,5.272761,0.43291,0.41462,0.27374
1694639211921875,-8.442538,0.642194,5.262761,0.42091,0.45062,0.27174
1694639211929687,-8.413538,0.637194,5.237761,0.43791,0.49962,0.31974
1694639211937500,-8.409538,0.644194,5.226761,0.40291,0.46462,0.30474
1694639211945312,-8.386538,0.637194,5.260761,0.31091,0.62762,0.31874
1694639211953125,-8.366538,0.656194,5.274761,0.32591,0.57862,0.31874
1694639211960937,-8.352538,0.676194,5.303761,0.37291,0.53062,0.30374
1694639211968750,-8.360538,0.673194,5.310761,0.37791,0.48962,0.31774
1694639211976562,-8.354538,0.676194,5.335761,0.37191,0.40462,0.27174
1694639211984375,-8.351538,0.675194,5.348761,0.36691,0.42762,0.29074
1694639211992187,-8.365538,0.676194,5.339761,0.40591,0.39062,0.27174
1694639212000000,-8.386538,0.669194,5.326761,0.37091,0.34062,0.24074
1694639212007812,-8.398538,0.668194,5.314761,0.31391,0.38262,0.26874
1694639212015625,-8.417538,0.662194,5.296761,0.24191,0.43562,0.22374
1694639212023437,-8.437538,0.670194,5.283761,0.18091,0.38962,0.35074
1694639212031250,-8.452538,0.683194,5.240761,0.27991,0.45862,0.26974
1694639212039062,-8.455538,0.679194,5.224761,0.30891,0.37562,0.22374
1694639212046875,-8.429538,0.682194,5.217761,0.30491,0.49362,0.30574
1694639212054687,-8.435538,0.680194,5.229761,0.40091,0.44562,0.27374
1694639212062500,-8.457538,0.672194,5.233761,0.42091,0.41962,0.25574
1694639212070312,-8.455538,0.665194,5.235761,0.43891,0.42362,0.23874
1694639212078125,-8.450538,0.685194,5.237761,0.35791,0.53262,0.23874
1694639212085937,-8.427538,0.703194,5.267761,0.35791,0.61062,0.28674
1694639212093750,-8.387538,0.720194,5.289761,0.24391,0.67062,0.35174
1694639212101562,-8.366538,0.737194,5.305761,0.24691,0.64462,0.30174
1694639212109375,-8.352538,0.725194,5.328761,0.19291,0.51062,0.32074
1694639212117187,-8.366538,0.717194,5.334761,0.23391,0.39962,0.23574
1694639212125000,-8.358538,0.718194,5.330761,0.18091,0.37662,0.25474
1694639212132812,-8.352538,0.707194,5.330761,0.17491,0.38562,0.17774
1694639212140625,-8.347538,0.700194,5.330761,0.16291,0.35962,0.22374
1694639212148437,-8.356538,0.685194,5.332761,0.17891,0.37562,0.17574
1694639212156250,-8.359538,0.678194,5.337761,0.8291,0.39262,0.14274
1694639212164062,-8.358538,0.669194,5.319761,0.13391,0.38062,0.17374
1694639212171875,-8.361538,0.649194,5.307761,0.8591,0.39662,0.17374
1694639212179687,-8.375538,0.658194,5.307761,0.11391,0.37562,0.14374
1694639212187500,-8.392538,0.659194,5.285761,0.20091,0.40062,0.17274
1694639212195312,-8.401538,0.666194,5.276761,0.19791,0.44162,0.20574
1694639212203125,-8.417538,0.680194,5.269761,0.15991,0.41762,0.20874
1694639212210937,-8.433538,0.659194,5.278761,0.17791,0.43562,0.23974
1694639212218750,-8.453538,0.661194,5.294761,0.19691,0.38962,0.31974
1694639212226562,-8.491538,0.663194,5.294761,0.27691,0.42362,0.19074
1694639212234375,-8.512538,0.664194,5.296761,0.17091,0.44862,0.25174
1694639212242187,-8.513538,0.662194,5.269761,0.25991,0.39062,0.23974
1694639212250000,-8.487538,0.670194,5.256761,0.22491,0.52662,0.24074
1694639212257812,-8.440538,0.650194,5.271761,0.16191,0.57762,0.22374
1694639212265625,-8.421538,0.652194,5.276761,0.18291,0.41162,0.22174
1694639212273437,-8.412538,0.659194,5.294761,0.19791,0.47162,0.26974
1694639212281250,-8.399538,0.667194,5.335761,0.30591,0.46762,0.17574
1694639212289062,-8.398538,0.674194,5.355761,0.22091,0.55462,0.17774
1694639212296875,-8.388538,0.675194,5.373761,0.27591,0.59562,0.17474
1694639212304687,-8.354538,0.665194,5.380761,0.27491,0.65762,0.14274
1694639212312500,-8.355538,0.654194,5.364761,0.22291,0.51262,0.11274
1694639212320312,-8.348538,0.645194,5.339761,0.32491,0.45562,0.19074
1694639212328125,-8.335538,0.639194,5.335761,0.17591,0.41862,0.19274
1694639212335937,-8.339538,0.640194,5.330761,0.24591,0.37862,0.20574
1694639212343750,-8.353538,0.639194,5.341761,0.25591,0.38462,0.22574
1694639212351562,-8.387538,0.645194,5.355761,0.35291,0.44762,0.22574
1694639212359375,-8.404538,0.649194,5.342761,0.28791,0.44762,0.22574
1694639212367187,-8.402538,0.640194,5.344761,0.30491,0.44662,0.28974
1694639212375000,-8.400538,0.636194,5.337761,0.36991,0.52762,0.25674
1694639212382812,-8.392538,0.630194,5.326761,0.38391,0.53862,0.25774
1694639212390625,-8.398538,0.625194,5.319761,0.44791,0.67862,0.30574
1694639212398437,-8.383538,0.628194,5.305761,0.30091,0.63062,0.27474
1694639212406250,-8.405538,0.627194,5.330761,0.25591,0.49362,0.24174
1694639212414062,-8.412538,0.613194,5.344761,0.30491,0.54262,0.22474
1694639212421875,-8.400538,0.629194,5.330761,0.28791,0.49362,0.25774
1694639212429687,-8.377538,0.634194,5.332761,0.21091,0.43462,0.28774
1694639212437500,-8.348538,0.634194,5.326761,0.17991,0.43662,0.27174
1694639212445312,-8.328538,0.630194,5.328761,0.22691,0.40362,0.28774
1694639212453125,-8.312538,0.632194,5.346761,0.19691,0.40762,0.22274
1694639212460937,-8.285538,0.639194,5.368761,0.24491,0.39262,0.22274
1694639212468750,-8.297538,0.637194,5.387761,0.27191,0.40062,0.20974
1694639212476562,-8.328538,0.645194,5.384761,0.35691,0.43762,0.22374
1694639212484375,-8.351538,0.641194,5.391761,0.35591,0.32662,0.20774
1694639212492187,-8.352538,0.655194,5.366761,0.40991,0.36562,0.22174
1694639212500000,-8.359538,0.658194,5.364761,0.37091,0.38762,0.20874
1694639212507812,-8.341538,0.659194,5.368761,0.37191,0.40462,0.22374
1694639212515625,-8.346538,0.667194,5.350761,0.35491,0.48262,0.23974
1694639212523437,-8.357538,0.661194,5.339761,0.35191,0.41462,0.24174
1694639212531250,-8.382538,0.649194,5.344761,0.35391,0.36962,0.27274
1694639212539062,-8.395538,0.640194,5.341761,0.41991,0.38662,0.28874
1694639212546875,-8.382538,0.647194,5.341761,0.29291,0.37462,0.27174
1694639212554687,-8.371538,0.641194,5.353761,0.27391,0.38662,0.20874
1694639212562500,-8.360538,0.634194,5.371761,0.32291,0.38662,0.25674
1694639212570312,-8.346538,0.640194,5.389761,0.19591,0.45462,0.20674
1694639212578125,-8.339538,0.643194,5.402761,0.16091,0.47962,0.28874
1694639212585937,-8.339538,0.641194,5.402761,0.17891,0.40562,0.23974
1694639212593750,-8.335538,0.639194,5.407761,0.16091,0.40262,0.25674
1694639212601562,-8.353538,0.614194,5.432761,0.22691,0.45062,0.25574
1694639212609375,-8.371538,0.614194,5.441761,0.20991,0.40462,0.20774
1694639212617187,-8.367538,0.605194,5.432761,0.25591,0.43162,0.19374
1694639212625000,-8.354538,0.610194,5.414761,0.23991,0.36962,0.16174
1694639212632812,-8.338538,0.606194,5.402761,0.35091,0.41462,0.17774
1694639212640625,-8.347538,0.608194,5.378761,0.38591,0.41862,0.16074
1694639212648437,-8.349538,0.614194,5.371761,0.25691,0.41862,0.19274
1694639212656250,-8.338538,0.628194,5.371761,0.30091,0.53762,0.22674
1694639212664062,-8.324538,0.635194,5.362761,0.36691,0.47462,0.27474
1694639212671875,-8.333538,0.641194,5.375761,0.36991,0.43362,0.22474
1694639212679687,-8.339538,0.636194,5.375761,0.31091,0.39462,0.20574
1694639212687500,-8.346538,0.648194,5.384761,0.40191,0.36962,0.22474
1694639212695312,-8.321538,0.657194,5.384761,0.37091,0.46662,0.20774
1694639212703125,-8.317538,0.639194,5.380761,0.29391,0.42362,0.22274
1694639212710937,-8.317538,0.648194,5.391761,0.35491,0.34062,0.25674
1694639212718750,-8.325538,0.654194,5.375761,0.22891,0.37662,0.23874
1694639212726562,-8.318538,0.667194,5.362761,0.27891,0.39462,0.22174
1694639212734375,-8.296538,0.666194,5.346761,0.25891,0.40462,0.25574
1694639212742187,-8.298538,0.672194,5.344761,0.26191,0.31462,0.25474
1694639212750000,-8.323538,0.672194,5.366761,0.27491,0.27762,0.28874
1694639212757812,-8.329538,0.681194,5.375761,0.39191,0.29862,0.28674
1694639212765625,-8.348538,0.666194,5.366761,0.20791,0.30462,0.28974
1694639212773437,-8.373538,0.652194,5.371761,0.28991,0.27562,0.25674
1694639212781250,-8.410538,0.653194,5.362761,0.34391,0.26762,0.28674
1694639212789062,-8.429538,0.655194,5.355761,0.35391,0.27662,0.20874
1694639212796875,-8.447538,0.666194,5.362761,0.22591,0.35562,0.24074
1694639212804687,-8.451538,0.686194,5.348761,0.35491,0.38962,0.19174
1694639212812500,-8.433538,0.677194,5.335761,0.37291,0.37262,0.27174
1694639212820312,-8.414538,0.668194,5.337761,0.42591,0.39662,0.26974
1694639212828125,-8.393538,0.640194,5.344761,0.41891,0.37162,0.22474
1694639212835937,-8.364538,0.643194,5.368761,0.43891,0.39062,0.28774
1694639212843750,-8.304538,0.656194,5.355761,0.42791,0.41562,0.25174
1694639212851562,-8.285538,0.673194,5.373761,0.47091,0.37562,0.25574
1694639212859375,-8.258538,0.660194,5.384761,0.47091,0.39062,0.27174
1694639212867187,-8.220538,0.660194,5.386761,0.42391,0.36362,0.17374
1694639212875000,-8.200538,0.656194,5.395761,0.43691,0.32662,0.22374
1694639212882812,-8.215538,0.664194,5.422761,0.42791,0.30762,0.13974
1694639212890625,-8.254538,0.662194,5.389761,0.43691,0.18462,0.22474
1694639212898437,-8.296538,0.643194,5.386761,0.42391,0.22162,0.20674
1694639212906250,-8.338538,0.655194,5.407761,0.44591,0.22862,0.28374
1694639212914062,-8.372538,0.640194,5.409761,0.52491,0.13162,0.31674
1694639212921875,-8.415538,0.639194,5.382761,0.60291,0.23662,0.30274
1694639212929687,-8.426538,0.648194,5.377761,0.64991,0.23762,0.23874
1694639212937500,-8.439538,0.657194,5.348761,0.63591,0.22362,0.28574
1694639212945312,-8.479538,0.647194,5.339761,0.67091,0.20862,0.36474
1694639212953125,-8.490538,0.675194,5.310761,0.58991,0.19562,0.28474
1694639212960937,-8.475538,0.678194,5.294761,0.47491,0.25362,0.38174
1694639212968750,-8.445538,0.699194,5.287761,0.44091,0.42562,0.28574
1694639212976562,-8.400538,0.717194,5.332761,0.42491,0.44062,0.31774
1694639212984375,-8.390538,0.706194,5.366761,0.43891,0.43662,0.35074
1694639212992187,-8.376538,0.695194,5.402761,0.42391,0.39262,0.30274
1694639213000000,-8.363538,0.689194,5.425761,0.40991,0.39562,0.31774
1694639213007812,-8.345538,0.671194,5.425761,0.44191,0.38062,0.20574
1694639213015625,-8.334538,0.672194,5.411761,0.42191,0.42162,0.25574
1694639213023437,-8.314538,0.650194,5.411761,0.43691,0.51562,0.19174
1694639213031250,-8.276538,0.644194,5.407761,0.42091,0.43762,0.22374
1694639213039062,-8.268538,0.642194,5.402761,0.43691,0.40462,0.23974
1694639213046875,-8.265538,0.644194,5.409761,0.42591,0.41162,0.23774
1694639213054687,-8.261538,0.666194,5.402761,0.40391,0.45062,0.27174
1694639213062500,-8.273538,0.690194,5.407761,0.43891,0.39262,0.25474
1694639213070312,-8.294538,0.692194,5.414761,0.42091,0.35762,0.28774
1694639213078125,-8.311538,0.703194,5.411761,0.45491,0.39262,0.19074
1694639213085937,-8.341538,0.707194,5.387761,0.51791,0.38862,0.30374
1694639213093750,-8.386538,0.687194,5.375761,0.43591,0.34062,0.27274
1694639213101562,-8.404538,0.682194,5.355761,0.41991,0.27762,0.24074
1694639213109375,-8.410538,0.675194,5.353761,0.42291,0.29462,0.35174
1694639213117187,-8.402538,0.669194,5.317761,0.43591,0.29162,0.32074
1694639213125000,-8.395538,0.658194,5.323761,0.42291,0.32762,0.31874
1694639213132812,-8.390538,0.646194,5.335761,0.44091,0.34562,0.31874
1694639213140625,-8.368538,0.658194,5.364761,0.45291,0.44862,0.35274
1694639213148437,-8.357538,0.654194,5.350761,0.42391,0.42362,0.33474
1694639213156250,-8.348538,0.654194,5.350761,0.43691,0.43262,0.36874
1694639213164062,-8.341538,0.676194,5.373761,0.42191,0.45062,0.35174
1694639213171875,-8.343538,0.700194,5.398761,0.42291,0.45462,0.25474
1694639213179687,-8.348538,0.694194,5.387761,0.43291,0.39862,0.24174
1694639213187500,-8.349538,0.689194,5.389761,0.42391,0.37662,0.31874
1694639213195312,-8.361538,0.711194,5.400761,0.43691,0.40462,0.23974
1694639213203125,-8.358538,0.713194,5.398761,0.39091,0.36162,0.27074
1694639213210937,-8.352538,0.710194,5.407761,0.23991,0.32262,0.20874
1694639213218750,-8.341538,0.714194,5.411761,0.17791,0.26162,0.24074
1694639213226562,-8.334538,0.710194,5.398761,0.22591,0.32462,0.22474
1694639213234375,-8.314538,0.679194,5.382761,0.32191,0.35562,0.20874
1694639213242187,-8.310538,0.674194,5.375761,0.21191,0.37462,0.22374
1694639213250000,-8.308538,0.668194,5.371761,0.27491,0.32662,0.19174
1694639213257812,-8.328538,0.652194,5.355761,0.35791,0.25062,0.19074
1694639213265625,-8.354538,0.649194,5.375761,0.18191,0.28362,0.23874
1694639213273437,-8.370538,0.674194,5.387761,0.32391,0.34262,0.20774
1694639213281250,-8.388538,0.678194,5.391761,0.38791,0.34262,0.22374
1694639213289062,-8.402538,0.669194,5.380761,0.40091,0.32062,0.25774
1694639213296875,-8.402538,0.673194,5.364761,0.45191,0.26262,0.24074
1694639213304687,-8.406538,0.664194,5.357761,0.37491,0.36162,0.20674
1694639213312500,-8.406538,0.662194,5.353761,0.33991,0.27962,0.22374
1694639213320312,-8.390538,0.669194,5.335761,0.37291,0.34162,0.27174
1694639213328125,-8.374538,0.682194,5.337761,0.32491,0.42162,0.28774
1694639213335937,-8.350538,0.692194,5.350761,0.27491,0.38662,0.30474
1694639213343750,-8.330538,0.683194,5.366761,0.35591,0.30862,0.27274
1694639213351562,-8.323538,0.681194,5.393761,0.32591,0.36162,0.22274
1694639213359375,-8.323538,0.680194,5.411761,0.37591,0.39462,0.23774
1694639213367187,-8.328538,0.681194,5.420761,0.38691,0.29362,0.20874
1694639213375000,-8.336538,0.685194,5.420761,0.34291,0.20562,0.22274
1694639213382812,-8.325538,0.705194,5.425761,0.19391,0.23062,0.22474
1694639213390625,-8.309538,0.712194,5.418761,0.16491,0.31462,0.19074
1694639213398437,-8.289538,0.710194,5.429761,0.17891,0.34362,0.19174
1694639213406250,-8.316538,0.712194,5.434761,0.16291,0.27962,0.23974
1694639213414062,-8.338538,0.705194,5.456761,0.18191,0.33162,0.20574
1694639213421875,-8.353538,0.695194,5.452761,0.19991,0.28662,0.22174
1694639213429687,-8.358538,0.695194,5.434761,0.34391,0.33162,0.25374
1694639213437500,-8.349538,0.676194,5.416761,0.45791,0.31662,0.26974
1694639213445312,-8.337538,0.661194,5.402761,0.38591,0.33862,0.24074
1694639213453125,-8.325538,0.652194,5.402761,0.39191,0.37862,0.23774
1694639213460937,-8.322538,0.639194,5.423761,0.30491,0.30462,0.28974
1694639213468750,-8.326538,0.641194,5.414761,0.24391,0.26362,0.23974
1694639213476562,-8.346538,0.639194,5.405761,0.16091,0.29362,0.22474
1694639213484375,-8.347538,0.643194,5.434761,0.19091,0.30462,0.25774
1694639213492187,-8.368538,0.667194,5.459761,0.22991,0.18762,0.31874
1694639213500000,-8.380538,0.676194,5.445761,0.33691,0.14762,0.28974
1694639213507812,-8.391538,0.676194,5.423761,0.34091,0.19962,0.36774
1694639213515625,-8.409538,0.681194,5.389761,0.33291,0.19662,0.28374
1694639213523437,-8.412538,0.684194,5.384761,0.45491,0.25062,0.20674
1694639213531250,-8.405538,0.679194,5.364761,0.45791,0.20762,0.28574
1694639213539062,-8.410538,0.700194,5.369761,0.42091,0.27762,0.32074
1694639213546875,-8.408538,0.689194,5.369761,0.43691,0.34162,0.27174
1694639213554687,-8.386538,0.710194,5.364761,0.31691,0.41062,0.19474
1694639213562500,-8.360538,0.711194,5.353761,0.22791,0.43762,0.25574
1694639213570312,-8.340538,0.712194,5.348761,0.19591,0.42062,0.31974
1694639213578125,-8.318538,0.710194,5.321761,0.16091,0.41762,0.30474
1694639213585937,-8.291538,0.697194,5.294761,0.18091,0.45462,0.28674
1694639213593750,-8.292538,0.679194,5.305761,0.16391,0.38962,0.31974
1694639213601562,-8.303538,0.671194,5.317761,0.19291,0.30662,0.32074
1694639213609375,-8.319538,0.661194,5.335761,0.22791,0.32562,0.28774
1694639213617187,-8.336538,0.656194,5.375761,0.36191,0.25562,0.26874
1694639213625000,-8.346538,0.632194,5.384761,0.19691,0.29862,0.22274
1694639213632812,-8.363538,0.624194,5.393761,0.32891,0.36462,0.25374
1694639213640625,-8.373538,0.613194,5.375761,0.35991,0.26762,0.25474
1694639213648437,-8.381538,0.604194,5.368761,0.23691,0.27662,0.26774
1694639213656250,-8.402538,0.602194,5.346761,0.32791,0.33162,0.28574
1694639213664062,-8.418538,0.604194,5.339761,0.25991,0.24562,0.32074
1694639213671875,-8.422538,0.597194,5.319761,0.28191,0.19362,0.28474
1694639213679687,-8.416538,0.577194,5.321761,0.36091,0.14262,0.27074
1694639213687500,-8.416538,0.575194,5.307761,0.37591,0.12562,0.31874
1694639213695312,-8.410538,0.569194,5.332761,0.43991,0.23462,0.33474
1694639213703125,-8.376538,0.574194,5.344761,0.45691,0.31462,0.33474
1694639213710937,-8.340538,0.588194,5.337761,0.60191,0.24962,0.36674
1694639213718750,-8.331538,0.599194,5.339761,0.67991,0.37362,0.33574
1694639213726562,-8.297538,0.626194,5.328761,0.66491,0.34162,0.35174
1694639213734375,-8.285538,0.648194,5.355761,0.66691,0.25262,0.33474
1694639213742187,-8.258538,0.655194,5.343761,0.58791,0.20462,0.42974
1694639213750000,-8.267538,0.662194,5.355761,0.66991,0.14162,0.49374
1694639213757812,-8.267538,0.666194,5.377761,0.65191,0.12462,0.46274
1694639213765625,-8.268538,0.692194,5.404761,0.77091,0.14762,0.47574
1694639213773437,-8.278538,0.717194,5.420761,0.81391,0.9362,0.46274
1694639213781250,-8.316538,0.705194,5.420761,0.81491,0.3062,0.54274
1694639213789062,-8.344538,0.688194,5.414761,0.79291,0.8662,0.49674
1694639213796875,-8.374538,0.698194,5.398761,0.87791,0.7662,0.47874
1694639213804687,-8.410538,0.713194,5.351761,0.82691,0.13662,0.44774
1694639213812500,-8.422538,0.716194,5.312761,0.68791,0.13062,0.39674
1694639213820312,-8.422538,0.732194,5.289761,0.55791,0.11562,0.34874
1694639213828125,-8.423538,0.744194,5.292761,0.52091,0.12362,0.38374
1694639213835937,-8.418538,0.746194,5.285761,0.43991,0.14162,0.30274
1694639213843750,-8.412538,0.739194,5.294761,0.42291,0.13962,0.31974
1694639213851562,-8.425538,0.721194,5.317761,0.39091,0.18862,0.23874
1694639213859375,-8.428538,0.722194,5.321761,0.27391,0.15162,0.22474
1694639213867187,-8.445538,0.714194,5.332761,0.35891,0.23762,0.19074
1694639213875000,-8.450538,0.712194,5.348761,0.37391,0.17262,0.20674
1694639213882812,-8.441538,0.715194,5.350761,0.30791,0.23362,0.15974
1694639213890625,-8.432538,0.717194,5.339761,0.22891,0.43962,0.20674
1694639213898437,-8.429538,0.714194,5.346761,0.14991,0.40962,0.22174
1694639213906250,-8.416538,0.710194,5.362761,0.21191,0.40862,0.19074
1694639213914062,-8.395538,0.689194,5.385761,0.15591,0.42862,0.16274
1694639213921875,-8.369538,0.673194,5.382761,0.21591,0.41362,0.15674
1694639213929687,-8.353538,0.638194,5.359761,0.24291,0.39162,0.14374
1694639213937500,-8.348538,0.640194,5.359761,0.26191,0.36362,0.17374
1694639213945312,-8.324538,0.635194,5.353761,0.30591,0.34062,0.22474
1694639213953125,-8.315538,0.619194,5.341761,0.27591,0.28162,0.15974
1694639213960937,-8.299538,0.619194,5.316761,0.24691,0.23862,0.20574
1694639213968750,-8.283538,0.622194,5.303761,0.32591,0.32862,0.25474
1694639213976562,-8.290538,0.628194,5.303761,0.37291,0.37262,0.31974
1694639213984375,-8.308538,0.635194,5.307761,0.43891,0.31262,0.30274
1694639213992187,-8.323538,0.654194,5.328761,0.38991,0.39062,0.28774
1694639214000000,-8.342538,0.676194,5.323761,0.41091,0.33362,0.30174
1694639214007812,-8.363538,0.683194,5.319761,0.42291,0.30962,0.38374
1694639214015625,-8.381538,0.682194,5.307761,0.44191,0.26962,0.28574
1694639214023437,-8.401538,0.679194,5.292761,0.42591,0.19162,0.30174
1694639214031250,-8.412538,0.675194,5.296761,0.39491,0.16262,0.28474
1694639214039062,-8.447538,0.673194,5.281761,0.37191,0.18262,0.30474
1694639214046875,-8.451538,0.675194,5.285761,0.34191,0.23262,0.31974
1694639214054687,-8.446538,0.668194,5.285761,0.37391,0.38762,0.36774
1694639214062500,-8.444538,0.668194,5.296761,0.37291,0.40362,0.33574
1694639214070312,-8.419538,0.666194,5.298761,0.32791,0.39162,0.35074
1694639214078125,-8.419538,0.666194,5.296761,0.27891,0.42262,0.33474
1694639214085937,-8.395538,0.669194,5.303761,0.22791,0.43462,0.35174
1694639214093750,-8.367538,0.669194,5.323761,0.26491,0.42662,0.30174
1694639214101562,-8.352538,0.669194,5.332761,0.23191,0.41162,0.28574
1694639214109375,-8.335538,0.673194,5.337761,0.26591,0.44662,0.23574
1694639214117187,-8.336538,0.672194,5.346761,0.24391,0.39062,0.22374
1694639214125000,-8.338538,0.669194,5.366761,0.39291,0.38062,0.20574
1694639214132812,-8.338538,0.660194,5.368761,0.31091,0.39462,0.22174
1694639214140625,-8.337538,0.658194,5.337761,0.32491,0.37462,0.23974
1694639214148437,-8.323538,0.643194,5.321761,0.24591,0.39462,0.20574
1694639214156250,-8.326538,0.641194,5.314761,0.35491,0.37162,0.22474
1694639214164062,-8.341538,0.625194,5.319761,0.39191,0.34762,0.22174
1694639214171875,-8.350538,0.627194,5.303761,0.34291,0.23462,0.28674
1694639214179687,-8.375538,0.636194,5.296761,0.26091,0.23262,0.31974
1694639214187500,-8.388538,0.640194,5.321761,0.31191,0.26762,0.30274
1694639214195312,-8.398538,0.631194,5.326761,0.30791,0.18162,0.40074
1694639214203125,-8.395538,0.620194,5.337761,0.37891,0.14462,0.31774
1694639214210937,-8.397538,0.606194,5.350761,0.42691,0.17562,0.30174
1694639214218750,-8.409538,0.617194,5.366761,0.44291,0.12962,0.31774
1694639214226562,-8.393538,0.638194,5.369761,0.45291,0.23062,0.30474
1694639214234375,-8.366538,0.638194,5.368761,0.42591,0.31662,0.30174
1694639214242187,-8.343538,0.640194,5.366761,0.44191,0.30062,0.31774
1694639214250000,-8.346538,0.638194,5.371761,0.35891,0.23462,0.30274
1694639214257812,-8.377538,0.640194,5.364761,0.39191,0.28262,0.31874
1694639214265625,-8.393538,0.649194,5.357761,0.31091,0.35862,0.36674
1694639214273437,-8.413538,0.673194,5.360761,0.32391,0.41662,0.38474
1694639214281250,-8.428538,0.684194,5.360761,0.37291,0.43462,0.35174
1694639214289062,-8.442538,0.688194,5.339761,0.38891,0.40362,0.33574
1694639214296875,-8.430538,0.686194,5.314761,0.43891,0.46762,0.35174
1694639214304687,-8.420538,0.669194,5.323761,0.41791,0.44762,0.28874
1694639214312500,-8.413538,0.646194,5.321761,0.44191,0.37762,0.38174
1694639214320312,-8.413538,0.651194,5.319761,0.41991,0.38662,0.30474
1694639214328125,-8.382538,0.654194,5.346761,0.40491,0.38862,0.31974
1694639214335937,-8.345538,0.665194,5.366761,0.40591,0.37462,0.27174
1694639214343750,-8.303538,0.672194,5.377761,0.30891,0.39062,0.27174
1694639214351562,-8.282538,0.672194,5.391761,0.31091,0.42562,0.25374
1694639214359375,-8.285538,0.643194,5.380761,0.24691,0.37862,0.23774
1694639214367187,-8.284538,0.638194,5.380761,0.30491,0.40062,0.24174
1694639214375000,-8.290538,0.628194,5.387761,0.25791,0.30962,0.20874
1694639214382812,-8.304538,0.631194,5.384761,0.29091,0.27762,0.22474
1694639214390625,-8.316538,0.638194,5.380761,0.36191,0.28662,0.28474
1694639214398437,-8.343538,0.638194,5.362761,0.41091,0.33362,0.31674
1694639214406250,-8.384538,0.658194,5.339761,0.37491,0.31262,0.30274
1694639214414062,-8.413538,0.667194,5.330761,0.46691,0.21162,0.32174
1694639214421875,-8.426538,0.668194,5.307761,0.52091,0.34562,0.33474
1694639214429687,-8.433538,0.666194,5.298761,0.58491,0.39262,0.30274
1694639214437500,-8.435538,0.669194,5.283761,0.53191,0.36962,0.32074
1694639214445312,-8.431538,0.671194,5.272761,0.46691,0.39862,0.35374
1694639214453125,-8.427538,0.651194,5.256761,0.45091,0.44662,0.33674
1694639214460937,-8.393538,0.646194,5.287761,0.45591,0.40762,0.33474
1694639214468750,-8.393538,0.638194,5.317761,0.40491,0.45062,0.35174
1694639214476562,-8.381538,0.644194,5.341761,0.42491,0.40962,0.33374
1694639214484375,-8.385538,0.646194,5.350761,0.39591,0.28862,0.25274
1694639214492187,-8.376538,0.650194,5.371761,0.43391,0.27462,0.22574
1694639214500000,-8.371538,0.656194,5.380761,0.35291,0.32362,0.19274
1694639214507812,-8.357538,0.656194,5.386761,0.35791,0.34662,0.19074
1694639214515625,-8.352538,0.663194,5.384761,0.35691,0.31362,0.19174
1694639214523437,-8.357538,0.672194,5.366761,0.35491,0.38962,0.12774
1694639214531250,-8.344538,0.650194,5.353761,0.38491,0.38562,0.19374
1694639214539062,-8.339538,0.645194,5.357761,0.35691,0.34462,0.20774
1694639214546875,-8.342538,0.641194,5.339761,0.37391,0.23262,0.28774
1694639214554687,-8.340538,0.650194,5.323761,0.38491,0.33662,0.27374
1694639214562500,-8.373538,0.652194,5.341761,0.43591,0.38662,0.27274
1694639214570312,-8.388538,0.660194,5.355761,0.42491,0.37862,0.31774
1694639214578125,-8.392538,0.675194,5.375761,0.45691,0.37662,0.33474
1694639214585937,-8.404538,0.673194,5.366761,0.43891,0.39062,0.31874
1694639214593750,-8.384538,0.671194,5.357761,0.41991,0.41762,0.30474
1694639214601562,-8.359538,0.660194,5.348761,0.43991,0.40762,0.31874
1694639214609375,-8.348538,0.656194,5.362761,0.41991,0.37062,0.30474
1694639214617187,-8.339538,0.641194,5.362761,0.33991,0.38862,0.22374
1694639214625000,-8.342538,0.641194,5.346761,0.27191,0.32062,0.25774
1694639214632812,-8.349538,0.644194,5.360761,0.15391,0.31562,0.17974
1694639214640625,-8.362538,0.648194,5.353761,0.15691,0.41462,0.16174
1694639214648437,-8.377538,0.644194,5.362761,0.14891,0.36362,0.15774
1694639214656250,-8.393538,0.642194,5.353761,0.17691,0.29362,0.19274
1694639214664062,-8.380538,0.645194,5.357761,0.17691,0.43362,0.22474
1694639214671875,-8.382538,0.645194,5.357761,0.35491,0.35562,0.20874
1694639214679687,-8.362538,0.636194,5.359761,0.38791,0.34262,0.22374
1694639214687500,-8.369538,0.625194,5.371761,0.40091,0.35262,0.24174
1694639214695312,-8.371538,0.627194,5.371761,0.43491,0.37162,0.20874
1694639214703125,-8.364538,0.625194,5.373761,0.56791,0.39062,0.28674
1694639214710937,-8.358538,0.632194,5.362761,0.46791,0.38762,0.24074
1694639214718750,-8.350538,0.640194,5.343761,0.44291,0.34962,0.28574
1694639214726562,-8.342538,0.641194,5.371761,0.41991,0.34062,0.27274
1694639214734375,-8.339538,0.658194,5.382761,0.42391,0.33062,0.27074
1694639214742187,-8.350538,0.676194,5.375761,0.43691,0.33962,0.30474
1694639214750000,-8.354538,0.674194,5.382761,0.35891,0.37662,0.25474
1694639214757812,-8.366538,0.674194,5.380761,0.37391,0.42162,0.28774
1694639214765625,-8.377538,0.667194,5.382761,0.40591,0.42162,0.27174
1694639214773437,-8.384538,0.673194,5.380761,0.22691,0.37362,0.20774
1694639214781250,-8.388538,0.671194,5.369761,0.35491,0.38662,0.28874
1694639214789062,-8.375538,0.651194,5.353761,0.37391,0.39062,0.27174
1694639214796875,-8.352538,0.634194,5.330761,0.43991,0.37662,0.28674
1694639214804687,-8.324538,0.626194,5.353761,0.42091,0.40362,0.31974
1694639214812500,-8.288538,0.628194,5.371761,0.42291,0.40862,0.23874
1694639214820312,-8.276538,0.635194,5.400761,0.34391,0.42562,0.30174
1694639214828125,-8.275538,0.617194,5.432761,0.38991,0.40662,0.27174
1694639214835937,-8.264538,0.622194,5.420761,0.38591,0.33862,0.24074
1694639214843750,-8.268538,0.626194,5.423761,0.24391,0.31062,0.27174
1694639214851562,-8.273538,0.642194,5.420761,0.25991,0.19662,0.38474
1694639214859375,-8.311538,0.646194,5.425761,0.33991,0.16662,0.30474
1694639214867187,-8.339538,0.650194,5.418761,0.34191,0.15462,0.30374
1694639214875000,-8.373538,0.654194,5.416761,0.32591,0.12362,0.31974
1694639214882812,-8.410538,0.648194,5.396761,0.45791,0.14262,0.30274
1694639214890625,-8.447538,0.653194,5.362761,0.42291,0.13962,0.28774
1694639214898437,-8.472538,0.650194,5.339761,0.43391,0.24262,0.25774
1694639214906250,-8.456538,0.659194,5.339761,0.41791,0.41562,0.28874
1694639214914062,-8.431538,0.671194,5.337761,0.43491,0.35362,0.28874
1694639214921875,-8.413538,0.667194,5.348761,0.38391,0.41462,0.24174
1694639214929687,-8.395538,0.673194,5.353761,0.28991,0.44862,0.25674
1694639214937500,-8.386538,0.682194,5.357761,0.37091,0.55962,0.27174
1694639214945312,-8.357538,0.678194,5.375761,0.38691,0.38662,0.27274
1694639214953125,-8.357538,0.681194,5.373761,0.45091,0.51162,0.28874
1694639214960937,-8.338538,0.685194,5.380761,0.37391,0.43762,0.28774
1694639214968750,-8.317538,0.675194,5.412761,0.31991,0.36762,0.27374
1694639214976562,-8.323538,0.677194,5.409761,0.38691,0.35562,0.24074
1694639214984375,-8.314538,0.659194,5.387761,0.35591,0.35762,0.19174
1694639214992187,-8.311538,0.644194,5.380761,0.35291,0.33862,0.19274
1694639215000000,-8.313538,0.642194,5.373761,0.33591,0.36762,0.22574
1694639215007812,-8.329538,0.639194,5.387761,0.17691,0.35362,0.32074
1694639215015625,-8.344538,0.646194,5.384761,0.23891,0.36762,0.20974
1694639215023437,-8.337538,0.650194,5.371761,0.38991,0.31062,0.33574
1694639215031250,-8.354538,0.660194,5.362761,0.37691,0.39362,0.31774
1694639215039062,-8.351538,0.670194,5.355761,0.39791,0.36462,0.22674
1694639215046875,-8.355538,0.669194,5.348761,0.45391,0.35762,0.31974
1694639215054687,-8.361538,0.674194,5.335761,0.42191,0.26462,0.27174
1694639215062500,-8.366538,0.669194,5.335761,0.42291,0.26562,0.30274
1694639215070312,-8.350538,0.676194,5.335761,0.38891,0.19962,0.27274
1694639215078125,-8.340538,0.689194,5.359761,0.45591,0.36162,0.27074
1694639215085937,-8.323538,0.703194,5.375761,0.38991,0.27962,0.31974
1694639215093750,-8.307538,0.704194,5.369761,0.38791,0.29362,0.30474
1694639215101562,-8.292538,0.682194,5.389761,0.27491,0.21562,0.25674
1694639215109375,-8.281538,0.677194,5.391761,0.22791,0.20162,0.27174
1694639215117187,-8.283538,0.661194,5.398761,0.24491,0.14162,0.20674
1694639215125000,-8.290538,0.643194,5.402761,0.34391,0.14362,0.22274
1694639215132812,-8.303538,0.639194,5.427761,0.32791,0.15862,0.23874
1694639215140625,-8.313538,0.641194,5.445761,0.37091,0.18462,0.17674
1694639215148437,-8.349538,0.634194,5.452761,0.38891,0.12262,0.22474
1694639215156250,-8.378538,0.638194,5.434761,0.35491,0.15362,0.14474
1694639215164062,-8.384538,0.658194,5.416761,0.35291,0.13462,0.19374
1694639215171875,-8.411538,0.673194,5.378761,0.35491,0.13562,0.22474
1694639215179687,-8.413538,0.673194,5.353761,0.32391,0.16862,0.25674
1694639215187500,-8.425538,0.667194,5.342761,0.32091,0.11862,0.20974
1694639215195312,-8.429538,0.665194,5.335761,0.36891,0.24062,0.33774
1694639215203125,-8.431538,0.646194,5.339761,0.43991,0.24962,0.36674
1694639215210937,-8.415538,0.646194,5.355761,0.42191,0.26362,0.30374
1694639215218750,-8.409538,0.635194,5.393761,0.48591,0.38862,0.27174
1694639215226562,-8.394538,0.634194,5.423761,0.41691,0.39862,0.30574
1694639215234375,-8.360538,0.650194,5.423761,0.43591,0.43362,0.27274
1694639215242187,-8.345538,0.641194,5.414761,0.41591,0.36562,0.25874
1694639215250000,-8.337538,0.650194,5.409761,0.45391,0.34462,0.22374
1694639215257812,-8.312538,0.672194,5.402761,0.35591,0.38662,0.32074
1694639215265625,-8.317538,0.679194,5.382761,0.33991,0.33962,0.32074
1694639215273437,-8.332538,0.674194,5.407761,0.35591,0.27762,0.30474
1694639215281250,-8.339538,0.676194,5.398761,0.39091,0.26362,0.36774
1694639215289062,-8.357538,0.663194,5.380761,0.43391,0.27362,0.30574
1694639215296875,-8.355538,0.659194,5.373761,0.41791,0.30562,0.28974
1694639215304687,-8.373538,0.645194,5.378761,0.43891,0.21762,0.30374
1694639215312500,-8.389538,0.638194,5.362761,0.41991,0.34062,0.24074
1694639215320312,-8.388538,0.640194,5.346761,0.42491,0.32962,0.33474
1694639215328125,-8.384538,0.640194,5.357761,0.42391,0.37662,0.30274
1694639215335937,-8.382538,0.643194,5.366761,0.41991,0.26062,0.30474
1694639215343750,-8.378538,0.643194,5.351761,0.41591,0.22362,0.29074
1694639215351562,-8.380538,0.645194,5.357761,0.41791,0.27362,0.28974
1694639215359375,-8.387538,0.629194,5.350761,0.43791,0.26462,0.23974
1694639215367187,-8.370538,0.624194,5.357761,0.42491,0.28562,0.25374
1694639215375000,-8.362538,0.628194,5.371761,0.43291,0.32162,0.24174
1694639215382812,-8.364538,0.632194,5.384761,0.38791,0.30862,0.27274
1694639215390625,-8.345538,0.637194,5.385761,0.26991,0.33262,0.30674
1694639215398437,-8.342538,0.633194,5.366761,0.28591,0.41262,0.25874
1694639215406250,-8.335538,0.637194,5.371761,0.40291,0.44962,0.25674
1694639215414062,-8.335538,0.646194,5.373761,0.41891,0.33862,0.28874
1694639215421875,-8.344538,0.645194,5.373761,0.43791,0.27762,0.35274
1694639215429687,-8.342538,0.641194,5.378761,0.41791,0.28962,0.32174
1694639215437500,-8.337538,0.639194,5.364761,0.43691,0.23062,0.30474
1694639215445312,-8.315538,0.648194,5.369761,0.48591,0.27762,0.32074
1694639215453125,-8.312538,0.641194,5.366761,0.61991,0.33162,0.34974
1694639215460937,-8.319538,0.639194,5.375761,0.56691,0.23062,0.33574
1694639215468750,-8.330538,0.650194,5.382761,0.48891,0.20562,0.27074
1694639215476562,-8.346538,0.659194,5.384761,0.45291,0.23062,0.30474
1694639215484375,-8.352538,0.653194,5.384761,0.39391,0.16062,0.25374
1694639215492187,-8.346538,0.654194,5.377761,0.32691,0.24962,0.30274
1694639215500000,-8.343538,0.649194,5.357761,0.37591,0.29862,0.30274
1694639215507812,-8.357538,0.638194,5.339761,0.37691,0.18962,0.31874
1694639215515625,-8.382538,0.640194,5.337761,0.42091,0.19962,0.30474
1694639215523437,-8.411538,0.644194,5.339761,0.42391,0.17262,0.31874
1694639215531250,-8.427538,0.642194,5.330761,0.43791,0.15262,0.30374
1694639215539062,-8.435538,0.646194,5.332761,0.39191,0.21862,0.31874
1694639215546875,-8.425538,0.640194,5.326761,0.37291,0.16862,0.30374
1694639215554687,-8.420538,0.642194,5.330761,0.40291,0.22662,0.32174
1694639215562500,-8.416538,0.644194,5.330761,0.42091,0.26262,0.27274
1694639215570312,-8.396538,0.645194,5.335761,0.39891,0.37862,0.33874
1694639215578125,-8.360538,0.643194,5.360761,0.37091,0.38462,0.36874
1694639215585937,-8.337538,0.646194,5.391761,0.40391,0.38662,0.33674
1694639215593750,-8.313538,0.644194,5.387761,0.28991,0.31962,0.38574
1694639215601562,-8.291538,0.647194,5.400761,0.36991,0.22662,0.32174
1694639215609375,-8.281538,0.644194,5.409761,0.40391,0.20062,0.22474
1694639215617187,-8.283538,0.657194,5.398761,0.44291,0.12962,0.26974
1694639215625000,-8.281538,0.673194,5.393761,0.42091,0.23062,0.27274
1694639215632812,-8.303538,0.677194,5.411761,0.43891,0.17062,0.28774
1694639215640625,-8.339538,0.675194,5.418761,0.41791,0.24262,0.28974
1694639215648437,-8.348538,0.697194,5.412761,0.44991,0.21162,0.25774
1694639215656250,-8.370538,0.689194,5.378761,0.32391,0.16862,0.27274
1694639215664062,-8.386538,0.678194,5.366761,0.25791,0.10262,0.28974
1694639215671875,-8.410538,0.673194,5.341761,0.32791,0.15862,0.23874
1694639215679687,-8.424538,0.671194,5.326761,0.30791,0.13762,0.20874
1694639215687500,-8.424538,0.666194,5.326761,0.22891,0.26562,0.22274
1694639215695312,-8.424538,0.670194,5.332761,0.32691,0.34562,0.25474
1694639215703125,-8.415538,0.670194,5.330761,0.24591,0.31462,0.23874
1694639215710937,-8.406538,0.673194,5.335761,0.34091,0.34362,0.22374
1694639215718750,-8.384538,0.683194,5.362761,0.24091,0.36962,0.25674
1694639215726562,-8.359538,0.669194,5.355761,0.34291,0.36162,0.23874
1694639215734375,-8.346538,0.643194,5.348761,0.29291,0.37462,0.23974
1694639215742187,-8.340538,0.646194,5.335761,0.25591,0.36962,0.20974
1694639215750000,-8.347538,0.639194,5.328761,0.23891,0.35162,0.22574
1694639215757812,-8.372538,0.649194,5.321761,0.16591,0.34762,0.17374
1694639215765625,-8.400538,0.642194,5.330761,0.21091,0.34462,0.14374
1694639215773437,-8.423538,0.661194,5.319761,0.18191,0.36262,0.22174
1694639215781250,-8.431538,0.682194,5.308761,0.20891,0.35562,0.19274
1694639215789062,-8.430538,0.682194,5.308761,0.24191,0.43562,0.17574
1694639215796875,-8.415538,0.686194,5.292761,0.27591,0.42162,0.20774
1694639215804687,-8.407538,0.677194,5.271761,0.36291,0.39762,0.28474
1694639215812500,-8.396538,0.680194,5.244761,0.39091,0.37662,0.23874
1694639215820312,-8.379538,0.651194,5.253761,0.35791,0.39262,0.20674
1694639215828125,-8.364538,0.640194,5.265761,0.43791,0.32862,0.22374
1694639215835937,-8.345538,0.633194,5.282761,0.31291,0.33362,0.25374
1694639215843750,-8.342538,0.630194,5.323761,0.24191,0.37362,0.15974
1694639215851562,-8.344538,0.632194,5.346761,0.16291,0.35962,0.19174
1694639215859375,-8.335538,0.630194,5.359761,0.18091,0.29962,0.15874
1694639215867187,-8.341538,0.624194,5.371761,0.16891,0.33562,0.20474
1694639215875000,-8.348538,0.627194,5.382761,0.17891,0.29462,0.25574
1694639215882812,-8.357538,0.640194,5.375761,0.22891,0.25062,0.23874
1694639215890625,-8.371538,0.638194,5.366761,0.24491,0.34362,0.31874
1694639215898437,-8.382538,0.656194,5.364761,0.32491,0.32662,0.28774
1694639215906250,-8.386538,0.669194,5.348761,0.45291,0.35762,0.23974
1694639215914062,-8.389538,0.647194,5.335761,0.42091,0.29362,0.28874
1694639215921875,-8.389538,0.638194,5.321761,0.43791,0.32662,0.31974
1694639215929687,-8.389538,0.640194,5.330761,0.41991,0.40262,0.32074
1694639215937500,-8.394538,0.629194,5.339761,0.43491,0.40062,0.30474
1694639215945312,-8.391538,0.636194,5.330761,0.41891,0.43162,0.35274
1694639215953125,-8.389538,0.647194,5.330761,0.43691,0.41762,0.36874
1694639215960937,-8.373538,0.645194,5.326761,0.42291,0.40562,0.35074
1694639215968750,-8.366538,0.636194,5.321761,0.39291,0.40962,0.34974
1694639215976562,-8.370538,0.629194,5.316761,0.40991,0.42662,0.30174
1694639215984375,-8.361538,0.646194,5.330761,0.39491,0.33362,0.31674
1694639215992187,-8.350538,0.645194,5.334761,0.40891,0.33162,0.30174
1694639216000000,-8.361538,0.669194,5.359761,0.43691,0.35762,0.27174
1694639216007812,-8.363538,0.680194,5.368761,0.42691,0.28762,0.26874
1694639216015625,-8.383538,0.675194,5.357761,0.43791,0.29762,0.22274
1694639216023437,-8.387538,0.690194,5.359761,0.39391,0.36462,0.25374
1694639216031250,-8.389538,0.679194,5.350761,0.36391,0.39962,0.23574
1694639216039062,-8.383538,0.687194,5.344761,0.45491,0.37462,0.28674
1694639216046875,-8.367538,0.680194,5.357761,0.42391,0.32962,0.31874
1694639216054687,-8.378538,0.677194,5.366761,0.49091,0.44262,0.36574
1694639216062500,-8.368538,0.669194,5.350761,0.50391,0.35962,0.31874
1694639216070312,-8.369538,0.643194,5.346761,0.43691,0.37062,0.32074
1694639216078125,-8.359538,0.638194,5.366761,0.42391,0.37662,0.27074
1694639216085937,-8.352538,0.634194,5.364761,0.52091,0.41062,0.25374
1694639216093750,-8.348538,0.647194,5.373761,0.53791,0.42562,0.30174
1694639216101562,-8.359538,0.643194,5.382761,0.43791,0.45262,0.28774
1694639216109375,-8.363538,0.664194,5.366761,0.42791,0.39762,0.36474
1694639216117187,-8.370538,0.678194,5.337761,0.43491,0.36962,0.30474
1694639216125000,-8.362538,0.686194,5.330761,0.42791,0.33562,0.28474
1694639216132812,-8.372538,0.687194,5.344761,0.43991,0.39262,0.31874
1694639216140625,-8.376538,0.679194,5.368761,0.42791,0.42862,0.31674
1694639216148437,-8.374538,0.678194,5.371761,0.42291,0.43962,0.27074
1694639216156250,-8.370538,0.692194,5.393761,0.38691,0.46462,0.28874
1694639216164062,-8.368538,0.689194,5.382761,0.40591,0.46862,0.27174
1694639216171875,-8.347538,0.707194,5.384761,0.24491,0.59662,0.23874
1694639216179687,-8.324538,0.702194,5.380761,0.21591,0.48962,0.28574
1694639216187500,-8.315538,0.711194,5.384761,0.23291,0.46062,0.25274
1694639216195312,-8.302538,0.707194,5.380761,0.21591,0.41162,0.23774
1694639216203125,-8.316538,0.689194,5.373761,0.26391,0.37862,0.28574
1694639216210937,-8.322538,0.678194,5.386761,0.31291,0.34962,0.28574
1694639216218750,-8.329538,0.678194,5.362761,0.42291,0.31462,0.20674
1694639216226562,-8.334538,0.678194,5.368761,0.35791,0.23462,0.22274
1694639216234375,-8.354538,0.687194,5.366761,0.26091,0.26862,0.14274
1694639216242187,-8.351538,0.689194,5.371761,0.18391,0.28662,0.22174
1694639216250000,-8.354538,0.700194,5.366761,0.32791,0.30062,0.25374
1694639216257812,-8.351538,0.714194,5.359761,0.26191,0.28062,0.31874
1694639216265625,-8.372538,0.704194,5.368761,0.34291,0.29862,0.27074
1694639216273437,-8.372538,0.700194,5.373761,0.25991,0.24862,0.23974
1694639216281250,-8.372538,0.691194,5.366761,0.32691,0.28362,0.23874
1694639216289062,-8.361538,0.678194,5.377761,0.29591,0.28562,0.20574
1694639216296875,-8.366538,0.678194,5.389761,0.33891,0.32462,0.22474
1694639216304687,-8.346538,0.665194,5.405761,0.37191,0.37362,0.20774
1694639216312500,-8.335538,0.656194,5.402761,0.30791,0.35762,0.22374
1694639216320312,-8.319538,0.650194,5.416761,0.34191,0.42362,0.22274
1694639216328125,-8.337538,0.652194,5.411761,0.32491,0.34162,0.31974
1694639216335937,-8.352538,0.660194,5.411761,0.37791,0.38062,0.26974
1694639216343750,-8.350538,0.676194,5.407761,0.29191,0.42162,0.23974
1694639216351562,-8.358538,0.680194,5.404761,0.28191,0.31762,0.30174
1694639216359375,-8.361538,0.681194,5.375761,0.29091,0.37062,0.30474
1694639216367187,-8.379538,0.676194,5.366761,0.37491,0.31262,0.30274
1694639216375000,-8.390538,0.668194,5.366761,0.37591,0.34762,0.20574
1694639216382812,-8.390538,0.646194,5.359761,0.39091,0.39262,0.28674
1694639216390625,-8.395538,0.649194,5.353761,0.43891,0.32862,0.28674
1694639216398437,-8.388538,0.647194,5.364761,0.40691,0.37462,0.30274
1694639216406250,-8.372538,0.653194,5.373761,0.40791,0.39262,0.28674
1694639216414062,-8.355538,0.663194,5.384761,0.45391,0.34162,0.27174
1694639216421875,-8.343538,0.665194,5.382761,0.35691,0.34362,0.22374
1694639216429687,-8.345538,0.672194,5.398761,0.29291,0.39062,0.25574
1694639216437500,-8.333538,0.693194,5.402761,0.29891,0.38162,0.30074
1694639216445312,-8.328538,0.693194,5.393761,0.31491,0.33762,0.21974
1694639216453125,-8.319538,0.699194,5.409761,0.20891,0.32262,0.25674
1694639216460937,-8.328538,0.679194,5.425761,0.28891,0.30462,0.27374
1694639216468750,-8.328538,0.672194,5.416761,0.32391,0.38862,0.27174
1694639216476562,-8.332538,0.650194,5.398761,0.37291,0.35762,0.31974
1694639216484375,-8.331538,0.632194,5.378761,0.40491,0.37362,0.27174
1694639216492187,-8.327538,0.617194,5.398761,0.35391,0.38462,0.28874
1694639216500000,-8.340538,0.621194,5.382761,0.25991,0.38862,0.28774
1694639216507812,-8.335538,0.632194,5.357761,0.37191,0.41962,0.25574
1694639216515625,-8.341538,0.629194,5.362761,0.28091,0.39562,0.31774
1694639216523437,-8.359538,0.645194,5.357761,0.30891,0.37562,0.22374
1694639216531250,-8.381538,0.656194,5.362761,0.34191,0.37462,0.28774
1694639216539062,-8.404538,0.669194,5.348761,0.40291,0.32262,0.33674
1694639216546875,-8.397538,0.671194,5.335761,0.44091,0.34562,0.31874
1694639216554687,-8.390538,0.651194,5.344761,0.34591,0.31562,0.36574
1694639216562500,-8.384538,0.651194,5.341761,0.32391,0.21562,0.25674
1694639216570312,-8.361538,0.645194,5.377761,0.37591,0.23662,0.30274
1694639216578125,-8.350538,0.649194,5.393761,0.32791,0.17362,0.30274
1694639216585937,-8.321538,0.657194,5.396761,0.27591,0.16862,0.32074
1694639216593750,-8.301538,0.648194,5.409761,0.30791,0.16862,0.30474
1694639216601562,-8.301538,0.646194,5.418761,0.27591,0.16862,0.32074
1694639216609375,-8.320538,0.644194,5.425761,0.25591,0.19362,0.32174
1694639216617187,-8.337538,0.654194,5.438761,0.39191,0.18762,0.30274
1694639216625000,-8.370538,0.653194,5.450761,0.22991,0.28362,0.25474
1694639216632812,-8.384538,0.656194,5.452761,0.30891,0.20162,0.25574
1694639216640625,-8.391538,0.642194,5.439761,0.25891,0.30862,0.30474
1694639216648437,-8.381538,0.644194,5.414761,0.31091,0.34562,0.31874
1694639216656250,-8.380538,0.645194,5.411761,0.27591,0.32562,0.30374
1694639216664062,-8.388538,0.647194,5.375761,0.37491,0.29662,0.31874
1694639216671875,-8.386538,0.647194,5.341761,0.37491,0.24962,0.30274
1694639216679687,-8.395538,0.658194,5.332761,0.35891,0.31262,0.31874
1694639216687500,-8.387538,0.656194,5.314761,0.41791,0.32062,0.30574
1694639216695312,-8.357538,0.656194,5.328761,0.42091,0.33962,0.35274
1694639216703125,-8.343538,0.649194,5.357761,0.43991,0.43862,0.35074
1694639216710937,-8.320538,0.647194,5.386761,0.34691,0.38162,0.33274
1694639216718750,-8.298538,0.645194,5.398761,0.28191,0.34862,0.33374
1694639216726562,-8.288538,0.644194,5.411761,0.34091,0.40662,0.25574
1694639216734375,-8.278538,0.650194,5.400761,0.29891,0.33562,0.30074
1694639216742187,-8.270538,0.639194,5.389761,0.31191,0.26762,0.31874
1694639216750000,-8.287538,0.641194,5.382761,0.34391,0.15862,0.28674
1694639216757812,-8.303538,0.643194,5.353761,0.37791,0.16062,0.30174
1694639216765625,-8.335538,0.665194,5.341761,0.34091,0.13762,0.31974
1694639216773437,-8.354538,0.678194,5.332761,0.45791,0.11162,0.28674
1694639216781250,-8.370538,0.671194,5.337761,0.42591,0.8062,0.30174
1694639216789062,-8.395538,0.653194,5.350761,0.44291,0.8062,0.36574
1694639216796875,-8.415538,0.660194,5.344761,0.42191,0.13762,0.31974
1694639216804687,-8.415538,0.657194,5.355761,0.40891,0.15862,0.30274
1694639216812500,-8.426538,0.652194,5.348761,0.44291,0.17562,0.33374
1694639216820312,-8.413538,0.673194,5.335761,0.42291,0.12362,0.30374
1694639216828125,-8.412538,0.668194,5.323761,0.40891,0.20562,0.27074
1694639216835937,-8.394538,0.664194,5.339761,0.32991,0.19162,0.31774
1694639216843750,-8.386538,0.655194,5.350761,0.35891,0.28162,0.28674
1694639216851562,-8.371538,0.640194,5.359761,0.35691,0.27962,0.30374
1694639216859375,-8.357538,0.638194,5.357761,0.32891,0.17562,0.28574
1694639216867187,-8.353538,0.641194,5.357761,0.40291,0.19862,0.22474
1694639216875000,-8.342538,0.630194,5.350761,0.32191,0.27862,0.17674
1694639216882812,-8.345538,0.640194,5.337761,0.34391,0.28562,0.23774
1694639216890625,-8.355538,0.638194,5.323761,0.40491,0.29562,0.23974
1694639216898437,-8.361538,0.646194,5.321761,0.36391,0.36662,0.33274
1694639216906250,-8.361538,0.644194,5.330761,0.41291,0.30362,0.33274
1694639216914062,-8.375538,0.647194,5.359761,0.42291,0.29462,0.35174
1694639216921875,-8.399538,0.657194,5.355761,0.40891,0.32962,0.33474
1694639216929687,-8.401538,0.660194,5.362761,0.44091,0.26762,0.30274
1694639216937500,-8.385538,0.671194,5.337761,0.42491,0.26762,0.30274
1694639216945312,-8.392538,0.668194,5.319761,0.42691,0.20662,0.31774
1694639216953125,-8.373538,0.669194,5.319761,0.45291,0.19962,0.28874
1694639216960937,-8.365538,0.669194,5.316761,0.44191,0.25362,0.30174
1694639216968750,-8.360538,0.671194,5.307761,0.37891,0.22462,0.31674
1694639216976562,-8.354538,0.671194,5.332761,0.35891,0.21862,0.30274
1694639216984375,-8.354538,0.667194,5.343761,0.41191,0.19362,0.31674
1694639216992187,-8.373538,0.674194,5.355761,0.42091,0.15262,0.28774
1694639217000000,-8.382538,0.675194,5.343761,0.36591,0.19662,0.29974
1694639217007812,-8.386538,0.669194,5.332761,0.37491,0.24962,0.31874
1694639217015625,-8.383538,0.659194,5.328761,0.23291,0.33362,0.30174
1694639217023437,-8.374538,0.644194,5.330761,0.39491,0.31762,0.30074
1694639217031250,-8.377538,0.649194,5.332761,0.34491,0.30062,0.26974
1694639217039062,-8.375538,0.634194,5.328761,0.40391,0.27762,0.28874
1694639217046875,-8.375538,0.634194,5.339761,0.43891,0.31262,0.28674
1694639217054687,-8.376538,0.639194,5.341761,0.44791,0.26062,0.34674
1694639217062500,-8.379538,0.642194,5.350761,0.42591,0.17362,0.35074
1694639217070312,-8.388538,0.639194,5.366761,0.44491,0.21062,0.31674
1694639217078125,-8.396538,0.643194,5.357761,0.41491,0.21262,0.34774
1694639217085937,-8.390538,0.643194,5.343761,0.38191,0.19662,0.33174
1694639217093750,-8.379538,0.644194,5.328761,0.42791,0.31762,0.38074
1694639217101562,-8.371538,0.643194,5.341761,0.39091,0.21662,0.35174
1694639217109375,-8.361538,0.645194,5.330761,0.34391,0.24962,0.36674
1694639217117187,-8.352538,0.654194,5.307761,0.34291,0.28162,0.30274
1694639217125000,-8.361538,0.654194,5.321761,0.40691,0.17062,0.33574
1694639217132812,-8.390538,0.644194,5.323761,0.42591,0.15862,0.31874
1694639217140625,-8.404538,0.646194,5.314761,0.40891,0.22062,0.30274
1694639217148437,-8.410538,0.659194,5.312761,0.42891,0.28862,0.31674
1694639217156250,-8.415538,0.668194,5.308761,0.35891,0.29662,0.30274
1694639217164062,-8.413538,0.657194,5.317761,0.39091,0.24762,0.35174
1694639217171875,-8.406538,0.652194,5.316761,0.39591,0.30162,0.38074
1694639217179687,-8.387538,0.638194,5.314761,0.37391,0.23062,0.39974
1694639217187500,-8.377538,0.645194,5.296761,0.37291,0.19962,0.35174
1694639217195312,-8.377538,0.667194,5.301761,0.44091,0.20262,0.36674
1694639217203125,-8.371538,0.661194,5.300761,0.43391,0.21562,0.42674
1694639217210937,-8.372538,0.669194,5.303761,0.45791,0.17362,0.33474
1694639217218750,-8.372538,0.667194,5.305761,0.37691,0.17362,0.33474
1694639217226562,-8.398538,0.645194,5.292761,0.34191,0.13662,0.35174
1694639217234375,-8.413538,0.653194,5.296761,0.40391,0.16662,0.30474
1694639217242187,-8.441538,0.670194,5.319761,0.34491,0.15862,0.30274
1694639217250000,-8.460538,0.672194,5.326761,0.37391,0.12462,0.20774
1694639217257812,-8.482538,0.701194,5.323761,0.30791,0.19962,0.25674
1694639217265625,-8.488538,0.718194,5.305761,0.29591,0.17362,0.28674
1694639217273437,-8.482538,0.690194,5.287761,0.45391,0.26362,0.28774
1694639217281250,-8.471538,0.676194,5.280761,0.40791,0.34262,0.38274
1694639217289062,-8.433538,0.653194,5.276761,0.37291,0.35762,0.30374
1694639217296875,-8.391538,0.651194,5.285761,0.43491,0.38762,0.20874
1694639217304687,-8.354538,0.636194,5.287761,0.35991,0.36362,0.22174
1694639217312500,-8.331538,0.632194,5.303761,0.32191,0.38762,0.20874
1694639217320312,-8.308538,0.642194,5.312761,0.30591,0.34062,0.19274
1694639217328125,-8.312538,0.636194,5.337761,0.19791,0.25262,0.22274
1694639217335937,-8.306538,0.635194,5.339761,0.19191,0.22962,0.19274
1694639217343750,-8.326538,0.625194,5.362761,0.21191,0.15762,0.14274
1694639217351562,-8.339538,0.636194,5.362761,0.19491,0.27962,0.19174
1694639217359375,-8.343538,0.642194,5.350761,0.23291,0.22462,0.22174
1694639217367187,-8.368538,0.640194,5.323761,0.32391,0.26462,0.22374
1694639217375000,-8.397538,0.629194,5.307761,0.34291,0.20362,0.25474
1694639217382812,-8.424538,0.630194,5.310761,0.37591,0.17462,0.27074
1694639217390625,-8.454538,0.623194,5.303761,0.40791,0.15662,0.28674
1694639217398437,-8.468538,0.638194,5.294761,0.42891,0.25762,0.30074
1694639217406250,-8.471538,0.636194,5.294761,0.39191,0.23462,0.31874
1694639217414062,-8.455538,0.648194,5.280761,0.40691,0.26562,0.28674
1694639217421875,-8.429538,0.635194,5.262761,0.41991,0.27562,0.30474
1694639217429687,-8.411538,0.638194,5.251761,0.38891,0.32662,0.28774
1694639217437500,-8.397538,0.635194,5.269761,0.45691,0.37862,0.26974
1694639217445312,-8.377538,0.640194,5.292761,0.37291,0.34162,0.28774
1694639217453125,-8.393538,0.651194,5.314761,0.29191,0.34262,0.22374
1694639217460937,-8.395538,0.655194,5.314761,0.21191,0.31262,0.22374
1694639217468750,-8.392538,0.679194,5.325761,0.32891,0.28762,0.23774
1694639217476562,-8.374538,0.664194,5.332761,0.37691,0.30062,0.23774
1694639217484375,-8.393538,0.655194,5.328761,0.32491,0.29762,0.22274
1694639217492187,-8.402538,0.651194,5.319761,0.43391,0.26162,0.16074
1694639217500000,-8.402538,0.645194,5.296761,0.41991,0.16962,0.19274
1694639217507812,-8.389538,0.636194,5.294761,0.38891,0.21762,0.22374
1694639217515625,-8.401538,0.635194,5.292761,0.40991,0.24062,0.20574
1694639217523437,-8.411538,0.631194,5.294761,0.37591,0.22162,0.23874
1694639217531250,-8.411538,0.633194,5.296761,0.31091,0.25262,0.20674
1694639217539062,-8.418538,0.622194,5.298761,0.40691,0.17262,0.20674
1694639217546875,-8.424538,0.630194,5.294761,0.40691,0.26862,0.19074
1694639217554687,-8.422538,0.639194,5.305761,0.40591,0.26662,0.20674
1694639217562500,-8.411538,0.637194,5.305761,0.35891,0.26862,0.19074
1694639217570312,-8.411538,0.637194,5.307761,0.37591,0.20562,0.20674
1694639217578125,-8.404538,0.639194,5.316761,0.32891,0.25362,0.26974
1694639217585937,-8.395538,0.633194,5.312761,0.37491,0.29662,0.28674
1694639217593750,-8.402538,0.628194,5.307761,0.40791,0.31462,0.25474
1694639217601562,-8.398538,0.633194,5.278761,0.40591,0.27962,0.27174
1694639217609375,-8.417538,0.635194,5.267761,0.31191,0.30062,0.25374
1694639217617187,-8.417538,0.644194,5.265761,0.37491,0.36162,0.23874
1694639217625000,-8.397538,0.637194,5.262761,0.44291,0.42962,0.26874
1694639217632812,-8.399538,0.653194,5.271761,0.42691,0.41162,0.33374
1694639217640625,-8.401538,0.653194,5.292761,0.42491,0.42462,0.33374
1694639217648437,-8.393538,0.651194,5.292761,0.40491,0.40162,0.38474
1694639217656250,-8.392538,0.657194,5.278761,0.44391,0.44362,0.38074
1694639217664062,-8.383538,0.668194,5.240761,0.42491,0.42462,0.33374
1694639217671875,-8.371538,0.684194,5.224761,0.44291,0.41162,0.36574
1694639217679687,-8.365538,0.675194,5.217761,0.42491,0.34762,0.30174
1694639217687500,-8.381538,0.673194,5.226761,0.39391,0.28462,0.31774
1694639217695312,-8.389538,0.675194,5.237761,0.31591,0.29062,0.28374
1694639217703125,-8.396538,0.668194,5.258761,0.29691,0.22462,0.22174
1694639217710937,-8.401538,0.670194,5.278761,0.34791,0.14862,0.22074
1694639217718750,-8.410538,0.668194,5.276761,0.29891,0.19562,0.23674
1694639217726562,-8.407538,0.645194,5.287761,0.36491,0.29062,0.26774
1694639217734375,-8.406538,0.657194,5.294761,0.32791,0.28562,0.25374
1694639217742187,-8.408538,0.646194,5.301761,0.40691,0.29662,0.30274
1694639217750000,-8.399538,0.650194,5.305761,0.33191,0.30362,0.31674
1694639217757812,-8.404538,0.644194,5.307761,0.32891,0.31562,0.30174
1694639217765625,-8.404538,0.640194,5.308761,0.37291,0.34162,0.25574
1694639217773437,-8.420538,0.642194,5.301761,0.46991,0.32662,0.31974
1694639217781250,-8.424538,0.643194,5.328761,0.50591,0.37862,0.26974
1694639217789062,-8.442538,0.652194,5.332761,0.47091,0.37762,0.20674
1694639217796875,-8.446538,0.659194,5.319761,0.50391,0.42362,0.28674
1694639217804687,-8.440538,0.644194,5.303761,0.42291,0.42162,0.31974
1694639217812500,-8.442538,0.639194,5.269761,0.45191,0.35562,0.28874
1694639217820312,-8.447538,0.644194,5.240761,0.37191,0.48262,0.27174
1694639217828125,-8.436538,0.637194,5.222761,0.41891,0.57362,0.30474
1694639217835937,-8.427538,0.640194,5.242761,0.37091,0.43062,0.36874
1694639217843750,-8.407538,0.625194,5.247761,0.28791,0.47862,0.20974
1694639217851562,-8.371538,0.625194,5.258761,0.38791,0.59062,0.31974
1694639217859375,-8.362538,0.632194,5.280761,0.43591,0.65362,0.31974
1694639217867187,-8.351538,0.638194,5.301761,0.41991,0.55962,0.30374
1694639217875000,-8.351538,0.643194,5.317761,0.43491,0.54262,0.30474
1694639217882812,-8.357538,0.656194,5.337761,0.41891,0.58862,0.32074
1694639217890625,-8.355538,0.665194,5.353761,0.51591,0.44962,0.28874
1694639217898437,-8.352538,0.674194,5.357761,0.46991,0.40462,0.30374
1694639217906250,-8.350538,0.670194,5.346761,0.43691,0.37062,0.32074
1694639217914062,-8.354538,0.683194,5.366761,0.43891,0.39062,0.31874
1694639217921875,-8.360538,0.695194,5.353761,0.45891,0.38062,0.30174
1694639217929687,-8.366538,0.685194,5.357761,0.42091,0.27762,0.32074
1694639217937500,-8.376538,0.673194,5.339761,0.44391,0.30462,0.26874
1694639217945312,-8.367538,0.664194,5.321761,0.42591,0.28762,0.23774
1694639217953125,-8.358538,0.649194,5.310761,0.42691,0.28962,0.18874
1694639217960937,-8.367538,0.640194,5.294761,0.44291,0.30462,0.20474
1694639217968750,-8.379538,0.635194,5.301761,0.42391,0.28362,0.22274
1694639217976562,-8.403538,0.639194,5.301761,0.40891,0.36562,0.20574
1694639217984375,-8.417538,0.637194,5.294761,0.43991,0.34762,0.20574
1694639217992187,-8.428538,0.646194,5.296761,0.42291,0.34562,0.22274
1694639218000000,-8.437538,0.670194,5.301761,0.42291,0.39262,0.23874
1694639218007812,-8.449538,0.679194,5.312761,0.43391,0.38562,0.20974
1694639218015625,-8.442538,0.677194,5.317761,0.41891,0.41862,0.25674
1694639218023437,-8.417538,0.684194,5.319761,0.40391,0.40262,0.28874
1694639218031250,-8.401538,0.702194,5.312761,0.40591,0.48662,0.20674
1694639218039062,-8.374538,0.716194,5.321761,0.22491,0.43362,0.24074
1694639218046875,-8.358538,0.713194,5.330761,0.17991,0.31262,0.20774
1694639218054687,-8.341538,0.721194,5.326761,0.14491,0.27762,0.20874
1694639218062500,-8.338538,0.721194,5.332761,0.9591,0.29362,0.12874
1694639218070312,-8.347538,0.709194,5.346761,0.12891,0.32662,0.14374
1694639218078125,-8.361538,0.687194,5.364761,0.12891,0.24862,0.12774
1694639218085937,-8.370538,0.680194,5.364761,0.12991,0.28262,0.9574
1694639218093750,-8.377538,0.655194,5.344761,0.8291,0.33062,0.11074
1694639218101562,-8.373538,0.641194,5.335761,0.1291,0.32362,0.9774
1694639218109375,-8.391538,0.635194,5.310761,0.16291,0.25162,0.9574
1694639218117187,-8.388538,0.631194,5.280761,0.16291,0.30062,0.4674
1694639218125000,-8.406538,0.644194,5.278761,0.17791,0.32962,0.9574
1694639218132812,-8.418538,0.629194,5.299761,0.24091,0.24762,0.9674
1694639218140625,-8.428538,0.629194,5.299761,0.20491,0.17962,0.5074
1694639218148437,-8.441538,0.638194,5.312761,0.15491,0.25562,0.13074
1694639218156250,-8.429538,0.646194,5.301761,0.32391,0.22062,0.7974
1694639218164062,-8.435538,0.641194,5.294761,0.34291,0.27062,0.10974
1694639218171875,-8.437538,0.639194,5.294761,0.16491,0.31762,0.7774
1694639218179687,-8.415538,0.635194,5.296761,0.22591,0.31162,0.9574
1694639218187500,-8.407538,0.634194,5.294761,0.20291,0.31762,0.9974
1694639218195312,-8.403538,0.629194,5.308761,0.35191,0.44762,0.16174
1694639218203125,-8.377538,0.634194,5.303761,0.33891,0.43562,0.20774
1694639218210937,-8.366538,0.647194,5.305761,0.37191,0.42062,0.22374
1694639218218750,-8.359538,0.642194,5.312761,0.43891,0.31462,0.20674
1694639218226562,-8.371538,0.632194,5.326761,0.42091,0.37362,0.22374
1694639218234375,-8.384538,0.635194,5.312761,0.43991,0.31462,0.22274
1694639218242187,-8.395538,0.635194,5.335761,0.42591,0.26962,0.26974
1694639218250000,-8.406538,0.637194,5.346761,0.44091,0.26762,0.28674
1694639218257812,-8.410538,0.639194,5.348761,0.42591,0.31562,0.31774
1694639218265625,-8.425538,0.638194,5.348761,0.43491,0.29162,0.28874
1694639218273437,-8.429538,0.637194,5.339761,0.42491,0.23662,0.30274
1694639218281250,-8.431538,0.640194,5.310761,0.42091,0.27762,0.32074
1694639218289062,-8.422538,0.646194,5.314761,0.46991,0.38862,0.30374
1694639218296875,-8.409538,0.645194,5.312761,0.46791,0.32262,0.32074
1694639218304687,-8.415538,0.660194,5.326761,0.46991,0.37362,0.27174
1694639218312500,-8.393538,0.667194,5.330761,0.41591,0.35062,0.27474
1694639218320312,-8.379538,0.676194,5.332761,0.43491,0.35362,0.32074
1694639218328125,-8.381538,0.682194,5.330761,0.43591,0.37162,0.30474
1694639218335937,-8.375538,0.694194,5.323761,0.45091,0.40062,0.32074
1694639218343750,-8.384538,0.701194,5.315761,0.41491,0.37962,0.32274
1694639218351562,-8.383538,0.686194,5.303761,0.42391,0.40762,0.30274
1694639218359375,-8.390538,0.682194,5.285761,0.37391,0.29462,0.31974
1694639218367187,-8.388538,0.671194,5.274761,0.35891,0.31262,0.30274
1694639218375000,-8.404538,0.669194,5.292761,0.35491,0.30662,0.35274
1694639218382812,-8.420538,0.671194,5.301761,0.38891,0.35562,0.35274
1694639218390625,-8.431538,0.670194,5.301761,0.42191,0.35762,0.33574
1694639218398437,-8.428538,0.655194,5.294761,0.43891,0.42162,0.33474
1694639218406250,-8.431538,0.652194,5.294761,0.42491,0.34562,0.35074
1694639218414062,-8.437538,0.652194,5.271761,0.42491,0.37862,0.31774
1694639218421875,-8.428538,0.650194,5.271761,0.44391,0.42862,0.34874
1694639218429687,-8.396538,0.652194,5.273761,0.42791,0.39762,0.33274
1694639218437500,-8.379538,0.658194,5.292761,0.43591,0.38662,0.27274
1694639218445312,-8.372538,0.671194,5.301761,0.42391,0.34562,0.27074
1694639218453125,-8.370538,0.669194,5.314761,0.50391,0.31262,0.31874
1694639218460937,-8.378538,0.675194,5.330761,0.42591,0.34962,0.26974
1694639218468750,-8.388538,0.673194,5.330761,0.51891,0.32662,0.30374
1694639218476562,-8.392538,0.682194,5.332761,0.55191,0.35962,0.28674
1694639218484375,-8.401538,0.680194,5.337761,0.45391,0.37262,0.30374
1694639218492187,-8.419538,0.684194,5.319761,0.51691,0.34062,0.25674
1694639218500000,-8.412538,0.673194,5.301761,0.58391,0.34362,0.30274
1694639218507812,-8.423538,0.672194,5.289761,0.55391,0.39462,0.30174
1694639218515625,-8.410538,0.664194,5.296761,0.50391,0.34362,0.31874
1694639218523437,-8.399538,0.660194,5.305761,0.53591,0.40562,0.36674
1694639218531250,-8.379538,0.671194,5.308761,0.50091,0.38662,0.32074
1694639218539062,-8.371538,0.668194,5.303761,0.47991,0.36362,0.29074
1694639218546875,-8.370538,0.665194,5.303761,0.42091,0.38862,0.30374
1694639218554687,-8.378538,0.663194,5.305761,0.43391,0.36762,0.32174
1694639218562500,-8.364538,0.677194,5.305761,0.38491,0.31862,0.32274
1694639218570312,-8.357538,0.679194,5.317761,0.37091,0.33762,0.28874
1694639218578125,-8.341538,0.681194,5.339761,0.37191,0.27762,0.27274
1694639218585937,-8.348538,0.681194,5.351761,0.40291,0.32262,0.25674
1694639218593750,-8.356538,0.702194,5.364761,0.42691,0.28662,0.31674
1694639218601562,-8.363538,0.718194,5.362761,0.43791,0.35762,0.28774
1694639218609375,-8.399538,0.711194,5.346761,0.41891,0.27662,0.24074
1694639218617187,-8.434538,0.721194,5.335761,0.40691,0.26562,0.28674
1694639218625000,-8.468538,0.721194,5.305761,0.40391,0.23162,0.25674
1694639218632812,-8.488538,0.705194,5.308761,0.37391,0.26362,0.30374
1694639218640625,-8.497538,0.709194,5.310761,0.40791,0.31462,0.31874
1694639218648437,-8.486538,0.710194,5.312761,0.38891,0.32662,0.28774
1694639218656250,-8.470538,0.703194,5.312761,0.37591,0.44062,0.30174
1694639218664062,-8.448538,0.674194,5.303761,0.37491,0.61162,0.31774
1694639218671875,-8.419538,0.673194,5.292761,0.38891,0.62362,0.31974
1694639218679687,-8.383538,0.660194,5.283761,0.42391,0.56562,0.28574
1694639218687500,-8.348538,0.663194,5.276761,0.40591,0.45262,0.28774
1694639218695312,-8.331538,0.671194,5.280761,0.24791,0.39562,0.26974
1694639218703125,-8.318538,0.676194,5.289761,0.35991,0.37862,0.22174
1694639218710937,-8.291538,0.676194,5.301761,0.29691,0.39562,0.28574
1694639218718750,-8.281538,0.691194,5.305761,0.27391,0.33762,0.28874
1694639218726562,-8.307538,0.688194,5.301761,0.19591,0.37462,0.27174
1694639218734375,-8.348538,0.692194,5.294761,0.12891,0.33962,0.20874
1694639218742187,-8.386538,0.681194,5.294761,0.9291,0.20962,0.22674
1694639218750000,-8.415538,0.673194,5.296761,0.11491,0.23462,0.19174
1694639218757812,-8.452538,0.681194,5.276761,0.14991,0.25162,0.27074
1694639218765625,-8.466538,0.683194,5.283761,0.17891,0.38762,0.31974
1694639218773437,-8.448538,0.679194,5.299761,0.30891,0.38762,0.36774
1694639218781250,-8.448538,0.663194,5.285761,0.42391,0.31262,0.35074
1694639218789062,-8.425538,0.674194,5.251761,0.40991,0.31562,0.33374
1694639218796875,-8.397538,0.677194,5.247761,0.43991,0.29662,0.33474
1694639218804687,-8.355538,0.701194,5.260761,0.36991,0.32062,0.30574
1694639218812500,-8.320538,0.716194,5.274761,0.37591,0.34462,0.35074
1694639218820312,-8.316538,0.728194,5.296761,0.40391,0.35562,0.28874
1694639218828125,-8.316538,0.719194,5.332761,0.45491,0.35962,0.30274
1694639218835937,-8.343538,0.712194,5.384761,0.32691,0.28062,0.31874
1694639218843750,-8.379538,0.685194,5.421761,0.14491,0.27562,0.32074
1694639218851562,-8.417538,0.668194,5.414761,0.14791,0.16962,0.30374
1694639218859375,-8.422538,0.657194,5.391761,0.17891,0.26462,0.20774
1694639218867187,-8.413538,0.642194,5.359761,0.6491,0.31062,0.20774
1694639218875000,-8.411538,0.637194,5.346761,0.6691,0.29662,0.22374
1694639218882812,-8.411538,0.635194,5.335761,0.17891,0.26362,0.25574
1694639218890625,-8.420538,0.638194,5.319761,0.16091,0.32462,0.24074
1694639218898437,-8.411538,0.624194,5.308761,0.17691,0.34062,0.20874
1694639218906250,-8.412538,0.627194,5.296761,0.33791,0.38462,0.28874
1694639218914062,-8.411538,0.631194,5.292761,0.45391,0.34162,0.28774
1694639218921875,-8.413538,0.619194,5.267761,0.42691,0.25862,0.17274
1694639218929687,-8.417538,0.628194,5.271761,0.43891,0.34562,0.22274
1694639218937500,-8.405538,0.641194,5.301761,0.42591,0.39862,0.17274
1694639218945312,-8.406538,0.642194,5.314761,0.40591,0.39362,0.15874
1694639218953125,-8.404538,0.644194,5.314761,0.43391,0.41962,0.11274
1694639218960937,-8.400538,0.642194,5.310761,0.41791,0.40362,0.14474
1694639218968750,-8.388538,0.644194,5.328761,0.38991,0.42462,0.15874
1694639218976562,-8.379538,0.638194,5.319761,0.38891,0.34462,0.17574
1694639218984375,-8.376538,0.618194,5.305761,0.40291,0.26362,0.14474
1694639218992187,-8.374538,0.631194,5.298761,0.44291,0.22762,0.15674
1694639219000000,-8.386538,0.616194,5.296761,0.45491,0.15762,0.20674
1694639219007812,-8.394538,0.605194,5.301761,0.46891,0.29562,0.22374
1694639219015625,-8.409538,0.604194,5.323761,0.43691,0.29562,0.23974
1694639219023437,-8.416538,0.606194,5.330761,0.42191,0.32862,0.25474
1694639219031250,-8.411538,0.622194,5.303761,0.43791,0.35762,0.31974
1694639219039062,-8.412538,0.627194,5.308761,0.45191,0.32262,0.32074
1694639219046875,-8.413538,0.631194,5.305761,0.48691,0.40362,0.36774
1694639219054687,-8.410538,0.643194,5.308761,0.46391,0.37862,0.35474
1694639219062500,-8.408538,0.653194,5.298761,0.42291,0.42062,0.36674
1694639219070312,-8.404538,0.660194,5.296761,0.42391,0.35862,0.36674
1694639219078125,-8.393538,0.672194,5.310761,0.44791,0.33262,0.33874
1694639219085937,-8.391538,0.677194,5.299761,0.49491,0.36162,0.30774
1694639219093750,-8.389538,0.674194,5.303761,0.43491,0.28962,0.32174
1694639219101562,-8.401538,0.678194,5.301761,0.46991,0.29562,0.23974
1694639219109375,-8.431538,0.691194,5.301761,0.41791,0.30462,0.30574
1694639219117187,-8.449538,0.700194,5.321761,0.43391,0.30462,0.32174
1694639219125000,-8.446538,0.699194,5.332761,0.24291,0.15362,0.24074
1694639219132812,-8.430538,0.706194,5.319761,0.16191,0.19962,0.19274
1694639219140625,-8.401538,0.697194,5.312761,0.18191,0.34762,0.17374
1694639219148437,-8.379538,0.687194,5.285761,0.16291,0.27962,0.20774
1694639219156250,-8.359538,0.680194,5.280761,0.19691,0.31262,0.28674
1694639219164062,-8.357538,0.678194,5.299761,0.28991,0.37162,0.24074
1694639219171875,-8.368538,0.680194,5.326761,0.25991,0.40362,0.30374
1694639219179687,-8.381538,0.676194,5.332761,0.38891,0.32662,0.27174
1694639219187500,-8.390538,0.687194,5.330761,0.37191,0.30862,0.30474
1694639219195312,-8.410538,0.698194,5.332761,0.45191,0.43362,0.30474
1694639219203125,-8.422538,0.706194,5.326761,0.51491,0.38562,0.25674
1694639219210937,-8.435538,0.706194,5.330761,0.48291,0.41562,0.32074
1694639219218750,-8.451538,0.710194,5.328761,0.46691,0.40062,0.25674
1694639219226562,-8.435538,0.699194,5.308761,0.38691,0.51162,0.28874
