time,Acceleration X (m/s^2),Acceleration Y (m/s^2),Acceleration Z (m/s^2),Angular Velocity X (rad/s),Angular Velocity Y (rad/s),Angular Velocity Z (rad/s)
1694639093406250,-8.774824,-0.681861,4.912564,,,
1694639093414062,-8.778824,0.670861,4.917564,0.1256,0.1356,0.33107
1694639093421875,-8.788824,0.641861,4.922564,0.1856,0.3196,0.25307
1694639093429687,-8.774824,0.630861,4.892564,0.1726,0.2946,0.23507
1694639093437500,-8.761824,0.611861,4.881564,0.1676,0.2556,0.20507
1694639093445312,-8.758824,0.617861,4.903564,0.2046,0.2326,0.12307
1694639093460937,-8.740824,0.649861,4.971564,0.3136,0.4006,0.7607
1694639093468750,-8.725824,0.660861,4.980564,0.4066,0.5686,0.9407
1694639093476562,-8.696824,0.652861,4.962564,0.4366,0.5986,0.6207
1694639093484375,-8.655824,0.661861,4.949564,0.5216,0.6356,0.7707
1694639093507812,-8.585824,0.646861,4.955564,0.5586,0.6716,0.13907
1694639093515625,-8.564824,0.640861,4.966564,0.5076,0.7296,0.17207
1694639093523437,-8.539824,0.649861,4.991564,0.5056,0.7436,0.12507
1694639093531250,-8.528824,0.647861,4.998564,0.4736,0.7436,0.14107
1694639093539062,-8.534824,0.658861,5.3564,0.4436,0.7316,0.17107
1694639093546875,-8.540824,0.661861,5.12564,0.4366,0.6886,0.20707
1694639093554687,-8.532824,0.669861,4.978564,0.4266,0.6496,0.25207
1694639093562500,-8.537824,0.676861,4.948564,0.4096,0.6476,0.28507
1694639093570312,-8.538824,0.667861,4.928564,0.4446,0.6356,0.28407
1694639093578125,-8.528824,0.661861,4.915564,0.4226,0.7216,0.30207
1694639093585937,-8.532824,0.663861,4.901564,0.4416,0.6606,0.33407
1694639093593750,-8.541824,0.654861,4.901564,0.4256,0.6786,0.31707
1694639093601562,-8.533824,0.639861,4.917564,0.4426,0.6156,0.34907
1694639093609375,-8.534824,0.636861,4.937564,0.3966,0.6506,0.34807
1694639093617187,-8.553824,0.632861,4.946564,0.3626,0.5066,0.30107
1694639093625000,-8.584824,0.633861,4.935564,0.4136,0.4166,0.31507
1694639093632812,-8.624824,0.635861,4.937564,0.3326,0.4166,0.28307
1694639093640625,-8.656824,0.632861,4.939564,0.3156,0.3376,0.28407
1694639093648437,-8.676824,0.632861,4.912564,0.3806,0.3216,0.28407
1694639093656250,-8.665824,0.623861,4.928564,0.4096,0.3956,0.28507
1694639093664062,-8.674824,0.619861,4.944564,0.4416,0.3786,0.28607
1694639093671875,-8.671824,0.621861,4.951564,0.4296,0.4016,0.29907
1694639093679687,-8.647824,0.607861,4.982564,0.5136,0.4056,0.28207
1694639093687500,-8.633824,0.603861,4.964564,0.6386,0.4646,0.23507
1694639093695312,-8.621824,0.605861,4.937564,0.6966,0.4376,0.31907
1694639093703125,-8.627824,0.602861,4.946564,0.5886,0.3986,0.23707
1694639093710937,-8.660824,0.617861,4.962564,0.5576,0.4006,0.22007
1694639093718750,-8.682824,0.640861,4.971564,0.6896,0.4216,0.18607
1694639093726562,-8.696824,0.667861,4.989564,0.7156,0.5706,0.20507
1694639093734375,-8.682824,0.708861,4.985564,0.7126,0.6756,0.19007
1694639093742187,-8.663824,0.736861,5.564,0.7836,0.6386,0.18707
1694639093750000,-8.634824,0.743861,5.7564,0.8456,0.7156,0.10807
1694639093757812,-8.595824,0.761861,4.980564,0.7686,0.6386,0.23507
1694639093765625,-8.553824,0.764861,4.937564,0.7346,0.6516,0.25207
1694639093773437,-8.504824,0.757861,4.901564,0.6656,0.6776,0.20607
1694639093781250,-8.475824,0.742861,4.930564,0.5676,0.6906,0.25407
1694639093789062,-8.473824,0.750861,4.976564,0.4406,0.6636,0.15707
1694639093796875,-8.468824,0.750861,5.32564,0.4106,0.5876,0.18807
1694639093804687,-8.475824,0.737861,5.55564,0.3436,0.4276,0.17307
1694639093812500,-8.514824,0.726861,5.50564,0.4076,0.3796,0.14207
1694639093820312,-8.560824,0.711861,5.41564,0.3136,0.3536,0.12407
1694639093828125,-8.585824,0.706861,5.41564,0.1706,0.3706,0.15607
1694639093835937,-8.601824,0.704861,5.43564,0.2166,0.3226,0.9207
1694639093843750,-8.601824,0.702861,5.14564,0.2646,0.3826,0.18907
1694639093851562,-8.581824,0.702861,4.987564,0.3156,0.3866,0.15607
1694639093859375,-8.566824,0.676861,4.964564,0.3126,0.3986,0.14107
1694639093867187,-8.552824,0.663861,4.964564,0.2006,0.3976,0.22107
1694639093875000,-8.555824,0.641861,4.987564,0.2156,0.4116,0.23707
1694639093882812,-8.557824,0.643861,4.967564,0.2306,0.4436,0.18907
1694639093890625,-8.553824,0.636861,4.969564,0.1356,0.4286,0.22107
1694639093898437,-8.537824,0.630861,4.960564,0.1676,0.5076,0.20507
1694639093906250,-8.534824,0.628861,4.973564,0.1626,0.5306,0.22307
1694639093914062,-8.511824,0.610861,4.987564,0.1026,0.5846,0.20507
1694639093921875,-8.510824,0.621861,4.973564,0.1516,0.4446,0.17307
1694639093929687,-8.510824,0.601861,4.987564,0.1876,0.3876,0.20307
1694639093937500,-8.511824,0.588861,4.978564,0.1706,0.2926,0.17107
1694639093945312,-8.506824,0.585861,4.973564,0.1556,0.1686,0.17107
1694639093953125,-8.515824,0.592861,4.978564,0.1856,0.2266,0.20507
1694639093960937,-8.533824,0.601861,4.980564,0.2336,0.1956,0.18907
1694639093968750,-8.550824,0.602861,4.964564,0.1906,0.1876,0.23407
1694639093976562,-8.556824,0.603861,4.953564,0.2826,0.1646,0.23607
1694639093984375,-8.556824,0.603861,4.940564,0.3626,0.1606,0.31807
1694639093992187,-8.585824,0.591861,4.935564,0.4456,0.1326,0.30007
1694639094000000,-8.609824,0.593861,4.937564,0.4316,0.1496,0.36407
1694639094007812,-8.614824,0.584861,4.939564,0.5276,0.1346,0.31607
1694639094015625,-8.627824,0.586861,4.955564,0.5116,0.2126,0.34807
1694639094023437,-8.630824,0.579861,4.976564,0.6076,0.3066,0.33207
1694639094031250,-8.623824,0.591861,5.12564,0.6716,0.3196,0.36407
1694639094039062,-8.616824,0.600861,5.34564,0.7046,0.3686,0.36407
1694639094046875,-8.618824,0.618861,5.53564,0.6996,0.3946,0.33407
1694639094054687,-8.626824,0.639861,5.37564,0.6556,0.3836,0.38007
1694639094062500,-8.615824,0.666861,5.18564,0.6406,0.4326,0.39507
1694639094070312,-8.627824,0.685861,5.18564,0.5136,0.4366,0.36207
1694639094078125,-8.643824,0.714861,5.12564,0.5106,0.4146,0.42807
1694639094085937,-8.636824,0.721861,5.16564,0.5436,0.4946,0.36307
1694639094093750,-8.631824,0.732861,5.7564,0.5926,0.5276,0.37907
1694639094101562,-8.617824,0.713861,5.5564,0.4606,0.5216,0.39707
1694639094109375,-8.599824,0.704861,5.5564,0.4616,0.5086,0.36407
1694639094117187,-8.560824,0.675861,5.12564,0.4346,0.4226,0.34507
1694639094125000,-8.553824,0.665861,5.16564,0.4416,0.4896,0.31707
1694639094132812,-8.532824,0.647861,5.9564,0.3956,0.5556,0.31607
1694639094140625,-8.532824,0.638861,5.23564,0.3986,0.5126,0.28307
1694639094148437,-8.544824,0.636861,5.43564,0.4416,0.6476,0.30107
1694639094156250,-8.568824,0.631861,5.68564,0.4276,0.6336,0.31607
1694639094164062,-8.575824,0.624861,5.64564,0.4436,0.6176,0.30007
1694639094171875,-8.595824,0.622861,5.52564,0.4456,0.5576,0.31607
1694639094179687,-8.600824,0.615861,5.18564,0.4296,0.4176,0.28307
1694639094187500,-8.582824,0.616861,4.996564,0.4426,0.4266,0.31707
1694639094195312,-8.573824,0.620861,4.996564,0.4266,0.4266,0.34907
1694639094203125,-8.564824,0.623861,5.564,0.5406,0.3826,0.30107
1694639094210937,-8.544824,0.638861,5.18564,0.5406,0.3976,0.31707
1694639094218750,-8.537824,0.632861,5.25564,0.5406,0.3826,0.30107
1694639094226562,-8.539824,0.643861,5.21564,0.5106,0.3866,0.29907
1694639094234375,-8.550824,0.652861,5.39564,0.6216,0.3976,0.31707
1694639094242187,-8.537824,0.661861,5.25564,0.4766,0.4446,0.33307
1694639094250000,-8.543824,0.654861,5.23564,0.4446,0.4306,0.31607
1694639094257812,-8.555824,0.647861,5.21564,0.4946,0.4636,0.34707
1694639094265625,-8.546824,0.648861,5.46564,0.4246,0.4716,0.33407
1694639094273437,-8.536824,0.648861,5.48564,0.5046,0.4206,0.39907
1694639094281250,-8.526824,0.641861,5.46564,0.4456,0.4306,0.36407
1694639094289062,-8.542824,0.648861,5.73564,0.4916,0.4086,0.46207
1694639094296875,-8.534824,0.651861,5.68564,0.5146,0.3896,0.37807
1694639094304687,-8.534824,0.665861,5.57564,0.4956,0.3856,0.37907
1694639094312500,-8.534824,0.672861,5.37564,0.4606,0.3506,0.33307
1694639094320312,-8.541824,0.685861,5.41564,0.4436,0.3486,0.33307
1694639094328125,-8.537824,0.677861,5.37564,0.5036,0.3906,0.31907
1694639094335937,-8.520824,0.694861,5.34564,0.4446,0.3996,0.30007
1694639094343750,-8.510824,0.708861,5.37564,0.4256,0.3476,0.31807
1694639094351562,-8.497824,0.706861,5.48564,0.4396,0.4056,0.36707
1694639094359375,-8.512824,0.699861,5.48564,0.4276,0.3506,0.31707
1694639094367187,-8.536824,0.683861,5.61564,0.3326,0.3056,0.31607
1694639094375000,-8.552824,0.685861,5.57564,0.3656,0.2126,0.30007
1694639094382812,-8.572824,0.696861,5.62564,0.4106,0.1296,0.31807
1694639094390625,-8.565824,0.695861,5.73564,0.4336,0.2186,0.29807
1694639094398437,-8.572824,0.698861,5.77564,0.3976,0.1966,0.31607
1694639094406250,-8.561824,0.698861,5.75564,0.3656,0.1506,0.26807
1694639094414062,-8.557824,0.678861,5.50564,0.4116,0.2576,0.23707
1694639094421875,-8.577824,0.671861,5.19564,0.3936,0.2536,0.27007
1694639094429687,-8.590824,0.669861,5.41564,0.3166,0.3376,0.30007
1694639094437500,-8.611824,0.667861,5.16564,0.3746,0.2816,0.27107
1694639094445312,-8.597824,0.653861,4.987564,0.3616,0.4296,0.22107
1694639094453125,-8.582824,0.644861,4.969564,0.4116,0.4626,0.20407
1694639094460937,-8.569824,0.634861,5.564,0.4086,0.4126,0.14107
1694639094468750,-8.557824,0.614861,5.5564,0.4276,0.5266,0.17207
1694639094476562,-8.571824,0.609861,5.12564,0.4256,0.4616,0.14107
1694639094484375,-8.564824,0.607861,5.28564,0.4416,0.4296,0.17307
1694639094492187,-8.540824,0.603861,5.23564,0.4286,0.4026,0.17207
1694639094500000,-8.526824,0.601861,5.21564,0.4286,0.3716,0.18707
1694639094507812,-8.504824,0.601861,5.14564,0.4456,0.3086,0.21907
1694639094515625,-8.506824,0.603861,4.996564,0.4156,0.2326,0.21907
1694639094523437,-8.491824,0.584861,4.985564,0.5876,0.3036,0.23707
1694639094531250,-8.493824,0.584861,5.3564,0.6376,0.2246,0.28507
1694639094539062,-8.511824,0.594861,5.564,0.6576,0.1836,0.28307
1694639094546875,-8.530824,0.599861,5.10564,0.6176,0.2346,0.30307
1694639094554687,-8.553824,0.621861,5.21564,0.6396,0.1486,0.34807
1694639094562500,-8.584824,0.636861,5.39564,0.6726,0.1486,0.38007
1694639094570312,-8.620824,0.659861,5.48564,0.6386,0.2426,0.30007
1694639094578125,-8.633824,0.684861,5.66564,0.6196,0.2206,0.38207
1694639094585937,-8.642824,0.708861,5.80564,0.5226,0.2516,0.35007
1694639094593750,-8.637824,0.719861,5.64564,0.4916,0.3776,0.44607
1694639094601562,-8.624824,0.710861,5.37564,0.4766,0.3636,0.46107
1694639094609375,-8.617824,0.715861,5.21564,0.4286,0.3356,0.33207
1694639094617187,-8.595824,0.685861,5.19564,0.4406,0.3456,0.30207
1694639094625000,-8.589824,0.689861,5.30564,0.3256,0.3436,0.30307
1694639094632812,-8.600824,0.685861,5.25564,0.2946,0.3766,0.31907
1694639094640625,-8.609824,0.671861,5.28564,0.1816,0.4406,0.27007
1694639094648437,-8.601824,0.657861,5.41564,0.2036,0.4036,0.17107
1694639094656250,-8.589824,0.638861,5.32564,0.1806,0.4416,0.17407
1694639094664062,-8.571824,0.629861,5.46564,0.1346,0.5226,0.17307
1694639094671875,-8.551824,0.607861,5.64564,0.1816,0.5676,0.17407
1694639094679687,-8.517824,0.596861,5.55564,0.2176,0.4646,0.10807
1694639094687500,-8.488824,0.586861,5.46564,0.2336,0.3846,0.17207
1694639094695312,-8.462824,0.587861,5.48564,0.3266,0.3636,0.14207
1694639094703125,-8.460824,0.584861,5.73564,0.4086,0.3816,0.17307
1694639094710937,-8.480824,0.584861,5.80564,0.3916,0.3326,0.20607
1694639094718750,-8.497824,0.594861,5.86564,0.4486,0.2636,0.28307
1694639094726562,-8.522824,0.597861,5.77564,0.4786,0.2906,0.31607
1694639094734375,-8.551824,0.607861,5.75564,0.4916,0.3026,0.30107
1694639094742187,-8.568824,0.601861,5.73564,0.5686,0.3596,0.33507
1694639094750000,-8.571824,0.605861,5.59564,0.6396,0.3046,0.38007
1694639094757812,-8.569824,0.616861,5.23564,0.6666,0.3616,0.35007
1694639094765625,-8.567824,0.621861,5.7564,0.5706,0.3786,0.35007
1694639094773437,-8.568824,0.622861,5.7564,0.6246,0.3396,0.31507
1694639094781250,-8.561824,0.631861,5.5564,0.6256,0.3876,0.36307
1694639094789062,-8.544824,0.637861,5.7564,0.5876,0.3006,0.31807
1694639094796875,-8.549824,0.634861,5.1564,0.5366,0.3926,0.28707
1694639094804687,-8.554824,0.637861,4.987564,0.5826,0.1846,0.30407
1694639094812500,-8.551824,0.636861,4.985564,0.6716,0.2116,0.31607
1694639094820312,-8.552824,0.640861,4.987564,0.5286,0.3096,0.31507
1694639094828125,-8.573824,0.647861,5.18564,0.4936,0.3526,0.30007
1694639094835937,-8.577824,0.674861,5.43564,0.4756,0.2876,0.28507
1694639094843750,-8.592824,0.671861,5.55564,0.4466,0.3236,0.26707
1694639094851562,-8.592824,0.688861,5.43564,0.5426,0.3066,0.26807
1694639094859375,-8.574824,0.693861,5.34564,0.4306,0.2616,0.28307
1694639094867187,-8.565824,0.695861,5.18564,0.4646,0.1856,0.23507
1694639094875000,-8.566824,0.700861,5.16564,0.5066,0.2076,0.22207
1694639094882812,-8.566824,0.707861,4.983564,0.4236,0.1256,0.23907
1694639094890625,-8.563824,0.707861,4.969564,0.4426,0.2716,0.23707
1694639094898437,-8.547824,0.700861,4.985564,0.3786,0.3046,0.20507
1694639094906250,-8.545824,0.689861,4.973564,0.2686,0.2766,0.25107
1694639094914062,-8.563824,0.674861,4.980564,0.2986,0.3046,0.23707
1694639094921875,-8.563824,0.651861,4.998564,0.3026,0.2946,0.26707
1694639094929687,-8.589824,0.631861,5.12564,0.3476,0.3376,0.25207
1694639094937500,-8.606824,0.628861,5.16564,0.3506,0.3566,0.28307
1694639094945312,-8.626824,0.619861,5.16564,0.3666,0.3876,0.25107
1694639094953125,-8.620824,0.617861,5.21564,0.4156,0.4186,0.31507
1694639094960937,-8.602824,0.613861,5.18564,0.3976,0.4636,0.29907
1694639094968750,-8.548824,0.629861,5.9564,0.4476,0.4346,0.34707
1694639094976562,-8.515824,0.637861,5.5564,0.4256,0.4246,0.35007
1694639094984375,-8.492824,0.659861,5.5564,0.4446,0.3846,0.30007
1694639094992187,-8.475824,0.692861,5.7564,0.4316,0.3876,0.29907
1694639095000000,-8.463824,0.702861,5.23564,0.4086,0.3936,0.31807
1694639095007812,-8.480824,0.714861,5.25564,0.3326,0.4016,0.26707
1694639095015625,-8.509824,0.734861,5.12564,0.1986,0.3966,0.20507
1694639095023437,-8.524824,0.752861,5.564,0.3306,0.4466,0.20407
1694639095031250,-8.548824,0.762861,4.989564,0.1886,0.4216,0.13807
1694639095039062,-8.553824,0.762861,4.987564,0.1686,0.3846,0.10807
1694639095046875,-8.593824,0.772861,4.987564,0.1526,0.2786,0.393
1694639095054687,-8.588824,0.770861,4.962564,0.1846,0.4056,0.11693
1694639095062500,-8.573824,0.761861,4.944564,0.1856,0.4076,0.6893
1694639095070312,-8.591824,0.750861,4.939564,0.1696,0.3916,0.6893
1694639095078125,-8.602824,0.741861,4.960564,0.886,0.4076,0.14893
1694639095085937,-8.616824,0.721861,4.962564,0.726,0.3926,0.13293
1694639095093750,-8.630824,0.688861,4.976564,0.624,0.3846,0.14693
1694639095101562,-8.648824,0.670861,4.989564,0.254,0.3256,0.1993
1694639095109375,-8.638824,0.632861,4.996564,0.754,0.2916,0.1993
1694639095117187,-8.645824,0.610861,4.985564,0.724,0.3086,0.6007
1694639095125000,-8.632824,0.575861,4.973564,0.574,0.3556,0.4407
1694639095132812,-8.597824,0.529861,4.987564,0.754,0.4626,0.7607
1694639095140625,-8.570824,0.507861,5.3564,0.56,0.5716,0.15607
1694639095148437,-8.559824,0.498861,5.12564,0.1366,0.6066,0.9107
1694639095156250,-8.559824,0.492861,5.30564,0.1666,0.6166,0.17307
1694639095164062,-8.555824,0.503861,5.25564,0.3296,0.6026,0.23607
1694639095171875,-8.557824,0.492861,5.5564,0.4596,0.6046,0.20407
1694639095179687,-8.565824,0.504861,4.985564,0.4696,0.5316,0.22307
1694639095187500,-8.573824,0.494861,4.991564,0.6516,0.6146,0.31707
1694639095195312,-8.571824,0.519861,4.978564,0.7296,0.5486,0.33507
1694639095203125,-8.584824,0.510861,4.958564,0.7986,0.4266,0.41307
1694639095210937,-8.577824,0.516861,4.948564,0.8496,0.4126,0.49207
1694639095218750,-8.548824,0.532861,4.957564,0.9466,0.4286,0.49207
1694639095226562,-8.536824,0.539861,4.946564,0.9636,0.4126,0.58807
1694639095234375,-8.518824,0.554861,4.926564,0.9496,0.3986,0.63507
1694639095242187,-8.506824,0.565861,4.932564,0.10996,0.3756,0.56907
1694639095250000,-8.501824,0.585861,4.960564,0.10846,0.3256,0.71307
1694639095257812,-8.504824,0.592861,4.973564,0.11426,0.3966,0.66807
1694639095265625,-8.515824,0.612861,4.985564,0.11296,0.3536,0.71507
1694639095273437,-8.520824,0.633861,5.14564,0.10426,0.4056,0.71807
1694639095281250,-8.535824,0.661861,5.46564,0.10786,0.3956,0.73207
1694639095289062,-8.530824,0.679861,5.75564,0.10446,0.3786,0.71707
1694639095296875,-8.534824,0.692861,5.50564,0.10126,0.3936,0.73307
1694639095304687,-8.529824,0.700861,5.39564,0.9996,0.3506,0.71507
1694639095312500,-8.520824,0.700861,5.39564,0.10826,0.2926,0.68207
1694639095320312,-8.536824,0.709861,5.25564,0.10316,0.3046,0.71507
1694639095328125,-8.550824,0.721861,5.45564,0.10856,0.3296,0.64807
1694639095335937,-8.567824,0.735861,5.46564,0.9816,0.2896,0.57107
1694639095343750,-8.596824,0.744861,5.18564,0.10326,0.2136,0.57107
1694639095351562,-8.627824,0.757861,4.996564,0.9646,0.1606,0.62007
1694639095359375,-8.667824,0.771861,4.978564,0.8696,0.1646,0.57107
1694639095367187,-8.698824,0.776861,4.969564,0.7386,0.1626,0.54007
1694639095375000,-8.714824,0.769861,4.946564,0.7396,0.1496,0.50707
1694639095382812,-8.719824,0.746861,4.982564,0.6756,0.2136,0.45907
1694639095390625,-8.714824,0.724861,4.994564,0.5316,0.3106,0.44207
1694639095398437,-8.699824,0.707861,5.21564,0.5436,0.2906,0.38007
1694639095406250,-8.677824,0.682861,5.50564,0.5296,0.4056,0.34607
1694639095414062,-8.628824,0.656861,5.77564,0.4326,0.4516,0.29807
1694639095421875,-8.561824,0.656861,5.86564,0.4446,0.4316,0.25207
1694639095429687,-8.503824,0.641861,5.102564,0.4616,0.4356,0.15507
1694639095437500,-8.463824,0.655861,5.113564,0.5096,0.4336,0.18807
1694639095445312,-8.425824,0.660861,5.118564,0.5566,0.4966,0.10807
1694639095453125,-8.406824,0.673861,5.131564,0.5566,0.4496,0.12407
1694639095460937,-8.408824,0.696861,5.147564,0.6216,0.3876,0.12407
1694639095468750,-8.437824,0.703861,5.176564,0.5786,0.3926,0.20207
1694639095476562,-8.482824,0.723861,5.165564,0.4296,0.4176,0.23507
1694639095484375,-8.471824,0.737861,5.149564,0.5886,0.3986,0.23707
1694639095492187,-8.486824,0.734861,5.129564,0.6066,0.3686,0.26807
1694639095500000,-8.509824,0.725861,5.91564,0.5916,0.2626,0.20307
1694639095507812,-8.531824,0.734861,5.64564,0.4956,0.2926,0.28307
1694639095515625,-8.531824,0.743861,5.19564,0.4756,0.1466,0.26907
1694639095523437,-8.557824,0.768861,4.984564,0.4346,0.1406,0.28207
1694639095531250,-8.600824,0.775861,5.5564,0.3956,0.1466,0.31707
1694639095539062,-8.615824,0.787861,5.7564,0.3036,0.1846,0.29807
1694639095546875,-8.624824,0.806861,5.3564,0.2196,0.1166,0.31607
1694639095554687,-8.637824,0.818861,4.982564,0.1706,0.2596,0.23607
1694639095562500,-8.651824,0.811861,4.987564,0.1716,0.2926,0.20307
1694639095570312,-8.638824,0.790861,4.971564,0.1036,0.4006,0.12407
1694639095578125,-8.636824,0.774861,4.960564,0.866,0.4626,0.9207
1694639095585937,-8.611824,0.750861,4.962564,0.264,0.5276,0.1207
1694639095593750,-8.560824,0.744861,4.971564,0.614,0.5736,0.11493
1694639095601562,-8.528824,0.729861,4.998564,0.206,0.6236,0.14793
1694639095609375,-8.493824,0.714861,5.32564,0.794,0.6206,0.21093
1694639095617187,-8.453824,0.675861,5.54564,0.944,0.5136,0.30793
1694639095625000,-8.433824,0.668861,5.68564,0.904,0.4076,0.22893
1694639095632812,-8.432824,0.647861,5.86564,0.784,0.4026,0.22693
1694639095640625,-8.447824,0.619861,5.90564,0.1524,0.3646,0.21393
1694639095648437,-8.459824,0.604861,5.77564,0.1544,0.2966,0.13293
1694639095656250,-8.459824,0.586861,5.77564,0.1094,0.2156,0.21093
1694639095664062,-8.484824,0.570861,5.79564,0.724,0.1896,0.16493
1694639095671875,-8.500824,0.564861,5.70564,0.914,0.1036,0.3493
1694639095679687,-8.502824,0.565861,5.48564,0.714,0.1246,0.493
1694639095687500,-8.525824,0.564861,5.23564,0.924,0.1296,0.11007
1694639095695312,-8.536824,0.574861,5.16564,0.396,0.1666,0.7607
1694639095703125,-8.549824,0.569861,5.7564,0.714,0.1996,0.15507
1694639095710937,-8.549824,0.578861,5.12564,0.416,0.3086,0.17107
1694639095718750,-8.571824,0.598861,5.9564,0.1546,0.2126,0.18807
1694639095726562,-8.578824,0.596861,5.39564,0.1856,0.1486,0.17307
1694639095734375,-8.578824,0.616861,5.30564,0.1686,0.2576,0.17307
1694639095742187,-8.602824,0.631861,5.7564,0.2036,0.1816,0.22007
1694639095750000,-8.606824,0.635861,5.12564,0.1876,0.2796,0.12307
1694639095757812,-8.624824,0.655861,5.25564,0.1386,0.1976,0.22007
1694639095765625,-8.639824,0.654861,5.25564,0.1076,0.2786,0.18707
1694639095773437,-8.633824,0.657861,5.34564,0.1546,0.3086,0.15507
1694639095781250,-8.622824,0.648861,5.25564,0.1356,0.2736,0.14107
1694639095789062,-8.588824,0.637861,5.23564,0.136,0.3006,0.13707
1694639095796875,-8.559824,0.642861,5.25564,0.1396,0.3126,0.7407
1694639095804687,-8.537824,0.636861,5.46564,0.1356,0.1936,0.17307
1694639095812500,-8.526824,0.634861,5.57564,0.1056,0.2436,0.20407
1694639095820312,-8.522824,0.637861,5.75564,0.2016,0.2266,0.25307
1694639095828125,-8.514824,0.634861,5.66564,0.1756,0.1556,0.26607
1694639095835937,-8.528824,0.636861,5.79564,0.2046,0.1656,0.31607
1694639095843750,-8.533824,0.609861,5.82564,0.3176,0.3236,0.31507
1694639095851562,-8.536824,0.599861,5.50564,0.4116,0.3666,0.33307
1694639095859375,-8.540824,0.600861,5.30564,0.4626,0.3546,0.29907
1694639095867187,-8.556824,0.601861,5.21564,0.4916,0.4136,0.30107
1694639095875000,-8.564824,0.598861,4.978564,0.4316,0.3566,0.33107
1694639095882812,-8.579824,0.624861,5.5564,0.4466,0.3236,0.31507
1694639095890625,-8.590824,0.637861,5.12564,0.6126,0.3136,0.36107
1694639095898437,-8.601824,0.637861,5.14564,0.6756,0.2806,0.31407
1694639095906250,-8.610824,0.648861,5.5564,0.7056,0.2926,0.29907
1694639095914062,-8.600824,0.653861,4.980564,0.6866,0.3046,0.31607
1694639095921875,-8.572824,0.660861,4.964564,0.7056,0.2616,0.28307
1694639095929687,-8.561824,0.673861,4.973564,0.5926,0.2156,0.25107
1694639095937500,-8.552824,0.669861,5.564,0.5596,0.2436,0.31607
1694639095945312,-8.550824,0.685861,5.10564,0.4596,0.2716,0.31707
1694639095953125,-8.534824,0.685861,5.21564,0.4456,0.4146,0.36407
1694639095960937,-8.544824,0.679861,5.37564,0.4066,0.3106,0.35207
1694639095968750,-8.564824,0.668861,5.64564,0.2936,0.4056,0.33507
1694639095976562,-8.577824,0.640861,5.46564,0.4136,0.3996,0.34807
1694639095984375,-8.598824,0.643861,5.57564,0.4236,0.3276,0.33507
1694639095992187,-8.602824,0.635861,5.55564,0.4266,0.3806,0.30107
1694639096000000,-8.598824,0.634861,5.59564,0.4726,0.3766,0.30207
1694639096007812,-8.580824,0.645861,5.57564,0.4716,0.3906,0.31907
1694639096015625,-8.571824,0.654861,5.46564,0.5086,0.3486,0.39707
1694639096023437,-8.557824,0.638861,5.18564,0.6076,0.3216,0.36407
1694639096031250,-8.533824,0.653861,4.992564,0.5996,0.3576,0.35207
1694639096039062,-8.513824,0.660861,4.983564,0.4876,0.3286,0.30307
1694639096046875,-8.499824,0.652861,4.991564,0.4606,0.2736,0.31607
1694639096054687,-8.513824,0.660861,5.19564,0.4386,0.2636,0.36807
1694639096062500,-8.523824,0.654861,5.21564,0.3486,0.1636,0.34807
1694639096070312,-8.548824,0.654861,5.10564,0.3286,0.2076,0.25407
1694639096078125,-8.568824,0.663861,5.14564,0.2646,0.3026,0.26907
1694639096085937,-8.577824,0.671861,5.10564,0.1996,0.2696,0.30207
1694639096093750,-8.575824,0.665861,5.5564,0.1666,0.3156,0.27007
1694639096101562,-8.580824,0.665861,5.7564,0.2626,0.3146,0.27107
1694639096109375,-8.572824,0.649861,5.5564,0.3516,0.2786,0.34707
1694639096117187,-8.563824,0.640861,4.996564,0.4496,0.2646,0.31407
1694639096125000,-8.545824,0.626861,4.992564,0.4226,0.2636,0.32007
1694639096132812,-8.538824,0.628861,5.10564,0.4576,0.2826,0.35007
1694639096140625,-8.542824,0.646861,5.14564,0.4386,0.2946,0.36807
1694639096148437,-8.538824,0.643861,5.19564,0.4246,0.4226,0.38207
1694639096156250,-8.529824,0.637861,5.32564,0.4406,0.3586,0.41507
1694639096164062,-8.536824,0.639861,5.23564,0.4236,0.2966,0.33507
1694639096171875,-8.540824,0.643861,5.16564,0.4596,0.2066,0.36607
1694639096179687,-8.548824,0.636861,5.564,0.4946,0.1486,0.34807
1694639096187500,-8.558824,0.634861,5.21564,0.4236,0.1416,0.27107
1694639096195312,-8.591824,0.636861,5.28564,0.4566,0.1276,0.23807
1694639096203125,-8.605824,0.638861,5.23564,0.4076,0.1416,0.27107
1694639096210937,-8.616824,0.647861,5.14564,0.4416,0.1436,0.28607
1694639096218750,-8.625824,0.640861,5.5564,0.4246,0.1256,0.30307
1694639096226562,-8.631824,0.648861,4.996564,0.4456,0.1486,0.31607
1694639096234375,-8.638824,0.664861,4.978564,0.4216,0.2636,0.28807
1694639096242187,-8.609824,0.665861,4.978564,0.5826,0.3736,0.30407
1694639096250000,-8.587824,0.652861,4.985564,0.4376,0.3426,0.25607
1694639096257812,-8.560824,0.636861,4.982564,0.4586,0.3806,0.31707
1694639096265625,-8.549824,0.630861,5.564,0.4426,0.3186,0.26907
1694639096273437,-8.547824,0.619861,5.48564,0.4886,0.3146,0.27007
1694639096281250,-8.549824,0.603861,5.55564,0.4766,0.2886,0.31607
1694639096289062,-8.545824,0.617861,5.80564,0.4746,0.2846,0.33407
1694639096296875,-8.549824,0.632861,5.86564,0.4876,0.2966,0.30307
1694639096304687,-8.553824,0.639861,5.77564,0.4426,0.2386,0.33407
1694639096312500,-8.548824,0.667861,5.71564,0.4586,0.2846,0.31807
1694639096320312,-8.533824,0.677861,5.50564,0.4246,0.2186,0.35107
1694639096328125,-8.535824,0.675861,5.14564,0.4396,0.2816,0.33507
1694639096335937,-8.539824,0.679861,5.5564,0.3426,0.2806,0.33507
1694639096343750,-8.521824,0.672861,5.5564,0.3946,0.2686,0.35007
1694639096351562,-8.548824,0.681861,5.12564,0.3466,0.2556,0.33307
1694639096359375,-8.571824,0.676861,5.32564,0.2296,0.2346,0.30307
1694639096367187,-8.582824,0.667861,5.34564,0.2476,0.1736,0.30207
1694639096375000,-8.618824,0.657861,5.25564,0.2486,0.3336,0.25307
1694639096382812,-8.614824,0.651861,5.14564,0.1966,0.2346,0.23907
1694639096390625,-8.616824,0.636861,4.983564,0.1486,0.3306,0.20707
1694639096398437,-8.603824,0.641861,4.974564,0.2426,0.3416,0.22407
1694639096406250,-8.586824,0.640861,4.962564,0.3126,0.3346,0.18907
1694639096414062,-8.575824,0.642861,4.958564,0.3286,0.3676,0.14107
1694639096421875,-8.569824,0.634861,4.980564,0.3126,0.3216,0.9307
1694639096429687,-8.578824,0.622861,4.998564,0.2176,0.2426,0.17307
1694639096437500,-8.612824,0.629861,5.5564,0.2456,0.2346,0.25507
1694639096445312,-8.623824,0.620861,5.7564,0.3106,0.2526,0.17507
1694639096453125,-8.632824,0.622861,5.12564,0.3116,0.2856,0.22207
1694639096460937,-8.621824,0.620861,4.985564,0.3556,0.3266,0.20807
1694639096468750,-8.610824,0.620861,4.962564,0.2936,0.3286,0.25507
1694639096476562,-8.585824,0.605861,4.953564,0.3116,0.3476,0.23807
1694639096484375,-8.563824,0.601861,4.969564,0.3096,0.3286,0.25507
1694639096492187,-8.536824,0.606861,4.992564,0.3586,0.4216,0.33507
1694639096500000,-8.532824,0.600861,5.5564,0.4056,0.2946,0.32007
1694639096507812,-8.525824,0.608861,5.7564,0.4406,0.3116,0.38307
1694639096515625,-8.522824,0.613861,5.10564,0.4246,0.3146,0.30207
1694639096523437,-8.514824,0.618861,5.5564,0.4036,0.4176,0.32007
1694639096531250,-8.511824,0.631861,4.998564,0.4376,0.3886,0.30407
1694639096539062,-8.536824,0.622861,5.1564,0.4206,0.3556,0.30407
1694639096546875,-8.549824,0.636861,4.991564,0.4276,0.2556,0.34907
1694639096554687,-8.547824,0.637861,4.985564,0.4556,0.2656,0.27107
1694639096562500,-8.551824,0.638861,4.982564,0.5086,0.2096,0.30107
1694639096570312,-8.560824,0.650861,4.985564,0.4586,0.1136,0.25407
1694639096578125,-8.569824,0.648861,4.978564,0.4246,0.1256,0.30307
1694639096585937,-8.568824,0.663861,4.953564,0.4446,0.846,0.31707
1694639096593750,-8.582824,0.669861,4.928564,0.4286,0.996,0.34907
1694639096601562,-8.596824,0.656861,4.899564,0.4416,0.1426,0.30207
1694639096609375,-8.643824,0.637861,4.903564,0.3296,0.646,0.33407
1694639096617187,-8.663824,0.630861,4.910564,0.3316,0.836,0.33307
1694639096625000,-8.692824,0.616861,4.928564,0.2836,0.1146,0.39707
1694639096632812,-8.688824,0.615861,4.953564,0.2956,0.2516,0.31807
1694639096640625,-8.665824,0.619861,4.973564,0.3776,0.3626,0.36607
1694639096648437,-8.656824,0.610861,5.5564,0.4106,0.4116,0.33307
1694639096656250,-8.650824,0.609861,5.7564,0.4406,0.4076,0.36607
1694639096664062,-8.634824,0.606861,4.985564,0.4286,0.2886,0.31607
1694639096671875,-8.616824,0.620861,4.960564,0.3936,0.1296,0.22207
1694639096679687,-8.599824,0.625861,4.962564,0.4046,0.1376,0.22407
1694639096687500,-8.567824,0.639861,4.971564,0.4376,0.2486,0.25607
1694639096695312,-8.535824,0.639861,4.978564,0.4266,0.2406,0.20507
1694639096703125,-8.538824,0.641861,4.996564,0.4236,0.3306,0.25507
1694639096710937,-8.537824,0.639861,5.12564,0.3776,0.1766,0.25407
1694639096718750,-8.548824,0.645861,5.27564,0.3796,0.2756,0.20407
1694639096726562,-8.547824,0.653861,5.12564,0.3236,0.3086,0.30407
1694639096734375,-8.549824,0.654861,4.989564,0.3596,0.4076,0.31907
1694639096742187,-8.555824,0.652861,4.982564,0.3296,0.3806,0.30107
1694639096750000,-8.553824,0.634861,4.992564,0.3276,0.3606,0.31807
1694639096757812,-8.564824,0.629861,5.9564,0.3306,0.3816,0.30107
1694639096765625,-8.558824,0.625861,5.19564,0.4246,0.2676,0.30207
1694639096773437,-8.562824,0.612861,5.5564,0.4446,0.2886,0.31607
1694639096781250,-8.561824,0.617861,5.3564,0.4236,0.2656,0.30307
1694639096789062,-8.563824,0.625861,5.7564,0.4096,0.1276,0.28607
1694639096796875,-8.565824,0.616861,4.987564,0.4416,0.1436,0.28607
1694639096804687,-8.580824,0.618861,4.960564,0.4246,0.1586,0.23807
1694639096812500,-8.598824,0.623861,4.937564,0.4416,0.1276,0.27007
1694639096820312,-8.630824,0.618861,4.940564,0.4236,0.1236,0.31907
1694639096828125,-8.672824,0.621861,4.946564,0.4416,0.1436,0.27007
1694639096835937,-8.684824,0.628861,4.976564,0.4246,0.2036,0.33507
1694639096843750,-8.674824,0.635861,4.996564,0.4426,0.2536,0.31807
1694639096851562,-8.676824,0.630861,5.1564,0.4256,0.3476,0.30207
1694639096859375,-8.671824,0.622861,4.994564,0.4356,0.3536,0.32107
1694639096867187,-8.650824,0.617861,5.12564,0.4256,0.3476,0.30207
1694639096875000,-8.627824,0.620861,5.55564,0.5216,0.4106,0.25407
1694639096882812,-8.591824,0.624861,5.59564,0.5096,0.4316,0.28407
1694639096890625,-8.571824,0.638861,5.39564,0.4906,0.5076,0.23707
1694639096898437,-8.555824,0.639861,5.10564,0.5206,0.6276,0.28607
1694639096906250,-8.556824,0.644861,5.1564,0.4686,0.4336,0.30407
1694639096914062,-8.554824,0.650861,4.989564,0.5016,0.4826,0.30407
1694639096921875,-8.562824,0.645861,5.5564,0.4416,0.4276,0.25307
1694639096929687,-8.571824,0.636861,5.10564,0.4226,0.4216,0.30307
1694639096937500,-8.562824,0.651861,5.16564,0.4436,0.4606,0.28507
1694639096945312,-8.558824,0.639861,5.16564,0.4246,0.3786,0.28607
1694639096953125,-8.558824,0.639861,5.3564,0.4406,0.4096,0.25407
1694639096960937,-8.542824,0.621861,5.7564,0.4586,0.3956,0.30107
1694639096968750,-8.538824,0.608861,4.980564,0.4746,0.3496,0.25307
1694639096976562,-8.525824,0.599861,4.978564,0.4896,0.3476,0.30207
1694639096984375,-8.517824,0.610861,4.991564,0.4766,0.4156,0.22007
1694639096992187,-8.498824,0.631861,4.980564,0.4536,0.3416,0.27207
1694639097000000,-8.515824,0.637861,5.5564,0.4386,0.3906,0.27107
1694639097007812,-8.515824,0.635861,4.989564,0.3936,0.3496,0.26907
1694639097015625,-8.537824,0.636861,5.3564,0.3956,0.3196,0.31707
1694639097023437,-8.553824,0.632861,4.992564,0.4736,0.2056,0.30207
1694639097031250,-8.558824,0.625861,4.987564,0.4436,0.2086,0.30107
1694639097039062,-8.578824,0.630861,4.983564,0.4256,0.2056,0.31807
1694639097046875,-8.603824,0.638861,4.980564,0.4696,0.3106,0.28807
1694639097054687,-8.618824,0.640861,4.980564,0.4256,0.2846,0.31807
1694639097062500,-8.639824,0.647861,4.960564,0.4056,0.1996,0.35207
1694639097070312,-8.651824,0.652861,4.967564,0.4446,0.3356,0.31707
1694639097078125,-8.651824,0.675861,4.960564,0.4236,0.3896,0.35107
1694639097085937,-8.653824,0.677861,4.960564,0.4276,0.4286,0.33307
1694639097093750,-8.638824,0.677861,4.958564,0.4586,0.4406,0.39807
1694639097101562,-8.620824,0.684861,4.955564,0.4406,0.4236,0.35007
1694639097109375,-8.600824,0.671861,4.958564,0.4236,0.4386,0.35107
1694639097117187,-8.592824,0.643861,4.962564,0.4386,0.3906,0.33507
1694639097125000,-8.592824,0.629861,4.976564,0.4236,0.3766,0.27107
1694639097132812,-8.557824,0.638861,4.980564,0.4276,0.4006,0.22007
1694639097140625,-8.522824,0.641861,4.951564,0.4396,0.3456,0.25507
1694639097148437,-8.501824,0.635861,4.946564,0.4256,0.3036,0.18907
1694639097156250,-8.495824,0.642861,4.942564,0.4416,0.2886,0.12507
1694639097164062,-8.504824,0.632861,4.953564,0.4256,0.1966,0.4507
1694639097171875,-8.527824,0.619861,4.944564,0.4376,0.1736,0.9507
1694639097179687,-8.542824,0.603861,4.942564,0.3606,0.1796,0.7707
1694639097187500,-8.574824,0.594861,4.933564,0.3276,0.1306,0.14207
1694639097195312,-8.616824,0.582861,4.912564,0.2806,0.1636,0.10907
1694639097203125,-8.667824,0.558861,4.899564,0.3716,0.896,0.20907
1694639097210937,-8.683824,0.551861,4.870564,0.4186,0.566,0.20907
1694639097218750,-8.698824,0.533861,4.836564,0.5676,0.1556,0.25607
1694639097226562,-8.701824,0.533861,4.811564,0.6336,0.1236,0.31907
1694639097234375,-8.698824,0.555861,4.824564,0.8286,0.1746,0.30207
1694639097242187,-8.711824,0.575861,4.883564,0.8106,0.1706,0.30307
1694639097250000,-8.713824,0.599861,4.953564,0.8786,0.1586,0.39807
1694639097257812,-8.712824,0.647861,5.5564,0.8796,0.2846,0.41407
1694639097265625,-8.713824,0.691861,5.32564,0.7846,0.4616,0.41207
1694639097273437,-8.699824,0.725861,5.52564,0.6876,0.4126,0.44407
1694639097281250,-8.695824,0.738861,5.71564,0.7026,0.5536,0.44507
1694639097289062,-8.681824,0.763861,5.66564,0.6186,0.6736,0.44607
1694639097296875,-8.670824,0.781861,5.59564,0.4246,0.5806,0.39807
1694639097304687,-8.654824,0.772861,5.48564,0.4236,0.6436,0.30207
1694639097312500,-8.635824,0.764861,5.21564,0.2266,0.5596,0.30407
1694639097320312,-8.627824,0.734861,5.10564,0.1906,0.6026,0.24107
1694639097328125,-8.603824,0.706861,5.7564,0.346,0.6456,0.12607
1694639097335937,-8.575824,0.683861,5.23564,0.326,0.6106,0.11107
1694639097343750,-8.546824,0.674861,5.28564,0.294,0.6636,0.1307
1694639097351562,-8.506824,0.686861,5.41564,0.136,0.6716,0.3207
1694639097359375,-8.488824,0.673861,5.57564,0.1276,0.7056,0.1693
1694639097367187,-8.477824,0.651861,5.61564,0.2396,0.7376,0.8093
1694639097375000,-8.502824,0.631861,5.25564,0.2396,0.6256,0.1593
1694639097382812,-8.522824,0.621861,5.5564,0.2756,0.4896,0.3007
1694639097390625,-8.563824,0.621861,4.994564,0.3526,0.4036,0.4907
1694639097398437,-8.574824,0.623861,4.985564,0.2256,0.3916,0.6307
1694639097406250,-8.562824,0.639861,5.10564,0.2106,0.3786,0.4707
1694639097414062,-8.536824,0.644861,5.25564,0.1786,0.3906,0.15907
1694639097421875,-8.513824,0.660861,5.39564,0.1596,0.3876,0.16107
1694639097429687,-8.499824,0.663861,5.35564,0.2176,0.5496,0.19607
1694639097437500,-8.496824,0.656861,5.10564,0.2866,0.4146,0.16207
1694639097445312,-8.497824,0.648861,5.3564,0.2306,0.3946,0.20607
1694639097453125,-8.509824,0.633861,4.998564,0.2296,0.4076,0.25507
1694639097460937,-8.518824,0.619861,5.10564,0.2296,0.4386,0.28707
1694639097468750,-8.518824,0.618861,5.30564,0.2266,0.4196,0.20807
1694639097476562,-8.525824,0.609861,5.39564,0.2256,0.3716,0.22507
1694639097484375,-8.540824,0.608861,5.61564,0.2146,0.3966,0.18907
1694639097492187,-8.549824,0.601861,5.71564,0.2606,0.3776,0.17507
1694639097500000,-8.564824,0.621861,5.55564,0.3596,0.3976,0.9407
1694639097507812,-8.583824,0.609861,5.52564,0.4566,0.3816,0.15707
1694639097515625,-8.594824,0.602861,5.37564,0.3436,0.3976,0.9407
1694639097523437,-8.580824,0.609861,5.18564,0.4116,0.3846,0.17207
1694639097531250,-8.587824,0.596861,5.3564,0.4576,0.3966,0.20507
1694639097539062,-8.601824,0.594861,4.987564,0.5206,0.3796,0.20607
1694639097546875,-8.596824,0.593861,5.564,0.4756,0.4006,0.15607
1694639097554687,-8.585824,0.581861,5.14564,0.4896,0.3786,0.28607
1694639097562500,-8.588824,0.583861,5.14564,0.5706,0.3946,0.28607
1694639097570312,-8.581824,0.567861,5.34564,0.4736,0.4256,0.28607
1694639097578125,-8.579824,0.588861,5.66564,0.5996,0.4066,0.25507
1694639097585937,-8.570824,0.594861,5.89564,0.6516,0.3946,0.33407
1694639097593750,-8.565824,0.617861,5.93564,0.6316,0.4066,0.27107
1694639097601562,-8.565824,0.628861,5.86564,0.6476,0.4046,0.28807
1694639097609375,-8.565824,0.641861,5.82564,0.6316,0.4686,0.28707
1694639097617187,-8.558824,0.635861,5.75564,0.6476,0.4046,0.30407
1694639097625000,-8.562824,0.661861,5.73564,0.6656,0.4706,0.28707
1694639097632812,-8.535824,0.679861,5.68564,0.6656,0.4396,0.30307
1694639097640625,-8.539824,0.683861,5.77564,0.5036,0.5166,0.31907
1694639097648437,-8.531824,0.690861,5.82564,0.5486,0.5446,0.25607
1694639097656250,-8.516824,0.708861,5.84564,0.4406,0.6296,0.25407
1694639097664062,-8.528824,0.715861,5.68564,0.4856,0.5466,0.27107
1694639097671875,-8.538824,0.712861,5.64564,0.4566,0.5216,0.23707
1694639097679687,-8.535824,0.699861,5.48564,0.4216,0.4066,0.25507
1694639097687500,-8.538824,0.682861,5.35564,0.4336,0.4606,0.30607
1694639097695312,-8.524824,0.666861,5.25564,0.4206,0.3736,0.22407
1694639097703125,-8.522824,0.639861,5.23564,0.4416,0.3966,0.22107
1694639097710937,-8.491824,0.640861,5.48564,0.4216,0.3726,0.32007
1694639097718750,-8.485824,0.618861,5.53564,0.4376,0.3736,0.28807
1694639097726562,-8.478824,0.616861,5.46564,0.4236,0.3616,0.23907
1694639097734375,-8.478824,0.604861,5.52564,0.5036,0.3466,0.22307
1694639097742187,-8.485824,0.609861,5.55564,0.5176,0.3886,0.25607
1694639097750000,-8.487824,0.620861,5.50564,0.5686,0.3776,0.23907
1694639097757812,-8.484824,0.629861,5.39564,0.6506,0.3796,0.25407
1694639097765625,-8.486824,0.633861,5.50564,0.6356,0.3786,0.31807
1694639097773437,-8.484824,0.631861,5.50564,0.6026,0.3606,0.36607
1694639097781250,-8.486824,0.642861,5.48564,0.6176,0.2976,0.31907
1694639097789062,-8.486824,0.640861,5.50564,0.6986,0.2036,0.28707
1694639097796875,-8.497824,0.660861,5.50564,0.6686,0.1116,0.33407
1694639097804687,-8.517824,0.670861,5.46564,0.6356,0.1586,0.30207
1694639097812500,-8.530824,0.688861,5.37564,0.6216,0.1626,0.31707
1694639097820312,-8.539824,0.708861,5.41564,0.5076,0.2536,0.35007
1694639097828125,-8.555824,0.719861,5.39564,0.5056,0.1256,0.33507
1694639097835937,-8.574824,0.724861,5.32564,0.4946,0.1796,0.36407
1694639097843750,-8.570824,0.720861,5.43564,0.6036,0.1746,0.35007
1694639097851562,-8.576824,0.713861,5.37564,0.5426,0.2906,0.33207
1694639097859375,-8.580824,0.692861,5.48564,0.4726,0.2496,0.35107
1694639097867187,-8.571824,0.679861,5.48564,0.4396,0.2506,0.27107
1694639097875000,-8.560824,0.665861,5.39564,0.4076,0.2836,0.23807
1694639097882812,-8.562824,0.670861,5.39564,0.3906,0.2816,0.23907
1694639097890625,-8.562824,0.670861,5.43564,0.3766,0.3016,0.22207
1694639097898437,-8.566824,0.672861,5.43564,0.3276,0.1896,0.25407
1694639097906250,-8.575824,0.679861,5.50564,0.3586,0.1726,0.20707
1694639097914062,-8.588824,0.700861,5.48564,0.3606,0.1766,0.17407
1694639097921875,-8.593824,0.693861,5.41564,0.3126,0.1296,0.19007
1694639097929687,-8.597824,0.696861,5.44564,0.3906,0.1576,0.19107
1694639097937500,-8.602824,0.689861,5.37564,0.4406,0.2706,0.17407
1694639097945312,-8.579824,0.671861,5.21564,0.3936,0.3346,0.18907
1694639097953125,-8.564824,0.672861,5.19564,0.4716,0.3306,0.19107
1694639097960937,-8.579824,0.669861,5.37564,0.4416,0.2876,0.17307
1694639097968750,-8.568824,0.672861,5.66564,0.4246,0.3016,0.17407
1694639097976562,-8.580824,0.679861,5.64564,0.4376,0.2796,0.24007
1694639097984375,-8.582824,0.691861,5.77564,0.4246,0.2546,0.20607
1694639097992187,-8.568824,0.693861,5.77564,0.3296,0.3206,0.17307
1694639098000000,-8.556824,0.711861,5.79564,0.3476,0.4026,0.14007
1694639098007812,-8.549824,0.716861,5.70564,0.3626,0.3826,0.22107
1694639098015625,-8.538824,0.723861,5.61564,0.2306,0.3966,0.15707
1694639098023437,-8.511824,0.721861,5.48564,0.3136,0.4136,0.20507
1694639098031250,-8.502824,0.710861,5.23564,0.2806,0.4296,0.22107
1694639098039062,-8.496824,0.712861,5.18564,0.2326,0.4136,0.22107
1694639098046875,-8.499824,0.710861,5.37564,0.1956,0.4396,0.19107
1694639098054687,-8.496824,0.697861,5.46564,0.1856,0.3536,0.17207
1694639098062500,-8.507824,0.679861,5.55564,0.1836,0.3366,0.12507
1694639098070312,-8.516824,0.667861,5.64564,0.2026,0.2306,0.12307
1694639098078125,-8.535824,0.663861,5.64564,0.1656,0.3186,0.9307
1694639098085937,-8.567824,0.662861,5.82564,0.1726,0.2966,0.12207
1694639098093750,-8.568824,0.658861,5.80564,0.2306,0.3036,0.6107
1694639098101562,-8.566824,0.654861,5.66564,0.1996,0.3216,0.7707
1694639098109375,-8.584824,0.654861,5.50564,0.1316,0.2996,0.11107
1694639098117187,-8.591824,0.647861,5.25564,0.1306,0.1736,0.7907
1694639098125000,-8.593824,0.667861,4.987564,0.1796,0.2216,0.7907
1694639098132812,-8.597824,0.687861,4.944564,0.1666,0.2726,0.10907
1694639098140625,-8.603824,0.695861,4.976564,0.3616,0.3546,0.9207
1694639098148437,-8.597824,0.691861,5.3564,0.4076,0.4136,0.6207
1694639098156250,-8.600824,0.671861,5.3564,0.3256,0.3466,0.15907
1694639098164062,-8.587824,0.674861,5.21564,0.3716,0.3456,0.7907
1694639098171875,-8.559824,0.669861,5.21564,0.4396,0.3976,0.6207
1694639098179687,-8.530824,0.672861,5.32564,0.3906,0.3826,0.3007
1694639098187500,-8.499824,0.672861,5.52564,0.4076,0.3826,0.4607
1694639098195312,-8.474824,0.678861,5.48564,0.3086,0.3466,0.12707
1694639098203125,-8.466824,0.676861,5.48564,0.2256,0.3736,0.11207
1694639098210937,-8.463824,0.675861,5.61564,0.1976,0.3636,0.20607
1694639098218750,-8.478824,0.652861,5.57564,0.2046,0.4346,0.25107
1694639098226562,-8.503824,0.643861,5.39564,0.2056,0.2946,0.25107
1694639098234375,-8.524824,0.628861,5.28564,0.2966,0.3336,0.23707
1694639098242187,-8.557824,0.632861,5.41564,0.3956,0.1956,0.22007
1694639098250000,-8.589824,0.620861,5.50564,0.3666,0.1526,0.28307
1694639098257812,-8.610824,0.625861,5.73564,0.4086,0.1276,0.25407
1694639098265625,-8.605824,0.629861,5.68564,0.4416,0.2386,0.27007
1694639098273437,-8.618824,0.631861,5.30564,0.4426,0.2226,0.31807
1694639098281250,-8.604824,0.660861,5.10564,0.4256,0.3006,0.28607
1694639098289062,-8.571824,0.674861,4.992564,0.5206,0.3766,0.30207
1694639098296875,-8.541824,0.681861,4.987564,0.4426,0.3646,0.31707
1694639098304687,-8.539824,0.683861,4.985564,0.5576,0.3356,0.30107
1694639098312500,-8.542824,0.688861,4.998564,0.5026,0.3256,0.35207
1694639098320312,-8.561824,0.691861,5.12564,0.4296,0.3686,0.34807
1694639098328125,-8.570824,0.693861,5.30564,0.4446,0.2886,0.30007
1694639098335937,-8.581824,0.697861,5.50564,0.4306,0.3396,0.31507
1694639098343750,-8.597824,0.706861,5.57564,0.4426,0.3186,0.28507
1694639098351562,-8.579824,0.714861,5.84564,0.3926,0.2836,0.30207
1694639098359375,-8.568824,0.712861,5.66564,0.3096,0.3126,0.27107
1694639098367187,-8.553824,0.712861,5.41564,0.1946,0.3726,0.27207
1694639098375000,-8.530824,0.706861,5.37564,0.3586,0.3766,0.27107
1694639098382812,-8.520824,0.698861,5.14564,0.4786,0.4326,0.29907
1694639098390625,-8.508824,0.677861,5.5564,0.4416,0.4096,0.30207
1694639098398437,-8.501824,0.677861,5.7564,0.4586,0.3956,0.33307
1694639098406250,-8.490824,0.675861,5.27564,0.4116,0.3506,0.31707
1694639098414062,-8.521824,0.663861,5.61564,0.5246,0.2866,0.36507
1694639098421875,-8.551824,0.657861,5.71564,0.4556,0.3126,0.35107
1694639098429687,-8.555824,0.661861,5.66564,0.5386,0.3006,0.31807
1694639098437500,-8.562824,0.675861,5.59564,0.5976,0.3096,0.25607
1694639098445312,-8.571824,0.670861,5.55564,0.6176,0.4076,0.31807
1694639098453125,-8.569824,0.685861,5.57564,0.6166,0.3286,0.30307
1694639098460937,-8.563824,0.707861,5.25564,0.5876,0.3006,0.31807
1694639098468750,-8.572824,0.711861,5.3564,0.6366,0.2716,0.26907
1694639098476562,-8.561824,0.721861,5.1564,0.5206,0.2656,0.30307
1694639098484375,-8.549824,0.738861,5.3564,0.4746,0.2856,0.30207
1694639098492187,-8.554824,0.725861,4.985564,0.5056,0.2676,0.35007
1694639098500000,-8.561824,0.732861,5.3564,0.4246,0.2826,0.35007
1694639098507812,-8.570824,0.732861,5.12564,0.4236,0.3126,0.33507
1694639098515625,-8.568824,0.736861,5.16564,0.4406,0.2806,0.38307
1694639098523437,-8.575824,0.748861,5.19564,0.4686,0.3706,0.32007
1694639098531250,-8.588824,0.738861,5.19564,0.4226,0.3416,0.35207
1694639098539062,-8.588824,0.709861,5.37564,0.4096,0.3316,0.30207
1694639098546875,-8.568824,0.710861,5.48564,0.3756,0.2036,0.31907
1694639098554687,-8.564824,0.696861,5.41564,0.3616,0.2226,0.27007
1694639098562500,-8.564824,0.687861,5.57564,0.3606,0.2206,0.28607
1694639098570312,-8.586824,0.702861,5.50564,0.3136,0.2716,0.26907
1694639098578125,-8.583824,0.715861,5.46564,0.3466,0.2426,0.23707
1694639098585937,-8.587824,0.708861,5.23564,0.4316,0.2796,0.25107
1694639098593750,-8.610824,0.715861,5.10564,0.3756,0.3326,0.20607
1694639098601562,-8.612824,0.717861,4.987564,0.3476,0.4006,0.22007
1694639098609375,-8.610824,0.726861,4.967564,0.3946,0.3516,0.25307
1694639098617187,-8.583824,0.716861,4.962564,0.4246,0.3166,0.23807
1694639098625000,-8.559824,0.705861,4.980564,0.4416,0.3656,0.22107
1694639098632812,-8.547824,0.707861,5.12564,0.4266,0.3986,0.25307
1694639098640625,-8.536824,0.705861,5.19564,0.4416,0.3806,0.23707
1694639098648437,-8.545824,0.698861,5.34564,0.4266,0.3986,0.23707
1694639098656250,-8.541824,0.707861,5.50564,0.3916,0.3796,0.17407
1694639098664062,-8.550824,0.714861,5.53564,0.4376,0.3936,0.14307
1694639098671875,-8.554824,0.714861,5.23564,0.4086,0.3636,0.25407
1694639098679687,-8.549824,0.729861,5.21564,0.3486,0.3526,0.28407
1694639098687500,-8.549824,0.714861,5.14564,0.2986,0.3206,0.23707
1694639098695312,-8.563824,0.710861,5.10564,0.3756,0.2986,0.25407
1694639098703125,-8.554824,0.700861,5.5564,0.3146,0.2756,0.17207
1694639098710937,-8.552824,0.689861,5.16564,0.2336,0.3516,0.25307
1694639098718750,-8.553824,0.694861,5.37564,0.3096,0.3926,0.20707
1694639098726562,-8.553824,0.672861,5.39564,0.2586,0.3886,0.20807
1694639098734375,-8.555824,0.674861,5.23564,0.2326,0.3666,0.22107
1694639098742187,-8.543824,0.680861,5.21564,0.2826,0.3686,0.22007
1694639098750000,-8.546824,0.674861,5.5564,0.3446,0.3006,0.25407
1694639098757812,-8.555824,0.670861,5.3564,0.3906,0.3306,0.17507
1694639098765625,-8.557824,0.683861,5.21564,0.3416,0.2666,0.20707
1694639098773437,-8.572824,0.691861,5.32564,0.3296,0.2096,0.22107
1694639098781250,-8.600824,0.693861,5.41564,0.3586,0.2836,0.19107
1694639098789062,-8.588824,0.680861,5.66564,0.4116,0.3046,0.23707
1694639098796875,-8.570824,0.676861,5.68564,0.4416,0.3656,0.17307
1694639098804687,-8.572824,0.676861,5.39564,0.4266,0.3516,0.20507
1694639098812500,-8.570824,0.669861,5.30564,0.4466,0.3576,0.21907
1694639098820312,-8.570824,0.673861,5.21564,0.3956,0.3356,0.28507
1694639098828125,-8.566824,0.671861,5.21564,0.3966,0.3536,0.25207
1694639098835937,-8.560824,0.692861,5.19564,0.4206,0.3886,0.28807
1694639098843750,-8.548824,0.680861,5.23564,0.3946,0.3826,0.26907
1694639098851562,-8.552824,0.676861,5.50564,0.4426,0.3806,0.26907
1694639098859375,-8.555824,0.677861,5.57564,0.4216,0.3106,0.25607
1694639098867187,-8.552824,0.678861,5.39564,0.4426,0.3336,0.31707
1694639098875000,-8.548824,0.696861,5.10564,0.4406,0.4096,0.28607
1694639098882812,-8.554824,0.695861,4.991564,0.4316,0.3876,0.29907
1694639098890625,-8.552824,0.689861,5.3564,0.4456,0.3996,0.31607
1694639098898437,-8.552824,0.691861,5.3564,0.4116,0.3046,0.30107
1694639098906250,-8.532824,0.696861,5.564,0.3786,0.2866,0.28507
1694639098914062,-8.531824,0.714861,4.994564,0.4116,0.2116,0.25207
1694639098921875,-8.525824,0.712861,5.12564,0.3956,0.1776,0.28507
1694639098929687,-8.516824,0.726861,5.52564,0.4256,0.1276,0.28607
1694639098937500,-8.504824,0.727861,5.73564,0.3036,0.2006,0.29807
1694639098945312,-8.516824,0.708861,5.93564,0.2506,0.2266,0.28407
1694639098953125,-8.532824,0.712861,5.100564,0.2166,0.2536,0.33407
1694639098960937,-8.536824,0.705861,5.93564,0.2376,0.2766,0.36307
1694639098968750,-8.561824,0.687861,5.75564,0.3816,0.3056,0.31607
1694639098976562,-8.577824,0.680861,5.57564,0.3466,0.3326,0.38107
1694639098984375,-8.577824,0.683861,5.19564,0.4246,0.4406,0.30207
1694639098992187,-8.577824,0.667861,5.564,0.4416,0.3496,0.22107
1694639099000000,-8.589824,0.665861,5.3564,0.4406,0.3946,0.23807
1694639099007812,-8.573824,0.652861,5.12564,0.4246,0.3786,0.27007
1694639099015625,-8.565824,0.663861,5.19564,0.4526,0.3886,0.25607
1694639099023437,-8.545824,0.673861,5.10564,0.4336,0.3696,0.19307
1694639099031250,-8.535824,0.670861,5.23564,0.4236,0.3616,0.25507
1694639099039062,-8.550824,0.671861,5.9564,0.4456,0.4016,0.25107
1694639099046875,-8.550824,0.683861,5.34564,0.4276,0.3356,0.26907
1694639099054687,-8.529824,0.680861,5.23564,0.4296,0.4176,0.25107
1694639099062500,-8.532824,0.690861,5.34564,0.4416,0.4276,0.23707
1694639099070312,-8.541824,0.692861,5.55564,0.4236,0.3616,0.25507
1694639099078125,-8.557824,0.707861,5.68564,0.4406,0.2856,0.17407
1694639099085937,-8.579824,0.727861,5.55564,0.4216,0.2976,0.14307
1694639099093750,-8.590824,0.729861,5.57564,0.4066,0.2396,0.6207
1694639099101562,-8.583824,0.733861,5.39564,0.3916,0.1926,0.12607
1694639099109375,-8.575824,0.733861,5.59564,0.3016,0.2636,0.15507
1694639099117187,-8.572824,0.734861,5.41564,0.4056,0.3156,0.12707
1694639099125000,-8.563824,0.714861,5.23564,0.4086,0.3816,0.17307
1694639099132812,-8.570824,0.714861,5.30564,0.3416,0.4246,0.15907
1694639099140625,-8.576824,0.711861,5.32564,0.2506,0.4486,0.20407
1694639099148437,-8.570824,0.709861,5.25564,0.3126,0.3986,0.17307
1694639099156250,-8.575824,0.676861,5.5564,0.1786,0.4846,0.19107
1694639099164062,-8.564824,0.678861,5.21564,0.2606,0.4886,0.14207
1694639099171875,-8.539824,0.667861,5.14564,0.2316,0.5386,0.17307
1694639099179687,-8.528824,0.661861,5.12564,0.2776,0.5196,0.15807
1694639099187500,-8.512824,0.650861,5.7564,0.3316,0.3716,0.12407
1694639099195312,-8.509824,0.630861,5.12564,0.2776,0.3956,0.12607
1694639099203125,-8.509824,0.646861,5.28564,0.3406,0.3756,0.17507
1694639099210937,-8.501824,0.662861,5.59564,0.3586,0.3636,0.14207
1694639099218750,-8.499824,0.664861,5.86564,0.1616,0.3756,0.11107
1694639099226562,-8.497824,0.671861,5.95564,0.2126,0.3306,0.12707
1694639099234375,-8.519824,0.672861,5.89564,0.1836,0.2096,0.18907
1694639099242187,-8.536824,0.678861,5.59564,0.2206,0.2146,0.20307
1694639099250000,-8.555824,0.672861,5.41564,0.3126,0.2096,0.15707
1694639099257812,-8.582824,0.669861,5.37564,0.3426,0.2066,0.12707
1694639099265625,-8.598824,0.671861,5.25564,0.4386,0.2536,0.11107
1694639099273437,-8.631824,0.662861,5.19564,0.3766,0.2566,0.15707
1694639099281250,-8.658824,0.661861,5.16564,0.3926,0.2856,0.19007
1694639099289062,-8.662824,0.668861,5.5564,0.3266,0.3636,0.19007
1694639099296875,-8.651824,0.666861,4.982564,0.4406,0.3966,0.17307
1694639099304687,-8.629824,0.671861,4.985564,0.4226,0.3936,0.17507
1694639099312500,-8.613824,0.668861,4.987564,0.4446,0.3846,0.22007
1694639099320312,-8.557824,0.672861,4.985564,0.4236,0.4576,0.20607
1694639099328125,-8.526824,0.677861,4.967564,0.4376,0.4686,0.23907
1694639099335937,-8.502824,0.662861,4.969564,0.4196,0.4516,0.22407
1694639099343750,-8.469824,0.643861,5.1564,0.3226,0.4516,0.20807
1694639099351562,-8.439824,0.640861,5.37564,0.4096,0.3966,0.22107
1694639099359375,-8.441824,0.645861,5.37564,0.3106,0.4566,0.20607
1694639099367187,-8.453824,0.640861,5.48564,0.2936,0.3456,0.19107
1694639099375000,-8.463824,0.642861,5.61564,0.1836,0.2876,0.20507
1694639099382812,-8.473824,0.660861,5.68564,0.1946,0.2956,0.24007
1694639099390625,-8.470824,0.642861,5.57564,0.2826,0.2886,0.25307
1694639099398437,-8.479824,0.642861,5.50564,0.3116,0.2056,0.30207
1694639099406250,-8.484824,0.642861,5.41564,0.3156,0.1306,0.34907
1694639099414062,-8.512824,0.659861,5.43564,0.4606,0.1306,0.34907
1694639099421875,-8.523824,0.678861,5.30564,0.4336,0.296,0.28207
1694639099429687,-8.570824,0.669861,5.18564,0.4506,0.136,0.34607
1694639099437500,-8.644824,0.691861,5.46564,0.4276,0.1064,0.35007
1694639099445312,-8.698824,0.699861,5.57564,0.4256,0.646,0.30207
1694639099453125,-8.715824,0.716861,5.73564,0.4596,0.2066,0.41407
1694639099460937,-8.743824,0.687861,5.78564,0.4396,0.2966,0.35107
1694639099468750,-8.779824,0.671861,5.50564,0.4256,0.3936,0.33407
1694639099476562,-8.788824,0.680861,5.35564,0.4556,0.4056,0.39907
1694639099484375,-8.761824,0.675861,4.989564,0.4416,0.4256,0.31807
1694639099492187,-8.723824,0.674861,4.956564,0.4546,0.5176,0.22307
1694639099500000,-8.675824,0.660861,4.942564,0.4656,0.5406,0.28907
1694639099507812,-8.640824,0.648861,4.971564,0.4746,0.5546,0.23707
1694639099515625,-8.586824,0.669861,5.7564,0.4246,0.6146,0.30207
1694639099523437,-8.548824,0.689861,5.37564,0.4406,0.7106,0.18907
1694639099531250,-8.509824,0.719861,5.66564,0.4216,0.6596,0.17407
1694639099539062,-8.478824,0.728861,5.77564,0.4216,0.6916,0.15807
1694639099546875,-8.458824,0.737861,5.79564,0.4396,0.6776,0.19007
1694639099554687,-8.442824,0.749861,5.66564,0.4186,0.6236,0.17607
1694639099562500,-8.435824,0.749861,5.71564,0.4046,0.6266,0.20707
1694639099570312,-8.440824,0.738861,5.73564,0.4406,0.5206,0.25307
1694639099578125,-8.444824,0.729861,5.52564,0.4266,0.3806,0.31707
1694639099585937,-8.458824,0.702861,5.34564,0.4406,0.3636,0.23807
1694639099593750,-8.487824,0.677861,5.48564,0.4436,0.2716,0.31707
1694639099601562,-8.519824,0.668861,5.64564,0.4256,0.2536,0.28607
1694639099609375,-8.546824,0.670861,5.59564,0.3936,0.3316,0.30207
1694639099617187,-8.555824,0.701861,5.64564,0.4416,0.3786,0.31807
1694639099625000,-8.574824,0.707861,5.52564,0.4096,0.4426,0.28507
1694639099632812,-8.608824,0.711861,5.43564,0.5056,0.6146,0.30207
1694639099640625,-8.628824,0.697861,5.19564,0.4596,0.6486,0.31607
1694639099648437,-8.630824,0.694861,4.973564,0.4946,0.6056,0.29907
1694639099656250,-8.608824,0.698861,4.951564,0.5516,0.5326,0.30307
1694639099664062,-8.586824,0.687861,4.958564,0.4736,0.5856,0.23707
1694639099671875,-8.555824,0.696861,5.12564,0.4386,0.5976,0.19007
1694639099679687,-8.547824,0.720861,5.39564,0.4286,0.4186,0.15607
1694639099687500,-8.532824,0.730861,5.59564,0.4366,0.3756,0.15907
1694639099695312,-8.525824,0.721861,5.71564,0.3906,0.3646,0.11007
1694639099703125,-8.511824,0.728861,5.61564,0.3586,0.4756,0.11007
1694639099710937,-8.509824,0.741861,5.48564,0.2456,0.4256,0.17407
1694639099718750,-8.502824,0.741861,5.75564,0.2016,0.4336,0.10807
1694639099726562,-8.504824,0.723861,5.95564,0.2176,0.4186,0.10807
1694639099734375,-8.494824,0.715861,5.116564,0.2756,0.4396,0.12707
1694639099742187,-8.503824,0.704861,5.104564,0.3396,0.3916,0.14307
1694639099750000,-8.523824,0.690861,5.93564,0.4106,0.4476,0.15607
1694639099757812,-8.559824,0.673861,5.104564,0.4096,0.5566,0.14007
1694639099765625,-8.597824,0.673861,5.122564,0.4546,0.6776,0.9407
1694639099773437,-8.628824,0.670861,5.127564,0.5206,0.6336,0.9307
1694639099781250,-8.642824,0.679861,5.120564,0.4406,0.6506,0.7707
1694639099789062,-8.630824,0.695861,5.120564,0.4546,0.6956,0.2907
1694639099796875,-8.624824,0.697861,5.102564,0.4706,0.6956,0.2907
1694639099804687,-8.626824,0.701861,5.86564,0.5496,0.7126,0.14593
1694639099812500,-8.604824,0.691861,5.89564,0.4976,0.7406,0.20893
1694639099820312,-8.599824,0.706861,5.107564,0.4356,0.6816,0.22593
1694639099828125,-8.610824,0.704861,5.127564,0.5346,0.6396,0.27593
1694639099835937,-8.625824,0.706861,5.140564,0.5506,0.6396,0.30793
1694639099843750,-8.652824,0.703861,5.170564,0.6296,0.6846,0.29093
1694639099851562,-8.671824,0.706861,5.188564,0.4806,0.6786,0.32093
1694639099859375,-8.689824,0.692861,5.183564,0.6286,0.6826,0.30593
1694639099867187,-8.676824,0.674861,5.156564,0.6896,0.8036,0.28893
1694639099875000,-8.658824,0.681861,5.132564,0.8346,0.9136,0.30493
1694639099882812,-8.629824,0.671861,5.161564,0.7986,0.11426,0.28693
1694639099890625,-8.580824,0.677861,5.179564,0.8276,0.11866,0.30193
1694639099898437,-8.531824,0.675861,5.177564,0.9586,0.12526,0.28693
1694639099906250,-8.497824,0.662861,5.188564,0.9286,0.13496,0.30393
1694639099914062,-8.460824,0.662861,5.222564,0.9516,0.12786,0.22693
1694639099921875,-8.445824,0.678861,5.206564,0.9486,0.11326,0.22493
1694639099929687,-8.423824,0.678861,5.181564,0.8996,0.11326,0.20893
1694639099937500,-8.406824,0.716861,5.161564,0.8216,0.11206,0.19493
1694639099945312,-8.381824,0.743861,5.152564,0.7086,0.9316,0.20993
1694639099953125,-8.341824,0.773861,5.170564,0.6416,0.10206,0.16093
1694639099960937,-8.297824,0.777861,5.156564,0.6986,0.10756,0.2807
1694639099968750,-8.247824,0.776861,5.116564,0.6446,0.10656,0.7907
1694639099976562,-8.211824,0.765861,5.95564,0.4846,0.9586,0.7807
1694639099984375,-8.180824,0.761861,5.84564,0.4366,0.9276,0.9407
1694639099992187,-8.162824,0.748861,5.91564,0.2456,0.8966,0.17307
1694639100000000,-8.130824,0.719861,5.95564,0.1706,0.8106,0.23507
1694639100007812,-8.133824,0.689861,5.88564,0.1696,0.7126,0.33207
1694639100015625,-8.150824,0.671861,5.111564,0.376,0.5506,0.31807
1694639100023437,-8.186824,0.660861,5.124564,0.1536,0.3786,0.42907
1694639100031250,-8.228824,0.643861,5.109564,0.1726,0.2556,0.47607
1694639100039062,-8.279824,0.635861,5.104564,0.2246,0.1816,0.53907
1694639100046875,-8.352824,0.628861,5.111564,0.3996,0.1136,0.60507
1694639100054687,-8.410824,0.636861,5.100564,0.5626,0.574,0.62007
1694639100062500,-8.467824,0.650861,5.93564,0.6126,0.694,0.55507
1694639100070312,-8.536824,0.672861,5.79564,0.6936,0.384,0.60307
1694639100078125,-8.581824,0.695861,5.82564,0.7126,0.184,0.60207
1694639100085937,-8.632824,0.748861,5.64564,0.6926,0.684,0.47507
1694639100093750,-8.669824,0.823861,5.41564,0.5306,0.1644,0.49207
1694639100101562,-8.708824,0.855861,5.5564,0.5496,0.2694,0.47407
1694639100109375,-8.733824,0.884861,5.7564,0.4486,0.2444,0.47607
1694639100117187,-8.735824,0.886861,5.1564,0.3526,0.2394,0.36307
1694639100125000,-8.710824,0.893861,5.10564,0.2206,0.1654,0.33307
1694639100132812,-8.679824,0.891861,5.39564,0.2516,0.584,0.39707
1694639100140625,-8.643824,0.874861,5.48564,0.2506,0.686,0.30107
1694639100148437,-8.558824,0.844861,5.77564,0.1726,0.1806,0.34807
1694639100156250,-8.480824,0.809861,5.88564,0.1906,0.3556,0.37907
1694639100164062,-8.432824,0.760861,5.127564,0.1856,0.4436,0.34907
1694639100171875,-8.395824,0.716861,5.149564,0.3136,0.4116,0.31707
1694639100179687,-8.365824,0.684861,5.195564,0.3756,0.4076,0.33507
1694639100187500,-8.344824,0.665861,5.246564,0.4166,0.4206,0.28207
1694639100195312,-8.342824,0.659861,5.289564,0.4936,0.4306,0.30007
1694639100203125,-8.335824,0.664861,5.328564,0.4936,0.3686,0.31607
1694639100210937,-8.344824,0.692861,5.321564,0.5596,0.3396,0.29907
1694639100218750,-8.359824,0.710861,5.262564,0.5936,0.1366,0.31507
1694639100226562,-8.390824,0.733861,5.222564,0.5966,0.1246,0.36207
1694639100234375,-8.437824,0.755861,5.174564,0.4816,0.194,0.36307
1694639100242187,-8.479824,0.779861,5.118564,0.4326,0.1174,0.39607
1694639100250000,-8.534824,0.800861,5.70564,0.5016,0.964,0.47407
1694639100257812,-8.582824,0.800861,5.14564,0.4646,0.864,0.46007
1694639100265625,-8.622824,0.790861,4.987564,0.4346,0.1954,0.54007
1694639100273437,-8.630824,0.784861,4.985564,0.4286,0.944,0.51007
1694639100281250,-8.636824,0.786861,5.12564,0.4156,0.826,0.57307
1694639100289062,-8.607824,0.782861,5.66564,0.4286,0.2186,0.57407
1694639100296875,-8.613824,0.795861,5.120564,0.3336,0.3186,0.54007
1694639100304687,-8.582824,0.808861,5.152564,0.3336,0.3966,0.50807
1694639100312500,-8.560824,0.780861,5.138564,0.2836,0.3636,0.49307
1694639100320312,-8.554824,0.772861,5.120564,0.2446,0.2786,0.36807
1694639100328125,-8.551824,0.756861,5.118564,0.1526,0.1446,0.31807
1694639100335937,-8.555824,0.732861,5.147564,0.1806,0.1236,0.27207
1694639100343750,-8.559824,0.705861,5.181564,0.1326,0.1416,0.20707
1694639100351562,-8.565824,0.727861,5.188564,0.1356,0.1626,0.18907
1694639100359375,-8.574824,0.733861,5.190564,0.1996,0.2406,0.20507
1694639100367187,-8.578824,0.760861,5.193564,0.1186,0.2876,0.17307
1694639100375000,-8.587824,0.758861,5.199564,0.666,0.3156,0.11107
1694639100382812,-8.586824,0.763861,5.179564,0.1596,0.3096,0.11307
1694639100390625,-8.560824,0.764861,5.131564,0.1666,0.4146,0.9307
1694639100398437,-8.533824,0.758861,5.86564,0.2016,0.3566,0.4407
1694639100406250,-8.483824,0.754861,5.66564,0.2866,0.3396,0.6507
1694639100414062,-8.444824,0.742861,5.77564,0.3566,0.3936,0.4707
1694639100421875,-8.400824,0.734861,5.118564,0.3236,0.3136,0.6307
1694639100429687,-8.392824,0.717861,5.170564,0.3196,0.3546,0.11307
1694639100437500,-8.382824,0.699861,5.206564,0.3746,0.3796,0.11007
1694639100445312,-8.398824,0.674861,5.222564,0.3606,0.4436,0.20507
1694639100453125,-8.409824,0.651861,5.226564,0.4126,0.5906,0.21907
1694639100460937,-8.443824,0.651861,5.231564,0.2356,0.4636,0.26807
1694639100468750,-8.468824,0.651861,5.222564,0.2306,0.4566,0.25407
1694639100476562,-8.490824,0.657861,5.156564,0.2666,0.3996,0.22007
1694639100484375,-8.506824,0.668861,5.116564,0.3446,0.3006,0.27007
1694639100492187,-8.510824,0.670861,5.91564,0.4576,0.2386,0.20607
1694639100500000,-8.547824,0.666861,5.77564,0.4206,0.1376,0.25607
1694639100507812,-8.555824,0.679861,5.77564,0.4246,0.1096,0.31907
1694639100515625,-8.561824,0.707861,5.61564,0.3976,0.866,0.28407
1694639100523437,-8.562824,0.742861,5.57564,0.3636,0.2266,0.25207
1694639100531250,-8.549824,0.744861,5.75564,0.1876,0.3366,0.31607
1694639100539062,-8.552824,0.741861,5.82564,0.3446,0.3936,0.30207
1694639100546875,-8.545824,0.721861,5.84564,0.4106,0.3806,0.31707
1694639100554687,-8.531824,0.705861,5.82564,0.3646,0.4016,0.23507
1694639100562500,-8.525824,0.708861,5.91564,0.4576,0.3806,0.22107
1694639100570312,-8.504824,0.686861,5.86564,0.4046,0.3916,0.19107
1694639100578125,-8.497824,0.675861,5.125564,0.4086,0.3506,0.12507
1694639100585937,-8.492824,0.670861,5.134564,0.4416,0.3496,0.18907
1694639100593750,-8.472824,0.671861,5.143564,0.3906,0.3956,0.12607
1694639100601562,-8.461824,0.686861,5.136564,0.5046,0.4436,0.14107
1694639100609375,-8.456824,0.709861,5.104564,0.4406,0.4286,0.12607
1694639100617187,-8.473824,0.728861,5.84564,0.4276,0.4646,0.15607
1694639100625000,-8.500824,0.726861,5.64564,0.4246,0.4096,0.28607
1694639100632812,-8.534824,0.716861,5.43564,0.4426,0.5076,0.25307
1694639100640625,-8.557824,0.712861,5.21564,0.4256,0.4566,0.35007
1694639100648437,-8.586824,0.711861,5.7564,0.4906,0.4096,0.35007
1694639100656250,-8.584824,0.687861,5.25564,0.5556,0.4276,0.33307
1694639100664062,-8.557824,0.687861,5.39564,0.4566,0.4236,0.35007
1694639100671875,-8.503824,0.695861,5.84564,0.4556,0.5016,0.33507
1694639100679687,-8.480824,0.699861,5.89564,0.5876,0.4746,0.30107
1694639100687500,-8.458824,0.709861,5.89564,0.4426,0.4266,0.31707
1694639100695312,-8.462824,0.706861,5.120564,0.4296,0.3526,0.30007
1694639100703125,-8.463824,0.709861,5.134564,0.4096,0.3316,0.31807
1694639100710937,-8.486824,0.705861,5.140564,0.4316,0.2786,0.26707
1694639100718750,-8.494824,0.692861,5.136564,0.3166,0.2286,0.26807
1694639100726562,-8.487824,0.704861,5.129564,0.2166,0.2096,0.22107
1694639100734375,-8.476824,0.706861,5.129564,0.1666,0.3006,0.25407
1694639100742187,-8.456824,0.716861,5.123564,0.1796,0.4056,0.23907
1694639100750000,-8.462824,0.710861,5.91564,0.2356,0.3856,0.23507
1694639100757812,-8.474824,0.691861,5.93564,0.1996,0.3956,0.26907
1694639100765625,-8.487824,0.666861,5.86564,0.3636,0.3226,0.18807
1694639100773437,-8.490824,0.657861,5.75564,0.5066,0.3656,0.25307
1694639100781250,-8.508824,0.659861,5.77564,0.5886,0.3986,0.28507
1694639100789062,-8.520824,0.662861,5.84564,0.6426,0.3896,0.29807
1694639100796875,-8.553824,0.661861,5.143564,0.6196,0.3166,0.35007
1694639100804687,-8.558824,0.681861,5.141564,0.6156,0.2796,0.30407
1694639100812500,-8.555824,0.690861,5.125564,0.6516,0.2986,0.41407
1694639100820312,-8.559824,0.687861,5.118564,0.6196,0.3766,0.43007
1694639100828125,-8.566824,0.707861,5.109564,0.5876,0.4406,0.41407
1694639100835937,-8.575824,0.712861,5.82564,0.5356,0.4036,0.44807
1694639100843750,-8.566824,0.709861,5.73564,0.5556,0.4096,0.41407
1694639100851562,-8.539824,0.728861,5.73564,0.4566,0.4226,0.36607
1694639100859375,-8.509824,0.730861,5.93564,0.4586,0.4116,0.34907
1694639100867187,-8.493824,0.739861,5.118564,0.5066,0.5356,0.34907
1694639100875000,-8.482824,0.746861,5.147564,0.4446,0.4306,0.31607
1694639100882812,-8.474824,0.760861,5.159564,0.4536,0.3726,0.30407
1694639100890625,-8.462824,0.756861,5.161564,0.4386,0.3906,0.31907
1694639100898437,-8.444824,0.755861,5.174564,0.4246,0.4726,0.28607
1694639100906250,-8.435824,0.765861,5.172564,0.4386,0.4056,0.30307
1694639100914062,-8.432824,0.753861,5.174564,0.4276,0.4626,0.25207
1694639100921875,-8.437824,0.742861,5.161564,0.4116,0.4136,0.30107
1694639100929687,-8.426824,0.733861,5.145564,0.4436,0.3826,0.31707
1694639100937500,-8.433824,0.713861,5.136564,0.4276,0.3976,0.31707
1694639100945312,-8.442824,0.708861,5.143564,0.4156,0.3876,0.29907
1694639100953125,-8.484824,0.705861,5.143564,0.4466,0.4016,0.31507
1694639100960937,-8.502824,0.698861,5.136564,0.4486,0.3746,0.29807
1694639100968750,-8.518824,0.705861,5.116564,0.4616,0.3836,0.31607
1694639100976562,-8.521824,0.699861,5.120564,0.4256,0.3966,0.26907
1694639100984375,-8.514824,0.706861,5.134564,0.4396,0.3766,0.27107
1694639100992187,-8.498824,0.712861,5.127564,0.4426,0.4586,0.31707
1694639101000000,-8.485824,0.715861,5.125564,0.4266,0.3496,0.31707
1694639101007812,-8.480824,0.731861,5.93564,0.4096,0.3466,0.35007
1694639101015625,-8.482824,0.728861,5.127564,0.4136,0.3056,0.33207
1694639101023437,-8.502824,0.732861,5.174564,0.2996,0.2566,0.34807
1694639101031250,-8.512824,0.717861,5.156564,0.3306,0.1936,0.30107
1694639101039062,-8.500824,0.715861,5.129564,0.2316,0.3186,0.22107
1694639101046875,-8.497824,0.714861,5.120564,0.2066,0.3116,0.21807
1694639101054687,-8.493824,0.698861,5.147564,0.2216,0.3586,0.18607
1694639101062500,-8.502824,0.700861,5.170564,0.2376,0.3746,0.13807
1694639101070312,-8.515824,0.698861,5.161564,0.2056,0.3766,0.10607
1694639101078125,-8.522824,0.718861,5.165564,0.3816,0.4066,0.9007
1694639101085937,-8.511824,0.720861,5.158564,0.3826,0.3596,0.10607
1694639101093750,-8.515824,0.709861,5.149564,0.4166,0.3636,0.10507
1694639101101562,-8.529824,0.710861,5.136564,0.4266,0.3526,0.15707
1694639101109375,-8.545824,0.709861,5.109564,0.4756,0.4476,0.17207
1694639101117187,-8.538824,0.700861,5.86564,0.5076,0.4006,0.17207
1694639101125000,-8.524824,0.684861,5.80564,0.4226,0.4056,0.30307
1694639101132812,-8.500824,0.703861,5.97564,0.4446,0.3846,0.23607
1694639101140625,-8.498824,0.714861,5.125564,0.4436,0.3986,0.25307
1694639101148437,-8.491824,0.721861,5.156564,0.3786,0.4136,0.30107
1694639101156250,-8.478824,0.717861,5.208564,0.3746,0.4076,0.25507
1694639101164062,-8.466824,0.715861,5.215564,0.4136,0.4636,0.26707
1694639101171875,-8.456824,0.706861,5.215564,0.2816,0.3826,0.25307
1694639101179687,-8.465824,0.709861,5.226564,0.1666,0.3936,0.30207
1694639101187500,-8.467824,0.707861,5.215564,0.1806,0.3766,0.23907
1694639101195312,-8.477824,0.718861,5.211564,0.1606,0.4176,0.22507
1694639101203125,-8.460824,0.711861,5.199564,0.1656,0.4256,0.20607
1694639101210937,-8.452824,0.691861,5.192564,0.1826,0.4116,0.17307
1694639101218750,-8.447824,0.695861,5.186564,0.1666,0.4116,0.20507
1694639101226562,-8.461824,0.691861,5.172564,0.2126,0.4416,0.11007
1694639101234375,-8.465824,0.688861,5.152564,0.2166,0.4626,0.12407
1694639101242187,-8.476824,0.677861,5.140564,0.3446,0.3836,0.14107
1694639101250000,-8.496824,0.677861,5.134564,0.3786,0.4006,0.10807
1694639101257812,-8.496824,0.677861,5.156564,0.2806,0.3826,0.15707
1694639101265625,-8.494824,0.681861,5.179564,0.3596,0.4746,0.17407
1694639101273437,-8.485824,0.673861,5.208564,0.3946,0.3986,0.20507
1694639101281250,-8.466824,0.660861,5.202564,0.4386,0.3776,0.20707
1694639101289062,-8.437824,0.636861,5.172564,0.4246,0.3946,0.27007
1694639101296875,-8.421824,0.629861,5.158564,0.4426,0.3806,0.26907
1694639101304687,-8.392824,0.614861,5.149564,0.4246,0.3946,0.23807
1694639101312500,-8.383824,0.628861,5.186564,0.4436,0.3516,0.25307
1694639101320312,-8.398824,0.638861,5.217564,0.4606,0.3536,0.26807
1694639101328125,-8.401824,0.639861,5.235564,0.4246,0.3946,0.30207
1694639101335937,-8.410824,0.643861,5.231564,0.4246,0.3476,0.27007
1694639101343750,-8.421824,0.670861,5.220564,0.4536,0.2956,0.24007
1694639101351562,-8.422824,0.696861,5.222564,0.4586,0.2406,0.20507
1694639101359375,-8.418824,0.723861,5.199564,0.4576,0.2236,0.23807
1694639101367187,-8.432824,0.721861,5.195564,0.4216,0.2486,0.22407
1694639101375000,-8.426824,0.718861,5.179564,0.4446,0.2446,0.22007
1694639101382812,-8.458824,0.713861,5.183564,0.4616,0.2906,0.31607
1694639101390625,-8.474824,0.704861,5.190564,0.4276,0.2406,0.30107
1694639101398437,-8.494824,0.677861,5.186564,0.4256,0.2386,0.22207
1694639101406250,-8.514824,0.674861,5.181564,0.3496,0.1656,0.31607
1694639101414062,-8.519824,0.670861,5.188564,0.3936,0.1916,0.27007
1694639101421875,-8.523824,0.665861,5.188564,0.2986,0.2886,0.30107
1694639101429687,-8.532824,0.658861,5.176564,0.3856,0.3136,0.29707
1694639101437500,-8.517824,0.641861,5.152564,0.4456,0.2906,0.28407
1694639101445312,-8.483824,0.630861,5.149564,0.4316,0.3096,0.29907
1694639101453125,-8.470824,0.628861,5.177564,0.4446,0.3196,0.34807
1694639101460937,-8.466824,0.617861,5.199564,0.4306,0.3236,0.28307
1694639101468750,-8.455824,0.613861,5.215564,0.4936,0.3526,0.30007
1694639101476562,-8.431824,0.626861,5.224564,0.5456,0.4216,0.28207
1694639101484375,-8.431824,0.637861,5.221564,0.4656,0.3296,0.21707
1694639101492187,-8.415824,0.662861,5.224564,0.4646,0.2966,0.18607
1694639101500000,-8.427824,0.673861,5.224564,0.4926,0.3046,0.28507
1694639101507812,-8.434824,0.675861,5.195564,0.5106,0.2906,0.28407
1694639101515625,-8.451824,0.688861,5.183564,0.5096,0.3066,0.25207
1694639101523437,-8.476824,0.704861,5.170564,0.4456,0.2136,0.23607
1694639101531250,-8.494824,0.715861,5.161564,0.4286,0.1796,0.30007
1694639101539062,-8.512824,0.708861,5.136564,0.4116,0.1626,0.30107
1694639101546875,-8.527824,0.707861,5.127564,0.5256,0.1646,0.30007
1694639101554687,-8.531824,0.699861,5.125564,0.5036,0.1236,0.31907
1694639101562500,-8.531824,0.686861,5.111564,0.5376,0.1416,0.30307
1694639101570312,-8.542824,0.685861,5.123564,0.6666,0.3146,0.31807
1694639101578125,-8.535824,0.677861,5.136564,0.4716,0.3436,0.33507
1694639101585937,-8.510824,0.679861,5.145564,0.4886,0.4236,0.33507
1694639101593750,-8.486824,0.664861,5.152564,0.5046,0.4386,0.31907
1694639101601562,-8.468824,0.663861,5.161564,0.4376,0.4036,0.36807
1694639101609375,-8.468824,0.657861,5.183564,0.5086,0.3976,0.28507
1694639101617187,-8.459824,0.656861,5.181564,0.6016,0.3326,0.19007
1694639101625000,-8.459824,0.676861,5.183564,0.5866,0.2546,0.25407
1694639101632812,-8.469824,0.679861,5.158564,0.4796,0.2306,0.25107
1694639101640625,-8.462824,0.686861,5.149564,0.5106,0.3086,0.25107
1694639101648437,-8.458824,0.693861,5.145564,0.4746,0.3346,0.23707
1694639101656250,-8.440824,0.704861,5.129564,0.5246,0.3206,0.25307
1694639101664062,-8.428824,0.704861,5.120564,0.5266,0.3086,0.25107
1694639101671875,-8.418824,0.694861,5.120564,0.5196,0.3436,0.27107
1694639101679687,-8.435824,0.697861,5.134564,0.4946,0.3546,0.28307
1694639101687500,-8.449824,0.688861,5.125564,0.4136,0.2286,0.30007
1694639101695312,-8.472824,0.702861,5.129564,0.4916,0.1606,0.31807
1694639101703125,-8.473824,0.697861,5.131564,0.4636,0.1686,0.25107
1694639101710937,-8.470824,0.695861,5.125564,0.4266,0.1916,0.30207
1694639101718750,-8.462824,0.699861,5.125564,0.4636,0.1986,0.31507
1694639101726562,-8.453824,0.691861,5.118564,0.4456,0.2126,0.28407
1694639101734375,-8.447824,0.680861,5.116564,0.4426,0.2226,0.30207
1694639101742187,-8.457824,0.678861,5.118564,0.4896,0.2206,0.30207
1694639101750000,-8.458824,0.666861,5.136564,0.4656,0.1536,0.34607
1694639101757812,-8.495824,0.666861,5.143564,0.4596,0.1756,0.35007
1694639101765625,-8.516824,0.656861,5.120564,0.4966,0.2456,0.33107
1694639101773437,-8.542824,0.645861,5.131564,0.4786,0.1636,0.34807
1694639101781250,-8.571824,0.636861,5.125564,0.5586,0.2266,0.34807
1694639101789062,-8.570824,0.655861,5.129564,0.5476,0.2026,0.33007
1694639101796875,-8.567824,0.706861,5.156564,0.4956,0.2616,0.29907
1694639101804687,-8.567824,0.740861,5.172564,0.6396,0.3216,0.31607
1694639101812500,-8.560824,0.760861,5.170564,0.7036,0.2266,0.36407
1694639101820312,-8.547824,0.763861,5.141564,0.7026,0.2866,0.34907
1694639101828125,-8.531824,0.758861,5.116564,0.6556,0.3216,0.31607
1694639101835937,-8.517824,0.762861,5.97564,0.5626,0.3426,0.31407
1694639101843750,-8.484824,0.746861,5.93564,0.4416,0.3786,0.35007
1694639101851562,-8.452824,0.754861,5.115564,0.4306,0.4196,0.26707
1694639101859375,-8.431824,0.745861,5.143564,0.4246,0.2516,0.30207
1694639101867187,-8.444824,0.737861,5.165564,0.3646,0.2906,0.28407
1694639101875000,-8.459824,0.734861,5.167564,0.3346,0.3256,0.23507
1694639101882812,-8.464824,0.723861,5.158564,0.2356,0.2926,0.21907
1694639101890625,-8.485824,0.708861,5.140564,0.2336,0.2576,0.20507
1694639101898437,-8.505824,0.685861,5.136564,0.2836,0.3556,0.18707
1694639101906250,-8.495824,0.671861,5.159564,0.3436,0.3476,0.22207
1694639101914062,-8.494824,0.672861,5.167564,0.3986,0.3256,0.21907
1694639101921875,-8.487824,0.672861,5.149564,0.3826,0.3566,0.23507
1694639101929687,-8.493824,0.669861,5.120564,0.4336,0.1746,0.18507
1694639101937500,-8.494824,0.672861,5.88564,0.5086,0.1806,0.18807
1694639101945312,-8.485824,0.666861,5.68564,0.4746,0.2096,0.20507
1694639101953125,-8.483824,0.659861,5.77564,0.4616,0.1826,0.20407
1694639101960937,-8.485824,0.666861,5.73564,0.4756,0.2406,0.25307
1694639101968750,-8.478824,0.677861,5.82564,0.4316,0.2946,0.25107
1694639101976562,-8.469824,0.688861,5.118564,0.4426,0.2716,0.22107
1694639101984375,-8.469824,0.717861,5.147564,0.4286,0.3036,0.34807
1694639101992187,-8.482824,0.715861,5.165564,0.4606,0.3046,0.30007
1694639102000000,-8.491824,0.728861,5.183564,0.4446,0.2886,0.31607
1694639102007812,-8.486824,0.716861,5.192564,0.4946,0.3236,0.28307
1694639102015625,-8.472824,0.727861,5.161564,0.4816,0.3586,0.28207
1694639102023437,-8.448824,0.735861,5.143564,0.4626,0.3556,0.25107
1694639102031250,-8.421824,0.731861,5.156564,0.4316,0.3726,0.28307
1694639102039062,-8.422824,0.714861,5.140564,0.4426,0.1936,0.22107
1694639102046875,-8.446824,0.708861,5.127564,0.3966,0.1356,0.17207
1694639102054687,-8.489824,0.706861,5.120564,0.2516,0.1046,0.15607
1694639102062500,-8.536824,0.699861,5.111564,0.2816,0.1006,0.18907
1694639102070312,-8.572824,0.696861,5.98564,0.3156,0.1486,0.23607
1694639102078125,-8.596824,0.706861,5.107564,0.2846,0.1506,0.22007
1694639102085937,-8.597824,0.699861,5.93564,0.3796,0.2756,0.18807
1694639102093750,-8.572824,0.687861,5.82564,0.3456,0.3206,0.12507
1694639102101562,-8.558824,0.677861,5.75564,0.4326,0.3766,0.20207
1694639102109375,-8.544824,0.661861,5.39564,0.4576,0.4116,0.25307
1694639102117187,-8.530824,0.640861,5.18564,0.4816,0.2966,0.26607
1694639102125000,-8.535824,0.632861,5.27564,0.4466,0.2926,0.25107
1694639102132812,-8.536824,0.651861,5.54564,0.4336,0.2676,0.23307
1694639102140625,-8.529824,0.680861,5.79564,0.4626,0.3106,0.17107
1694639102148437,-8.498824,0.692861,5.125564,0.3776,0.3206,0.15707
1694639102156250,-8.500824,0.710861,5.156564,0.3806,0.4026,0.20307
1694639102164062,-8.498824,0.706861,5.170564,0.3146,0.2576,0.23707
1694639102171875,-8.497824,0.705861,5.129564,0.3546,0.2696,0.20107
1694639102179687,-8.498824,0.698861,5.91564,0.4636,0.2946,0.25107
1694639102187500,-8.492824,0.692861,5.79564,0.4266,0.3056,0.17307
1694639102195312,-8.489824,0.699861,5.86564,0.4466,0.3886,0.20307
1694639102203125,-8.500824,0.692861,5.77564,0.4296,0.4026,0.21907
1694639102210937,-8.468824,0.699861,5.77564,0.4656,0.2806,0.25007
1694639102218750,-8.457824,0.697861,5.54564,0.4956,0.2796,0.17107
1694639102226562,-8.430824,0.690861,5.50564,0.4806,0.2196,0.17007
1694639102234375,-8.423824,0.706861,5.57564,0.4806,0.2816,0.17007
1694639102242187,-8.420824,0.682861,5.52564,0.5446,0.1836,0.26707
1694639102250000,-8.442824,0.675861,5.48564,0.4976,0.1546,0.26607
1694639102257812,-8.465824,0.648861,5.50564,0.4496,0.1406,0.23407
1694639102265625,-8.481824,0.619861,5.45564,0.4476,0.1366,0.29907
1694639102273437,-8.509824,0.620861,5.54564,0.4686,0.1606,0.23307
1694639102281250,-8.525824,0.616861,5.48564,0.5656,0.1266,0.31307
1694639102289062,-8.550824,0.624861,5.36564,0.4696,0.816,0.29607
1694639102296875,-8.581824,0.648861,5.32564,0.4356,0.466,0.33007
1694639102304687,-8.601824,0.693861,5.57564,0.4326,0.64,0.37907
1694639102312500,-8.618824,0.714861,5.70564,0.6306,0.466,0.40907
1694639102320312,-8.638824,0.707861,5.79564,0.6786,0.1246,0.44107
1694639102328125,-8.646824,0.724861,5.77564,0.6976,0.1766,0.44007
1694639102335937,-8.632824,0.723861,5.77564,0.6616,0.1846,0.49007
1694639102343750,-8.621824,0.717861,5.79564,0.6266,0.2766,0.45907
1694639102351562,-8.616824,0.712861,5.77564,0.5306,0.3426,0.39407
1694639102359375,-8.610824,0.713861,5.84564,0.5436,0.4606,0.47607
1694639102367187,-8.592824,0.706861,5.88564,0.4336,0.3866,0.44307
1694639102375000,-8.576824,0.686861,5.116564,0.4486,0.4026,0.41107
1694639102382812,-8.565824,0.675861,5.152564,0.4156,0.3876,0.33107
1694639102390625,-8.560824,0.697861,5.154564,0.3686,0.3426,0.31407
1694639102398437,-8.536824,0.698861,5.136564,0.4166,0.3586,0.26607
1694639102406250,-8.522824,0.676861,5.129564,0.4496,0.4386,0.25007
1694639102414062,-8.484824,0.676861,5.131564,0.4316,0.4056,0.21807
1694639102421875,-8.455824,0.674861,5.118564,0.4826,0.3946,0.16907
1694639102429687,-8.424824,0.675861,5.127564,0.4806,0.4086,0.15407
1694639102437500,-8.422824,0.686861,5.120564,0.4306,0.4226,0.10607
1694639102445312,-8.425824,0.694861,5.126564,0.4526,0.3976,0.18407
1694639102453125,-8.449824,0.679861,5.122564,0.5616,0.3746,0.23407
1694639102460937,-8.471824,0.674861,5.86564,0.6286,0.2386,0.20107
1694639102468750,-8.509824,0.707861,5.79564,0.5946,0.1876,0.25007
1694639102476562,-8.529824,0.711861,5.82564,0.5796,0.1716,0.28207
1694639102484375,-8.549824,0.711861,5.82564,0.5776,0.2016,0.29807
1694639102492187,-8.569824,0.702861,5.88564,0.7106,0.1866,0.42607
1694639102500000,-8.571824,0.704861,5.77564,0.6946,0.2826,0.39307
1694639102507812,-8.598824,0.696861,5.75564,0.6306,0.4246,0.40907
1694639102515625,-8.616824,0.703861,5.75564,0.4986,0.4356,0.45807
1694639102523437,-8.613824,0.729861,5.93564,0.4546,0.5206,0.45507
1694639102531250,-8.603824,0.760861,5.106564,0.4846,0.7526,0.47207
1694639102539062,-8.580824,0.783861,5.104564,0.5666,0.7706,0.44007
1694639102546875,-8.580824,0.784861,5.107564,0.5536,0.7076,0.35007
1694639102554687,-8.546824,0.773861,5.86564,0.5596,0.6396,0.26607
1694639102562500,-8.524824,0.767861,5.77564,0.4916,0.6186,0.25207
1694639102570312,-8.483824,0.774861,5.77564,0.4276,0.6536,0.13907
1694639102578125,-8.457824,0.779861,5.84564,0.3106,0.6176,0.9307
1694639102585937,-8.454824,0.775861,5.97564,0.2646,0.4786,0.9207
1694639102593750,-8.433824,0.767861,5.90564,0.1926,0.3986,0.4007
1694639102601562,-8.438824,0.766861,5.113564,0.1386,0.4066,0.5807
1694639102609375,-8.443824,0.757861,5.111564,0.1376,0.3896,0.493
1694639102617187,-8.455824,0.737861,5.100564,0.2166,0.3386,0.4407
1694639102625000,-8.466824,0.723861,5.97564,0.2176,0.3246,0.6007
1694639102632812,-8.491824,0.712861,5.100564,0.2996,0.3426,0.7507
1694639102640625,-8.501824,0.688861,5.113564,0.2616,0.3666,0.4607
1694639102648437,-8.492824,0.666861,5.118564,0.2816,0.3236,0.6007
1694639102656250,-8.487824,0.634861,5.109564,0.3206,0.3166,0.12107
1694639102664062,-8.485824,0.663861,5.115564,0.4126,0.3406,0.15507
1694639102671875,-8.496824,0.670861,5.106564,0.3326,0.3886,0.17107
1694639102679687,-8.480824,0.687861,5.100564,0.3346,0.3906,0.17007
1694639102687500,-8.482824,0.687861,5.88564,0.3996,0.4056,0.21807
1694639102695312,-8.467824,0.688861,5.73564,0.3966,0.4336,0.23507
1694639102703125,-8.460824,0.704861,5.73564,0.4456,0.4176,0.26707
1694639102710937,-8.473824,0.688861,5.77564,0.3336,0.4186,0.26707
1694639102718750,-8.469824,0.688861,5.84564,0.3486,0.3556,0.17107
1694639102726562,-8.464824,0.694861,5.106564,0.2706,0.3276,0.21807
1694639102734375,-8.475824,0.705861,5.111564,0.3346,0.3126,0.17007
1694639102742187,-8.491824,0.701861,5.127564,0.3626,0.1966,0.14107
1694639102750000,-8.494824,0.703861,5.111564,0.2486,0.1966,0.10907
1694639102757812,-8.502824,0.711861,5.88564,0.2216,0.1726,0.10607
1694639102765625,-8.517824,0.709861,5.97564,0.2396,0.2056,0.15307
1694639102773437,-8.556824,0.722861,5.93564,0.2346,0.1536,0.5907
1694639102781250,-8.567824,0.731861,5.91564,0.1996,0.1626,0.15707
1694639102789062,-8.565824,0.722861,5.93564,0.1846,0.1336,0.12507
1694639102796875,-8.569824,0.710861,5.91564,0.2076,0.1766,0.7307
1694639102804687,-8.560824,0.700861,5.113564,0.2686,0.2336,0.10707
1694639102812500,-8.542824,0.707861,5.120564,0.3486,0.1996,0.15507
1694639102820312,-8.529824,0.709861,5.109564,0.4126,0.3246,0.17107
1694639102828125,-8.520824,0.705861,5.118564,0.4286,0.4186,0.14007
1694639102835937,-8.495824,0.705861,5.138564,0.4136,0.4046,0.15507
1694639102843750,-8.489824,0.694861,5.147564,0.4136,0.4506,0.20307
1694639102851562,-8.472824,0.695861,5.140564,0.4236,0.4906,0.15807
1694639102859375,-8.456824,0.702861,5.127564,0.3906,0.5216,0.11007
1694639102867187,-8.440824,0.707861,5.129564,0.2616,0.4566,0.17407
1694639102875000,-8.422824,0.700861,5.125564,0.2316,0.3806,0.22107
1694639102882812,-8.423824,0.697861,5.93564,0.2886,0.3476,0.20107
1694639102890625,-8.443824,0.694861,5.86564,0.2746,0.2556,0.21607
1694639102898437,-8.459824,0.690861,5.104564,0.1596,0.2046,0.20107
1694639102906250,-8.489824,0.681861,5.113564,0.2696,0.1676,0.23507
1694639102914062,-8.500824,0.674861,5.133564,0.2896,0.2506,0.29707
1694639102921875,-8.506824,0.678861,5.136564,0.2756,0.1746,0.32907
1694639102929687,-8.520824,0.671861,5.131564,0.3376,0.2206,0.23307
1694639102937500,-8.520824,0.669861,5.129564,0.3706,0.2356,0.31307
1694639102945312,-8.516824,0.687861,5.125564,0.4136,0.1816,0.26807
1694639102953125,-8.509824,0.681861,5.113564,0.4486,0.2006,0.29807
1694639102960937,-8.513824,0.687861,5.111564,0.3686,0.2026,0.23407
1694639102968750,-8.521824,0.701861,5.120564,0.4236,0.1656,0.26307
1694639102976562,-8.531824,0.707861,5.113564,0.4136,0.1506,0.22007
1694639102984375,-8.549824,0.709861,5.111564,0.3206,0.1716,0.21807
1694639102992187,-8.554824,0.722861,5.118564,0.2666,0.2446,0.18807
1694639103000000,-8.567824,0.733861,5.120564,0.3626,0.2426,0.17307
1694639103007812,-8.568824,0.739861,5.122564,0.3346,0.3126,0.12207
1694639103015625,-8.560824,0.738861,5.118564,0.3626,0.3846,0.18807
1694639103023437,-8.545824,0.740861,5.129564,0.4256,0.3676,0.14107
1694639103031250,-8.529824,0.743861,5.127564,0.2976,0.3676,0.20507
1694639103039062,-8.509824,0.743861,5.127564,0.3476,0.3066,0.18807
1694639103046875,-8.496824,0.737861,5.129564,0.4086,0.2856,0.17407
1694639103054687,-8.491824,0.712861,5.113564,0.3786,0.2426,0.20507
1694639103062500,-8.483824,0.706861,5.118564,0.3776,0.2406,0.20507
1694639103070312,-8.494824,0.670861,5.129564,0.2686,0.2306,0.18707
1694639103078125,-8.496824,0.672861,5.136564,0.3496,0.1996,0.20307
1694639103085937,-8.505824,0.657861,5.134564,0.4456,0.2756,0.25207
1694639103093750,-8.520824,0.670861,5.147564,0.3266,0.3436,0.33507
1694639103101562,-8.535824,0.670861,5.177564,0.4116,0.4756,0.33307
1694639103109375,-8.541824,0.669861,5.159564,0.4126,0.3976,0.36507
1694639103117187,-8.520824,0.667861,5.124564,0.4486,0.3896,0.31407
1694639103125000,-8.492824,0.661861,5.109564,0.4596,0.3986,0.26907
1694639103132812,-8.466824,0.662861,5.91564,0.5696,0.3796,0.25407
1694639103140625,-8.458824,0.646861,5.86564,0.5916,0.4016,0.26707
1694639103148437,-8.474824,0.644861,5.70564,0.5906,0.3536,0.26807
1694639103156250,-8.486824,0.671861,5.86564,0.4896,0.2986,0.31807
1694639103164062,-8.503824,0.690861,5.100564,0.4926,0.3046,0.30007
1694639103171875,-8.521824,0.694861,5.104564,0.4436,0.2716,0.28507
1694639103179687,-8.551824,0.718861,5.118564,0.4456,0.3216,0.26807
1694639103187500,-8.577824,0.735861,5.86564,0.4336,0.2646,0.29807
1694639103195312,-8.586824,0.746861,5.79564,0.4336,0.3276,0.33007
1694639103203125,-8.565824,0.738861,5.70564,0.4456,0.1796,0.31607
1694639103210937,-8.536824,0.732861,5.64564,0.4286,0.2576,0.30007
1694639103218750,-8.498824,0.714861,5.55564,0.4606,0.3046,0.31607
1694639103226562,-8.478824,0.697861,5.59564,0.4416,0.3476,0.30207
1694639103234375,-8.478824,0.670861,5.79564,0.4606,0.3816,0.34907
1694639103242187,-8.481824,0.673861,5.113564,0.4446,0.2556,0.38107
1694639103250000,-8.497824,0.675861,5.107564,0.4276,0.2866,0.31707
1694639103257812,-8.501824,0.697861,5.98564,0.4756,0.3806,0.34907
1694639103265625,-8.504824,0.709861,5.111564,0.4326,0.4186,0.39507
1694639103273437,-8.504824,0.732861,5.134564,0.4966,0.4186,0.34707
1694639103281250,-8.502824,0.749861,5.118564,0.5756,0.4326,0.34707
1694639103289062,-8.504824,0.745861,5.91564,0.6056,0.4446,0.31707
1694639103296875,-8.492824,0.749861,5.72564,0.5146,0.4076,0.29707
1694639103304687,-8.486824,0.743861,5.66564,0.4626,0.2436,0.31607
1694639103312500,-8.496824,0.741861,5.50564,0.5706,0.1926,0.23807
1694639103320312,-8.509824,0.745861,5.55564,0.4446,0.1336,0.23607
1694639103328125,-8.531824,0.758861,5.61564,0.3966,0.866,0.20407
1694639103335937,-8.546824,0.764861,5.70564,0.3176,0.1346,0.28407
1694639103343750,-8.535824,0.756861,5.89564,0.2026,0.1486,0.25207
1694639103351562,-8.544824,0.740861,5.93564,0.2356,0.1976,0.22007
1694639103359375,-8.549824,0.729861,5.91564,0.1686,0.1776,0.25307
1694639103367187,-8.552824,0.709861,5.91564,0.1876,0.2906,0.30007
1694639103375000,-8.556824,0.704861,5.113564,0.1886,0.3096,0.21907
1694639103382812,-8.541824,0.672861,5.118564,0.3316,0.2916,0.20407
1694639103390625,-8.527824,0.671861,5.113564,0.3516,0.3586,0.23407
1694639103398437,-8.509824,0.658861,5.120564,0.4016,0.3636,0.13707
1694639103406250,-8.495824,0.635861,5.118564,0.3606,0.3346,0.20507
1694639103414062,-8.488824,0.662861,5.127564,0.3256,0.4236,0.19107
1694639103421875,-8.472824,0.671861,5.127564,0.4596,0.3356,0.23707
1694639103429687,-8.467824,0.670861,5.122564,0.4156,0.4216,0.20207
1694639103437500,-8.457824,0.683861,5.91564,0.4806,0.2966,0.21807
1694639103445312,-8.484824,0.690861,5.82564,0.4326,0.2966,0.23407
1694639103453125,-8.500824,0.691861,5.77564,0.4026,0.2356,0.26507
1694639103460937,-8.504824,0.703861,5.82564,0.4476,0.1836,0.31507
1694639103468750,-8.531824,0.700861,5.86564,0.4316,0.1856,0.23507
1694639103476562,-8.541824,0.712861,5.89564,0.3966,0.1646,0.28407
1694639103484375,-8.549824,0.713861,5.118564,0.4656,0.2006,0.37807
1694639103492187,-8.556824,0.709861,5.102564,0.3846,0.1546,0.28207
1694639103500000,-8.560824,0.710861,5.88564,0.3866,0.1426,0.23307
1694639103507812,-8.549824,0.729861,5.84564,0.4166,0.2946,0.31507
1694639103515625,-8.542824,0.731861,5.68564,0.2696,0.2926,0.28307
1694639103523437,-8.534824,0.736861,5.77564,0.1986,0.3636,0.22207
1694639103531250,-8.533824,0.718861,5.75564,0.2226,0.2966,0.23407
1694639103539062,-8.529824,0.705861,5.77564,0.2846,0.3236,0.23507
1694639103546875,-8.529824,0.698861,5.79564,0.1866,0.3396,0.17107
1694639103554687,-8.529824,0.683861,5.77564,0.2506,0.3556,0.14007
1694639103562500,-8.527824,0.683861,5.118564,0.2006,0.3696,0.12407
1694639103570312,-8.533824,0.687861,5.127564,0.1716,0.3906,0.9007
1694639103578125,-8.529824,0.709861,5.100564,0.1866,0.4356,0.13907
1694639103585937,-8.523824,0.703861,5.86564,0.2506,0.3846,0.20407
1694639103593750,-8.509824,0.709861,5.68564,0.2346,0.4016,0.18807
1694639103601562,-8.509824,0.687861,5.52564,0.1726,0.3596,0.15407
1694639103609375,-8.496824,0.668861,5.30564,0.3306,0.3536,0.17207
1694639103617187,-8.494824,0.672861,5.30564,0.2836,0.3716,0.15607
1694639103625000,-8.496824,0.670861,5.25564,0.2856,0.2486,0.13907
1694639103632812,-8.496824,0.676861,5.48564,0.3836,0.2476,0.23507
1694639103640625,-8.510824,0.668861,5.79564,0.2336,0.2576,0.20507
1694639103648437,-8.529824,0.669861,5.77564,0.2706,0.1546,0.23507
1694639103656250,-8.536824,0.671861,5.79564,0.3366,0.2496,0.26607
1694639103664062,-8.536824,0.667861,5.70564,0.4156,0.3436,0.18607
1694639103671875,-8.536824,0.671861,5.68564,0.4476,0.3416,0.25107
1694639103679687,-8.527824,0.660861,5.70564,0.4316,0.3256,0.31507
1694639103687500,-8.523824,0.665861,5.79564,0.3506,0.3256,0.26707
1694639103695312,-8.523824,0.663861,5.86564,0.4156,0.2946,0.29907
1694639103703125,-8.525824,0.669861,5.79564,0.3496,0.2926,0.28307
1694639103710937,-8.530824,0.669861,5.77564,0.3816,0.3396,0.29907
1694639103718750,-8.529824,0.682861,5.79564,0.3666,0.4036,0.31507
1694639103726562,-8.529824,0.691861,5.82564,0.3666,0.3876,0.29907
1694639103734375,-8.529824,0.694861,5.79564,0.4446,0.3996,0.30007
1694639103742187,-8.534824,0.687861,5.70564,0.4276,0.3666,0.28507
1694639103750000,-8.536824,0.689861,5.55564,0.4466,0.3086,0.26707
1694639103757812,-8.536824,0.685861,5.55564,0.4456,0.3376,0.33207
1694639103765625,-8.527824,0.701861,5.59564,0.4286,0.3376,0.26807
1694639103773437,-8.542824,0.707861,5.77564,0.4156,0.2946,0.23507
1694639103781250,-8.555824,0.710861,5.77564,0.4366,0.2866,0.24807
1694639103789062,-8.556824,0.720861,5.88564,0.4156,0.2326,0.23507
1694639103796875,-8.540824,0.705861,5.91564,0.4296,0.3396,0.21907
1694639103804687,-8.533824,0.702861,5.77564,0.4146,0.3726,0.25107
1694639103812500,-8.520824,0.677861,5.57564,0.4196,0.4426,0.23207
1694639103820312,-8.513824,0.674861,5.66564,0.4006,0.4366,0.31407
1694639103828125,-8.493824,0.660861,5.75564,0.4516,0.4246,0.29707
1694639103835937,-8.472824,0.650861,5.79564,0.4276,0.4316,0.22007
1694639103843750,-8.467824,0.645861,5.77564,0.4496,0.4076,0.29707
1694639103851562,-8.489824,0.638861,5.79564,0.4336,0.4256,0.21707
1694639103859375,-8.510824,0.647861,5.95564,0.4466,0.3886,0.23507
1694639103867187,-8.523824,0.656861,5.111564,0.4336,0.3296,0.24907
1694639103875000,-8.552824,0.667861,5.127564,0.4776,0.3996,0.28407
1694639103882812,-8.568824,0.678861,5.98564,0.5746,0.3536,0.26807
1694639103890625,-8.574824,0.698861,5.77564,0.5246,0.3356,0.31607
1694639103898437,-8.565824,0.707861,5.75564,0.4926,0.3666,0.30107
1694639103906250,-8.567824,0.709861,5.59564,0.5426,0.3066,0.31607
1694639103914062,-8.547824,0.716861,5.57564,0.6236,0.3836,0.39607
1694639103921875,-8.524824,0.707861,5.75564,0.5636,0.4046,0.42607
1694639103929687,-8.506824,0.714861,5.86564,0.4966,0.3716,0.36307
1694639103937500,-8.495824,0.707861,5.91564,0.5616,0.3876,0.34707
1694639103945312,-8.488824,0.707861,5.104564,0.4496,0.3736,0.33007
1694639103953125,-8.478824,0.703861,5.111564,0.4466,0.3856,0.33107
1694639103960937,-8.486824,0.700861,5.115564,0.4346,0.4096,0.26507
1694639103968750,-8.502824,0.692861,5.136564,0.4136,0.4016,0.23507
1694639103976562,-8.513824,0.703861,5.122564,0.3966,0.4336,0.21907
1694639103984375,-8.515824,0.707861,5.113564,0.3176,0.4196,0.25107
1694639103992187,-8.518824,0.705861,5.109564,0.4456,0.4016,0.23507
1694639104000000,-8.519824,0.706861,5.88564,0.4526,0.4416,0.31207
1694639104007812,-8.515824,0.702861,5.77564,0.4176,0.4226,0.32907
1694639104015625,-8.518824,0.707861,5.70564,0.4276,0.4286,0.30107
1694639104023437,-8.520824,0.689861,5.52564,0.4316,0.4346,0.34707
1694639104031250,-8.514824,0.685861,5.84564,0.3986,0.3886,0.25107
1694639104039062,-8.496824,0.676861,5.100564,0.3356,0.2806,0.23407
1694639104046875,-8.462824,0.677861,5.109564,0.3656,0.2926,0.25107
1694639104054687,-8.460824,0.686861,5.120564,0.3486,0.2906,0.31607
1694639104062500,-8.466824,0.681861,5.147564,0.3536,0.2176,0.33007
1694639104070312,-8.484824,0.673861,5.154564,0.4056,0.2576,0.24707
1694639104078125,-8.514824,0.667861,5.131564,0.4006,0.2496,0.23407
1694639104085937,-8.528824,0.643861,5.127564,0.4116,0.1776,0.33307
1694639104093750,-8.549824,0.646861,5.141564,0.4076,0.3456,0.30207
1694639104101562,-8.550824,0.651861,5.145564,0.4316,0.3406,0.31507
1694639104109375,-8.538824,0.653861,5.152564,0.4156,0.4526,0.26607
1694639104117187,-8.553824,0.647861,5.150564,0.4276,0.3976,0.30107
1694639104125000,-8.543824,0.660861,5.145564,0.4936,0.4026,0.23507
1694639104132812,-8.539824,0.674861,5.116564,0.4616,0.3866,0.21907
1694639104140625,-8.547824,0.673861,5.82564,0.4626,0.4036,0.23507
1694639104148437,-8.536824,0.689861,5.77564,0.4286,0.3866,0.20307
1694639104156250,-8.536824,0.705861,5.84564,0.4616,0.4176,0.21907
1694639104164062,-8.529824,0.703861,5.93564,0.4456,0.4026,0.21907
1694639104171875,-8.516824,0.687861,5.104564,0.4306,0.3886,0.25107
1694639104179687,-8.531824,0.678861,5.113564,0.4006,0.4076,0.23407
1694639104187500,-8.527824,0.678861,5.118564,0.3976,0.3856,0.31507
1694639104195312,-8.516824,0.683861,5.136564,0.3326,0.4796,0.29907
1694639104203125,-8.498824,0.678861,5.131564,0.2206,0.5436,0.28307
1694639104210937,-8.473824,0.687861,5.138564,0.2546,0.5936,0.28207
1694639104218750,-8.457824,0.683861,5.138564,0.3026,0.5326,0.21807
1694639104226562,-8.451824,0.677861,5.127564,0.3156,0.4486,0.23607
1694639104234375,-8.446824,0.674861,5.124564,0.2916,0.4436,0.23207
1694639104242187,-8.444824,0.668861,5.138564,0.3196,0.4076,0.20207
1694639104250000,-8.460824,0.668861,5.149564,0.2976,0.4006,0.14007
1694639104257812,-8.461824,0.669861,5.156564,0.3596,0.3816,0.12507
1694639104265625,-8.473824,0.668861,5.149564,0.3506,0.4376,0.17007
1694639104273437,-8.489824,0.672861,5.122564,0.3306,0.4336,0.14007
1694639104281250,-8.498824,0.681861,5.118564,0.2516,0.3866,0.21907
1694639104289062,-8.496824,0.676861,5.111564,0.3186,0.3896,0.25007
1694639104296875,-8.509824,0.672861,5.86564,0.3826,0.3726,0.23507
1694639104304687,-8.520824,0.678861,5.54564,0.4156,0.3746,0.20207
1694639104312500,-8.516824,0.663861,5.57564,0.3636,0.2606,0.18807
1694639104320312,-8.528824,0.652861,5.59564,0.3306,0.2576,0.22107
1694639104328125,-8.530824,0.636861,5.75564,0.3466,0.2586,0.18907
1694639104335937,-8.522824,0.637861,5.84564,0.1976,0.3456,0.23907
1694639104343750,-8.513824,0.630861,5.102564,0.2486,0.3986,0.20507
1694639104351562,-8.497824,0.628861,5.145564,0.2806,0.4446,0.22107
1694639104359375,-8.499824,0.630861,5.156564,0.3136,0.3986,0.20507
1694639104367187,-8.502824,0.622861,5.188564,0.2316,0.3806,0.22107
1694639104375000,-8.508824,0.619861,5.179564,0.3336,0.4036,0.25107
1694639104382812,-8.497824,0.639861,5.170564,0.3476,0.4156,0.26807
1694639104390625,-8.499824,0.639861,5.167564,0.3306,0.4466,0.20407
1694639104398437,-8.480824,0.643861,5.156564,0.3696,0.4406,0.24907
1694639104406250,-8.483824,0.659861,5.170564,0.3956,0.4466,0.25207
1694639104414062,-8.464824,0.676861,5.158564,0.3696,0.4406,0.26507
1694639104421875,-8.463824,0.675861,5.145564,0.3936,0.4426,0.25307
1694639104429687,-8.456824,0.664861,5.140564,0.4136,0.3396,0.25107
1694639104437500,-8.469824,0.670861,5.147564,0.4126,0.2906,0.25207
1694639104445312,-8.473824,0.670861,5.149564,0.4496,0.3296,0.23307
1694639104453125,-8.477824,0.672861,5.151564,0.4346,0.3626,0.20107
1694639104460937,-8.483824,0.666861,5.163564,0.4426,0.3516,0.22107
1694639104468750,-8.500824,0.656861,5.163564,0.4156,0.4216,0.23407
1694639104476562,-8.514824,0.661861,5.188564,0.3316,0.3536,0.20407
1694639104484375,-8.519824,0.650861,5.188564,0.3326,0.3556,0.21907
1694639104492187,-8.525824,0.642861,5.179564,0.4326,0.3436,0.23407
1694639104500000,-8.528824,0.636861,5.154564,0.3946,0.3516,0.20507
1694639104507812,-8.519824,0.629861,5.149564,0.3666,0.3726,0.25107
1694639104515625,-8.490824,0.618861,5.161564,0.4496,0.4386,0.26607
1694639104523437,-8.475824,0.615861,5.174564,0.4296,0.4326,0.28307
1694639104531250,-8.455824,0.617861,5.172564,0.4436,0.5406,0.26807
1694639104539062,-8.441824,0.606861,5.163564,0.4286,0.5426,0.23607
1694639104546875,-8.425824,0.604861,5.163564,0.4306,0.4036,0.20307
1694639104554687,-8.443824,0.622861,5.181564,0.3956,0.4156,0.23607
1694639104562500,-8.452824,0.629861,5.172564,0.4916,0.3986,0.26907
1694639104570312,-8.472824,0.646861,5.165564,0.4746,0.4296,0.23707
1694639104578125,-8.483824,0.646861,5.156564,0.5406,0.4446,0.31707
1694639104585937,-8.501824,0.653861,5.152564,0.6046,0.4266,0.36507
1694639104593750,-8.493824,0.655861,5.152564,0.4736,0.4096,0.35007
1694639104601562,-8.488824,0.651861,5.177564,0.5866,0.4256,0.33407
1694639104609375,-8.487824,0.657861,5.158564,0.5256,0.4306,0.33207
1694639104617187,-8.465824,0.655861,5.152564,0.4936,0.4156,0.30007
1694639104625000,-8.452824,0.640861,5.152564,0.4436,0.3826,0.31707
1694639104632812,-8.448824,0.644861,5.163564,0.4916,0.3806,0.31707
1694639104640625,-8.456824,0.651861,5.188564,0.4446,0.3996,0.28407
1694639104648437,-8.456824,0.666861,5.210564,0.4456,0.3706,0.23507
1694639104656250,-8.469824,0.672861,5.215564,0.4316,0.3256,0.28307
1694639104664062,-8.453824,0.693861,5.217564,0.4466,0.2616,0.28307
1694639104671875,-8.451824,0.681861,5.222564,0.4326,0.2016,0.26707
1694639104679687,-8.451824,0.668861,5.194564,0.4646,0.3096,0.29907
1694639104687500,-8.451824,0.664861,5.181564,0.4476,0.4186,0.31507
1694639104695312,-8.458824,0.661861,5.208564,0.3996,0.3726,0.29907
1694639104703125,-8.467824,0.648861,5.213564,0.4496,0.3586,0.31407
1694639104710937,-8.472824,0.653861,5.195564,0.4126,0.3686,0.26807
1694639104718750,-8.454824,0.637861,5.167564,0.4316,0.3566,0.31507
1694639104726562,-8.456824,0.635861,5.179564,0.3976,0.4016,0.26707
1694639104734375,-8.449824,0.635861,5.188564,0.4816,0.4056,0.33007
1694639104742187,-8.454824,0.635861,5.183564,0.4976,0.3586,0.31407
1694639104750000,-8.465824,0.637861,5.179564,0.4456,0.3216,0.31607
1694639104757812,-8.469824,0.643861,5.176564,0.4666,0.3116,0.34607
1694639104765625,-8.454824,0.646861,5.174564,0.4326,0.2786,0.33107
1694639104773437,-8.441824,0.653861,5.168564,0.4446,0.2886,0.34807
1694639104781250,-8.445824,0.671861,5.149564,0.4306,0.1966,0.33207
1694639104789062,-8.445824,0.676861,5.165564,0.4446,0.2246,0.34907
1694639104796875,-8.452824,0.658861,5.163564,0.3946,0.2066,0.33407
1694639104804687,-8.461824,0.637861,5.165564,0.2856,0.1496,0.31607
1694639104812500,-8.488824,0.630861,5.183564,0.3996,0.1366,0.26707
1694639104820312,-8.513824,0.621861,5.195564,0.3946,0.1626,0.25307
1694639104828125,-8.520824,0.632861,5.186564,0.3626,0.1466,0.26907
1694639104835937,-8.523824,0.636861,5.201564,0.4626,0.1996,0.20307
1694639104843750,-8.539824,0.636861,5.199564,0.3986,0.1836,0.25107
1694639104851562,-8.546824,0.643861,5.183564,0.4296,0.2126,0.30007
1694639104859375,-8.559824,0.636861,5.170564,0.4306,0.1996,0.23507
1694639104867187,-8.541824,0.634861,5.145564,0.5286,0.2166,0.25107
1694639104875000,-8.523824,0.636861,5.127564,0.4806,0.2476,0.28307
1694639104882812,-8.510824,0.634861,5.129564,0.5126,0.3416,0.29907
1694639104890625,-8.481824,0.653861,5.143564,0.4606,0.3826,0.31707
1694639104898437,-8.465824,0.664861,5.149564,0.4266,0.3336,0.30107
1694639104906250,-8.440824,0.671861,5.158564,0.4446,0.2736,0.30007
1694639104914062,-8.422824,0.673861,5.147564,0.4496,0.2956,0.33007
1694639104921875,-8.426824,0.671861,5.154564,0.4326,0.2626,0.34607
1694639104929687,-8.432824,0.676861,5.154564,0.4446,0.1466,0.31707
1694639104937500,-8.434824,0.674861,5.190564,0.3916,0.1726,0.28707
1694639104945312,-8.469824,0.690861,5.199564,0.3976,0.1816,0.30007
1694639104953125,-8.489824,0.688861,5.206564,0.4456,0.1796,0.31607
1694639104960937,-8.499824,0.693861,5.199564,0.4276,0.1446,0.35007
1694639104968750,-8.501824,0.679861,5.143564,0.4606,0.536,0.28507
1694639104976562,-8.476824,0.670861,5.82564,0.4456,0.736,0.20407
1694639104984375,-8.467824,0.657861,5.66564,0.4316,0.436,0.18707
1694639104992187,-8.486824,0.635861,5.70564,0.4466,0.266,0.20407
1694639105000000,-8.486824,0.635861,5.79564,0.4296,0.116,0.14007
1694639105007812,-8.511824,0.626861,5.64564,0.4426,0.724,0.14107
1694639105015625,-8.534824,0.613861,5.48564,0.4256,0.1364,0.14207
1694639105023437,-8.553824,0.605861,5.39564,0.4486,0.146,0.13807
1694639105031250,-8.584824,0.608861,5.48564,0.4336,0.636,0.17007
1694639105039062,-8.627824,0.597861,5.57564,0.4936,0.716,0.20407
1694639105046875,-8.638824,0.601861,5.68564,0.4646,0.1706,0.21907
1694639105054687,-8.638824,0.608861,5.61564,0.4166,0.1856,0.26607
1694639105062500,-8.640824,0.606861,5.25564,0.5126,0.2456,0.33107
1694639105070312,-8.622824,0.615861,5.14564,0.5936,0.2786,0.33007
1694639105078125,-8.602824,0.628861,5.18564,0.6416,0.2616,0.34707
1694639105085937,-8.575824,0.644861,5.30564,0.7056,0.3856,0.37907
1694639105093750,-8.564824,0.660861,5.52564,0.5576,0.3796,0.42907
1694639105101562,-8.570824,0.693861,5.79564,0.4796,0.3056,0.41207
1694639105109375,-8.569824,0.722861,5.77564,0.4146,0.3206,0.41207
1694639105117187,-8.598824,0.737861,5.84564,0.4126,0.3046,0.31607
1694639105125000,-8.611824,0.752861,5.59564,0.3666,0.4656,0.31507
1694639105132812,-8.631824,0.751861,5.41564,0.4006,0.5476,0.28207
1694639105140625,-8.618824,0.756861,5.37564,0.2376,0.5586,0.36307
1694639105148437,-8.584824,0.757861,5.32564,0.1706,0.6056,0.25107
1694639105156250,-8.519824,0.751861,5.9564,0.1886,0.7036,0.18607
1694639105164062,-8.452824,0.739861,5.7564,0.264,0.7286,0.15607
1694639105171875,-8.397824,0.713861,5.32564,0.94,0.8556,0.14007
1694639105179687,-8.368824,0.683861,5.48564,0.104,0.7296,0.7607
1694639105187500,-8.353824,0.665861,5.91564,0.434,0.6646,0.14107
1694639105195312,-8.378824,0.658861,5.131564,0.56,0.6026,0.14107
1694639105203125,-8.407824,0.638861,5.147564,0.246,0.4956,0.17207
1694639105210937,-8.432824,0.624861,5.152564,0.566,0.3866,0.9207
1694639105218750,-8.461824,0.606861,5.181564,0.1866,0.4046,0.12307
1694639105226562,-8.479824,0.590861,5.176564,0.766,0.3276,0.21807
1694639105234375,-8.506824,0.588861,5.163564,0.1546,0.3366,0.30007
1694639105242187,-8.511824,0.575861,5.161564,0.1866,0.3216,0.28407
1694639105250000,-8.504824,0.570861,5.170564,0.2356,0.3686,0.30007
1694639105257812,-8.493824,0.559861,5.177564,0.1866,0.3996,0.31607
1694639105265625,-8.484824,0.561861,5.170564,0.4336,0.3916,0.29707
1694639105273437,-8.482824,0.561861,5.136564,0.4636,0.4346,0.29907
1694639105281250,-8.497824,0.561861,5.127564,0.4646,0.5456,0.31407
1694639105289062,-8.517824,0.572861,5.106564,0.4796,0.4506,0.28307
1694639105296875,-8.531824,0.592861,5.84564,0.5716,0.4276,0.30107
1694639105304687,-8.535824,0.598861,5.73564,0.5926,0.4966,0.31507
1694639105312500,-8.550824,0.610861,5.77564,0.5996,0.4216,0.27107
1694639105320312,-8.540824,0.639861,5.68564,0.6026,0.3946,0.28607
1694639105328125,-8.534824,0.640861,5.73564,0.5286,0.4036,0.34707
1694639105335937,-8.537824,0.652861,5.80564,0.5566,0.3496,0.34907
1694639105343750,-8.534824,0.660861,5.95564,0.6116,0.4076,0.32907
1694639105351562,-8.539824,0.665861,5.95564,0.5116,0.4016,0.33107
1694639105359375,-8.548824,0.658861,5.107564,0.4806,0.2456,0.39507
1694639105367187,-8.534824,0.660861,5.109564,0.5276,0.2926,0.31507
1694639105375000,-8.537824,0.665861,5.125564,0.5106,0.2756,0.30007
1694639105382812,-8.525824,0.685861,5.145564,0.4156,0.3726,0.29907
1694639105390625,-8.520824,0.700861,5.188564,0.4626,0.3856,0.33107
1694639105398437,-8.518824,0.707861,5.190564,0.4446,0.3976,0.38107
1694639105406250,-8.513824,0.703861,5.183564,0.4956,0.4016,0.36307
1694639105414062,-8.500824,0.689861,5.194564,0.5476,0.3886,0.44207
1694639105421875,-8.467824,0.677861,5.163564,0.6256,0.4036,0.34707
1694639105429687,-8.456824,0.684861,5.152564,0.6696,0.5716,0.30007
1694639105437500,-8.440824,0.673861,5.136564,0.5586,0.5266,0.31507
1694639105445312,-8.432824,0.667861,5.154564,0.4416,0.4736,0.30107
1694639105453125,-8.429824,0.678861,5.156564,0.4416,0.4746,0.25307
1694639105460937,-8.443824,0.676861,5.149564,0.4256,0.4586,0.31707
1694639105468750,-8.444824,0.670861,5.156564,0.3986,0.4346,0.26707
1694639105476562,-8.449824,0.680861,5.140564,0.3466,0.4156,0.20407
1694639105484375,-8.454824,0.671861,5.136564,0.2976,0.3826,0.25307
1694639105492187,-8.459824,0.660861,5.143564,0.2806,0.3026,0.20507
1694639105500000,-8.468824,0.665861,5.125564,0.2456,0.2036,0.22307
1694639105507812,-8.497824,0.649861,5.123564,0.2466,0.1256,0.28707
1694639105515625,-8.499824,0.657861,5.120564,0.2186,0.2106,0.31607
1694639105523437,-8.481824,0.651861,5.136564,0.3456,0.2406,0.23707
1694639105531250,-8.499824,0.641861,5.156564,0.3156,0.2576,0.28407
1694639105539062,-8.506824,0.637861,5.195564,0.3176,0.2276,0.34807
1694639105546875,-8.522824,0.612861,5.206564,0.4316,0.2296,0.33107
1694639105554687,-8.533824,0.600861,5.217564,0.4806,0.3566,0.36307
1694639105562500,-8.555824,0.598861,5.199564,0.4626,0.4326,0.33107
1694639105570312,-8.567824,0.600861,5.190564,0.4296,0.4796,0.31507
1694639105578125,-8.579824,0.606861,5.203564,0.4346,0.5496,0.29707
1694639105585937,-8.577824,0.604861,5.208564,0.5146,0.6736,0.31307
1694639105593750,-8.568824,0.600861,5.204564,0.5276,0.6236,0.28207
1694639105601562,-8.562824,0.600861,5.192564,0.6086,0.6396,0.29807
1694639105609375,-8.526824,0.614861,5.183564,0.5916,0.6526,0.29907
1694639105617187,-8.501824,0.632861,5.143564,0.6206,0.6336,0.26807
1694639105625000,-8.489824,0.639861,5.106564,0.4466,0.6546,0.25007
1694639105632812,-8.465824,0.646861,5.93564,0.4436,0.6206,0.17207
1694639105640625,-8.457824,0.668861,5.91564,0.4316,0.5476,0.20207
1694639105648437,-8.460824,0.688861,5.104564,0.4446,0.5736,0.22007
1694639105656250,-8.454824,0.689861,5.116564,0.4246,0.5366,0.25307
1694639105664062,-8.445824,0.691861,5.122564,0.4436,0.3976,0.26907
1694639105671875,-8.444824,0.684861,5.131564,0.4286,0.5886,0.30007
1694639105679687,-8.452824,0.672861,5.150564,0.4376,0.5926,0.28707
1694639105687500,-8.450824,0.665861,5.168564,0.4246,0.5036,0.30207
1694639105695312,-8.474824,0.655861,5.181564,0.4436,0.4446,0.34907
1694639105703125,-8.464824,0.633861,5.208564,0.4266,0.4116,0.33307
1694639105710937,-8.437824,0.622861,5.213564,0.4436,0.4136,0.33307
1694639105718750,-8.414824,0.631861,5.219564,0.4286,0.4776,0.33207
1694639105726562,-8.415824,0.623861,5.224564,0.5196,0.5306,0.36707
1694639105734375,-8.442824,0.614861,5.231564,0.5536,0.5656,0.30207
1694639105742187,-8.461824,0.595861,5.228564,0.6566,0.6066,0.29907
1694639105750000,-8.493824,0.588861,5.215564,0.6706,0.4006,0.28407
1694639105757812,-8.518824,0.595861,5.211564,0.6506,0.4566,0.31807
1694639105765625,-8.525824,0.588861,5.202564,0.6646,0.4226,0.27107
1694639105773437,-8.520824,0.613861,5.193564,0.7936,0.5956,0.25507
1694639105781250,-8.522824,0.617861,5.222564,0.8746,0.5186,0.23907
1694639105789062,-8.504824,0.623861,5.201564,0.8966,0.5246,0.31607
1694639105796875,-8.457824,0.627861,5.165564,0.9566,0.6136,0.28607
1694639105804687,-8.448824,0.625861,5.152564,0.9736,0.6466,0.30107
1694639105812500,-8.420824,0.630861,5.154564,0.9836,0.6216,0.32107
1694639105828125,-8.380824,0.636861,5.224564,0.9616,0.6206,0.31507
1694639105835937,-8.362824,0.649861,5.262564,0.9486,0.4846,0.26607
1694639105843750,-8.351824,0.657861,5.285564,0.9286,0.3986,0.33207
1694639105851562,-8.351824,0.668861,5.287564,0.8996,0.3866,0.34707
1694639105859375,-8.333824,0.671861,5.292564,0.9116,0.3966,0.34907
1694639105867187,-8.324824,0.666861,5.271564,0.9606,0.3496,0.39707
1694639105875000,-8.291824,0.676861,5.280564,0.8636,0.3336,0.38107
1694639105882812,-8.295824,0.680861,5.274564,0.8776,0.2986,0.41407
1694639105890625,-8.309824,0.680861,5.281564,0.7956,0.3436,0.43107
