time,Acceleration X (m/s^2),Acceleration Y (m/s^2),Acceleration Z (m/s^2),Angular Velocity X (rad/s),Angular Velocity Y (rad/s),Angular Velocity Z (rad/s)
1694639037632812,-9.291329,-0.297919,3.544951,,,
1694639037640625,-9.269329,0.310919,3.562951,0.3796,0.52934,0.12313
1694639037648437,-9.273329,0.310919,3.568951,0.3776,0.54034,0.17213
1694639037656250,-9.276329,0.342919,3.587951,0.2936,0.58434,0.12613
1694639037664062,-9.280329,0.346919,3.596951,0.2926,0.53534,0.12613
1694639037671875,-9.289329,0.350919,3.593951,0.2616,0.52134,0.11013
1694639037687500,-9.261329,0.373919,3.589951,0.3746,0.60234,0.4513
1694639037695312,-9.260329,0.377919,3.582951,0.2916,0.59834,0.7813
1694639037703125,-9.260329,0.371919,3.593951,0.3046,0.50134,0.1587
1694639037710937,-9.261329,0.365919,3.586951,0.2676,0.46934,0.5813
1694639037734375,-9.315329,0.376919,3.532951,0.2266,0.63234,0.6587
1694639037742187,-9.330329,0.376919,3.519951,0.1676,0.60834,0.5287
1694639037750000,-9.348329,0.393919,3.498951,0.1676,0.62334,0.487
1694639037757812,-9.364329,0.411919,3.483951,0.1796,0.66734,0.17887
1694639037765625,-9.381329,0.417919,3.471951,0.2336,0.67234,0.487
1694639037773437,-9.355329,0.418919,3.467951,0.1626,0.71134,0.8287
1694639037781250,-9.315329,0.414919,3.492951,0.1626,0.78934,0.1787
1694639037789062,-9.317329,0.396919,3.519951,0.356,0.82434,0.5187
1694639037796875,-9.306329,0.394919,3.566951,0.324,0.97634,0.4987
1694639037804687,-9.304329,0.376919,3.645951,0.466,0.114734,0.6587
1694639037812500,-9.343329,0.343919,3.600951,0.956,0.95634,0.6313
1694639037820312,-9.397329,0.344919,3.580951,0.1436,0.103434,0.9513
1694639037828125,-9.441329,0.341919,3.541951,0.1636,0.110134,0.9313
1694639037835937,-9.474329,0.360919,3.489951,0.186,0.119434,0.15713
1694639037843750,-9.465329,0.360919,3.462951,0.454,0.122934,0.9213
1694639037851562,-9.436329,0.388919,3.426951,0.504,0.137534,0.23913
1694639037859375,-9.458329,0.405919,3.404951,0.26,0.141434,0.23713
1694639037867187,-9.461329,0.428919,3.402951,0.534,0.134034,0.19313
1694639037875000,-9.423329,0.434919,3.417951,0.924,0.143134,0.25213
1694639037882812,-9.397329,0.444919,3.469951,0.1126,0.163034,0.20613
1694639037890625,-9.390329,0.441919,3.512951,0.1796,0.172834,0.22013
1694639037898437,-9.422329,0.430919,3.530951,0.1566,0.171834,0.19213
1694639037906250,-9.427329,0.442919,3.566951,0.256,0.176334,0.16013
1694639037914062,-9.393329,0.437919,3.578951,0.1406,0.186334,0.9513
1694639037921875,-9.393329,0.433919,3.598951,0.886,0.199934,0.9613
1694639037929687,-9.406329,0.413919,3.636951,0.874,0.214334,0.7913
1694639037937500,-9.413329,0.401919,3.670951,0.1354,0.212734,0.9513
1694639037945312,-9.438329,0.401919,3.709951,0.3124,0.225334,0.15913
1694639037953125,-9.427329,0.404919,3.736951,0.2014,0.232734,0.19213
1694639037960937,-9.415329,0.380919,3.743951,0.944,0.241334,0.21013
1694639037968750,-9.400329,0.368919,3.713951,0.1014,0.242734,0.19013
1694639037976562,-9.420329,0.397919,3.702951,0.874,0.259334,0.31913
1694639037984375,-9.454329,0.406919,3.702951,0.1054,0.265134,0.40113
1694639037992187,-9.458329,0.405919,3.722951,0.894,0.280934,0.38413
1694639038000000,-9.521329,0.384919,3.752951,0.1864,0.305734,0.51213
1694639038007812,-9.326329,0.394919,3.792951,0.2004,0.318534,0.54313
1694639038015625,-9.258329,0.374919,3.761951,0.1434,0.365634,0.78713
1694639038023437,-9.472329,0.347919,3.889951,0.1684,0.385634,0.79913
1694639038031250,-9.517329,0.331919,3.781951,0.2014,0.365234,0.73613
1694639038039062,-9.559329,0.289919,3.781951,0.2714,0.394234,0.73813
1694639038046875,-9.538329,0.295919,3.840951,0.3174,0.387034,0.59213
1694639038054687,-9.367329,0.288919,3.738951,0.3454,0.397134,0.62213
1694639038062500,-9.341329,0.252919,3.855951,0.4794,0.429234,0.67213
1694639038070312,-9.321329,0.251919,3.930951,0.3974,0.423434,0.55913
1694639038078125,-9.330329,0.236919,3.959951,0.3984,0.449934,0.63913
1694639038085937,-9.285329,0.254919,4.68951,0.4334,0.462234,0.59213
1694639038093750,-9.369329,0.216919,4.72951,0.3364,0.465334,0.60813
1694639038101562,-9.377329,0.271919,4.135951,0.2914,0.466534,0.54513
1694639038109375,-9.292329,0.276919,4.115951,0.2244,0.462334,0.49613
1694639038117187,-9.252329,0.257919,4.81951,0.944,0.487134,0.70413
1694639038125000,-9.360329,0.242919,4.115951,0.326,0.510334,0.73713
1694639038132812,-9.422329,0.223919,4.113951,0.36,0.514034,0.71913
1694639038140625,-9.375329,0.206919,4.79951,0.696,0.542434,0.76613
1694639038148437,-9.343329,0.185919,4.147951,0.984,0.563234,0.83313
1694639038156250,-9.335329,0.187919,4.210951,0.1114,0.577934,0.81513
1694639038164062,-9.345329,0.212919,4.269951,0.1004,0.585034,0.81813
1694639038171875,-9.328329,0.227919,4.375951,0.1464,0.586934,0.80013
1694639038179687,-9.321329,0.197919,4.461951,0.2024,0.598434,0.83613
1694639038187500,-9.295329,0.176919,4.551951,0.464,0.627234,0.88613
1694639038195312,-9.348329,0.174919,4.569951,0.574,0.643734,0.94713
1694639038203125,-9.260329,0.200919,4.531951,0.716,0.642234,0.89913
1694639038210937,-9.227329,0.187919,4.476951,0.1516,0.664034,0.94813
1694639038218750,-9.265329,0.207919,4.458951,0.274,0.668734,0.86813
1694639038226562,-9.224329,0.192919,4.456951,0.1084,0.689234,0.85113
1694639038234375,-9.227329,0.181919,4.461951,0.2714,0.698334,0.88413
1694639038242187,-9.198329,0.197919,4.540951,0.3104,0.705434,0.75913
1694639038250000,-9.75329,0.203919,4.632951,0.3394,0.713734,0.74113
1694639038257812,-9.93329,0.201919,4.754951,0.2934,0.736934,0.82213
1694639038265625,-9.113329,0.227919,4.888951,0.394,0.781934,0.79113
1694639038273437,-9.58329,0.177919,4.998951,0.1856,0.803834,0.82313
1694639038281250,-9.48329,0.145919,4.933951,0.1084,0.779834,0.72913
1694639038289062,-8.978329,0.148919,4.955951,0.1404,0.792534,0.76113
1694639038296875,-8.869329,0.80919,4.966951,0.734,0.805334,0.76013
1694639038304687,-8.807329,0.28919,4.996951,0.1224,0.823934,0.87213
1694639038312500,-8.837329,0.8919,5.32951,0.4464,0.847034,0.100113
1694639038320312,-8.918329,0.2919,5.131951,0.4824,0.895034,0.109813
1694639038328125,-8.969329,0.8919,5.240951,0.3184,0.937434,0.125713
1694639038335937,-8.897329,0.26081,5.341951,0.1514,0.972534,0.141413
1694639038343750,-8.990329,0.17081,5.348951,0.1294,0.964334,0.154813
1694639038351562,-9.14329,0.29081,5.339951,0.1254,0.989934,0.159413
1694639038359375,-9.21329,0.25081,5.391951,0.804,-1.35134,0.162613
1694639038367187,-8.992329,0.22081,5.576951,0.1274,-1.55534,0.172213
1694639038375000,-8.935329,0.0,5.676951,0.1724,-1.43134,0.183313
1694639038382812,-9.70329,0.19081,5.705951,0.2174,-1.66534,0.212013
1694639038390625,-8.922329,0.0,5.741951,0.366,-1.123934,0.220113
1694639038398437,-8.615329,0.0,5.703951,0.954,-1.144234,0.209013
1694639038406250,-8.430329,0.7081,5.928951,0.1024,-1.193734,0.201213
1694639038414062,-8.422329,0.40081,6.57951,0.1586,-1.181234,0.212313
1694639038421875,-8.457329,0.19081,5.992951,0.1456,-1.158034,0.215413
1694639038429687,-8.305329,0.26081,6.127951,0.1146,-1.180234,0.221713
1694639038437500,-8.110329,0.171081,6.253951,0.3426,-1.146034,0.213713
1694639038445312,-8.112329,0.165081,6.84951,0.4296,-1.105834,0.223113
1694639038453125,-8.270329,0.67081,6.131951,0.3456,-1.128534,0.240913
1694639038460937,-8.379329,0.62081,6.301951,0.3936,-1.187534,0.268113
1694639038468750,-8.266329,0.123081,6.608951,0.4466,-1.233334,0.291913
1694639038476562,-8.124329,0.171081,6.766951,0.5746,-1.198434,0.295213
1694639038484375,-7.944329,0.139081,6.958951,0.6096,-1.156234,0.300013
1694639038492187,-8.29329,0.94081,6.976951,0.7096,-1.120534,0.299913
1694639038500000,-8.2329,0.83081,6.978951,0.8526,-1.143734,0.303213
1694639038507812,-7.806329,0.146081,7.30951,0.10456,-1.187534,0.308013
1694639038515625,-7.807329,0.140081,7.53951,0.8076,-1.183134,0.317413
1694639038523437,-7.740329,0.135081,7.163951,0.4676,-1.193734,0.335113
1694639038531250,-7.507329,0.193081,7.387951,0.3526,-1.197934,0.341613
1694639038539062,-7.327329,0.256081,7.561951,0.5776,-1.202434,0.341713
1694639038546875,-7.258329,0.308081,7.744951,0.5776,-1.178934,0.341713
1694639038554687,-7.231329,0.299081,7.884951,0.4176,-1.132234,0.330513
1694639038562500,-7.62329,0.343081,8.14951,0.4986,-1.118734,0.301613
1694639038570312,-6.889329,0.476081,8.258951,0.5166,-1.102134,0.288713
1694639038578125,-6.772329,0.589081,8.430951,0.6426,-1.72334,0.263213
1694639038585937,-6.549329,0.657081,8.572951,0.9656,-1.62034,0.235913
1694639038593750,-6.349329,0.705081,8.748951,0.13986,-1.71634,0.210313
1694639038601562,-6.307329,0.762081,8.829951,0.17696,-1.36034,0.186313
1694639038609375,-6.221329,0.730081,8.761951,0.21906,0.993134,0.155713
1694639038617187,-6.30329,0.637081,8.646951,0.26646,0.968934,0.119313
1694639038625000,-5.966329,0.535081,8.551951,0.28936,0.939834,0.98413
1694639038632812,-5.941329,0.525081,8.497951,0.29076,0.918034,0.79213
1694639038640625,-5.780329,0.538081,8.553951,0.29366,0.919734,0.55313
1694639038648437,-5.568329,0.544081,8.709951,0.29166,0.894634,0.29813
1694639038656250,-5.463329,0.542081,8.784951,0.30326,0.822834,0.23413
1694639038664062,-5.425329,0.557081,8.881951,0.29756,0.757934,0.18313
1694639038671875,-5.403329,0.560081,8.883951,0.31336,0.707834,0.24213
1694639038679687,-5.416329,0.492081,8.880951,0.33126,0.685634,0.41813
1694639038687500,-5.463329,0.263081,8.802951,0.36176,0.665834,0.72513
1694639038695312,-5.543329,0.96081,8.617951,0.38336,0.645334,0.109213
1694639038703125,-5.505329,0.67081,8.438951,0.39826,0.629334,0.141213
1694639038710937,-5.347329,0.76919,8.302951,0.38286,0.599834,0.173013
1694639038718750,-5.225329,0.58919,8.178951,0.34146,0.551134,0.200213
1694639038726562,-5.108329,0.63081,8.278951,0.30576,0.533334,0.210013
1694639038734375,-5.1329,0.187081,8.544951,0.25116,0.522434,0.222713
1694639038742187,-4.925329,0.333081,8.912951,0.22246,0.492934,0.224213
1694639038750000,-4.863329,0.418081,9.233951,0.22266,0.452734,0.208113
1694639038757812,-4.814329,0.418081,9.373951,0.24716,0.409334,0.201613
1694639038765625,-4.825329,0.375081,9.309951,0.27956,0.370334,0.192013
1694639038773437,-4.792329,0.322081,9.199951,0.28296,0.347734,0.166213
1694639038781250,-4.809329,0.276081,9.90951,0.27806,0.316434,0.156613
1694639038789062,-4.766329,0.251081,9.65951,0.27936,0.313234,0.137513
1694639038796875,-4.785329,0.266081,9.230951,0.25656,0.313434,0.115213
1694639038804687,-4.897329,0.270081,9.384951,0.27276,0.283934,0.103913
1694639038812500,-5.34329,0.146081,9.488951,0.27606,0.263734,0.97513
1694639038820312,-5.202329,0.29081,9.522951,0.28546,0.280634,0.97613
1694639038828125,-5.206329,0.122919,9.592951,0.28406,0.290334,0.102313
1694639038835937,-5.250329,0.209919,9.597951,0.29536,0.272834,0.108813
1694639038843750,-5.369329,0.286919,9.486951,0.32196,0.248834,0.108413
1694639038851562,-5.443329,0.296919,9.359951,0.32676,0.248634,0.111713
1694639038859375,-5.420329,0.226919,9.423951,0.32306,0.260834,0.103813
1694639038867187,-5.393329,0.219919,9.486951,0.30876,0.229634,0.100613
1694639038875000,-5.429329,0.186919,9.479951,0.30066,0.207634,0.97413
1694639038882812,-5.513329,0.122919,9.488951,0.30066,0.213834,0.102213
1694639038890625,-5.478329,0.60919,9.588951,0.29796,0.195634,0.105213
1694639038898437,-5.483329,0.118919,9.452951,0.32116,0.161434,0.129113
1694639038906250,-5.504329,0.147919,9.181951,0.32696,0.180734,0.134213
1694639038914062,-5.453329,0.223919,9.86951,0.29656,0.218534,0.146913
1694639038921875,-5.468329,0.255919,9.66951,0.29876,0.179934,0.157913
1694639038929687,-5.490329,0.262919,8.865951,0.28736,0.149734,0.162813
1694639038937500,-5.468329,0.264919,8.971951,0.27446,0.176334,0.172413
1694639038945312,-5.335329,0.326919,9.179951,0.27766,0.169934,0.170813
1694639038953125,-5.238329,0.403919,9.269951,0.30386,0.143334,0.185213
1694639038960937,-5.116329,0.456919,9.251951,0.32296,0.139834,0.188513
1694639038968750,-5.114329,0.461919,9.307951,0.35566,0.107434,0.188413
1694639038976562,-5.189329,0.450919,8.946951,0.38396,0.57034,0.178413
1694639038984375,-5.210329,0.381919,8.700951,0.35486,0.36534,0.176913
1694639038992187,-5.270329,0.449919,8.485951,0.33896,0.2234,0.180013
1694639039000000,-5.277329,0.424919,8.456951,0.32126,0.11866,0.178413
1694639039007812,-5.233329,0.469919,8.555951,0.32326,0.56466,0.157413
1694639039015625,-5.67329,0.534919,8.411951,0.33276,0.101066,0.170513
1694639039023437,-5.139329,0.497919,8.298951,0.32666,0.91266,0.175113
1694639039031250,-5.208329,0.509919,8.298951,0.32686,0.125266,0.163813
1694639039039062,-5.137329,0.626919,8.187951,0.31576,0.190866,0.159013
1694639039046875,-5.214329,0.669919,8.92951,0.32566,0.209366,0.154113
1694639039054687,-5.117329,0.870919,7.961951,0.32866,0.209466,0.147813
1694639039062500,-5.85329,0.908919,7.771951,0.29826,0.245566,0.157413
1694639039070312,-5.178329,0.939919,7.719951,0.28096,0.261966,0.144313
1694639039078125,-5.213329,0.917919,7.733951,0.28566,0.302666,0.130013
1694639039085937,-5.259329,0.848919,7.559951,0.27386,0.360966,0.103113
1694639039093750,-5.312329,0.716919,7.505951,0.24786,0.374866,0.79113
1694639039101562,-5.214329,0.673919,7.394951,0.21226,0.382166,0.51813
1694639039109375,-5.143329,0.628919,7.392951,0.19916,0.383566,0.29413
1694639039117187,-5.131329,0.564919,7.415951,0.19916,0.388166,0.29413
1694639039125000,-5.363329,0.454919,7.243951,0.20196,0.397266,0.12087
1694639039132812,-4.955329,0.606919,7.179951,0.19016,0.365466,0.53787
1694639039140625,-4.450329,0.583919,7.118951,0.16426,0.380166,0.35987
1694639039148437,-4.573329,0.662919,6.996951,0.14566,0.394966,0.31487
1694639039156250,-4.739329,0.678919,7.188951,0.12406,0.359666,0.32887
1694639039164062,-4.644329,0.793919,7.299951,0.13526,0.405166,0.42387
1694639039171875,-4.718329,0.762919,7.197951,0.12786,0.449966,0.36187
1694639039179687,-4.829329,0.747919,7.186951,0.11506,0.460466,0.49087
1694639039187500,-4.855329,0.842919,7.299951,0.11656,0.462166,0.55487
1694639039195312,-4.989329,0.990919,7.349951,0.10396,0.483666,0.55587
1694639039203125,-5.106329,-1.117919,7.254951,0.12316,0.510366,0.66687
1694639039210937,-5.226329,-1.189919,7.130951,0.10836,0.551066,0.92187
1694639039218750,-5.223329,-1.218919,7.200951,0.7946,0.575566,0.109887
1694639039226562,-5.210329,-1.74919,7.220951,0.7466,0.620866,0.125887
1694639039234375,-5.97329,0.990919,6.922951,0.7946,0.660166,0.127387
1694639039242187,-5.121329,0.843919,6.841951,0.4236,0.616066,0.125887
1694639039250000,-5.22329,0.718919,6.958951,0.1166,0.597166,0.132387
1694639039257812,-4.999329,0.634919,7.30951,0.2084,0.603866,0.132187
1694639039265625,-5.187329,0.557919,7.40951,0.3564,0.621566,0.133687
1694639039273437,-5.314329,0.435919,7.13951,0.5144,0.675666,0.149787
1694639039281250,-5.482329,0.397919,6.886951,0.5294,0.698666,0.167487
1694639039289062,-5.427329,0.327919,6.904951,0.5814,0.697266,0.180187
1694639039296875,-5.520329,0.223919,6.696951,0.5634,0.687966,0.160987
1694639039304687,-5.852329,0.189919,6.640951,0.8224,0.658266,0.161087
1694639039312500,-6.13329,0.239919,6.735951,0.10734,0.643566,0.175087
1694639039320312,-6.195329,0.315919,6.844951,0.11154,0.652166,0.170587
1694639039328125,-6.74329,0.485919,7.56951,0.11614,0.664066,0.186787
1694639039335937,-5.963329,0.695919,7.110951,0.10754,0.692266,0.153187
1694639039343750,-6.193329,0.889919,6.891951,0.13214,0.699066,0.159387
1694639039351562,-5.637329,-1.78919,7.56951,0.13354,0.668866,0.161187
1694639039359375,-5.669329,0.950919,7.13951,0.11754,0.669566,0.136987
1694639039367187,-5.901329,0.997919,7.38951,0.11134,0.656766,0.162687
1694639039375000,-6.76329,0.928919,6.884951,0.13414,0.678666,0.178587
1694639039382812,-5.888329,0.944919,6.848951,0.16814,0.674266,0.175287
1694639039390625,-6.135329,0.903919,6.821951,0.18604,0.671566,0.165587
1694639039398437,-6.230329,-1.33919,6.957951,0.20734,0.685466,0.197587
1694639039406250,-6.239329,-1.14919,7.13951,0.18914,0.711566,0.194487
1694639039414062,-6.174329,0.989919,6.959951,0.19424,0.716366,0.205687
1694639039421875,-6.87329,0.858919,7.68951,0.19594,0.740066,0.205587
1694639039429687,-6.77329,0.740919,7.34951,0.19754,0.728666,0.220087
1694639039437500,-6.88329,0.636919,7.79951,0.20074,0.711366,0.221687
1694639039445312,-6.200329,0.596919,7.90951,0.17664,0.705066,0.224887
1694639039453125,-6.272329,0.456919,7.68951,0.16404,0.699166,0.226387
1694639039460937,-6.263329,0.317919,7.31951,0.14624,0.670966,0.226387
1694639039468750,-6.320329,0.202919,7.65951,0.11554,0.653266,0.236087
1694639039476562,-6.531329,0.80919,7.29951,0.8994,0.658566,0.227887
1694639039484375,-6.580329,0.57919,6.898951,0.5774,0.636666,0.224687
1694639039492187,-6.764329,0.45919,6.770951,0.3164,0.614566,0.211987
1694639039500000,-6.788329,0.40919,6.699951,0.416,0.589066,0.205787
1694639039507812,-6.816329,0.77919,6.512951,0.1716,0.575466,0.175387
1694639039515625,-6.794329,0.193919,6.413951,0.3996,0.561566,0.151387
1694639039523437,-6.691329,0.329919,6.227951,0.5806,0.536366,0.132287
1694639039531250,-6.594329,0.462919,6.169951,0.8656,0.506466,0.104687
1694639039539062,-6.733329,0.585919,6.119951,0.10106,0.541266,0.93387
1694639039546875,-6.736329,0.814919,5.866951,0.9696,0.562466,0.84087
1694639039554687,-6.889329,-1.29919,5.792951,0.9726,0.560566,0.74587
1694639039562500,-7.48329,-1.270919,5.686951,0.6546,0.582166,0.71587
1694639039570312,-7.189329,-1.480919,5.726951,0.3156,0.587166,0.58687
1694639039578125,-7.371329,-1.668919,5.742951,0.1164,0.590066,0.46087
1694639039585937,-7.698329,-1.849919,5.788951,0.5704,0.580966,0.45987
1694639039593750,-8.146329,-1.973919,5.700951,0.11524,0.618766,0.47487
1694639039601562,-8.294329,-2.128919,5.603951,0.17504,0.617566,0.45787
1694639039609375,-8.282329,-2.246919,5.642951,0.24674,0.599466,0.53587
1694639039617187,-8.347329,-2.305919,5.705951,0.30964,0.560066,0.55287
1694639039625000,-8.607329,-2.170919,5.759951,0.35184,0.541066,0.74487
1694639039632812,-8.581329,-2.75919,5.576951,0.38324,0.503266,0.120887
1694639039640625,-8.296329,-1.854919,5.623951,0.40994,0.464766,0.142987
1694639039648437,-8.362329,-1.616919,5.621951,0.42674,0.441366,0.173287
1694639039656250,-8.229329,-1.421919,5.725951,0.44664,0.386266,0.208487
1694639039664062,-8.57329,-1.253919,5.856951,0.44744,0.361266,0.251487
1694639039671875,-7.973329,-1.192919,5.937951,0.43344,0.333266,0.267387
1694639039679687,-7.849329,-1.211919,5.971951,0.41094,0.316866,0.299487
1694639039687500,-7.788329,-1.283919,6.34951,0.39184,0.302866,0.308987
1694639039695312,-7.815329,-1.418919,5.982951,0.38404,0.303266,0.313687
1694639039703125,-7.923329,-1.518919,5.887951,0.37104,0.296566,0.318587
1694639039710937,-8.6329,-1.639919,5.854951,0.37114,0.293666,0.320187
1694639039718750,-8.65329,-1.680919,5.714951,0.35944,0.307066,0.320387
1694639039726562,-8.224329,-1.670919,5.592951,0.36574,0.317766,0.326787
1694639039734375,-8.184329,-1.734919,5.603951,0.36164,0.304366,0.342487
1694639039742187,-8.100329,-1.795919,5.565951,0.37294,0.296366,0.348987
1694639039750000,-8.32329,-1.851919,5.592951,0.38134,0.284066,0.355287
1694639039757812,-8.81329,-1.843919,5.596951,0.39734,0.280266,0.372987
1694639039765625,-8.150329,-1.849919,5.578951,0.41904,0.280466,0.409687
1694639039773437,-8.170329,-1.847919,5.474951,0.46754,0.297266,0.433687
1694639039781250,-8.25329,-1.826919,5.390951,0.52084,0.289066,0.456187
1694639039789062,-8.276329,-1.920919,5.280951,0.58444,0.292266,0.494487
1694639039796875,-8.410329,-2.279919,5.339951,0.64664,0.270166,0.550287
1694639039804687,-8.386329,-2.541919,5.416951,0.70234,0.276966,0.580487
1694639039812500,-8.400329,-2.764919,5.314951,0.74884,0.288366,0.612687
1694639039820312,-8.530329,-2.891919,5.183951,0.80714,0.319666,0.631887
1694639039828125,-8.556329,-2.921919,5.75951,0.86864,0.313266,0.649487
1694639039835937,-8.632329,-2.965919,5.32951,0.94484,0.354366,0.662087
1694639039843750,-8.651329,-2.911919,4.878951,1.624,0.369666,0.681387
1694639039851562,-8.616329,-2.885919,4.822951,1.4404,0.341666,0.711587
1694639039859375,-8.684329,-2.882919,4.736951,1.8274,0.336366,0.737287
1694639039867187,-8.545329,-2.811919,4.630951,1.13064,0.313266,0.785087
1694639039875000,-8.197329,-2.674919,4.749951,1.15644,0.303566,0.791487
1694639039882812,-8.197329,-2.559919,4.783951,1.18744,0.314766,0.805787
1694639039890625,-8.196329,-2.513919,4.731951,1.20914,0.293266,0.828087
1694639039898437,-8.295329,-2.434919,4.907951,1.22324,0.280066,0.831387
1694639039906250,-8.191329,-2.329919,4.742951,1.23014,0.273566,0.861787
1694639039914062,-8.41329,-2.214919,4.767951,1.26524,0.338066,0.842587
1694639039921875,-8.139329,-2.175919,4.968951,1.21124,0.288566,0.859987
1694639039929687,-7.836329,-2.85919,5.70951,1.20634,0.280566,0.858387
1694639039937500,-7.788329,-1.948919,4.973951,1.20374,0.336266,0.839487
1694639039945312,-7.845329,-1.869919,5.951,1.19414,0.350366,0.842587
1694639039953125,-8.116329,-1.741919,4.950951,1.21954,0.382966,0.837887
1694639039960937,-8.191329,-1.676919,5.181951,1.23084,0.393866,0.841087
1694639039968750,-8.173329,-1.559919,5.300951,1.23044,0.455166,0.821887
1694639039976562,-8.318329,-1.399919,5.406951,1.20574,0.434466,0.804487
1694639039984375,-8.583329,-1.189919,5.565951,1.15854,0.434366,0.783787
1694639039992187,-8.847329,0.959919,5.477951,1.12644,0.442766,0.767687
1694639040000000,-9.36329,0.740919,5.513951,1.7314,0.430666,0.746787
1694639040007812,-9.65329,0.557919,5.624951,1.984,0.412966,0.737287
1694639040015625,-9.43329,0.411919,5.728951,0.93694,0.392566,0.718187
1694639040023437,-8.937329,0.320919,5.807951,0.86294,0.363266,0.706887
1694639040031250,-8.771329,0.356919,5.849951,0.77764,0.322866,0.697187
1694639040039062,-8.746329,0.390919,5.804951,0.72434,0.293266,0.684387
1694639040046875,-8.612329,0.476919,5.822951,0.67904,0.258566,0.682887
1694639040054687,-8.441329,0.594919,5.856951,0.64054,0.237366,0.661887
1694639040062500,-8.400329,0.741919,5.698951,0.62574,0.254566,0.641187
1694639040070312,-8.428329,0.993919,5.590951,0.61904,0.248466,0.620387
1694639040078125,-8.464329,-1.231919,5.542951,0.61994,0.254666,0.583787
1694639040085937,-8.560329,-1.391919,5.474951,0.60634,0.277966,0.555087
1694639040093750,-8.647329,-1.446919,5.531951,0.63384,0.305166,0.535787
1694639040101562,-8.672329,-1.569919,5.576951,0.62734,0.314766,0.529287
1694639040109375,-8.804329,-1.596919,5.637951,0.64314,0.298966,0.516687
1694639040117187,-9.193329,-1.513919,5.757951,0.64374,0.302766,0.519587
1694639040125000,-9.259329,-1.549919,5.958951,0.65504,0.260166,0.527687
1694639040132812,-9.205329,-1.523919,5.895951,0.67054,0.264166,0.521587
1694639040140625,-9.198329,-1.408919,5.674951,0.68374,0.239466,0.519887
1694639040148437,-9.91329,-1.343919,5.646951,0.71164,0.175366,0.530987
1694639040156250,-8.826329,-1.290919,5.671951,0.73654,0.143166,0.540387
1694639040164062,-8.615329,-1.171919,5.508951,0.75554,0.141066,0.540587
1694639040171875,-8.468329,0.985919,5.379951,0.77044,0.113166,0.545287
1694639040179687,-8.406329,0.902919,5.316951,0.80754,0.116366,0.538887
1694639040187500,-8.378329,0.809919,5.228951,0.83474,0.135266,0.529287
1694639040195312,-8.323329,0.750919,5.183951,0.87314,0.130366,0.518187
1694639040203125,-8.403329,0.694919,5.106951,0.89924,0.120166,0.497187
1694639040210937,-8.267329,0.603919,5.90951,0.92024,0.113966,0.492387
1694639040218750,-8.175329,0.506919,5.88951,0.94424,0.110766,0.482887
1694639040226562,-8.413329,0.360919,5.120951,0.95924,0.111866,0.469787
1694639040234375,-8.425329,0.221919,5.120951,0.98264,0.115466,0.470187
1694639040242187,-8.450329,0.98919,5.151951,1.594,0.118166,0.461787
1694639040250000,-8.431329,0.0,5.246951,1.2024,0.94066,0.469987
1694639040257812,-8.349329,0.46081,5.348951,1.3174,0.79966,0.477987
1694639040265625,-8.271329,0.96081,5.467951,1.4504,0.46966,0.503587
1694639040273437,-8.144329,0.155081,5.630951,1.4824,0.23166,0.514787
1694639040281250,-8.110329,0.116081,5.783951,1.9394,0.20166,0.537087
1694639040289062,-8.125329,0.61081,5.774951,1.13624,0.29566,0.557887
1694639040296875,-8.160329,0.6081,5.630951,1.18814,0.26466,0.576987
1694639040304687,-8.136329,0.73919,5.492951,1.24514,0.14334,0.605787
1694639040312500,-8.165329,0.164919,5.451951,1.26824,0.45134,0.607187
1694639040320312,-8.363329,0.256919,5.169951,1.33774,0.2134,0.592587
1694639040328125,-8.504329,0.223919,5.39951,1.36004,0.4934,0.563887
1694639040335937,-8.691329,0.174919,4.989951,1.35834,0.31534,0.549487
1694639040343750,-8.661329,0.126919,4.871951,1.35244,0.57634,0.522687
1694639040351562,-8.789329,0.115081,4.684951,1.30774,0.95234,0.483987
1694639040359375,-8.851329,0.359081,4.467951,1.27394,0.124334,0.458287
1694639040367187,-8.760329,0.580081,4.313951,1.23004,0.169734,0.429587
1694639040375000,-8.754329,0.870081,4.83951,1.18574,0.199934,0.392987
1694639040382812,-8.708329,1.55081,3.952951,1.14074,0.225734,0.364087
1694639040390625,-8.712329,1.193081,3.834951,1.9164,0.243334,0.333887
1694639040398437,-8.718329,1.326081,3.857951,1.4794,0.244934,0.325887
1694639040406250,-8.690329,1.385081,4.13951,1.1414,0.255634,0.320987
1694639040414062,-8.615329,1.431081,4.270951,0.96414,0.269734,0.316187
1694639040421875,-8.582329,1.408081,4.467951,0.92374,0.243134,0.320987
1694639040429687,-8.582329,1.336081,4.659951,0.89034,0.212734,0.330387
1694639040437500,-8.521329,1.227081,4.826951,0.85774,0.190134,0.348087
1694639040445312,-8.447329,1.111081,4.986951,0.82994,0.153434,0.372287
1694639040453125,-8.470329,0.959081,5.40951,0.79944,0.116134,0.394687
1694639040460937,-8.452329,0.834081,5.13951,0.74944,0.92934,0.415487
1694639040468750,-8.433329,0.752081,4.932951,0.73624,0.66934,0.430087
1694639040476562,-8.435329,0.692081,4.858951,0.72094,0.42934,0.456987
1694639040484375,-8.419329,0.665081,4.799951,0.72594,0.19734,0.484187
1694639040492187,-8.387329,0.656081,4.806951,0.73424,0.7434,0.514487
1694639040500000,-8.415329,0.649081,4.885951,0.73984,0.14966,0.541487
1694639040507812,-8.451329,0.539081,4.935951,0.74304,0.31766,0.560787
1694639040515625,-8.492329,0.480081,4.962951,0.76524,0.46766,0.567287
1694639040523437,-8.760329,0.393081,4.957951,0.78804,0.54666,0.581687
1694639040531250,-8.746329,0.358081,5.129951,0.78504,0.6434,0.583287
1694639040539062,-8.755329,0.367081,5.147951,0.77044,0.29734,0.564087
1694639040546875,-8.814329,0.412081,5.170951,0.74954,0.57534,0.546387
1694639040554687,-8.853329,0.523081,5.237951,0.72844,0.84134,0.535287
1694639040562500,-8.828329,0.587081,5.273951,0.70264,0.110634,0.525687
1694639040570312,-8.762329,0.650081,5.276951,0.65594,0.118234,0.519187
1694639040578125,-8.659329,0.682081,5.267951,0.61414,0.128734,0.511087
1694639040585937,-8.509329,0.695081,5.253951,0.58814,0.141634,0.511187
1694639040593750,-8.359329,0.698081,5.309951,0.55684,0.140834,0.501887
1694639040601562,-8.209329,0.693081,5.388951,0.53894,0.140534,0.484187
1694639040609375,-8.128329,0.586081,5.456951,0.54644,0.136534,0.479687
1694639040617187,-8.113329,0.413081,5.530951,0.55014,0.123134,0.471387
1694639040625000,-8.162329,0.231081,5.637951,0.55834,0.109934,0.456887
1694639040632812,-8.265329,0.96081,5.743951,0.56934,0.111634,0.442487
1694639040640625,-8.339329,0.3081,5.822951,0.58584,0.94934,0.427887
1694639040648437,-8.456329,0.51919,5.892951,0.60764,0.81734,0.416987
1694639040656250,-8.561329,0.74919,5.886951,0.63334,0.82934,0.396187
1694639040664062,-8.648329,0.86919,5.795951,0.63484,0.95234,0.376987
1694639040671875,-8.709329,0.70919,5.633951,0.64644,0.121034,0.359187
1694639040679687,-8.674329,0.15081,5.529951,0.63134,0.155934,0.335387
1694639040687500,-8.625329,0.151081,5.396951,0.63834,0.177134,0.335187
1694639040695312,-8.160329,0.258081,5.515951,0.58944,0.230534,0.295387
1694639040703125,-8.515329,0.358081,5.176951,0.54704,0.216134,0.261787
1694639040710937,-8.679329,0.493081,4.971951,0.59274,0.197234,0.290387
1694639040718750,-8.310329,0.573081,5.379951,0.54854,0.228234,0.298787
1694639040726562,-8.222329,0.660081,5.266951,0.49714,0.191734,0.301787
1694639040734375,-8.96329,0.753081,5.307951,0.42264,0.223334,0.289087
1694639040742187,-8.36329,0.783081,5.259951,0.38754,0.211734,0.285687
1694639040750000,-7.953329,0.809081,5.232951,0.34644,0.206434,0.278087
1694639040757812,-7.892329,0.782081,5.273951,0.30754,0.201834,0.274887
1694639040765625,-7.844329,0.759081,5.334951,0.26034,0.211534,0.260587
1694639040773437,-7.861329,0.783081,5.456951,0.22644,0.195534,0.250887
1694639040781250,-7.922329,0.815081,5.670951,0.19704,0.176734,0.230187
1694639040789062,-8.14329,0.805081,5.881951,0.17604,0.145234,0.223687
1694639040796875,-8.120329,0.671081,6.14951,0.14214,0.132334,0.212387
1694639040804687,-8.232329,0.518081,6.59951,0.11124,0.132534,0.206087
1694639040812500,-8.266329,0.459081,6.61951,0.6874,0.153534,0.198287
1694639040820312,-8.172329,0.384081,6.57951,0.5974,0.176134,0.194887
1694639040828125,-8.26329,0.272081,6.84951,0.2904,0.195134,0.196487
1694639040835937,-7.856329,0.211081,6.120951,0.1164,0.223034,0.202787
1694639040843750,-7.708329,0.207081,6.145951,0.1736,0.230834,0.201187
1694639040851562,-7.640329,0.168081,6.79951,0.4996,0.226434,0.194887
1694639040859375,-7.570329,0.132081,6.32951,0.6436,0.232634,0.196487
1694639040867187,-7.539329,0.52081,6.36951,0.8076,0.239034,0.182187
1694639040875000,-7.539329,0.160919,6.115951,0.8096,0.240234,0.156487
1694639040882812,-7.572329,0.478919,6.197951,0.9596,0.235634,0.134187
1694639040890625,-7.701329,0.689919,6.273951,0.12046,0.227734,0.116687
1694639040898437,-7.865329,0.782919,6.362951,0.13326,0.233534,0.102187
1694639040906250,-8.42329,0.793919,6.452951,0.14456,0.239434,0.84487
1694639040914062,-8.178329,0.773919,6.509951,0.12736,0.244834,0.78387
1694639040921875,-8.172329,0.746919,6.488951,0.14656,0.239934,0.81487
1694639040929687,-8.117329,0.683919,6.452951,0.14486,0.232334,0.99087
1694639040937500,-7.953329,0.641919,6.409951,0.13966,0.227334,0.106987
1694639040945312,-7.759329,0.713919,6.366951,0.13326,0.216134,0.98887
1694639040953125,-7.607329,0.855919,6.271951,0.13846,0.196234,0.95887
1694639040960937,-7.470329,-1.1919,6.174951,0.14536,0.151034,0.84787
1694639040968750,-7.396329,-1.161919,6.126951,0.12666,0.115234,0.64087
1694639040976562,-7.472329,-1.284919,6.54951,0.11726,0.74334,0.46487
1694639040984375,-7.597329,-1.325919,5.955951,0.9496,0.36434,0.25587
1694639040992187,-7.713329,-1.254919,5.951951,0.9336,0.65634,0.4813
1694639041000000,-7.784329,-1.107919,5.962951,0.9326,0.95334,0.8013
1694639041007812,-7.823329,0.982919,5.853951,0.9396,0.92934,0.18913
1694639041015625,-7.849329,0.901919,5.745951,0.8766,0.99234,0.26913
1694639041023437,-7.877329,0.866919,5.657951,0.8256,0.84734,0.25413
1694639041031250,-7.941329,0.815919,5.680951,0.7276,0.62234,0.38413
1694639041039062,-8.63329,0.830919,5.759951,0.6386,0.42334,0.58913
1694639041046875,-8.136329,0.886919,5.804951,0.6256,0.20434,0.73313
1694639041054687,-8.235329,0.966919,5.756951,0.7296,0.934,0.81013
1694639041062500,-8.338329,-1.131919,5.646951,0.7616,0.10666,0.102013
1694639041070312,-8.388329,-1.282919,5.558951,0.8536,0.13066,0.108613
1694639041078125,-8.457329,-1.437919,5.556951,0.8126,0.6434,0.122713
1694639041085937,-8.484329,-1.605919,5.633951,0.6636,0.29334,0.134013
1694639041093750,-8.482329,-1.731919,5.750951,0.4386,0.60634,0.143613
1694639041101562,-8.426329,-1.828919,5.897951,0.2746,0.90234,0.143613
1694639041109375,-8.331329,-1.949919,5.967951,0.306,0.113534,0.142113
1694639041117187,-8.200329,-1.995919,5.937951,0.834,0.127534,0.137313
1694639041125000,-8.74329,-1.972919,5.856951,0.2584,0.120434,0.122713
1694639041132812,-7.935329,-1.899919,5.779951,0.6194,0.110534,0.103713
1694639041140625,-7.835329,-1.820919,5.752951,0.8414,0.97334,0.85913
1694639041148437,-7.794329,-1.733919,5.752951,0.9134,0.85834,0.65413
1694639041156250,-7.802329,-1.657919,5.849951,0.11554,0.70534,0.46113
1694639041164062,-7.859329,-1.615919,6.5951,0.13704,0.49834,0.28713
1694639041171875,-7.921329,-1.611919,6.136951,0.13664,0.39834,0.6113
1694639041179687,-7.959329,-1.604919,6.165951,0.14334,0.22834,0.17887
1694639041187500,-8.25329,-1.592919,6.116951,0.15134,0.466,0.27487
1694639041195312,-8.60329,-1.598919,6.32951,0.15594,0.18766,0.34087
1694639041203125,-8.57329,-1.607919,5.899951,0.16234,0.32766,0.37287
1694639041210937,-8.40329,-1.585919,5.784951,0.16594,0.31566,0.46687
1694639041218750,-7.962329,-1.558919,5.779951,0.17594,0.22266,0.56287
1694639041226562,-7.912329,-1.503919,5.786951,0.18564,0.6566,0.59487
1694639041234375,-7.861329,-1.462919,5.790951,0.18904,0.5166,0.60987
1694639041242187,-7.813329,-1.416919,5.820951,0.19904,0.7066,0.68887
1694639041250000,-7.796329,-1.393919,5.860951,0.21254,0.1534,0.74987
1694639041257812,-7.752329,-1.422919,5.896951,0.21374,0.8534,0.72087
1694639041265625,-7.689329,-1.429919,5.919951,0.22184,0.32034,0.72087
1694639041273437,-7.633329,-1.414919,5.944951,0.22334,0.46234,0.65787
1694639041281250,-7.580329,-1.450919,5.955951,0.21304,0.62734,0.58087
1694639041289062,-7.561329,-1.410919,5.984951,0.21644,0.63834,0.54687
1694639041296875,-7.551329,-1.333919,6.38951,0.21324,0.71634,0.49887
1694639041304687,-7.503329,-1.261919,5.971951,0.22594,0.55934,0.38787
1694639041312500,-7.542329,-1.189919,5.937951,0.24184,0.39034,0.41987
1694639041320312,-7.528329,-1.127919,6.74951,0.24064,0.54234,0.46687
1694639041328125,-7.537329,-1.85919,6.88951,0.24204,0.34234,0.49987
1694639041335937,-7.548329,-1.69919,6.95951,0.24034,0.35934,0.56387
1694639041343750,-7.589329,-1.42919,6.115951,0.23894,0.27734,0.51487
1694639041351562,-7.637329,-1.6919,6.108951,0.22944,0.26134,0.56187
1694639041359375,-7.709329,0.960919,6.106951,0.22244,0.20334,0.48487
1694639041367187,-7.757329,0.927919,6.158951,0.22264,0.13734,0.46687
1694639041375000,-7.787329,0.894919,6.152951,0.20034,0.17834,0.40187
1694639041382812,-7.829329,0.908919,6.52951,0.19354,0.21334,0.35487
1694639041390625,-7.826329,0.973919,6.27951,0.19864,0.46034,0.32187
1694639041398437,-7.811329,-1.86919,6.34951,0.20044,0.61634,0.33787
1694639041406250,-7.789329,-1.197919,6.12951,0.21324,0.58434,0.30587
1694639041414062,-7.764329,-1.314919,5.973951,0.20494,0.66634,0.29087
1694639041421875,-7.766329,-1.361919,6.951,0.19034,0.68434,0.29187
1694639041429687,-7.752329,-1.385919,6.86951,0.19694,0.62034,0.30687
1694639041437500,-7.776329,-1.434919,6.120951,0.21154,0.58634,0.28987
1694639041445312,-7.841329,-1.438919,6.70951,0.21174,0.45834,0.30487
1694639041453125,-7.913329,-1.403919,6.70951,0.21794,0.50634,0.22587
1694639041460937,-7.973329,-1.285919,6.97951,0.24204,0.50734,0.22687
1694639041468750,-7.978329,-1.135919,6.131951,0.25714,0.62634,0.23987
1694639041476562,-7.989329,0.975919,6.140951,0.29414,0.69034,0.24087
1694639041484375,-7.990329,0.784919,6.201951,0.31494,0.82034,0.30687
1694639041492187,-7.996329,0.664919,6.163951,0.32314,0.89634,0.25787
1694639041500000,-7.935329,0.703919,6.36951,0.32784,0.87934,0.17787
1694639041507812,-7.848329,0.806919,5.885951,0.32304,0.94234,0.16187
1694639041515625,-7.655329,0.844919,5.819951,0.30214,0.117534,0.6587
1694639041523437,-7.505329,0.818919,5.991951,0.28884,0.134934,0.12513
1694639041531250,-7.491329,0.762919,6.165951,0.25794,0.128734,0.22113
1694639041539062,-7.450329,0.792919,6.167951,0.22224,0.111034,0.46113
1694639041546875,-7.496329,0.840919,6.63951,0.20244,0.84434,0.66913
1694639041554687,-7.659329,0.887919,6.20951,0.18474,0.79634,0.71713
1694639041562500,-7.819329,0.869919,6.86951,0.18804,0.73134,0.73413
1694639041570312,-7.936329,0.830919,6.134951,0.19004,0.78834,0.73613
1694639041578125,-7.995329,0.828919,6.190951,0.19874,0.100534,0.84313
1694639041585937,-8.46329,0.752919,6.253951,0.21704,0.120134,0.82913
1694639041593750,-8.36329,0.735919,6.310951,0.23844,0.148034,0.78213
1694639041601562,-7.986329,0.749919,6.425951,0.24844,0.168134,0.70313
1694639041609375,-7.981329,0.771919,6.438951,0.25614,0.164234,0.62013
1694639041617187,-7.986329,0.742919,6.192951,0.29204,0.139334,0.26913
1694639041625000,-7.983329,0.654919,6.231951,0.32964,0.135934,0.3113
1694639041632812,-8.29329,0.580919,6.260951,0.35274,0.131234,0.23987
1694639041640625,-8.118329,0.492919,6.242951,0.35754,0.109434,0.33587
1694639041648437,-8.155329,0.514919,6.208951,0.33334,0.106634,0.46487
1694639041656250,-8.220329,0.503919,6.55951,0.33624,0.107334,0.54587
1694639041664062,-8.269329,0.516919,6.111951,0.35284,0.128734,0.60887
1694639041671875,-8.268329,0.536919,6.335951,0.36074,0.152934,0.72287
1694639041679687,-8.256329,0.476919,6.540951,0.33834,0.188534,0.59387
1694639041687500,-8.305329,0.383919,6.513951,0.30014,0.220734,0.54387
1694639041695312,-8.328329,0.253919,6.411951,0.27384,0.243534,0.59487
1694639041703125,-8.286329,0.125919,6.384951,0.24674,0.263734,0.70587
1694639041710937,-8.198329,0.42081,6.330951,0.20744,0.247034,0.89287
1694639041718750,-8.51329,0.155081,6.269951,0.17284,0.226334,0.104087
1694639041726562,-7.834329,0.154081,6.298951,0.15034,0.188634,0.108787
1694639041734375,-7.780329,0.180081,6.330951,0.11934,0.163934,0.110487
1694639041742187,-7.763329,0.127081,6.339951,0.13994,0.163134,0.115487
1694639041750000,-7.540329,0.10081,6.470951,0.14994,0.175234,0.113787
1694639041757812,-7.415329,0.97919,6.490951,0.18204,0.169034,0.109087
1694639041765625,-7.319329,0.157919,6.445951,0.19244,0.166334,0.107087
1694639041773437,-7.231329,0.191919,6.390951,0.22584,0.146434,0.102387
1694639041781250,-7.148329,0.218919,6.325951,0.24494,0.140234,0.89687
1694639041789062,-7.103329,0.228919,6.253951,0.26754,0.127734,0.92887
1694639041796875,-7.95329,0.261919,6.212951,0.27224,0.124834,0.96187
1694639041804687,-7.83329,0.279919,6.173951,0.28014,0.112834,0.107487
1694639041812500,-7.63329,0.281919,6.130951,0.28184,0.104834,0.109087
1694639041820312,-7.68329,0.228919,6.106951,0.27374,0.89534,0.125087
1694639041828125,-7.64329,0.217919,6.110951,0.27364,0.88434,0.139587
1694639041835937,-6.944329,0.175919,6.187951,0.28054,0.94134,0.144187
1694639041843750,-7.165329,0.61919,6.230951,0.28064,0.64434,0.153787
1694639041851562,-7.268329,0.92919,6.255951,0.27274,0.69534,0.177787
1694639041859375,-7.284329,0.41919,6.255951,0.26344,0.92734,0.190487
1694639041867187,-7.412329,0.28919,6.131951,0.26854,0.86434,0.199987
1694639041875000,-7.513329,0.1081,6.180951,0.26834,0.110434,0.208187
1694639041882812,-7.590329,0.34919,6.248951,0.26844,0.128034,0.225887
1694639041890625,-7.703329,0.15919,6.327951,0.27384,0.133734,0.236887
1694639041898437,-7.693329,0.24081,6.427951,0.27914,0.124234,0.255887
1694639041906250,-7.631329,0.109081,6.494951,0.27754,0.120134,0.284787
1694639041914062,-7.507329,0.174081,6.499951,0.27154,0.112334,0.319887
1694639041921875,-7.417329,0.252081,6.456951,0.27364,0.101534,0.356587
1694639041929687,-7.364329,0.279081,6.388951,0.30524,0.99634,0.397987
1694639041937500,-7.274329,0.258081,6.377951,0.33124,0.112634,0.423587
1694639041945312,-7.237329,0.288081,6.361951,0.35824,0.121634,0.444687
1694639041953125,-7.235329,0.397081,6.356951,0.37684,0.120534,0.457187
1694639041960937,-7.235329,0.533081,6.343951,0.38654,0.130134,0.461987
1694639041968750,-7.178329,0.581081,6.298951,0.37834,0.142434,0.445987
1694639041976562,-7.124329,0.622081,6.264951,0.36514,0.158634,0.439787
1694639041984375,-7.127329,0.680081,6.261951,0.33094,0.186734,0.414287
1694639041992187,-7.164329,0.689081,6.273951,0.29894,0.191834,0.378787
1694639042000000,-7.233329,0.695081,6.241951,0.24644,0.193534,0.337387
1694639042007812,-7.293329,0.814081,6.241951,0.20144,0.206934,0.313187
1694639042015625,-7.374329,0.967081,6.302951,0.15704,0.186834,0.278187
1694639042023437,-7.458329,1.72081,6.431951,0.11304,0.166534,0.260687
1694639042031250,-7.502329,1.141081,6.451951,0.4034,0.161934,0.255887
1694639042039062,-7.506329,1.281081,6.379951,0.2306,0.159334,0.249687
1694639042046875,-7.551329,1.466081,6.485951,0.6666,0.168934,0.249687
1694639042054687,-7.569329,1.601081,6.594951,0.9696,0.161934,0.246287
1694639042062500,-7.592329,1.661081,6.641951,0.11346,0.165634,0.244887
1694639042070312,-7.614329,1.624081,6.763951,0.12316,0.187434,0.233687
1694639042078125,-7.756329,1.508081,6.698951,0.13246,0.189734,0.223887
1694639042085937,-7.882329,1.325081,6.612951,0.13956,0.210834,0.211387
1694639042093750,-8.141329,1.118081,6.465951,0.14126,0.227334,0.176087
1694639042101562,-8.363329,0.948081,6.396951,0.12186,0.238934,0.135887
1694639042109375,-8.410329,0.794081,6.377951,0.13056,0.278134,0.94487
1694639042117187,-8.289329,0.661081,6.368951,0.17916,0.302534,0.49587
1694639042125000,-8.234329,0.561081,6.278951,0.22616,0.311534,0.14387
1694639042132812,-8.171329,0.466081,6.120951,0.29706,0.318534,0.45913
1694639042140625,-8.34329,0.446081,6.43951,0.37466,0.351034,0.78013
1694639042148437,-7.863329,0.467081,5.892951,0.46176,0.370534,0.114913
1694639042156250,-7.705329,0.553081,5.745951,0.51866,0.384634,0.145213
1694639042164062,-7.522329,0.863081,5.921951,0.55096,0.423534,0.159713
1694639042171875,-7.414329,1.228081,6.255951,0.55696,0.452734,0.166213
1694639042179687,-7.167329,1.356081,6.657951,0.55356,0.507734,0.159813
1694639042187500,-6.843329,1.215081,6.948951,0.60946,0.557334,0.156713
1694639042195312,-6.654329,1.33081,6.851951,0.67586,0.559134,0.161513
1694639042203125,-6.594329,0.778081,6.622951,0.70026,0.554934,0.148513
1694639042210937,-6.556329,0.352081,6.776951,0.67086,0.603234,0.145413
1694639042218750,-6.633329,0.51919,7.106951,0.64326,0.618534,0.155113
1694639042226562,-6.721329,0.453919,7.370951,0.59496,0.637534,0.155013
1694639042234375,-6.874329,0.840919,7.621951,0.51916,0.642234,0.158113
1694639042242187,-6.941329,-1.164919,7.894951,0.43366,0.662734,0.153313
1694639042250000,-6.882329,-1.560919,8.279951,0.36176,0.718134,0.148713
1694639042257812,-6.871329,-2.57919,8.480951,0.30946,0.723334,0.158713
1694639042265625,-6.826329,-2.566919,8.249951,0.26516,0.682134,0.155113
1694639042273437,-6.647329,-3.114919,7.687951,0.20926,0.603034,0.145313
1694639042281250,-6.335329,-3.354919,7.163951,0.12816,0.525534,0.134413
1694639042289062,-6.61329,-3.110919,6.946951,0.3916,0.491534,0.94413
1694639042296875,-5.862329,-2.517919,7.108951,0.4504,0.427634,0.48113
1694639042304687,-5.896329,-1.782919,7.429951,0.8904,0.352734,0.2987
1694639042312500,-6.129329,-1.171919,7.546951,0.8734,0.292934,0.60787
1694639042320312,-6.355329,0.860919,7.117951,0.8284,0.272734,0.94287
1694639042328125,-6.522329,0.746919,6.909951,0.7654,0.271534,0.118387
1694639042335937,-6.681329,0.757919,6.582951,0.5864,0.248234,0.119987
1694639042343750,-6.616329,0.736919,6.385951,0.4234,0.290634,0.105687
1694639042351562,-6.599329,0.699919,6.370951,0.2184,0.298634,0.76487
1694639042359375,-6.605329,0.568919,6.302951,0.174,0.281734,0.49487
1694639042367187,-6.550329,0.448919,6.438951,0.3196,0.268734,0.39787
1694639042375000,-6.466329,0.511919,6.668951,0.8566,0.269134,0.27087
1694639042382812,-6.477329,0.533919,6.901951,0.12756,0.315834,0.12687
1694639042390625,-6.533329,0.548919,7.377951,0.11756,0.413234,0.37113
1694639042398437,-6.553329,0.666919,7.772951,0.9396,0.476134,0.75213
1694639042406250,-6.639329,0.955919,7.745951,0.7466,0.466234,0.96113
1694639042414062,-6.648329,-1.320919,7.578951,0.2686,0.447934,0.111913
1694639042421875,-6.592329,-1.638919,7.526951,0.534,0.437034,0.111913
1694639042429687,-6.466329,-1.868919,7.596951,0.2484,0.411634,0.107213
1694639042437500,-6.255329,-1.946919,7.680951,0.1294,0.370434,0.98913
1694639042445312,-6.55329,-1.934919,7.718951,0.1164,0.317134,0.68613
1694639042453125,-5.970329,-1.917919,7.625951,0.824,0.239634,0.33313
1694639042460937,-6.13329,-1.888919,7.341951,0.864,0.161534,0.12887
1694639042468750,-5.992329,-1.902919,7.52951,0.1834,0.115534,0.64187
1694639042476562,-5.864329,-1.928919,6.810951,0.5284,0.98234,0.100887
1694639042484375,-5.873329,-1.861919,6.604951,0.6264,0.125634,0.136187
1694639042492187,-5.807329,-1.727919,6.541951,0.6894,0.165834,0.195087
1694639042500000,-5.683329,-1.443919,6.661951,0.8104,0.233234,0.234987
1694639042507812,-5.707329,-1.168919,6.911951,0.9154,0.304134,0.287787
1694639042515625,-5.571329,0.984919,7.214951,0.8754,0.382434,0.324487
1694639042523437,-5.576329,0.568919,7.465951,0.6284,0.453734,0.344987
1694639042531250,-5.771329,0.308919,7.731951,0.6164,0.469534,0.375287
1694639042539062,-5.877329,0.181919,7.826951,0.5454,0.468534,0.390987
1694639042546875,-5.895329,0.193919,7.833951,0.4194,0.478234,0.389887
1694639042554687,-5.791329,0.324919,7.995951,0.3624,0.514834,0.383287
1694639042562500,-5.869329,0.331919,8.273951,0.2134,0.522634,0.362487
1694639042570312,-6.77329,0.402919,8.441951,0.976,0.458034,0.333687
1694639042578125,-6.155329,0.420919,8.357951,0.6546,0.388134,0.316287
1694639042585937,-6.39329,0.446919,8.185951,0.12316,0.313834,0.292587
1694639042593750,-5.989329,0.418919,7.833951,0.16266,0.221034,0.244587
1694639042601562,-5.900329,0.468919,7.605951,0.18916,0.199034,0.206287
1694639042609375,-5.613329,0.523919,7.645951,0.19166,0.217434,0.132787
1694639042617187,-5.748329,0.344919,7.661951,0.18446,0.224634,0.54487
1694639042625000,-6.33329,0.428919,7.589951,0.20406,0.233834,0.30487
1694639042632812,-6.60329,0.550919,7.361951,0.21226,0.253734,0.1513
1694639042640625,-6.53329,0.527919,7.128951,0.19466,0.295934,0.25413
1694639042648437,-6.60329,0.691919,6.891951,0.15576,0.323634,0.36713
1694639042656250,-6.233329,0.739919,6.778951,0.11076,0.383434,0.49313
1694639042664062,-6.308329,0.736919,6.946951,0.8206,0.473134,0.35313
1694639042671875,-5.950329,0.810919,7.293951,0.3976,0.546734,0.27313
1694639042679687,-5.735329,0.765919,7.490951,0.1496,0.572634,0.24313
1694639042687500,-5.638329,0.786919,7.722951,0.1496,0.613734,0.14613
1694639042695312,-5.796329,0.702919,7.971951,0.1306,0.621634,0.4587
1694639042703125,-5.810329,0.653919,8.29951,0.1156,0.570934,0.39887
1694639042710937,-5.791329,0.463919,8.228951,0.1066,0.540334,0.69887
1694639042718750,-5.747329,0.419919,8.461951,0.916,0.491134,0.108487
1694639042726562,-5.599329,0.455919,8.463951,0.2846,0.397634,0.145187
1694639042734375,-5.630329,0.609919,8.203951,0.6776,0.312734,0.180687
1694639042742187,-5.589329,0.873919,7.909951,0.8956,0.270234,0.195387
1694639042750000,-5.490329,-1.99919,7.663951,0.8536,0.237434,0.199687
1694639042757812,-5.190329,-1.317919,7.525951,0.9346,0.234034,0.185287
1694639042765625,-5.326329,-1.303919,7.510951,0.9246,0.234634,0.172687
1694639042773437,-5.411329,-1.419919,7.535951,0.11026,0.195634,0.187087
1694639042781250,-5.408329,-1.330919,7.412951,0.12516,0.200634,0.171187
1694639042789062,-5.495329,-1.201919,7.329951,0.14366,0.238934,0.183687
1694639042796875,-5.222329,-1.94919,7.358951,0.15186,0.260834,0.170987
1694639042804687,-5.95329,0.931919,7.178951,0.16136,0.254034,0.156387
1694639042812500,-5.22329,0.935919,7.69951,0.13066,0.327934,0.164587
1694639042820312,-5.283329,0.908919,7.148951,0.7216,0.384734,0.125887
1694639042828125,-5.435329,-1.31919,7.329951,0.2366,0.423734,0.122687
1694639042835937,-5.178329,-1.197919,7.550951,0.256,0.441834,0.100187
1694639042843750,-5.181329,-1.378919,7.753951,0.3394,0.440834,0.84487
1694639042851562,-5.36329,-1.684919,8.110951,0.4674,0.426534,0.76387
1694639042859375,-5.27329,-1.848919,8.194951,0.6214,0.368934,0.54187
1694639042867187,-5.66329,-2.47919,8.239951,0.9094,0.336334,0.55887
1694639042875000,-5.8329,-1.913919,8.311951,0.11044,0.284634,0.71787
1694639042882812,-4.999329,-1.775919,8.187951,0.17624,0.197634,0.97487
1694639042890625,-4.881329,-1.717919,8.232951,0.23934,0.115434,0.156687
1694639042898437,-5.116329,-1.459919,8.149951,0.28854,0.43834,0.231787
1694639042906250,-4.947329,-1.377919,8.45951,0.33364,0.17834,0.265487
1694639042914062,-5.85329,-1.89919,8.284951,0.33534,0.32634,0.291187
1694639042921875,-5.560329,0.766919,8.303951,0.33554,0.32966,0.326387
1694639042929687,-5.544329,0.633919,8.77951,0.39854,0.110966,0.355087
1694639042937500,-5.407329,0.576919,8.72951,0.40054,0.93966,0.367787
1694639042945312,-5.484329,0.479919,8.296951,0.36814,0.32866,0.348687
1694639042953125,-5.480329,0.497919,8.567951,0.34424,0.32034,0.316587
1694639042960937,-5.765329,0.581919,8.675951,0.33224,0.40734,0.246187
1694639042968750,-6.154329,0.572919,8.574951,0.30724,0.108334,0.192087
1694639042976562,-6.192329,0.792919,8.601951,0.29704,0.200534,0.172387
1694639042984375,-6.74329,0.943919,8.746951,0.27004,0.278234,0.156287
1694639042992187,-5.945329,-1.6919,9.154951,0.19924,0.398434,0.132287
1694639043000000,-5.773329,0.957919,9.678951,0.14054,0.446334,0.121387
1694639043007812,-5.629329,0.836919,9.457951,0.13184,0.327334,0.106987
1694639043015625,-5.333329,0.772919,8.994951,0.17694,0.252134,0.116587
1694639043023437,-5.192329,0.623919,8.806951,0.21434,0.267734,0.129287
1694639043031250,-4.718329,0.535919,8.810951,0.21804,0.337834,0.129187
1694639043039062,-4.986329,0.269919,8.892951,0.20204,0.367734,0.137287
1694639043046875,-5.133329,0.113919,8.822951,0.19324,0.295034,0.178487
1694639043054687,-4.829329,0.110081,8.535951,0.21844,0.235134,0.201187
1694639043062500,-4.573329,0.241081,8.532951,0.21854,0.265234,0.210787
1694639043070312,-4.626329,0.373081,8.593951,0.21844,0.279334,0.204487
1694639043078125,-4.938329,0.413081,8.501951,0.19854,0.272934,0.170887
1694639043085937,-4.751329,0.326081,8.521951,0.17434,0.316434,0.146887
1694639043093750,-4.570329,0.233081,8.528951,0.11464,0.372634,0.127787
1694639043101562,-4.567329,0.182081,8.412951,0.11404,0.337934,0.87787
1694639043109375,-4.760329,0.97081,8.426951,0.11744,0.260234,0.41687
1694639043117187,-4.712329,0.86919,8.611951,0.12044,0.304734,0.81287
1694639043125000,-4.331329,0.85919,9.137951,0.12294,0.222334,0.78287
1694639043132812,-4.955329,0.121919,9.11951,0.11214,0.103234,0.93087
1694639043140625,-4.990329,0.70919,9.122951,0.9864,0.172634,0.97487
1694639043148437,-4.554329,0.134919,9.151951,0.9254,0.59234,0.78587
1694639043156250,-5.13329,0.141919,8.704951,0.7134,0.26566,0.96187
1694639043164062,-5.61329,0.120919,8.695951,0.4014,0.85134,0.91087
1694639043171875,-4.509329,0.135919,9.63951,0.6904,0.8266,0.30687
1694639043179687,-5.511329,0.64919,8.822951,0.7974,0.33266,0.1213
1694639043187500,-5.300329,0.96919,9.206951,0.4124,0.54434,0.5913
1694639043195312,-4.939329,0.8081,8.946951,0.1444,0.124366,0.39613
1694639043203125,-5.3329,0.8919,8.453951,0.596,0.30066,0.10713
1694639043210937,-4.493329,0.18919,8.787951,0.2884,0.36766,0.71513
1694639043218750,-5.97329,0.71919,8.347951,0.6294,0.195166,0.132213
1694639043226562,-4.323329,0.472919,8.487951,0.5184,0.124966,0.145013
1694639043234375,-4.854329,0.548919,8.467951,0.1524,0.199766,0.178413
1694639043242187,-4.738329,0.661919,8.501951,0.64,0.180866,0.186313
1694639043250000,-5.239329,0.609919,8.813951,0.316,0.240466,0.215113
1694639043257812,-5.5329,0.821919,8.815951,0.2036,0.243466,0.170413
1694639043265625,-4.638329,0.487919,9.255951,0.6966,0.286566,0.189313
1694639043273437,-5.289329,0.305919,9.82951,0.9656,0.350866,0.151113
1694639043281250,-4.975329,0.305919,9.262951,0.11806,0.236566,0.109713
1694639043289062,-4.962329,0.303919,9.592951,0.17306,0.242766,0.114413
1694639043296875,-5.160329,0.493919,9.380951,0.22226,0.332566,0.104613
1694639043304687,-5.89329,0.709919,9.68951,0.24486,0.371366,0.80613
1694639043312500,-5.70329,0.685919,8.883951,0.28796,0.382366,0.50313
1694639043320312,-5.132329,0.739919,8.621951,0.23906,0.422766,0.2413
1694639043328125,-5.135329,0.768919,8.718951,0.18916,0.431466,0.23387
1694639043335937,-4.790329,0.964919,9.14951,0.14376,0.467466,0.40887
1694639043343750,-5.300329,-1.12919,9.120951,0.16056,0.581666,0.28087
1694639043351562,-5.617329,-1.341919,8.736951,0.19066,0.530766,0.84187
1694639043359375,-5.80329,-1.480919,8.991951,0.24306,0.438866,0.101587
1694639043367187,-5.541329,-1.495919,8.852951,0.25356,0.551266,0.82487
1694639043375000,-5.673329,-1.383919,8.545951,0.24736,0.546866,0.155787
1694639043382812,-4.921329,-1.464919,8.817951,0.23096,0.489566,0.195987
1694639043390625,-5.584329,-1.319919,9.12951,0.16056,0.575766,0.175187
1694639043398437,-5.396329,-1.280919,9.104951,0.17326,0.559566,0.207287
1694639043406250,-5.322329,-1.330919,9.138951,0.18956,0.581366,0.207287
1694639043414062,-5.736329,-1.335919,8.854951,0.17036,0.612766,0.197687
1694639043421875,-5.666329,-1.533919,8.793951,0.16026,0.581766,0.200787
1694639043429687,-5.919329,-1.649919,8.581951,0.16096,0.622266,0.181687
1694639043437500,-6.139329,-1.711919,8.213951,0.13226,0.659566,0.175387
1694639043445312,-6.282329,-1.787919,8.1951,0.11386,0.628666,0.192887
1694639043453125,-5.970329,-1.794919,8.136951,0.9906,0.595666,0.205687
1694639043460937,-6.5329,-1.665919,8.129951,0.5636,0.668666,0.196287
1694639043468750,-6.116329,-1.621919,7.989951,0.5656,0.701366,0.197887
1694639043476562,-6.73329,-1.586919,7.786951,0.4796,0.662266,0.221787
1694639043484375,-5.999329,-1.534919,7.804951,0.86,0.658066,0.220087
1694639043492187,-6.473329,-1.447919,7.700951,0.156,0.691366,0.226787
1694639043500000,-6.179329,-1.441919,7.756951,0.3626,0.643966,0.221687
1694639043507812,-6.145329,-1.349919,7.698951,0.4606,0.661566,0.202387
1694639043515625,-6.330329,-1.282919,7.526951,0.6226,0.671166,0.192787
1694639043523437,-6.367329,-1.305919,7.486951,0.7386,0.661566,0.176887
1694639043531250,-6.486329,-1.343919,7.336951,0.8266,0.670266,0.169187
1694639043539062,-6.497329,-1.409919,7.280951,0.9546,0.650266,0.154687
1694639043546875,-6.508329,-1.458919,7.366951,0.11966,0.647566,0.138587
1694639043554687,-6.672329,-1.522919,7.355951,0.15396,0.655266,0.119487
1694639043562500,-6.774329,-1.595919,7.377951,0.17666,0.653666,0.108287
1694639043570312,-6.805329,-1.621919,7.447951,0.17046,0.645866,0.97187
1694639043578125,-6.889329,-1.614919,7.547951,0.15546,0.654366,0.92187
1694639043585937,-6.907329,-1.662919,7.714951,0.13816,0.631966,0.87587
1694639043593750,-6.910329,-1.718919,7.850951,0.12466,0.631366,0.77687
1694639043601562,-6.873329,-1.747919,7.865951,0.12336,0.658966,0.93787
1694639043609375,-6.882329,-1.742919,7.827951,0.12686,0.680366,0.98787
1694639043617187,-6.954329,-1.697919,7.678951,0.13986,0.694366,0.98787
1694639043625000,-7.19329,-1.559919,7.583951,0.13976,0.681866,0.101987
1694639043632812,-7.234329,-1.423919,7.495951,0.12836,0.686966,0.95487
1694639043640625,-7.254329,-1.365919,7.303951,0.12366,0.689866,0.95487
1694639043648437,-7.225329,-1.385919,7.100951,0.10276,0.666766,0.71487
1694639043656250,-7.225329,-1.410919,7.59951,0.8816,0.626866,0.36187
1694639043664062,-7.363329,-1.430919,7.7951,0.8676,0.633466,0.10587
1694639043671875,-7.404329,-1.504919,6.872951,0.11016,0.658266,0.26013
1694639043679687,-7.250329,-1.522919,6.375951,0.9106,0.667966,0.53313
1694639043687500,-7.97329,-1.475919,6.413951,0.906,0.581966,0.86713
1694639043695312,-7.176329,-1.472919,6.912951,0.844,0.578066,0.136413
1694639043703125,-7.235329,-1.467919,6.998951,0.3226,0.584366,0.163513
1694639043710937,-7.190329,-1.458919,6.766951,0.7646,0.624766,0.179413
1694639043718750,-7.162329,-1.368919,6.377951,0.2636,0.627066,0.201913
1694639043726562,-7.107329,-1.291919,6.397951,0.2154,0.621866,0.214513
1694639043734375,-7.163329,-1.235919,6.341951,0.5334,0.641866,0.225513
1694639043742187,-7.203329,-1.139919,6.438951,0.7594,0.659466,0.236813
1694639043750000,-7.209329,-1.30919,6.503951,0.8234,0.682866,0.230413
1694639043757812,-7.251329,0.981919,6.612951,0.8574,0.687866,0.228913
1694639043765625,-7.343329,0.921919,6.687951,0.5594,0.690666,0.227813
1694639043773437,-7.509329,0.918919,6.678951,0.3414,0.706366,0.216113
1694639043781250,-7.598329,0.983919,6.671951,0.256,0.701666,0.190613
1694639043789062,-7.608329,0.998919,6.549951,0.2406,0.717966,0.180713
1694639043796875,-7.820329,0.998919,6.400951,0.64,0.762666,0.177913
1694639043804687,-7.955329,0.950919,6.346951,0.144,0.766066,0.167813
1694639043812500,-8.7329,0.864919,6.405951,0.1344,0.758866,0.155313
1694639043820312,-8.45329,0.805919,6.484951,0.4204,0.750466,0.156713
1694639043828125,-8.80329,0.760919,6.569951,0.5824,0.755366,0.166313
1694639043835937,-8.202329,0.715919,6.540951,0.4894,0.781166,0.168213
1694639043843750,-8.217329,0.763919,6.470951,0.4554,0.762166,0.176113
1694639043851562,-8.138329,0.777919,6.375951,0.3234,0.751266,0.196813
1694639043859375,-8.45329,0.827919,6.215951,0.3344,0.758766,0.212613
1694639043867187,-7.993329,0.888919,6.66951,0.3524,0.760966,0.230413
1694639043875000,-7.983329,0.932919,5.896951,0.2504,0.751466,0.254313
1694639043882812,-7.880329,0.907919,5.747951,0.3294,0.718666,0.275013
1694639043890625,-7.878329,0.850919,5.722951,0.5234,0.720266,0.276613
1694639043898437,-7.951329,0.804919,5.693951,0.5064,0.751866,0.281513
1694639043906250,-7.986329,0.724919,5.610951,0.5244,0.759766,0.273613
1694639043914062,-7.954329,0.672919,5.564951,0.5464,0.753766,0.254513
1694639043921875,-7.978329,0.629919,5.465951,0.4954,0.765766,0.240013
1694639043929687,-8.72329,0.592919,5.316951,0.4624,0.762266,0.233513
1694639043937500,-8.137329,0.633919,5.244951,0.5154,0.738966,0.214413
1694639043945312,-8.196329,0.602919,5.199951,0.7314,0.720766,0.208213
1694639043953125,-8.245329,0.607919,5.255951,0.7784,0.701666,0.206513
1694639043960937,-8.333329,0.602919,5.332951,0.8144,0.711266,0.189113
1694639043968750,-8.441329,0.531919,5.438951,0.6844,0.692166,0.187413
1694639043976562,-8.510329,0.548919,5.592951,0.4244,0.716866,0.180913
1694639043984375,-8.543329,0.464919,5.529951,0.3034,0.701866,0.160413
1694639043992187,-8.376329,0.526919,5.377951,0.2504,0.708866,0.153713
1694639044000000,-8.462329,0.474919,5.208951,0.6734,0.685966,0.155513
1694639044007812,-8.657329,0.517919,5.423951,0.2684,0.732766,0.150713
1694639044015625,-8.730329,0.505919,4.975951,0.3124,0.759166,0.165013
1694639044023437,-8.713329,0.470919,5.118951,0.3494,0.725066,0.158713
1694639044031250,-8.810329,0.438919,4.912951,0.884,0.757766,0.161813
1694639044039062,-8.924329,0.442919,4.811951,0.2004,0.746866,0.171413
1694639044046875,-9.31329,0.434919,4.766951,0.1714,0.712866,0.181113
1694639044054687,-9.101329,0.417919,4.659951,0.2504,0.684566,0.187413
1694639044062500,-9.105329,0.402919,4.594951,0.2814,0.643766,0.198513
1694639044070312,-9.128329,0.359919,4.524951,0.3164,0.618966,0.200213
1694639044078125,-9.209329,0.237919,4.445951,0.3554,0.591466,0.187713
1694639044085937,-9.237329,0.193919,4.366951,0.3674,0.568466,0.176113
1694639044093750,-9.294329,0.197919,4.352951,0.8244,0.540766,0.171513
1694639044101562,-9.301329,0.119919,4.404951,0.10364,0.520266,0.157113
1694639044109375,-9.304329,0.126919,4.463951,0.9104,0.504866,0.147613
1694639044117187,-9.384329,0.145919,4.454951,0.6824,0.510866,0.147513
1694639044125000,-9.433329,0.200919,4.366951,0.3654,0.512966,0.138213
1694639044132812,-9.547329,0.229919,4.264951,0.1404,0.506666,0.135013
1694639044140625,-9.611329,0.226919,4.118951,0.1356,0.500466,0.146213
1694639044148437,-9.663329,0.354919,3.923951,0.5896,0.500266,0.150913
1694639044156250,-9.770329,0.365919,3.720951,0.7516,0.477066,0.171713
1694639044164062,-9.812329,0.362919,3.551951,0.7526,0.450466,0.181213
1694639044171875,-9.794329,0.382919,3.420951,0.6696,0.428866,0.187713
1694639044179687,-9.776329,0.398919,3.368951,0.2646,0.410266,0.187813
1694639044187500,-9.757329,0.361919,3.384951,0.594,0.412066,0.189413
1694639044195312,-9.700329,0.309919,3.483951,0.2714,0.404466,0.183113
1694639044203125,-9.689329,0.281919,3.582951,0.3064,0.407666,0.176813
1694639044210937,-9.697329,0.225919,3.691951,0.2774,0.398666,0.173713
1694639044218750,-9.655329,0.252919,3.783951,0.1574,0.386666,0.170213
1694639044226562,-9.675329,0.298919,3.731951,0.1476,0.361666,0.168613
1694639044234375,-9.679329,0.251919,3.677951,0.2126,0.320566,0.162013
1694639044242187,-9.545329,0.257919,3.654951,0.3026,0.280066,0.143013
1694639044250000,-9.488329,0.194919,3.648951,0.2646,0.246266,0.138413
1694639044257812,-9.394329,0.214919,3.654951,0.2456,0.253866,0.111313
1694639044265625,-9.381329,0.280919,3.600951,0.2826,0.265566,0.104613
1694639044273437,-9.522329,0.289919,3.508951,0.2336,0.286266,0.106313
1694639044281250,-9.563329,0.296919,3.404951,0.1466,0.279166,0.105013
1694639044289062,-9.518329,0.262919,3.435951,0.1146,0.247166,0.82413
1694639044296875,-9.534329,0.251919,3.467951,0.1746,0.228766,0.72913
1694639044304687,-9.519329,0.221919,3.458951,0.1576,0.241366,0.73013
1694639044312500,-9.610329,0.153919,3.469951,0.2006,0.218466,0.65213
1694639044320312,-9.692329,0.147919,3.422951,0.1886,0.223666,0.50513
1694639044328125,-9.688329,0.160919,3.413951,0.2666,0.172566,0.61813
1694639044335937,-9.768329,0.4919,3.490951,0.3616,0.124066,0.60213
1694639044343750,-9.763329,0.37919,3.535951,0.4736,0.95766,0.60213
1694639044351562,-9.717329,0.7919,3.641951,0.4086,0.86666,0.69813
1694639044359375,-9.939329,0.105081,3.793951,0.6576,0.51466,0.55813
1694639044367187,-9.865329,0.18919,4.18951,0.10136,0.14466,0.29913
1694639044375000,-9.648329,0.46919,4.111951,0.9506,0.63166,0.34813
1694639044382812,-9.457329,0.73919,3.984951,0.11166,0.147466,0.33113
1694639044390625,-9.182329,0.153919,3.736951,0.11366,0.172266,0.42613
1694639044398437,-9.24329,0.164919,3.616951,0.9546,0.132466,0.62013
1694639044406250,-8.970329,0.145919,3.627951,0.8106,0.118066,0.60313
1694639044414062,-8.981329,0.147919,3.575951,0.7156,0.102166,0.61813
1694639044421875,-8.979329,0.129919,3.726951,0.4396,0.55266,0.65013
1694639044429687,-9.69329,0.97919,3.796951,0.4536,0.70966,0.55513
1694639044437500,-9.74329,0.101919,3.835951,0.4186,0.91466,0.38013
1694639044445312,-9.96329,0.47919,3.923951,0.5016,0.90866,0.29813
1694639044453125,-9.215329,0.37919,3.885951,0.5606,0.112766,0.8387
1694639044460937,-9.36329,0.53919,3.855951,0.5656,0.157866,0.3787
1694639044468750,-9.173329,0.51919,3.760951,0.8886,0.144066,0.13913
1694639044476562,-9.237329,0.76919,3.769951,0.9846,0.111166,0.15513
1694639044484375,-9.169329,0.124919,3.643951,0.13716,0.122366,0.23613
1694639044492187,-9.130329,0.166919,3.471951,0.14896,0.120566,0.41013
1694639044500000,-9.189329,0.184919,3.370951,0.15186,0.110266,0.52413
1694639044507812,-9.447329,0.230919,3.313951,0.13456,0.139066,0.34513
1694639044515625,-9.288329,0.277919,3.232951,0.11496,0.177066,0.29913
1694639044523437,-9.237329,0.230919,3.313951,0.9856,0.132366,0.52513
1694639044531250,-9.326329,0.228919,3.408951,0.7286,0.89566,0.42713
1694639044539062,-9.324329,0.239919,3.519951,0.4216,0.73866,0.39413
1694639044546875,-9.321329,0.261919,3.541951,0.4416,0.92366,0.48913
1694639044554687,-9.387329,0.315919,3.496951,0.4246,0.84666,0.48913
1694639044562500,-9.454329,0.396919,3.399951,0.3396,0.84966,0.39513
1694639044570312,-9.487329,0.414919,3.336951,0.4376,0.83366,0.42713
1694639044578125,-9.479329,0.482919,3.266951,0.5686,0.81366,0.37813
1694639044585937,-9.520329,0.435919,3.196951,0.4706,0.84466,0.33013
1694639044593750,-9.486329,0.413919,3.142951,0.6326,0.71766,0.31313
1694639044601562,-9.496329,0.331919,3.157951,0.7766,0.74766,0.16913
1694639044609375,-9.463329,0.265919,3.216951,0.6816,0.79066,0.12013
1694639044617187,-9.449329,0.214919,3.286951,0.7786,0.80866,0.16913
1694639044625000,-9.461329,0.201919,3.322951,0.8556,0.73366,0.12213
1694639044632812,-9.470329,0.195919,3.329951,0.8686,0.52066,0.23513
1694639044640625,-9.466329,0.195919,3.318951,0.9126,0.38766,0.31813
1694639044648437,-9.467329,0.192919,3.311951,0.8396,0.34366,0.29813
1694639044656250,-9.416329,0.157919,3.284951,0.7756,0.32866,0.33013
1694639044664062,-9.411329,0.152919,3.268951,0.4626,0.37166,0.39713
1694639044671875,-9.297329,0.166919,3.288951,0.3236,0.36066,0.31413
1694639044679687,-9.208329,0.160919,3.381951,0.1636,0.50066,0.36213
1694639044687500,-9.250329,0.150919,3.431951,0.1386,0.59166,0.33413
1694639044695312,-9.206329,0.147919,3.514951,0.1616,0.51566,0.18613
1694639044703125,-9.173329,0.170919,3.548951,0.1736,0.39366,0.12313
1694639044710937,-9.273329,0.188919,3.535951,0.1246,0.33166,0.7513
1694639044718750,-9.262329,0.195919,3.478951,0.2016,0.36366,0.8387
1694639044726562,-9.272329,0.228919,3.401951,0.2986,0.18666,0.21287
1694639044734375,-9.319329,0.230919,3.336951,0.3926,0.466,0.13087
1694639044742187,-9.374329,0.196919,3.236951,0.4586,0.1034,0.1987
1694639044750000,-9.463329,0.161919,3.146951,0.3656,0.1766,0.5913
1694639044757812,-9.544329,0.151919,3.103951,0.3036,0.7866,0.13813
1694639044765625,-9.576329,0.149919,3.83951,0.1726,0.14766,0.28413
1694639044773437,-9.609329,0.143919,3.99951,0.2886,0.6466,0.29813
1694639044781250,-9.633329,0.160919,3.103951,0.4556,0.1266,0.39213
1694639044789062,-9.640329,0.156919,3.92951,0.6116,0.7134,0.50713
1694639044796875,-9.595329,0.145919,3.108951,0.5196,0.34534,0.55213
1694639044804687,-9.522329,0.125919,3.157951,0.5136,0.40034,0.55513
1694639044812500,-9.455329,0.92919,3.178951,0.5006,0.38834,0.55413
1694639044820312,-9.424329,0.93919,3.205951,0.4956,0.40134,0.41113
1694639044828125,-9.404329,0.115919,3.257951,0.4296,0.46434,0.29913
1694639044835937,-9.412329,0.144919,3.279951,0.4436,0.49134,0.31713
1694639044843750,-9.421329,0.185919,3.243951,0.4866,0.56434,0.28713
1694639044851562,-9.407329,0.191919,3.207951,0.4276,0.43134,0.23613
1694639044859375,-9.337329,0.230919,3.180951,0.1846,0.35134,0.22113
1694639044867187,-9.313329,0.248919,3.176951,0.2466,0.27034,0.12613
1694639044875000,-9.310329,0.237919,3.171951,0.1366,0.32234,0.10813
1694639044882812,-9.311329,0.235919,3.225951,0.1306,0.45534,0.12713
1694639044890625,-9.321329,0.229919,3.293951,0.1866,0.55934,0.17113
1694639044898437,-9.315329,0.212919,3.340951,0.1656,0.58634,0.7713
1694639044906250,-9.302329,0.190919,3.349951,0.1976,0.74134,0.12513
1694639044914062,-9.293329,0.200919,3.361951,0.2916,0.87734,0.19113
1694639044921875,-9.293329,0.173919,3.361951,0.3426,0.86534,0.23713
1694639044929687,-9.280329,0.164919,3.365951,0.4056,0.86434,0.14213
1694639044937500,-9.270329,0.134919,3.377951,0.3556,0.80034,0.9513
1694639044945312,-9.260329,0.131919,3.408951,0.3476,0.73134,0.18713
1694639044953125,-9.285329,0.151919,3.455951,0.4086,0.66334,0.17313
1694639044960937,-9.293329,0.177919,3.485951,0.2176,0.51134,0.18813
1694639044968750,-9.265329,0.131919,3.480951,0.2836,0.38634,0.17113
1694639044976562,-9.222329,0.167919,3.483951,0.3776,0.25834,0.12513
1694639044984375,-9.293329,0.186919,3.419951,0.4266,0.7034,0.12513
1694639044992187,-9.279329,0.266919,3.345951,0.3796,0.3666,0.9213
1694639045000000,-9.336329,0.294919,3.343951,0.3496,0.1766,0.7513
1694639045007812,-9.383329,0.295919,3.329951,0.4016,0.9166,0.10613
1694639045015625,-9.408329,0.302919,3.257951,0.4566,0.6834,0.9413
1694639045023437,-9.408329,0.284919,3.214951,0.3456,0.8734,0.6013
1694639045031250,-9.411329,0.264919,3.243951,0.1326,0.22434,0.6213
1694639045039062,-9.395329,0.253919,3.275951,0.1196,0.32334,0.2813
1694639045046875,-9.380329,0.233919,3.270951,0.1836,0.38534,0.4413
1694639045054687,-9.380329,0.209919,3.259951,0.2016,0.37134,0.9213
1694639045062500,-9.382329,0.204919,3.257951,0.3316,0.37134,0.10813
1694639045070312,-9.369329,0.202919,3.245951,0.2486,0.30734,0.6013
1694639045078125,-9.353329,0.207919,3.239951,0.3296,0.29234,0.4413
1694639045085937,-9.329329,0.194919,3.250951,0.4266,0.33934,0.4413
1694639045093750,-9.282329,0.190919,3.288951,0.3616,0.40334,0.387
1694639045101562,-9.273329,0.193919,3.336951,0.3466,0.40334,0.4413
1694639045109375,-9.273329,0.200919,3.349951,0.3426,0.42834,0.4613
1694639045117187,-9.284329,0.235919,3.358951,0.2276,0.38034,0.187
1694639045125000,-9.321329,0.272919,3.352951,0.2926,0.41134,0.6213
1694639045132812,-9.356329,0.304919,3.324951,0.2666,0.40234,0.9213
1694639045140625,-9.392329,0.320919,3.291951,0.4416,0.35234,0.7713
1694639045148437,-9.405329,0.342919,3.259951,0.4266,0.35234,0.17313
1694639045156250,-9.417329,0.355919,3.212951,0.4386,0.40834,0.20713
1694639045164062,-9.401329,0.338919,3.196951,0.4366,0.42234,0.17513
1694639045171875,-9.403329,0.311919,3.191951,0.4246,0.44334,0.22113
1694639045179687,-9.390329,0.287919,3.189951,0.4096,0.39634,0.23713
1694639045187500,-9.371329,0.270919,3.207951,0.4376,0.40634,0.19113
1694639045195312,-9.352329,0.249919,3.259951,0.4266,0.50934,0.20413
1694639045203125,-9.341329,0.252919,3.306951,0.4256,0.58534,0.22113
1694639045210937,-9.335329,0.236919,3.340951,0.3926,0.58534,0.20513
1694639045218750,-9.286329,0.235919,3.388951,0.4426,0.64934,0.25213
1694639045226562,-9.328329,0.234919,3.401951,0.4286,0.58934,0.25213
1694639045234375,-9.321329,0.234919,3.388951,0.4586,0.58734,0.20413
1694639045242187,-9.310329,0.248919,3.390951,0.4426,0.39834,0.18913
1694639045250000,-9.315329,0.246919,3.397951,0.4256,0.39934,0.15713
1694639045257812,-9.295329,0.255919,3.390951,0.4226,0.36234,0.19113
1694639045265625,-9.291329,0.265919,3.374951,0.4486,0.23434,0.20213
1694639045273437,-9.292329,0.288919,3.363951,0.4266,0.27234,0.22113
1694639045281250,-9.296329,0.286919,3.338951,0.4446,0.16734,0.12413
1694639045289062,-9.290329,0.266919,3.324951,0.3806,0.16634,0.20413
1694639045296875,-9.306329,0.255919,3.313951,0.3776,0.13234,0.15713
1694639045304687,-9.322329,0.257919,3.304951,0.4086,0.14534,0.17413
1694639045312500,-9.323329,0.254919,3.315951,0.3486,0.18134,0.25213
1694639045320312,-9.332329,0.243919,3.336951,0.3506,0.26134,0.29913
1694639045328125,-9.324329,0.241919,3.349951,0.3626,0.28734,0.28513
1694639045335937,-9.342329,0.230919,3.343951,0.3466,0.25634,0.26913
1694639045343750,-9.283329,0.194919,3.359951,0.4016,0.35434,0.19313
1694639045351562,-9.282329,0.182919,3.354951,0.4286,0.38434,0.25213
1694639045359375,-9.318329,0.194919,3.327951,0.4286,0.21334,0.18813
1694639045367187,-9.326329,0.263919,3.311951,0.4426,0.13134,0.20513
1694639045375000,-9.429329,0.244919,3.318951,0.4786,0.26234,0.21913
1694639045382812,-9.373329,0.220919,3.282951,0.7026,0.41634,0.20413
1694639045390625,-9.376329,0.220919,3.277951,0.6516,0.41234,0.22113
1694639045398437,-9.429329,0.206919,3.293951,0.4286,0.51134,0.25113
1694639045406250,-9.418329,0.200919,3.316951,0.4916,0.54034,0.25213
1694639045414062,-9.385329,0.205919,3.304951,0.5716,0.47434,0.30113
1694639045421875,-9.384329,0.233919,3.230951,0.7036,0.35634,0.20313
1694639045429687,-9.369329,0.231919,3.187951,0.5566,0.32034,0.22113
1694639045437500,-9.360329,0.239919,3.207951,0.4236,0.39434,0.20613
1694639045445312,-9.325329,0.249919,3.268951,0.4356,0.37134,0.22413
1694639045453125,-9.324329,0.270919,3.318951,0.3906,0.36134,0.19113
1694639045460937,-9.319329,0.263919,3.383951,0.3426,0.41334,0.9313
1694639045468750,-9.304329,0.255919,3.449951,0.3916,0.41034,0.19013
1694639045476562,-9.286329,0.255919,3.471951,0.3926,0.42734,0.22113
1694639045484375,-9.287329,0.261919,3.453951,0.4146,0.37234,0.25113
1694639045492187,-9.315329,0.254919,3.424951,0.4426,0.38234,0.23713
1694639045500000,-9.317329,0.250919,3.363951,0.4596,0.36934,0.17213
1694639045507812,-9.322329,0.252919,3.345951,0.4576,0.38134,0.20513
1694639045515625,-9.362329,0.254919,3.354951,0.4426,0.41434,0.20513
1694639045523437,-9.384329,0.256919,3.347951,0.4596,0.28934,0.22113
1694639045531250,-9.379329,0.255919,3.349951,0.4476,0.31234,0.18613
1694639045539062,-9.367329,0.262919,3.345951,0.4326,0.25034,0.17013
1694639045546875,-9.331329,0.278919,3.311951,0.4646,0.17234,0.17013
1694639045554687,-9.303329,0.232919,3.270951,0.4786,0.15334,0.17113
1694639045562500,-9.199329,0.221919,3.241951,0.6006,0.19334,0.4613
1694639045570312,-9.290329,0.190919,3.243951,0.6716,0.15434,0.9113
1694639045578125,-9.297329,0.239919,3.214951,0.5416,0.10534,0.7613
1694639045585937,-9.375329,0.287919,3.246951,0.4216,0.15834,0.6313
1694639045593750,-9.432329,0.294919,3.277951,0.4936,0.30934,0.12313
1694639045601562,-9.420329,0.275919,3.288951,0.4556,0.53734,0.14213
1694639045609375,-9.387329,0.267919,3.331951,0.4216,0.64234,0.23913
1694639045617187,-9.395329,0.262919,3.397951,0.1806,0.62834,0.20613
1694639045625000,-9.396329,0.263919,3.460951,0.2746,0.64034,0.20813
1694639045632812,-9.382329,0.265919,3.410951,0.3616,0.38034,0.25313
1694639045640625,-9.384329,0.264919,3.327951,0.3966,0.35334,0.25213
1694639045648437,-9.371329,0.260919,3.279951,0.4416,0.36534,0.22113
1694639045656250,-9.344329,0.234919,3.270951,0.4916,0.33334,0.30113
1694639045664062,-9.346329,0.245919,3.302951,0.5226,0.36534,0.25313
1694639045671875,-9.351329,0.250919,3.313951,0.6006,0.39234,0.27013
1694639045679687,-9.366329,0.260919,3.286951,0.6516,0.38134,0.20513
1694639045687500,-9.386329,0.271919,3.261951,0.6056,0.46234,0.25213
1694639045695312,-9.386329,0.271919,3.255951,0.4736,0.62934,0.30113
1694639045703125,-9.377329,0.278919,3.282951,0.4236,0.75434,0.30213
1694639045710937,-9.390329,0.273919,3.309951,0.4276,0.69734,0.26813
1694639045718750,-9.399329,0.266919,3.338951,0.4466,0.52834,0.29913
1694639045726562,-9.401329,0.248919,3.347951,0.3996,0.49934,0.26613
1694639045734375,-9.397329,0.241919,3.356951,0.3676,0.49834,0.28213
1694639045742187,-9.353329,0.240919,3.356951,0.4436,0.52434,0.26813
1694639045750000,-9.337329,0.243919,3.343951,0.4296,0.43334,0.25113
1694639045757812,-9.339329,0.252919,3.336951,0.4446,0.47734,0.30013
1694639045765625,-9.350329,0.256919,3.302951,0.4916,0.41334,0.28513
1694639045773437,-9.350329,0.265919,3.275951,0.4596,0.44534,0.26913
1694639045781250,-9.341329,0.274919,3.275951,0.3796,0.40034,0.23613
1694639045789062,-9.321329,0.267919,3.297951,0.3636,0.54234,0.22013
1694639045796875,-9.314329,0.269919,3.351951,0.3966,0.56034,0.17113
1694639045804687,-9.309329,0.267919,3.433951,0.4296,0.34234,0.12313
1694639045812500,-9.292329,0.268919,3.451951,0.4286,0.27534,0.20413
1694639045820312,-9.283329,0.246919,3.489951,0.5416,0.16734,0.14013
1694639045828125,-9.306329,0.257919,3.426951,0.6346,0.3534,0.15813
1694639045835937,-9.348329,0.258919,3.309951,0.7026,0.21134,0.25213
