time,Acceleration X (m/s^2),Acceleration Y (m/s^2),Acceleration Z (m/s^2),Angular Velocity X (rad/s),Angular Velocity Y (rad/s),Angular Velocity Z (rad/s)
1694639811632812,-7.601697,-0.509602,5.33588,,,
1694639811640625,-7.538697,0.492602,5.32288,0.224937,0.85165,0.77866
1694639811648437,-7.572697,0.523602,5.41988,0.207537,0.36765,0.117766
1694639811656250,-7.699697,0.560602,5.65688,0.184737,0.1265,0.132266
1694639811664062,-7.906697,0.646602,5.89888,0.158737,0.29635,0.146766
1694639811671875,-8.120697,0.751602,5.98288,0.128537,0.16035,0.146566
1694639811687500,-8.364697,0.948602,5.74088,0.74637,0.37765,0.126066
1694639811695312,-8.379697,0.979602,5.55988,0.66337,0.44065,0.106866
1694639811703125,-8.326697,0.956602,5.39088,0.72837,0.43665,0.95566
1694639811710937,-8.254697,0.899602,5.28188,0.72237,0.42465,0.73466
1694639811734375,-8.133697,0.617602,5.33888,0.107137,0.17165,0.31866
1694639811742187,-8.179697,0.568602,5.39288,0.116937,0.18265,0.25366
1694639811750000,-8.216697,0.521602,5.41588,0.136537,0.17865,0.17266
1694639811757812,-8.227697,0.488602,5.46988,0.166737,0.14965,0.234
1694639811765625,-8.214697,0.409602,5.52388,0.196337,0.26565,0.5234
1694639811773437,-8.146697,0.305602,5.56888,0.210937,0.36365,0.14066
1694639811781250,-8.101697,0.237602,5.54388,0.215537,0.29065,0.25366
1694639811789062,-8.28697,0.209602,5.49488,0.215637,0.24665,0.46166
1694639811796875,-7.932697,0.229602,5.51288,0.203437,0.19465,0.65066
1694639811804687,-7.885697,0.263602,5.63688,0.187537,0.18065,0.85866
1694639811812500,-7.922697,0.347602,5.78188,0.163537,0.7165,0.105066
1694639811820312,-8.7697,0.476602,5.85188,0.127837,0.6065,0.109966
1694639811828125,-8.152697,0.627602,5.85388,0.107037,0.2765,0.114666
1694639811835937,-8.293697,0.795602,5.83588,0.95537,0.10765,0.105166
1694639811843750,-8.412697,0.937602,5.85888,0.100437,0.19865,0.95466
1694639811851562,-8.495697,-1.31602,5.85388,0.101737,0.27665,0.76366
1694639811859375,-8.545697,-1.35602,5.76388,0.100137,0.41365,0.55566
1694639811867187,-8.554697,0.954602,5.64588,0.99537,0.41865,0.41366
1694639811875000,-8.523697,0.825602,5.53788,0.107837,0.42765,0.29966
1694639811882812,-8.497697,0.679602,5.48788,0.116137,0.38965,0.16966
1694639811890625,-8.456697,0.509602,5.50388,0.126837,0.31865,0.10866
1694639811898437,-8.453697,0.380602,5.51088,0.131537,0.17765,0.6066
1694639811906250,-8.461697,0.298602,5.55388,0.139337,0.14765,0.1834
1694639811914062,-8.477697,0.271602,5.59388,0.144137,0.13465,0.3066
1694639811921875,-8.480697,0.270602,5.61288,0.146537,0.33065,0.13966
1694639811929687,-8.462697,0.290602,5.67288,0.153037,0.65865,0.13966
1694639811937500,-8.411697,0.327602,5.73388,0.143237,0.96365,0.26966
1694639811945312,-8.343697,0.418602,5.76588,0.140537,0.111465,0.33166
1694639811953125,-8.280697,0.503602,5.77488,0.136437,0.135965,0.48866
1694639811960937,-8.211697,0.584602,5.77488,0.136537,0.142465,0.63366
1694639811968750,-8.152697,0.666602,5.76788,0.138037,0.142865,0.76266
1694639811976562,-8.114697,0.744602,5.72288,0.137837,0.142065,0.93966
1694639811984375,-8.89697,0.820602,5.69588,0.135137,0.144665,0.100166
1694639811992187,-8.75697,0.869602,5.66888,0.133337,0.125965,0.100166
1694639812000000,-8.95697,0.885602,5.69088,0.123937,0.105165,0.100066
1694639812007812,-8.99697,0.864602,5.68188,0.113437,0.109065,0.82766
1694639812015625,-8.115697,0.815602,5.67788,0.98437,0.114065,0.68566
1694639812023437,-8.110697,0.749602,5.68488,0.97737,0.118965,0.61666
1694639812031250,-8.82697,0.679602,5.64588,0.107037,0.118965,0.39366
1694639812039062,-8.14697,0.598602,5.57188,0.110237,0.129865,0.34566
1694639812046875,-7.948697,0.519602,5.46288,0.110037,0.141065,0.31466
1694639812054687,-7.862697,0.416602,5.40688,0.126437,0.145365,0.29766
1694639812062500,-7.820697,0.332602,5.38088,0.140137,0.141465,0.17266
1694639812070312,-7.803697,0.324602,5.34588,0.150337,0.136065,0.15466
1694639812078125,-7.787697,0.346602,5.32988,0.163137,0.125065,0.10666
1694639812085937,-7.829697,0.356602,5.38188,0.161437,0.123965,0.23566
1694639812093750,-7.893697,0.311602,5.48288,0.175937,0.106665,0.25166
1694639812101562,-7.941697,0.258602,5.58288,0.187337,0.86265,0.31466
1694639812109375,-7.976697,0.200602,5.62988,0.178037,0.37365,0.48866
1694639812117187,-8.16697,0.186602,5.59588,0.151937,0.15035,0.76266
1694639812125000,-8.90697,0.178602,5.58688,0.138637,0.73735,0.100366
1694639812132812,-8.129697,0.215602,5.69588,0.130237,0.112435,0.106866
1694639812140625,-8.155697,0.294602,5.90388,0.115537,0.130635,0.119866
1694639812148437,-8.243697,0.397602,6.15188,0.86637,0.132535,0.119666
1694639812156250,-8.361697,0.488602,6.38488,0.60637,0.131035,0.105366
1694639812164062,-8.467697,0.558602,6.53188,0.39837,0.106535,0.89166
1694639812171875,-8.553697,0.572602,6.59488,0.17537,0.68035,0.65066
1694639812179687,-8.599697,0.544602,6.55188,0.5663,0.1465,0.44566
1694639812187500,-8.570697,0.430602,6.41688,0.32263,0.36165,0.31366
1694639812195312,-8.480697,0.314602,6.22488,0.46763,0.83065,0.20266
1694639812203125,-8.305697,0.200602,6.988,0.46563,0.110665,0.4066
1694639812210937,-8.125697,0.120602,5.86288,0.43363,0.140565,0.634
1694639812218750,-7.987697,0.87602,5.77688,0.44763,0.157265,0.5534
1694639812226562,-7.881697,0.106602,5.72988,0.43263,0.166765,0.10334
1694639812234375,-7.831697,0.171602,5.67488,0.44863,0.171465,0.11934
1694639812242187,-7.803697,0.261602,5.65488,0.31163,0.168365,0.1366
1694639812250000,-7.807697,0.391602,5.63188,0.17263,0.170465,0.18566
1694639812257812,-7.836697,0.529602,5.59188,0.17563,0.159965,0.25066
1694639812265625,-7.870697,0.651602,5.58688,0.1463,0.138165,0.28366
1694639812273437,-7.926697,0.771602,5.60988,0.4837,0.115065,0.42766
1694639812281250,-7.983697,0.862602,5.66888,0.22737,0.89965,0.57166
1694639812289062,-8.36697,0.925602,5.74788,0.45337,0.60165,0.60266
1694639812296875,-8.114697,0.944602,5.81788,0.59837,0.51065,0.71566
1694639812304687,-8.154697,0.945602,5.88988,0.83837,0.43665,0.76466
1694639812312500,-8.162697,0.923602,5.89188,0.97337,0.38265,0.82666
1694639812320312,-8.111697,0.840602,5.86288,0.95737,0.36465,0.74566
1694639812328125,-8.35697,0.697602,5.84488,0.87137,0.31065,0.82866
1694639812335937,-7.948697,0.552602,5.83988,0.84037,0.8865,0.77966
1694639812343750,-7.897697,0.446602,5.80888,0.83437,0.20435,0.68466
1694639812351562,-7.858697,0.370602,5.80888,0.57637,0.27135,0.57266
1694639812359375,-7.863697,0.299602,5.88588,0.32137,0.41835,0.50566
1694639812367187,-7.947697,0.282602,5.94188,0.13437,0.61335,0.34966
1694639812375000,-8.73697,0.288602,6.1888,0.4437,0.59335,0.26566
1694639812382812,-8.189697,0.314602,6.2988,0.13963,0.33835,0.1266
1694639812390625,-8.294697,0.352602,5.99888,0.31663,0.9135,0.19634
1694639812398437,-8.403697,0.380602,5.93288,0.36363,0.21965,0.22834
1694639812406250,-8.425697,0.348602,5.83188,0.38063,0.55065,0.27534
1694639812414062,-8.394697,0.301602,5.72488,0.38063,0.80365,0.21034
1694639812421875,-8.378697,0.308602,5.64788,0.45963,0.80465,0.6634
1694639812429687,-8.329697,0.345602,5.61688,0.42363,0.63165,0.20366
1694639812437500,-8.280697,0.436602,5.67288,0.37663,0.40065,0.31666
1694639812445312,-8.306697,0.547602,5.78588,0.39163,0.29265,0.47666
1694639812453125,-8.299697,0.691602,5.93088,0.25863,0.43165,0.53966
1694639812460937,-8.214697,0.816602,6.7988,0.7963,0.76265,0.68366
1694639812468750,-8.61697,0.905602,6.18088,0.4263,0.108965,0.84266
1694639812476562,-7.917697,0.954602,6.21988,0.7637,0.132065,0.101666
1694639812484375,-7.789697,0.985602,6.21288,0.27237,0.127165,0.109666
1694639812492187,-7.705697,-1.18602,6.23288,0.45737,0.111465,0.124466
1694639812500000,-7.678697,-1.54602,6.20588,0.68637,0.67265,0.137066
1694639812507812,-7.675697,-1.85602,6.11988,0.84637,0.20565,0.149966
1694639812515625,-7.740697,-1.109602,6.7988,0.100737,0.16935,0.153166
1694639812523437,-7.796697,-1.97602,5.97988,0.116937,0.32735,0.159466
1694639812531250,-7.775697,-1.71602,5.89488,0.117537,0.31635,0.173666
1694639812539062,-7.776697,-1.5602,5.79488,0.122537,0.11435,0.172066
1694639812546875,-7.831697,0.922602,5.79688,0.141837,0.23835,0.173666
1694639812554687,-7.948697,0.885602,5.81788,0.143337,0.56835,0.170466
1694639812562500,-8.68697,0.849602,5.84288,0.137637,0.71235,0.169166
1694639812570312,-8.197697,0.794602,5.87188,0.147537,0.60835,0.159466
1694639812578125,-8.322697,0.761602,5.92188,0.161737,0.38535,0.153266
1694639812585937,-8.358697,0.751602,5.92888,0.163537,0.8935,0.156366
1694639812593750,-8.293697,0.682602,5.93288,0.162737,0.35565,0.154466
1694639812601562,-8.200697,0.599602,5.94888,0.164537,0.60465,0.157666
1694639812609375,-8.129697,0.578602,5.97388,0.174237,0.69965,0.159366
1694639812617187,-8.35697,0.569602,5.95088,0.171037,0.83965,0.154466
1694639812625000,-7.934697,0.599602,5.86988,0.150337,0.99265,0.151166
1694639812632812,-7.851697,0.598602,5.83988,0.148637,0.112165,0.162466
1694639812640625,-7.731697,0.615602,5.84688,0.145337,0.118765,0.168966
1694639812648437,-7.637697,0.650602,5.90088,0.132537,0.127965,0.168866
1694639812656250,-7.575697,0.703602,5.99788,0.138637,0.101865,0.173866
1694639812664062,-7.562697,0.740602,6.3188,0.120937,0.68565,0.162566
1694639812671875,-7.555697,0.780602,5.93288,0.112937,0.51065,0.156066
1694639812679687,-7.549697,0.844602,5.88688,0.118537,0.50065,0.132366
1694639812687500,-7.569697,0.848602,5.89388,0.135937,0.48465,0.109966
1694639812695312,-7.627697,0.874602,5.90588,0.142337,0.37065,0.87566
1694639812703125,-7.671697,0.834602,5.83288,0.161537,0.17465,0.55366
1694639812710937,-7.746697,0.823602,5.61188,0.141737,0.14665,0.36366
1694639812718750,-7.788697,0.867602,5.41788,0.146337,0.16365,0.26866
1694639812726562,-7.867697,0.826602,5.50388,0.125437,0.4765,0.7466
1694639812734375,-8.44697,0.679602,5.62788,0.90537,0.30635,0.19434
1694639812742187,-8.178697,0.540602,5.62788,0.72737,0.33735,0.24234
1694639812750000,-8.244697,0.443602,5.62988,0.59837,0.1135,0.40234
1694639812757812,-8.270697,0.356602,5.56688,0.53237,0.35065,0.44934
1694639812765625,-8.267697,0.291602,5.41388,0.38937,0.45065,0.72334
1694639812773437,-8.282697,0.238602,5.24788,0.52637,0.49365,0.73534
1694639812781250,-8.299697,0.152602,5.11088,0.73937,0.67665,0.80034
1694639812789062,-8.310697,0.70602,5.4088,0.83837,0.83065,0.83334
1694639812796875,-8.265697,0.35602,5.3188,0.83837,0.105065,0.83334
1694639812804687,-8.195697,0.9398,5.1788,0.98637,0.118665,0.86634
1694639812812500,-8.122697,0.92398,5.14488,0.139237,0.140165,0.93134
1694639812820312,-7.983697,0.192398,5.35188,0.187837,0.152365,0.96434
1694639812828125,-7.824697,0.214398,5.50088,0.232737,0.160565,0.97834
1694639812835937,-7.674697,0.165398,5.61388,0.280037,0.147565,0.88434
1694639812843750,-7.576697,0.70398,5.73388,0.333137,0.102365,0.78834
1694639812851562,-7.589697,0.28398,5.85088,0.376737,0.18165,0.43634
1694639812859375,-7.540697,0.5398,6.3688,0.389837,0.90835,0.10666
1694639812867187,-7.593697,0.0,6.46788,0.371537,0.195635,0.68566
1694639812875000,-7.828697,0.56398,6.99888,0.313237,0.326335,0.116666
1694639812882812,-8.160697,0.96398,7.38488,0.188537,0.478635,0.164766
1694639812890625,-8.471697,0.121398,7.42388,0.17137,0.562035,0.206466
1694639812898437,-8.670697,0.98398,7.31088,0.173263,0.511335,0.216166
1694639812906250,-8.660697,0.78398,7.8088,0.333963,0.342735,0.203266
1694639812914062,-8.504697,0.47602,6.92488,0.447463,0.83935,0.171066
1694639812921875,-8.370697,0.225602,6.86788,0.496063,0.162765,0.116266
1694639812929687,-8.226697,0.335602,6.79788,0.518363,0.353065,0.65066
1694639812937500,-8.64697,0.537602,6.54988,0.504863,0.511165,0.4066
1694639812945312,-7.919697,0.838602,6.33288,0.448663,0.602765,0.63134
1694639812953125,-7.800697,-1.51602,6.21988,0.369363,0.600165,0.92134
1694639812960937,-7.752697,-1.184602,6.7088,0.299963,0.476165,0.114034
1694639812968750,-7.742697,-1.231602,5.82888,0.210263,0.298065,0.94834
1694639812976562,-7.740697,-1.246602,5.56888,0.107563,0.123365,0.70734
1694639812984375,-7.784697,-1.259602,5.43988,0.1837,0.365,0.32234
1694639812992187,-7.836697,-1.243602,5.48988,0.101937,0.80235,0.15766
1694639813000000,-7.926697,-1.253602,5.58088,0.170337,0.111635,0.58866
1694639813007812,-7.963697,-1.271602,5.68188,0.197837,0.112435,0.94166
1694639813015625,-7.994697,-1.275602,5.75188,0.214237,0.106135,0.111766
1694639813023437,-8.45697,-1.222602,5.82488,0.205137,0.91235,0.111466
1694639813031250,-8.141697,-1.96602,5.98288,0.192037,0.75335,0.106766
1694639813039062,-8.282697,0.935602,6.8688,0.169537,0.51835,0.108366
1694639813046875,-8.324697,0.720602,6.17988,0.152437,0.10335,0.106566
1694639813054687,-8.256697,0.506602,6.25588,0.123537,0.44165,0.95266
1694639813062500,-8.107697,0.271602,6.35788,0.99337,0.96165,0.93766
1694639813070312,-7.933697,0.84602,6.45888,0.80737,0.134465,0.98266
1694639813078125,-7.796697,0.38398,6.53788,0.36637,0.130365,0.90566
1694639813085937,-7.754697,0.111398,6.39988,0.6063,0.105965,0.74766
1694639813093750,-7.765697,0.104398,6.22388,0.41463,0.109965,0.53766
1694639813101562,-7.724697,0.81398,6.3688,0.91863,0.119465,0.36266
1694639813109375,-7.730697,0.38398,5.84688,0.134263,0.119765,0.18866
1694639813117187,-7.822697,0.12602,5.74988,0.176063,0.101365,0.16634
1694639813125000,-7.995697,0.129602,5.73388,0.217363,0.73465,0.54834
1694639813132812,-8.168697,0.307602,5.70888,0.255263,0.36365,0.75434
1694639813140625,-8.297697,0.489602,5.69088,0.276763,0.22665,0.89634
1694639813148437,-8.382697,0.602602,5.74588,0.280463,0.13865,0.94234
1694639813156250,-8.488697,0.734602,5.80688,0.275263,0.15065,0.83134
1694639813164062,-8.536697,0.884602,5.77488,0.251663,0.44265,0.56234
1694639813171875,-8.397697,0.979602,5.77288,0.225663,0.115265,0.32134
1694639813179687,-8.209697,-1.67602,5.82688,0.186863,0.154965,0.13766
1694639813187500,-8.70697,-1.141602,5.95588,0.148163,0.168565,0.55566
1694639813195312,-7.977697,-1.243602,6.11088,0.137963,0.165165,0.77866
1694639813203125,-7.912697,-1.322602,6.15188,0.115063,0.139965,0.98566
1694639813210937,-7.886697,-1.388602,6.15888,0.91163,0.102765,0.103466
1694639813218750,-7.897697,-1.439602,6.15888,0.50563,0.70965,0.101666
1694639813226562,-7.818697,-1.449602,6.12888,0.18963,0.43665,0.105166
1694639813234375,-7.753697,-1.405602,6.10188,0.4763,0.21965,0.95666
1694639813242187,-7.719697,-1.351602,6.8588,0.24437,0.25335,0.101866
1694639813250000,-7.645697,-1.307602,6.988,0.35437,0.40535,0.105266
1694639813257812,-7.552697,-1.225602,5.96388,0.57837,0.66835,0.111666
1694639813265625,-7.542697,-1.171602,6.5688,0.93137,0.90035,0.118166
1694639813273437,-7.603697,-1.138602,6.21988,0.106437,0.120135,0.133966
1694639813281250,-7.689697,-1.74602,6.30088,0.93537,0.135635,0.149966
1694639813289062,-7.788697,-1.33602,6.30788,0.85437,0.113335,0.151666
1694639813296875,-7.865697,0.999602,6.29688,0.87637,0.77835,0.162766
1694639813304687,-7.888697,0.949602,6.24188,0.87837,0.41835,0.167566
1694639813312500,-7.915697,0.916602,6.8188,0.70237,0.21535,0.169066
1694639813320312,-7.934697,0.898602,5.96888,0.59437,0.2665,0.159266
1694639813328125,-7.990697,0.875602,5.94688,0.57537,0.10765,0.148166
1694639813335937,-8.71697,0.856602,5.93288,0.60637,0.31065,0.138666
1694639813343750,-8.109697,0.933602,5.94688,0.58737,0.46965,0.124366
1694639813351562,-8.104697,0.999602,5.92788,0.59937,0.68965,0.105266
1694639813359375,-8.5697,0.967602,5.86488,0.53637,0.101665,0.95666
1694639813367187,-7.847697,0.963602,5.85788,0.57337,0.130665,0.85866
1694639813375000,-7.662697,0.962602,5.84888,0.64037,0.156965,0.87366
1694639813382812,-7.491697,0.962602,5.83788,0.64237,0.158565,0.101766
1694639813390625,-7.353697,0.940602,5.81688,0.69237,0.125565,0.109666
1694639813398437,-7.348697,0.971602,5.83088,0.87937,0.85765,0.113066
1694639813406250,-7.400697,-1.25602,5.83488,0.107137,0.43765,0.125966
1694639813414062,-7.454697,-1.15602,5.81288,0.110037,0.14365,0.124466
1694639813421875,-7.516697,0.966602,5.81088,0.113737,0.1935,0.125766
1694639813429687,-7.612697,0.958602,5.81088,0.116837,0.26935,0.129066
1694639813437500,-7.734697,0.909602,5.79288,0.109737,0.49735,0.121266
1694639813445312,-7.834697,0.885602,5.77888,0.110937,0.58835,0.111766
1694639813453125,-7.954697,0.856602,5.76588,0.104837,0.59635,0.103566
1694639813460937,-8.37697,0.854602,5.76988,0.100137,0.50435,0.97166
1694639813468750,-8.97697,0.873602,5.77888,0.88737,0.45635,0.95566
1694639813476562,-8.158697,0.859602,5.79488,0.85437,0.47435,0.87566
1694639813484375,-8.172697,0.817602,5.80388,0.77237,0.55235,0.74766
1694639813492187,-8.189697,0.782602,5.84088,0.67737,0.55635,0.71466
1694639813500000,-8.173697,0.708602,5.87688,0.81537,0.40835,0.58966
1694639813507812,-8.79697,0.635602,5.90988,0.82137,0.835,0.53966
1694639813515625,-7.935697,0.596602,5.92188,0.64037,0.21465,0.42866
1694639813523437,-7.799697,0.570602,5.83788,0.56037,0.24565,0.44466
1694639813531250,-7.706697,0.549602,5.72688,0.46337,0.21265,0.42866
1694639813539062,-7.624697,0.515602,5.64088,0.33837,0.30065,0.34666
1694639813546875,-7.534697,0.449602,5.62088,0.25237,0.35465,0.31666
1694639813554687,-7.491697,0.426602,5.62788,0.30537,0.25365,0.33066
1694639813562500,-7.445697,0.435602,5.63188,0.16937,0.18565,0.31766
1694639813570312,-7.407697,0.396602,5.57288,0.3837,0.4465,0.27066
1694639813578125,-7.406697,0.392602,5.43988,0.15737,0.27835,0.26666
1694639813585937,-7.461697,0.440602,5.31588,0.15437,0.39835,0.31666
1694639813593750,-7.549697,0.527602,5.30488,0.29637,0.80435,0.30066
1694639813601562,-7.674697,0.711602,5.39288,0.30737,0.122135,0.30266
1694639813609375,-7.807697,0.928602,5.55288,0.20537,0.171535,0.32066
1694639813617187,-7.984697,-1.119602,5.76988,0.19037,0.225335,0.28666
1694639813625000,-8.233697,-1.210602,5.93288,0.5137,0.270035,0.8166
1694639813632812,-8.448697,-1.256602,5.95588,0.5863,0.302735,0.22634
1694639813640625,-8.579697,-1.294602,5.89488,0.11463,0.291035,0.43134
1694639813648437,-8.645697,-1.266602,5.84588,0.6463,0.271535,0.70434
1694639813656250,-8.702697,-1.173602,5.81788,0.0,0.260935,0.96134
1694639813664062,-8.809697,-1.602,5.71388,0.4237,0.229235,0.115034
1694639813671875,-8.864697,0.773602,5.56788,0.2837,0.179635,0.131134
1694639813679687,-8.851697,0.596602,5.61088,0.14537,0.107835,0.132834
1694639813687500,-8.870697,0.466602,5.80188,0.25437,0.47735,0.140534
1694639813695312,-8.861697,0.354602,5.91688,0.4637,0.33635,0.134134
1694639813703125,-8.851697,0.292602,5.79588,0.1837,0.38335,0.108634
1694639813710937,-8.855697,0.303602,5.61288,0.18563,0.13635,0.94434
1694639813718750,-8.762697,0.369602,5.50588,0.31263,0.6965,0.70434
1694639813726562,-8.643697,0.440602,5.49288,0.54663,0.12865,0.40234
1694639813734375,-8.522697,0.529602,5.51288,0.90563,0.10665,0.28834
1694639813742187,-8.449697,0.686602,5.56288,0.128663,0.535,0.234
1694639813750000,-8.442697,0.904602,5.58788,0.145763,0.10635,0.13866
1694639813757812,-8.386697,-1.136602,5.57888,0.154363,0.21865,0.27066
1694639813765625,-8.248697,-1.326602,5.60288,0.150963,0.78365,0.30266
1694639813773437,-8.161697,-1.512602,5.62788,0.140763,0.94965,0.28466
1694639813781250,-8.115697,-1.622602,5.66388,0.108263,0.83565,0.28366
1694639813789062,-8.84697,-1.638602,5.70088,0.95363,0.58165,0.18666
1694639813796875,-8.80697,-1.612602,5.74788,0.67963,0.36165,0.15466
1694639813804687,-8.117697,-1.498602,5.84288,0.42563,0.33265,0.7566
1694639813812500,-8.106697,-1.338602,5.91988,0.13763,0.41365,0.3534
1694639813820312,-8.58697,-1.169602,5.91688,0.9337,0.58965,0.19834
1694639813828125,-8.55697,0.993602,5.92188,0.29637,0.86665,0.24234
1694639813835937,-8.59697,0.820602,5.93288,0.37737,0.100665,0.30634
1694639813843750,-8.68697,0.633602,5.92188,0.36837,0.107565,0.26134
1694639813851562,-8.67697,0.504602,5.87888,0.12337,0.115965,0.22734
1694639813859375,-8.66697,0.424602,5.85388,0.21663,0.109765,0.22734
1694639813867187,-8.27697,0.388602,5.84988,0.54963,0.101165,0.19834
1694639813875000,-7.990697,0.397602,5.82188,0.89263,0.86165,0.14834
1694639813882812,-7.969697,0.479602,5.82688,0.104063,0.75465,0.19534
1694639813890625,-7.978697,0.583602,5.85588,0.131863,0.52365,0.19434
1694639813898437,-8.25697,0.714602,5.83588,0.159863,0.27965,0.22434
1694639813906250,-8.81697,0.831602,5.73888,0.172963,0.7665,0.27234
1694639813914062,-8.119697,0.895602,5.66188,0.174163,0.3765,0.33834
1694639813921875,-8.153697,0.996602,5.66688,0.154863,0.7065,0.28934
1694639813929687,-8.154697,-1.55602,5.65088,0.124563,0.23365,0.30334
1694639813937500,-8.77697,-1.90602,5.64388,0.100063,0.55565,0.43334
1694639813945312,-7.991697,-1.92602,5.66188,0.85263,0.72265,0.53034
1694639813953125,-7.930697,-1.41602,5.64988,0.53163,0.81965,0.52934
1694639813960937,-7.909697,0.989602,5.65488,0.32163,0.88065,0.57734
1694639813968750,-7.870697,0.932602,5.65988,0.25463,0.111165,0.65834
1694639813976562,-7.863697,0.899602,5.63688,0.22363,0.109665,0.70634
1694639813984375,-7.846697,0.872602,5.59588,0.32263,0.100465,0.78534
1694639813992187,-7.853697,0.886602,5.59188,0.40163,0.93765,0.80234
1694639814000000,-7.868697,0.919602,5.59388,0.54763,0.84265,0.88234
1694639814007812,-7.895697,0.925602,5.67788,0.66163,0.81365,0.86634
1694639814015625,-7.958697,0.918602,5.76088,0.75863,0.73165,0.97934
1694639814023437,-8.21697,0.883602,5.75688,0.90463,0.63765,0.105834
1694639814031250,-8.73697,0.854602,5.70988,0.98463,0.50865,0.109234
1694639814039062,-8.114697,0.849602,5.70288,0.98663,0.36765,0.121934
1694639814046875,-8.136697,0.804602,5.70888,0.94263,0.30865,0.133034
1694639814054687,-8.182697,0.746602,5.69088,0.88063,0.42065,0.136034
1694639814062500,-8.158697,0.672602,5.65288,0.89863,0.44065,0.134334
1694639814070312,-8.130697,0.631602,5.64388,0.86463,0.45165,0.137734
1694639814078125,-8.110697,0.620602,5.63888,0.87963,0.43665,0.128134
1694639814085937,-8.121697,0.631602,5.63688,0.95963,0.20265,0.118534
1694639814093750,-8.179697,0.664602,5.60988,0.97563,0.1365,0.120134
1694639814101562,-8.225697,0.692602,5.58488,0.102163,0.2765,0.115434
1694639814109375,-8.252697,0.716602,5.56288,0.102163,0.2135,0.121934
1694639814117187,-8.259697,0.700602,5.56288,0.100863,0.1265,0.126534
1694639814125000,-8.225697,0.705602,5.65788,0.99063,0.30865,0.125034
1694639814132812,-8.171697,0.758602,5.78888,0.97063,0.39865,0.121934
1694639814140625,-8.151697,0.797602,5.81488,0.99263,0.48865,0.113634
1694639814148437,-8.151697,0.859602,5.72788,0.103563,0.45065,0.109034
1694639814156250,-8.119697,0.931602,5.66688,0.98163,0.63265,0.102834
1694639814164062,-8.106697,-1.5602,5.74288,0.94263,0.70965,0.95934
1694639814171875,-8.99697,-1.42602,5.87688,0.96763,0.63865,0.88334
1694639814179687,-8.105697,-1.72602,5.94688,0.97163,0.47065,0.92934
1694639814187500,-8.120697,-1.121602,5.94888,0.95663,0.37665,0.97734
1694639814195312,-8.148697,-1.171602,5.93088,0.89163,0.42365,0.96134
1694639814203125,-8.162697,-1.176602,5.90588,0.71163,0.32365,0.99534
1694639814210937,-8.188697,-1.138602,5.88088,0.53363,0.35465,0.104334
1694639814218750,-8.167697,-1.48602,5.87688,0.44963,0.41365,0.99634
1694639814226562,-8.165697,0.970602,5.91288,0.38863,0.49665,0.102634
1694639814234375,-8.220697,0.894602,5.91288,0.29063,0.43265,0.102734
1694639814242187,-8.273697,0.804602,5.85188,0.27563,0.38765,0.96234
1694639814250000,-8.305697,0.701602,5.78388,0.16563,0.40965,0.88134
1694639814257812,-8.348697,0.602602,5.75488,0.6263,0.59065,0.83534
1694639814265625,-8.397697,0.545602,5.70288,0.6437,0.78365,0.80134
1694639814273437,-8.366697,0.501602,5.67288,0.29037,0.108565,0.64034
1694639814281250,-8.293697,0.460602,5.67488,0.35837,0.139565,0.65734
1694639814289062,-8.248697,0.501602,5.67088,0.29737,0.164065,0.64334
1694639814296875,-8.186697,0.602602,5.65788,0.15737,0.188765,0.56434
1694639814304687,-8.130697,0.722602,5.68388,0.18363,0.194065,0.46734
1694639814312500,-8.120697,0.864602,5.69988,0.50263,0.177865,0.45334
1694639814320312,-8.99697,0.961602,5.74788,0.89663,0.164865,0.40234
1694639814328125,-8.58697,-1.28602,5.86088,0.97963,0.158765,0.41734
1694639814335937,-8.5697,-1.61602,5.98888,0.95863,0.161165,0.45134
1694639814343750,-7.924697,-1.62602,6.6788,0.102363,0.167365,0.49934
1694639814351562,-7.826697,-1.30602,6.7688,0.95863,0.168665,0.61234
1694639814359375,-7.751697,0.990602,6.4088,0.81163,0.141765,0.56534
1694639814367187,-7.712697,0.940602,6.288,0.60063,0.113365,0.48634
1694639814375000,-7.750697,0.876602,5.99188,0.49663,0.81565,0.56234
1694639814382812,-7.834697,0.789602,5.98688,0.15963,0.44065,0.51434
1694639814390625,-7.941697,0.710602,6.788,0.5337,0.31265,0.45134
1694639814398437,-7.978697,0.645602,6.5688,0.36237,0.33965,0.43734
1694639814406250,-8.21697,0.580602,6.1388,0.48837,0.51565,0.51534
1694639814414062,-8.15697,0.524602,5.90588,0.55237,0.73565,0.56234
1694639814421875,-7.973697,0.454602,5.77688,0.42437,0.89165,0.56334
1694639814429687,-7.960697,0.450602,5.65888,0.26037,0.91165,0.52934
1694639814437500,-7.955697,0.467602,5.61888,0.14637,0.78665,0.54534
1694639814445312,-7.948697,0.512602,5.66888,0.7863,0.83165,0.59434
1694639814453125,-7.928697,0.585602,5.79288,0.29063,0.105565,0.62434
1694639814460937,-7.881697,0.633602,5.96688,0.56063,0.128165,0.75534
1694639814468750,-7.841697,0.678602,6.11988,0.73763,0.141965,0.88334
1694639814476562,-7.806697,0.698602,6.20388,0.91863,0.148465,0.96234
1694639814484375,-7.777697,0.690602,6.22588,0.98363,0.153165,0.107434
1694639814492187,-7.767697,0.657602,6.17888,0.96363,0.138365,0.106034
1694639814500000,-7.769697,0.589602,6.10188,0.97963,0.124165,0.107734
1694639814507812,-7.778697,0.508602,6.6188,0.85363,0.110465,0.107534
1694639814515625,-7.804697,0.462602,6.4788,0.71063,0.90165,0.112334
1694639814523437,-7.813697,0.451602,6.4588,0.75763,0.66465,0.107634
1694639814531250,-7.859697,0.451602,6.4988,0.81263,0.34465,0.107334
1694639814539062,-7.978697,0.477602,6.5688,0.84063,0.13465,0.104334
1694639814546875,-8.132697,0.507602,6.1188,0.92463,0.4735,0.99434
1694639814554687,-8.251697,0.548602,5.92888,0.98563,0.7165,0.104434
1694639814562500,-8.304697,0.552602,5.88088,0.97063,0.30865,0.107534
1694639814570312,-8.291697,0.520602,5.88288,0.98763,0.60865,0.107434
1694639814578125,-8.215697,0.493602,5.90788,0.96663,0.99165,0.117234
1694639814585937,-8.103697,0.492602,5.94888,0.96863,0.119665,0.125134
1694639814593750,-7.976697,0.490602,5.95788,0.98263,0.138165,0.128434
1694639814601562,-7.864697,0.476602,5.96888,0.96863,0.152565,0.131534
1694639814609375,-7.770697,0.437602,5.99588,0.98463,0.146365,0.129934
1694639814617187,-7.708697,0.448602,6.5688,0.93163,0.142965,0.115634
1694639814625000,-7.658697,0.457602,6.13588,0.93463,0.129365,0.107534
1694639814632812,-7.629697,0.500602,6.16988,0.101463,0.110265,0.110834
1694639814640625,-7.641697,0.561602,6.20988,0.97163,0.98565,0.108934
1694639814648437,-7.637697,0.614602,6.21888,0.110263,0.94065,0.108834
1694639814656250,-7.656697,0.698602,6.21288,0.115063,0.90765,0.112134
1694639814664062,-7.690697,0.738602,6.23488,0.121363,0.92165,0.113734
1694639814671875,-7.761697,0.756602,6.25088,0.123163,0.78365,0.108934
1694639814679687,-7.864697,0.746602,6.21288,0.119863,0.65765,0.105734
1694639814687500,-7.965697,0.747602,6.14288,0.120963,0.55665,0.104434
1694639814695312,-8.39697,0.739602,6.4788,0.121463,0.43765,0.102634
1694639814703125,-8.111697,0.732602,5.97388,0.124563,0.41965,0.105834
1694639814710937,-8.149697,0.710602,5.90388,0.121763,0.40965,0.107234
1694639814718750,-8.196697,0.650602,5.83588,0.120263,0.42665,0.107234
1694639814726562,-8.193697,0.593602,5.79488,0.102163,0.45465,0.105734
1694639814734375,-8.116697,0.534602,5.77688,0.92263,0.63965,0.107434
1694639814742187,-8.5697,0.467602,5.81988,0.69663,0.71665,0.109034
1694639814750000,-7.903697,0.425602,5.88088,0.46663,0.74365,0.104334
1694639814757812,-7.831697,0.401602,5.88488,0.45463,0.71865,0.105734
1694639814765625,-7.783697,0.421602,5.90088,0.24963,0.63265,0.99134
1694639814773437,-7.780697,0.479602,5.92088,0.21463,0.42665,0.84834
1694639814781250,-7.801697,0.526602,5.97988,0.18863,0.36765,0.77334
1694639814789062,-7.838697,0.572602,6.5288,0.20863,0.34265,0.73934
1694639814796875,-7.857697,0.640602,6.5488,0.19263,0.32665,0.70734
1694639814804687,-7.874697,0.704602,6.2988,0.35463,0.36065,0.72234
1694639814812500,-7.900697,0.748602,5.96688,0.33763,0.37365,0.70734
1694639814820312,-7.929697,0.770602,5.92588,0.36963,0.42065,0.72334
1694639814828125,-7.949697,0.758602,5.88088,0.42063,0.44065,0.70634
1694639814835937,-7.982697,0.755602,5.82188,0.59963,0.36465,0.72134
1694639814843750,-8.38697,0.761602,5.79288,0.63163,0.44165,0.75334
1694639814851562,-8.71697,0.747602,5.82188,0.70163,0.32265,0.76734
1694639814859375,-8.135697,0.686602,5.88088,0.81263,0.24165,0.80034
1694639814867187,-8.174697,0.646602,5.88088,0.73263,0.5465,0.76834
1694639814875000,-8.186697,0.597602,5.86988,0.65263,0.5365,0.81634
1694639814882812,-8.182697,0.563602,5.89488,0.50763,0.10265,0.76734
1694639814890625,-8.144697,0.533602,5.96488,0.45763,0.24065,0.83234
1694639814898437,-8.132697,0.491602,6.1588,0.47363,0.19465,0.78434
1694639814906250,-8.96697,0.468602,6.2988,0.42463,0.19165,0.80034
1694639814914062,-8.85697,0.463602,6.1888,0.34463,0.22465,0.81634
1694639814921875,-8.96697,0.461602,6.3188,0.34263,0.33165,0.81734
1694639814929687,-8.76697,0.479602,6.4588,0.29063,0.43765,0.77034
1694639814937500,-7.970697,0.509602,6.4088,0.40563,0.72665,0.70434
1694639814945312,-7.876697,0.558602,5.94888,0.39863,0.88765,0.73934
1694639814953125,-7.815697,0.574602,5.87588,0.41863,0.92565,0.69034
1694639814960937,-7.784697,0.568602,5.88788,0.46563,0.86365,0.57834
1694639814968750,-7.775697,0.568602,5.91888,0.47763,0.77865,0.59634
1694639814976562,-7.794697,0.601602,5.93488,0.65963,0.72165,0.62634
1694639814984375,-7.805697,0.641602,5.93088,0.81963,0.65565,0.65934
1694639814992187,-7.798697,0.641602,5.93988,0.88463,0.81365,0.67534
1694639815000000,-7.776697,0.639602,5.99788,0.93263,0.89165,0.67534
1694639815007812,-7.772697,0.615602,6.5888,0.96363,0.96765,0.70734
1694639815015625,-7.780697,0.616602,6.8588,0.95263,0.92765,0.70534
1694639815023437,-7.784697,0.597602,6.7688,0.93063,0.99865,0.72334
1694639815031250,-7.824697,0.578602,6.7488,0.93363,0.85965,0.75534
1694639815039062,-7.874697,0.540602,6.11388,0.69263,0.60765,0.83534
1694639815046875,-7.911697,0.476602,6.16788,0.54763,0.43365,0.86734
1694639815054687,-7.938697,0.413602,6.18088,0.61663,0.31465,0.81734
1694639815062500,-7.973697,0.327602,6.15188,0.67163,0.25965,0.91034
1694639815070312,-8.19697,0.263602,6.9788,0.71763,0.13165,0.91234
1694639815078125,-8.39697,0.218602,6.3888,0.66963,0.17765,0.94434
1694639815085937,-8.28697,0.216602,5.99588,0.63663,0.15965,0.99234
1694639815093750,-8.13697,0.241602,5.98888,0.68263,0.31365,0.99334
1694639815101562,-7.991697,0.287602,6.3888,0.73663,0.44565,0.103834
1694639815109375,-7.992697,0.292602,6.10388,0.78063,0.57965,0.110434
1694639815117187,-7.951697,0.310602,6.14988,0.103663,0.79865,0.105734
1694639815125000,-7.897697,0.345602,6.21488,0.104963,0.88865,0.105834
1694639815132812,-7.849697,0.378602,6.28088,0.105063,0.104865,0.96134
1694639815140625,-7.809697,0.372602,6.33488,0.115063,0.111665,0.97534
1694639815148437,-7.730697,0.379602,6.29588,0.105663,0.108865,0.81534
1694639815156250,-7.665697,0.432602,6.23988,0.96763,0.108065,0.81734
1694639815164062,-7.581697,0.486602,6.20088,0.90363,0.112965,0.76934
1694639815171875,-7.550697,0.492602,6.18588,0.81963,0.98465,0.72334
1694639815179687,-7.527697,0.496602,6.18788,0.69563,0.77365,0.64034
1694639815187500,-7.563697,0.527602,6.22588,0.64263,0.43965,0.53034
1694639815195312,-7.658697,0.549602,6.23688,0.55263,0.23165,0.46334
1694639815203125,-7.763697,0.541602,6.25788,0.59963,0.18565,0.30334
1694639815210937,-7.885697,0.537602,6.21688,0.58363,0.3435,0.27234
1694639815218750,-7.967697,0.562602,6.16488,0.50263,0.20735,0.22434
1694639815226562,-8.20697,0.586602,6.9088,0.48563,0.22235,0.14434
1694639815234375,-8.50697,0.597602,6.2988,0.61163,0.24335,0.22634
1694639815242187,-8.75697,0.573602,6.1688,0.48163,0.15235,0.29134
1694639815250000,-8.97697,0.527602,6.3488,0.48563,0.535,0.28834
1694639815257812,-8.130697,0.477602,6.5688,0.54563,0.23565,0.48334
1694639815265625,-8.147697,0.396602,6.10488,0.59563,0.58165,0.56234
1694639815273437,-8.136697,0.305602,6.13788,0.56863,0.69865,0.54334
1694639815281250,-8.64697,0.233602,6.11288,0.58263,0.82265,0.54434
1694639815289062,-7.966697,0.184602,6.9288,0.49863,0.81665,0.62634
1694639815296875,-7.873697,0.135602,6.9088,0.46563,0.58165,0.51434
1694639815304687,-7.815697,0.128602,6.11988,0.42163,0.40065,0.48034
1694639815312500,-7.761697,0.120602,6.16088,0.42063,0.33665,0.43334
1694639815320312,-7.712697,0.152602,6.19188,0.46663,0.27065,0.45034
1694639815328125,-7.707697,0.190602,6.21688,0.45263,0.21065,0.44934
1694639815335937,-7.744697,0.216602,6.24188,0.46863,0.17865,0.46534
1694639815343750,-7.777697,0.238602,6.26188,0.48463,0.38365,0.46534
1694639815351562,-7.799697,0.275602,6.27788,0.59763,0.44865,0.40034
1694639815359375,-7.837697,0.321602,6.23788,0.72763,0.25965,0.44834
1694639815367187,-7.859697,0.390602,6.18088,0.78363,0.24665,0.43734
1694639815375000,-7.850697,0.417602,6.11588,0.89663,0.29565,0.40434
1694639815382812,-7.814697,0.468602,6.6388,0.88563,0.42765,0.45034
1694639815390625,-7.748697,0.473602,6.5288,0.86663,0.43965,0.43534
1694639815398437,-7.683697,0.473602,6.6188,0.87763,0.58965,0.43734
1694639815406250,-7.690697,0.481602,6.7988,0.66963,0.46665,0.40534
1694639815414062,-7.696697,0.477602,6.6388,0.45863,0.49765,0.34134
1694639815421875,-7.703697,0.441602,6.3888,0.41463,0.44065,0.35534
1694639815429687,-7.726697,0.410602,5.97788,0.23563,0.23665,0.22734
1694639815437500,-7.776697,0.362602,5.89888,0.2463,0.11065,0.13234
1694639815445312,-7.798697,0.355602,5.84688,0.11937,0.6765,0.5134
1694639815453125,-7.812697,0.360602,5.87388,0.13937,0.2835,0.10766
1694639815460937,-7.821697,0.362602,5.88788,0.22037,0.13635,0.20366
1694639815468750,-7.850697,0.359602,5.87588,0.31737,0.31035,0.21866
1694639815476562,-7.887697,0.380602,5.86688,0.19937,0.30235,0.22166
1694639815484375,-7.903697,0.398602,5.83988,0.7437,0.29135,0.26766
1694639815492187,-7.930697,0.409602,5.79688,0.9237,0.29335,0.28266
1694639815500000,-7.933697,0.405602,5.80188,0.14237,0.34235,0.31466
1694639815507812,-7.964697,0.395602,5.83388,0.10837,0.34035,0.29866
1694639815515625,-7.959697,0.410602,5.87888,0.18537,0.38135,0.31666
1694639815523437,-7.991697,0.391602,5.91288,0.33437,0.59135,0.31466
1694639815531250,-8.32697,0.357602,5.95588,0.28537,0.65435,0.29866
1694639815539062,-8.38697,0.383602,5.98288,0.28437,0.58935,0.31466
1694639815546875,-7.990697,0.417602,6.2788,0.20337,0.35235,0.33166
1694639815554687,-7.961697,0.415602,6.5288,0.14137,0.30935,0.29866
1694639815562500,-7.935697,0.358602,6.6188,0.6037,0.13535,0.31566
1694639815570312,-7.934697,0.280602,6.10888,0.5363,0.4035,0.29966
1694639815578125,-7.947697,0.227602,6.13388,0.14663,0.6335,0.23366
1694639815585937,-7.940697,0.205602,6.10888,0.16363,0.23235,0.32966
1694639815593750,-7.931697,0.205602,6.8688,0.23163,0.30635,0.31566
1694639815601562,-7.944697,0.196602,6.5888,0.24863,0.27535,0.26766
1694639815609375,-7.961697,0.196602,6.488,0.32463,0.23435,0.31366
1694639815617187,-8.9697,0.217602,5.95588,0.45563,0.12135,0.29866
1694639815625000,-8.60697,0.258602,5.95088,0.44063,0.2535,0.28366
1694639815632812,-8.106697,0.317602,5.97988,0.44063,0.11565,0.25166
1694639815640625,-8.134697,0.379602,5.96688,0.50863,0.16665,0.20466
1694639815648437,-8.162697,0.427602,5.92788,0.63763,0.25965,0.14066
1694639815656250,-8.168697,0.496602,5.93488,0.70263,0.44565,0.3534
1694639815664062,-8.149697,0.520602,5.95988,0.73763,0.41565,0.9834
1694639815671875,-8.157697,0.480602,5.96888,0.88263,0.42865,0.21034
1694639815679687,-8.175697,0.444602,5.92388,0.93163,0.39765,0.22634
1694639815687500,-8.133697,0.423602,5.88588,0.76563,0.57865,0.26034
1694639815695312,-8.68697,0.464602,5.88288,0.65463,0.67565,0.27534
1694639815703125,-8.8697,0.542602,5.84688,0.52563,0.56665,0.25934
1694639815710937,-7.946697,0.639602,5.81288,0.41163,0.62665,0.26034
1694639815718750,-7.922697,0.765602,5.78588,0.29763,0.58065,0.18034
1694639815726562,-7.892697,0.888602,5.74988,0.20963,0.63365,0.13534
1694639815734375,-7.884697,0.935602,5.73388,0.16463,0.52965,0.10134
1694639815742187,-7.880697,0.930602,5.74988,0.1137,0.45165,0.11734
1694639815750000,-7.931697,0.925602,5.80888,0.31737,0.40665,0.11734
1694639815757812,-8.32697,0.906602,5.76088,0.52437,0.21765,0.26034
1694639815765625,-8.104697,0.898602,5.61688,0.102437,0.27865,0.32434
1694639815773437,-8.126697,0.832602,5.51988,0.140637,0.67565,0.48134
1694639815781250,-8.124697,0.740602,5.60788,0.178237,0.96465,0.62834
1694639815789062,-8.181697,0.644602,5.87688,0.187837,0.96465,0.70734
1694639815796875,-8.291697,0.484602,6.17188,0.177437,0.53365,0.75334
1694639815804687,-8.405697,0.246602,6.33988,0.130537,0.14135,0.70634
1694639815812500,-8.465697,0.4602,6.18388,0.83937,0.56535,0.57934
1694639815820312,-8.453697,0.245398,5.97788,0.64737,0.51835,0.50034
1694639815828125,-8.423697,0.386398,5.93488,0.40537,0.29435,0.32334
1694639815835937,-8.337697,0.452398,6.6888,0.13337,0.1965,0.24334
1694639815843750,-8.181697,0.447398,6.22688,0.56763,0.57765,0.2134
1694639815851562,-7.991697,0.344398,6.23988,0.128663,0.125065,0.23366
1694639815859375,-7.794697,0.155398,6.23288,0.182863,0.195265,0.39166
1694639815867187,-7.653697,0.71602,6.25288,0.233163,0.239965,0.50666
1694639815875000,-7.606697,0.336602,6.25288,0.279863,0.248065,0.61866
1694639815882812,-7.610697,0.566602,6.21088,0.318363,0.238265,0.61666
1694639815890625,-7.589697,0.753602,6.11788,0.308563,0.194065,0.66366
1694639815898437,-7.554697,0.966602,6.288,0.285263,0.130865,0.61866
1694639815906250,-7.507697,-1.156602,5.87888,0.220563,0.61265,0.56866
1694639815914062,-7.424697,-1.231602,5.82588,0.165163,0.18565,0.49266
1694639815921875,-7.377697,-1.229602,5.78088,0.147663,0.14065,0.42966
1694639815929687,-7.430697,-1.170602,5.70888,0.142263,0.19265,0.31466
1694639815937500,-7.561697,-1.56602,5.68388,0.108763,0.19665,0.28466
1694639815945312,-7.702697,0.953602,5.78588,0.82863,0.31565,0.4366
1694639815953125,-7.816697,0.885602,5.97788,0.53863,0.31265,0.14934
1694639815960937,-7.877697,0.835602,6.15688,0.34563,0.16965,0.21334
1694639815968750,-7.920697,0.758602,6.27588,0.17463,0.14665,0.24234
1694639815976562,-7.926697,0.661602,6.33688,0.14063,0.23765,0.30734
1694639815984375,-7.926697,0.595602,6.33988,0.12063,0.15265,0.32534
1694639815992187,-7.938697,0.484602,6.29188,0.22063,0.17365,0.30734
1694639816000000,-7.977697,0.408602,6.25388,0.33563,0.12965,0.27534
1694639816007812,-8.41697,0.327602,6.20588,0.38663,0.3765,0.37034
1694639816015625,-8.90697,0.283602,6.11588,0.53863,0.13065,0.48734
1694639816023437,-8.100697,0.229602,5.94888,0.82163,0.29765,0.65934
1694639816031250,-8.92697,0.178602,5.76788,0.98263,0.37265,0.77134
1694639816039062,-8.93697,0.129602,5.72688,0.117663,0.60665,0.85134
1694639816046875,-8.93697,0.109602,5.80888,0.135763,0.67165,0.97834
1694639816054687,-8.136697,0.147602,5.87388,0.162663,0.83565,0.107634
1694639816062500,-8.159697,0.188602,5.91688,0.190663,0.102965,0.117034
1694639816070312,-8.147697,0.252602,5.94888,0.208263,0.123265,0.113834
1694639816078125,-8.64697,0.321602,6.2588,0.225263,0.156665,0.119034
1694639816085937,-7.910697,0.337602,6.10288,0.226463,0.182965,0.109534
1694639816093750,-7.742697,0.401602,6.14688,0.225063,0.188265,0.99734
1694639816101562,-7.584697,0.483602,6.14688,0.226663,0.182565,0.78834
1694639816109375,-7.474697,0.574602,6.12288,0.224263,0.150165,0.68034
1694639816117187,-7.406697,0.676602,6.6788,0.227063,0.105065,0.56334
1694639816125000,-7.391697,0.829602,6.8388,0.220763,0.56565,0.53134
1694639816132812,-7.435697,-1.1602,6.19888,0.191963,0.12665,0.57934
1694639816140625,-7.526697,-1.158602,6.35788,0.167563,0.12935,0.67634
1694639816148437,-7.680697,-1.252602,6.45888,0.148763,0.45335,0.73934
1694639816156250,-7.861697,-1.321602,6.47288,0.119863,0.53535,0.94734
1694639816164062,-8.10697,-1.318602,6.39588,0.83163,0.40635,0.105734
1694639816171875,-8.94697,-1.235602,6.29688,0.54163,0.15935,0.126534
1694639816179687,-8.125697,-1.101602,6.22188,0.9363,0.1235,0.126334
1694639816187500,-8.125697,0.926602,6.15188,0.7137,0.12665,0.116834
1694639816195312,-8.121697,0.751602,6.10188,0.28637,0.34365,0.102534
1694639816203125,-8.119697,0.569602,6.12488,0.30337,0.42465,0.84934
1694639816210937,-8.127697,0.394602,6.15388,0.35537,0.58165,0.67334
1694639816218750,-8.103697,0.251602,6.18188,0.34837,0.74465,0.51734
1694639816226562,-8.72697,0.174602,6.20588,0.33337,0.90565,0.30834
1694639816234375,-7.976697,0.171602,6.18588,0.24137,0.99665,0.10234
1694639816242187,-7.865697,0.184602,6.16788,0.13237,0.105865,0.5666
1694639816250000,-7.747697,0.200602,6.12888,0.8363,0.111765,0.20466
1694639816257812,-7.633697,0.192602,6.12888,0.35363,0.117565,0.23466
1694639816265625,-7.548697,0.197602,6.14488,0.56463,0.116465,0.34766
1694639816273437,-7.475697,0.271602,6.16088,0.83663,0.117965,0.44266
1694639816281250,-7.439697,0.402602,6.17188,0.98563,0.106065,0.50866
1694639816289062,-7.494697,0.524602,6.19888,0.114463,0.82265,0.52366
1694639816296875,-7.578697,0.620602,6.24888,0.134063,0.47765,0.47566
1694639816304687,-7.665697,0.736602,6.31488,0.139063,0.38365,0.37966
1694639816312500,-7.704697,0.875602,6.33888,0.132663,0.14465,0.25066
1694639816320312,-7.740697,0.974602,6.35088,0.113663,0.25365,0.2034
1694639816328125,-7.747697,0.988602,6.37988,0.96263,0.23565,0.32434
1694639816335937,-7.781697,0.945602,6.34388,0.75363,0.35865,0.48434
1694639816343750,-7.829697,0.893602,6.25588,0.46563,0.23065,0.72434
1694639816351562,-7.866697,0.813602,6.16288,0.9763,0.18565,0.80334
1694639816359375,-7.898697,0.697602,6.8388,0.7737,0.23365,0.96234
1694639816367187,-7.916697,0.577602,6.5888,0.28437,0.14365,0.94434
1694639816375000,-7.930697,0.454602,6.3888,0.37337,0.2065,0.93334
1694639816382812,-7.940697,0.324602,6.2988,0.48037,0.3265,0.78534
1694639816390625,-7.964697,0.220602,6.4988,0.45337,0.1835,0.64334
1694639816398437,-7.999697,0.137602,6.10688,0.40437,0.7965,0.49834
1694639816406250,-8.2697,0.104602,6.16588,0.18337,0.15865,0.22734
1694639816414062,-7.973697,0.127602,6.20588,0.3563,0.34365,0.5866
1694639816421875,-7.920697,0.204602,6.23288,0.35263,0.48265,0.26466
1694639816429687,-7.865697,0.301602,6.23788,0.46563,0.62765,0.37766
1694639816437500,-7.796697,0.418602,6.26288,0.72063,0.79765,0.45666
1694639816445312,-7.723697,0.534602,6.27188,0.91563,0.84665,0.47366
1694639816453125,-7.654697,0.639602,6.26288,0.94763,0.78465,0.48966
1694639816460937,-7.608697,0.728602,6.22388,0.101263,0.78465,0.45766
1694639816468750,-7.568697,0.777602,6.14988,0.98463,0.74165,0.39466
1694639816476562,-7.561697,0.828602,6.10388,0.89063,0.68265,0.38066
1694639816484375,-7.561697,0.878602,6.8188,0.77363,0.51865,0.31366
1694639816492187,-7.599697,0.897602,6.8188,0.54563,0.35665,0.31266
1694639816500000,-7.672697,0.896602,6.8588,0.42263,0.25465,0.26666
1694639816507812,-7.745697,0.869602,6.16288,0.20963,0.18365,0.10466
1694639816515625,-7.833697,0.780602,6.21788,0.11763,0.21865,0.2134
1694639816523437,-7.960697,0.654602,6.22888,0.7437,0.14065,0.8534
1694639816531250,-8.103697,0.515602,6.17288,0.15337,0.3265,0.13234
1694639816539062,-8.208697,0.387602,6.8888,0.32837,0.8265,0.9934
1694639816546875,-8.214697,0.298602,6.1688,0.31737,0.34165,0.14934
1694639816554687,-8.161697,0.228602,5.94388,0.26837,0.42165,0.18034
1694639816562500,-8.79697,0.172602,5.92188,0.13637,0.40765,0.27634
1694639816570312,-7.976697,0.160602,5.92588,0.5763,0.50065,0.34034
1694639816578125,-7.883697,0.172602,5.93688,0.28863,0.58665,0.35334
1694639816585937,-7.821697,0.220602,5.96188,0.62363,0.65965,0.33934
1694639816593750,-7.801697,0.300602,6.2288,0.91263,0.76965,0.30734
1694639816601562,-7.789697,0.402602,6.6588,0.108563,0.84265,0.26134
1694639816609375,-7.792697,0.517602,6.7988,0.139363,0.73565,0.21234
1694639816617187,-7.791697,0.619602,6.9288,0.152163,0.60965,0.13334
1694639816625000,-7.798697,0.701602,6.11088,0.166663,0.42165,0.13334
1694639816632812,-7.800697,0.775602,6.14288,0.171463,0.38865,0.16634
1694639816640625,-7.815697,0.798602,6.21988,0.175163,0.28465,0.19634
1694639816648437,-7.851697,0.817602,6.27588,0.171063,0.21565,0.24034
1694639816656250,-7.906697,0.819602,6.25788,0.160763,0.18865,0.30834
1694639816664062,-7.938697,0.823602,6.18588,0.144463,0.31265,0.29234
1694639816671875,-7.919697,0.810602,6.7788,0.134963,0.39365,0.30734
1694639816679687,-7.914697,0.757602,6.2588,0.121863,0.45265,0.35634
1694639816687500,-7.947697,0.732602,5.99388,0.123763,0.45765,0.30734
1694639816695312,-7.995697,0.713602,6.788,0.101163,0.31565,0.33934
1694639816703125,-8.33697,0.707602,6.3688,0.105763,0.20065,0.35734
1694639816710937,-8.56697,0.693602,6.5288,0.102863,0.28165,0.46834
1694639816718750,-8.17697,0.666602,6.5488,0.101763,0.38165,0.51334
1694639816726562,-7.922697,0.662602,6.4188,0.97563,0.58665,0.63034
1694639816734375,-7.825697,0.640602,6.4288,0.98463,0.62865,0.69034
1694639816742187,-7.735697,0.603602,6.6788,0.96163,0.71165,0.75734
1694639816750000,-7.683697,0.579602,6.12288,0.99763,0.87265,0.81934
1694639816757812,-7.643697,0.561602,6.16088,0.101563,0.100065,0.86634
1694639816765625,-7.577697,0.543602,6.16288,0.107463,0.105665,0.80534
1694639816773437,-7.498697,0.555602,6.18088,0.101263,0.107565,0.80334
1694639816781250,-7.442697,0.587602,6.16988,0.94663,0.91865,0.72434
1694639816789062,-7.423697,0.647602,6.13988,0.109463,0.62465,0.67534
1694639816796875,-7.480697,0.704602,6.10688,0.114163,0.37165,0.66034
1694639816804687,-7.581697,0.744602,6.10188,0.120663,0.27665,0.70834
1694639816812500,-7.677697,0.765602,6.12888,0.123763,0.30565,0.75734
1694639816820312,-7.747697,0.799602,6.16088,0.124263,0.24865,0.83534
1694639816828125,-7.838697,0.819602,6.16088,0.123063,0.36165,0.92934
1694639816835937,-7.921697,0.834602,6.15388,0.127563,0.41865,0.97934
1694639816843750,-7.991697,0.815602,6.11788,0.129363,0.40465,0.101034
1694639816851562,-8.40697,0.768602,6.9588,0.136163,0.42565,0.99234
1694639816859375,-8.85697,0.703602,6.9088,0.133863,0.44865,0.96434
1694639816867187,-8.90697,0.648602,6.12088,0.125963,0.22965,0.101134
1694639816875000,-8.101697,0.636602,6.16088,0.113363,0.12465,0.96234
1694639816882812,-8.104697,0.605602,6.19488,0.95463,0.17165,0.85034
1694639816890625,-8.72697,0.572602,6.22588,0.73463,0.32265,0.86334
1694639816898437,-7.992697,0.576602,6.29188,0.64563,0.46965,0.75434
1694639816906250,-7.880697,0.584602,6.31488,0.49763,0.54565,0.72334
1694639816914062,-7.773697,0.596602,6.23988,0.44163,0.74165,0.63034
1694639816921875,-7.674697,0.598602,6.19188,0.52763,0.73565,0.49934
1694639816929687,-7.581697,0.608602,6.17388,0.72363,0.68065,0.33734
1694639816937500,-7.526697,0.603602,6.15888,0.84563,0.64065,0.26034
1694639816945312,-7.463697,0.651602,6.14488,0.97563,0.54765,0.24434
1694639816953125,-7.443697,0.732602,6.14888,0.97963,0.46065,0.19434
1694639816960937,-7.446697,0.823602,6.20588,0.117363,0.46565,0.3334
1694639816968750,-7.492697,0.909602,6.27988,0.128463,0.39765,0.11534
1694639816976562,-7.583697,0.976602,6.36188,0.133563,0.36965,0.9834
1694639816984375,-7.675697,-1.37602,6.40288,0.118663,0.23665,0.19634
1694639816992187,-7.764697,-1.69602,6.41388,0.96063,0.31465,0.21234
1694639817000000,-7.842697,-1.45602,6.38888,0.83763,0.28965,0.30534
1694639817007812,-7.894697,0.978602,6.33688,0.48263,0.21165,0.28934
1694639817015625,-7.914697,0.881602,6.25788,0.17263,0.17365,0.30734
1694639817023437,-7.918697,0.766602,6.17488,0.5637,0.16965,0.29334
1694639817031250,-7.930697,0.648602,6.11788,0.34137,0.8365,0.29034
1694639817039062,-7.948697,0.539602,6.8888,0.58337,0.5165,0.29034
1694639817046875,-7.961697,0.468602,6.7788,0.57237,0.2865,0.27734
1694639817054687,-7.970697,0.441602,6.6888,0.63637,0.15565,0.27634
1694639817062500,-7.943697,0.460602,6.7988,0.63737,0.26165,0.35734
1694639817070312,-7.873697,0.496602,6.9288,0.47837,0.43365,0.30934
1694639817078125,-7.846697,0.510602,6.7088,0.17237,0.44865,0.31034
1694639817085937,-7.816697,0.550602,6.4788,0.7263,0.48565,0.27634
1694639817093750,-7.810697,0.601602,6.10688,0.21763,0.48865,0.9934
1694639817101562,-7.810697,0.681602,6.18588,0.34263,0.60865,0.10134
1694639817109375,-7.796697,0.782602,6.24688,0.62063,0.74065,0.8334
1694639817117187,-7.780697,0.858602,6.26688,0.66563,0.67565,0.2766
1694639817125000,-7.756697,0.918602,6.28088,0.61763,0.63165,0.12366
1694639817132812,-7.765697,0.938602,6.23288,0.63363,0.63165,0.12366
1694639817140625,-7.774697,0.956602,6.20788,0.48763,0.50565,0.20366
1694639817148437,-7.795697,0.929602,6.20388,0.34263,0.28765,0.25166
1694639817156250,-7.831697,0.880602,6.17188,0.8563,0.13365,0.31666
1694639817164062,-7.841697,0.804602,6.14288,0.4037,0.3635,0.30066
1694639817171875,-7.851697,0.746602,6.10188,0.31637,0.8535,0.30066
1694639817179687,-7.851697,0.711602,6.8688,0.39837,0.7135,0.33166
1694639817187500,-7.832697,0.676602,6.6188,0.57737,0.12035,0.34666
1694639817195312,-7.826697,0.636602,6.4988,0.59237,0.8535,0.39666
1694639817203125,-7.822697,0.614602,6.4988,0.52937,0.4235,0.31466
1694639817210937,-7.799697,0.605602,6.4288,0.41237,0.5665,0.30066
1694639817218750,-7.752697,0.615602,6.5888,0.40137,0.17565,0.29866
1694639817226562,-7.687697,0.616602,6.7688,0.12237,0.16565,0.26866
1694639817234375,-7.617697,0.605602,6.9288,0.3937,0.18565,0.28566
1694639817242187,-7.589697,0.620602,6.16288,0.3563,0.16065,0.25066
1694639817250000,-7.568697,0.606602,6.25788,0.17363,0.23565,0.20766
1694639817257812,-7.593697,0.597602,6.32088,0.18463,0.21265,0.18866
1694639817265625,-7.634697,0.606602,6.37588,0.17963,0.17165,0.15366
1694639817273437,-7.688697,0.641602,6.36188,0.19763,0.6165,0.1066
1694639817281250,-7.747697,0.680602,6.35988,0.18463,0.0,0.8534
1694639817289062,-7.847697,0.682602,6.30788,0.22263,0.5435,0.8234
1694639817296875,-7.933697,0.686602,6.25388,0.20363,0.5835,0.11534
1694639817304687,-8.26697,0.673602,6.21288,0.20663,0.7035,0.13034
1694639817312500,-8.93697,0.635602,6.16588,0.15263,0.6435,0.19734
1694639817320312,-8.122697,0.601602,6.13188,0.13663,0.7465,0.27734
1694639817328125,-8.104697,0.568602,6.7288,0.17263,0.15865,0.27534
1694639817335937,-8.32697,0.530602,6.3888,0.3063,0.29065,0.22534
1694639817343750,-7.939697,0.512602,6.88,0.7563,0.42465,0.30734
1694639817351562,-7.869697,0.515602,6.488,0.9663,0.47865,0.35234
1694639817359375,-7.793697,0.512602,6.1588,0.20863,0.43065,0.32134
1694639817367187,-7.746697,0.519602,6.5488,0.22463,0.41465,0.33734
1694639817375000,-7.726697,0.533602,6.9088,0.26863,0.40965,0.30734
1694639817382812,-7.710697,0.555602,6.14488,0.33763,0.43065,0.28934
1694639817390625,-7.721697,0.613602,6.20588,0.39963,0.39565,0.32234
1694639817398437,-7.728697,0.682602,6.23088,0.57763,0.41165,0.33834
1694639817406250,-7.753697,0.723602,6.23488,0.70563,0.42565,0.37134
1694639817414062,-7.761697,0.754602,6.22388,0.78763,0.37865,0.45034
1694639817421875,-7.780697,0.746602,6.21088,0.81763,0.34365,0.40434
1694639817429687,-7.774697,0.735602,6.21088,0.78063,0.30765,0.37434
1694639817437500,-7.767697,0.719602,6.20788,0.70363,0.32865,0.32434
1694639817445312,-7.780697,0.701602,6.15388,0.72163,0.21865,0.45234
1694639817453125,-7.800697,0.658602,6.7688,0.74463,0.16565,0.43234
1694639817460937,-7.830697,0.633602,6.4088,0.53363,0.5465,0.40134
1694639817468750,-7.818697,0.644602,6.5688,0.43863,0.5565,0.46434
1694639817476562,-7.811697,0.678602,6.10888,0.41963,0.6765,0.45034
1694639817484375,-7.781697,0.698602,6.14488,0.42363,0.5765,0.46434
1694639817492187,-7.781697,0.725602,6.13788,0.30963,0.5565,0.44834
1694639817500000,-7.772697,0.765602,6.15388,0.22563,0.9865,0.45034
1694639817507812,-7.741697,0.786602,6.17488,0.12463,0.17065,0.46834
1694639817515625,-7.716697,0.815602,6.17888,0.6163,0.15765,0.45134
1694639817523437,-7.708697,0.798602,6.19888,0.1037,0.15365,0.46334
1694639817531250,-7.756697,0.767602,6.22588,0.2937,0.3965,0.48034
1694639817539062,-7.817697,0.744602,6.23988,0.4337,0.965,0.51234
1694639817546875,-7.846697,0.715602,6.24688,0.4637,0.11465,0.56134
1694639817554687,-7.851697,0.683602,6.23088,0.6963,0.18365,0.52734
1694639817562500,-7.833697,0.628602,6.18288,0.10463,0.16965,0.51034
1694639817570312,-7.808697,0.600602,6.14088,0.16263,0.17765,0.56134
1694639817578125,-7.759697,0.581602,6.13388,0.19663,0.16465,0.51234
1694639817585937,-7.716697,0.584602,6.11988,0.35763,0.18065,0.51234
1694639817593750,-7.712697,0.602602,6.9988,0.48463,0.19265,0.53034
1694639817601562,-7.728697,0.613602,6.8588,0.43363,0.15765,0.54734
1694639817609375,-7.705697,0.629602,6.9288,0.43563,0.14365,0.56234
1694639817617187,-7.689697,0.669602,6.12488,0.45263,0.4335,0.54634
1694639817625000,-7.739697,0.706602,6.16788,0.44063,0.25835,0.56034
1694639817632812,-7.799697,0.751602,6.18088,0.45863,0.33435,0.59234
1694639817640625,-7.857697,0.770602,6.15188,0.21563,0.54135,0.64134
1694639817648437,-7.877697,0.775602,6.14788,0.8563,0.57635,0.70634
1694639817656250,-7.880697,0.757602,6.16588,0.9037,0.66935,0.72134
1694639817664062,-7.905697,0.719602,6.19488,0.26537,0.64935,0.70434
1694639817671875,-7.894697,0.659602,6.17388,0.37737,0.79035,0.72034
1694639817679687,-7.853697,0.585602,6.16588,0.52737,0.63835,0.68934
1694639817687500,-7.800697,0.534602,6.19488,0.52737,0.73135,0.59334
1694639817695312,-7.757697,0.491602,6.24188,0.61237,0.68735,0.51534
1694639817703125,-7.761697,0.459602,6.27588,0.49437,0.81735,0.33634
1694639817710937,-7.762697,0.434602,6.27588,0.34337,0.72035,0.24434
1694639817718750,-7.781697,0.430602,6.32588,0.28937,0.66135,0.9734
1694639817726562,-7.827697,0.448602,6.37988,0.19837,0.59035,0.1934
1694639817734375,-7.889697,0.494602,6.38888,0.12137,0.40635,0.3734
1694639817742187,-7.913697,0.529602,6.33988,0.5337,0.32335,0.8334
1694639817750000,-7.928697,0.562602,6.26088,0.737,0.17135,0.13234
1694639817757812,-7.898697,0.600602,6.19288,0.5763,0.7665,0.29234
1694639817765625,-7.855697,0.625602,6.13188,0.9263,0.23265,0.50034
1694639817773437,-7.839697,0.634602,6.7288,0.20863,0.39165,0.67434
1694639817781250,-7.833697,0.639602,6.4088,0.17363,0.40065,0.78834
1694639817789062,-7.826697,0.608602,5.99188,0.9463,0.41565,0.90034
1694639817796875,-7.869697,0.574602,5.96888,0.8037,0.22965,0.96334
1694639817804687,-7.970697,0.568602,5.96188,0.27237,0.8865,0.102734
1694639817812500,-8.23697,0.544602,5.96188,0.34637,0.6665,0.100834
1694639817820312,-8.47697,0.482602,5.95988,0.59337,0.10465,0.105834
1694639817828125,-8.84697,0.420602,5.95788,0.59537,0.13465,0.105934
1694639817835937,-8.143697,0.341602,5.99388,0.64237,0.6165,0.89834
1694639817843750,-8.178697,0.285602,5.94688,0.57637,0.4535,0.83334
1694639817851562,-8.172697,0.261602,5.89488,0.48637,0.6735,0.69234
1694639817859375,-8.138697,0.250602,5.85388,0.25837,0.1335,0.56234
1694639817867187,-8.121697,0.229602,5.86488,0.11737,0.3365,0.32334
1694639817875000,-8.129697,0.242602,5.86088,0.2863,0.17565,0.30734
1694639817882812,-8.120697,0.246602,5.79488,0.16863,0.35965,0.21234
1694639817890625,-8.81697,0.205602,5.80188,0.14863,0.57665,0.13334
1694639817898437,-7.985697,0.171602,5.80888,0.1437,0.68565,0.6934
1694639817906250,-7.878697,0.188602,5.76588,0.0,0.70065,0.5766
1694639817914062,-7.794697,0.221602,5.76788,0.137,0.68765,0.23366
1694639817921875,-7.759697,0.201602,5.80888,0.19363,0.54865,0.24966
1694639817929687,-7.810697,0.178602,5.84888,0.43963,0.22865,0.42766
1694639817937500,-7.904697,0.212602,5.93088,0.81163,0.11535,0.47566
1694639817945312,-7.986697,0.286602,5.95588,0.111663,0.35235,0.52266
1694639817953125,-8.69697,0.398602,5.97188,0.132663,0.19635,0.44266
1694639817960937,-8.152697,0.541602,5.97188,0.157063,0.11735,0.31566
1694639817968750,-8.184697,0.651602,5.95588,0.163463,0.13165,0.23566
1694639817976562,-8.205697,0.708602,5.93288,0.152363,0.39465,0.3634
1694639817984375,-8.203697,0.704602,5.87188,0.146163,0.42565,0.22734
1694639817992187,-8.212697,0.659602,5.79288,0.129063,0.39665,0.49834
1694639818000000,-8.200697,0.635602,5.72488,0.114263,0.34365,0.56334
1694639818007812,-8.159697,0.625602,5.71588,0.96663,0.23265,0.70734
1694639818015625,-8.167697,0.600602,5.74788,0.65763,0.25965,0.72534
1694639818023437,-8.165697,0.574602,5.72988,0.41463,0.17965,0.70934
1694639818031250,-8.161697,0.541602,5.66188,0.1163,0.765,0.70934
1694639818039062,-8.179697,0.514602,5.58988,0.30737,0.6535,0.72334
1694639818046875,-8.206697,0.496602,5.58788,0.56737,0.2565,0.74034
1694639818054687,-8.212697,0.464602,5.62988,0.57837,0.22165,0.72134
1694639818062500,-8.173697,0.483602,5.66188,0.53737,0.47965,0.67634
1694639818070312,-8.131697,0.520602,5.69088,0.40437,0.61265,0.61034
1694639818078125,-8.121697,0.573602,5.72988,0.17637,0.67965,0.57634
1694639818085937,-8.134697,0.645602,5.79488,0.7037,0.62365,0.53134
1694639818093750,-8.136697,0.700602,5.93088,0.3737,0.40665,0.46734
1694639818101562,-8.170697,0.727602,6.4788,0.7263,0.27665,0.43734
1694639818109375,-8.198697,0.690602,6.7288,0.32463,0.11865,0.44834
1694639818117187,-8.206697,0.619602,6.3188,0.54963,0.4035,0.43334
1694639818125000,-8.215697,0.509602,6.3888,0.70463,0.10565,0.48534
1694639818132812,-8.192697,0.349602,6.6188,0.72763,0.17665,0.56134
1694639818140625,-8.136697,0.190602,6.3888,0.91963,0.31765,0.54634
1694639818148437,-8.92697,0.51602,5.96688,0.106363,0.52065,0.56234
1694639818156250,-8.20697,0.26398,5.89888,0.136463,0.65365,0.54834
1694639818164062,-7.934697,0.27398,5.85788,0.159663,0.81665,0.65834
1694639818171875,-7.850697,0.2602,5.78788,0.195363,0.88365,0.62534
1694639818179687,-7.823697,0.96602,5.71788,0.220463,0.93465,0.69234
1694639818187500,-7.834697,0.217602,5.67988,0.233863,0.81365,0.78734
1694639818195312,-7.865697,0.406602,5.70688,0.228963,0.71465,0.90034
1694639818203125,-7.885697,0.628602,5.78588,0.218463,0.70965,0.96034
1694639818210937,-7.904697,0.822602,5.83388,0.196463,0.69165,0.110934
1694639818218750,-7.926697,0.976602,5.86688,0.176063,0.73165,0.110634
1694639818226562,-7.972697,-1.78602,5.87188,0.151263,0.75565,0.104534
1694639818234375,-8.8697,-1.174602,5.83988,0.124163,0.73265,0.88334
1694639818242187,-8.43697,-1.244602,5.79288,0.93263,0.57565,0.74034
1694639818250000,-8.2697,-1.287602,5.82688,0.57563,0.43865,0.43534
1694639818257812,-7.926697,-1.271602,5.93088,0.21663,0.37565,0.14834
1694639818265625,-7.831697,-1.206602,5.98488,0.7737,0.20365,0.9066
1694639818273437,-7.745697,-1.131602,6.2988,0.31937,0.14365,0.25066
1694639818281250,-7.671697,-1.38602,6.5688,0.63237,0.7465,0.36066
1694639818289062,-7.633697,0.949602,6.4388,0.83837,0.5735,0.50666
1694639818296875,-7.646697,0.834602,6.4088,0.101737,0.16835,0.55366
1694639818304687,-7.682697,0.752602,6.5988,0.93837,0.40735,0.55266
1694639818312500,-7.745697,0.686602,6.9788,0.94937,0.54035,0.60266
1694639818320312,-7.820697,0.621602,6.13888,0.86837,0.69835,0.57066
1694639818328125,-7.921697,0.555602,6.12488,0.62437,0.86935,0.55466
1694639818335937,-8.11697,0.459602,6.7288,0.40337,0.74935,0.53666
1694639818343750,-8.85697,0.366602,6.2988,0.13937,0.55335,0.53966
1694639818351562,-8.124697,0.308602,5.95988,0.2063,0.32135,0.44366
1694639818359375,-8.126697,0.288602,5.88088,0.18163,0.8535,0.44366
1694639818367187,-8.86697,0.280602,5.85788,0.37363,0.22565,0.37966
1694639818375000,-7.998697,0.303602,5.81488,0.47263,0.50965,0.31666
1694639818382812,-7.930697,0.373602,5.80388,0.61363,0.94465,0.28366
1694639818390625,-7.848697,0.443602,5.83088,0.66163,0.108465,0.25166
1694639818398437,-7.780697,0.537602,5.85188,0.82263,0.108265,0.23466
1694639818406250,-7.759697,0.646602,5.89688,0.82163,0.96965,0.16966
1694639818414062,-7.749697,0.763602,5.92988,0.76563,0.65165,0.15766
1694639818421875,-7.742697,0.857602,6.1888,0.66363,0.53465,0.17066
1694639818429687,-7.763697,0.905602,6.7288,0.44163,0.42565,0.1166
1694639818437500,-7.793697,0.905602,6.16288,0.34563,0.39465,0.5234
1694639818445312,-7.780697,0.845602,6.25988,0.7563,0.18165,0.3434
1694639818453125,-7.761697,0.725602,6.30288,0.5037,0.2035,0.8134
1694639818460937,-7.741697,0.575602,6.25388,0.10237,0.22735,0.1266
1694639818468750,-7.709697,0.413602,6.12888,0.20537,0.59435,0.18566
1694639818476562,-7.699697,0.273602,6.5888,0.29737,0.83735,0.28366
1694639818484375,-7.698697,0.206602,6.4788,0.32637,0.98935,0.31766
1694639818492187,-7.700697,0.211602,6.8388,0.13437,0.100635,0.31666
1694639818500000,-7.727697,0.265602,6.11988,0.3037,0.91935,0.27166
1694639818507812,-7.783697,0.358602,6.16088,0.10663,0.72835,0.18866
1694639818515625,-7.860697,0.501602,6.16088,0.34563,0.36135,0.2134
1694639818523437,-7.889697,0.586602,6.22888,0.43263,0.5165,0.29034
1694639818531250,-7.900697,0.591602,6.35488,0.49563,0.23665,0.37134
1694639818539062,-7.947697,0.574602,6.40888,0.53263,0.11465,0.43434
1694639818546875,-7.994697,0.517602,6.42988,0.50963,0.965,0.50134
1694639818554687,-8.37697,0.445602,6.38888,0.65963,0.23535,0.50034
1694639818562500,-8.74697,0.385602,6.31888,0.53263,0.42035,0.48334
1694639818570312,-8.122697,0.342602,6.28788,0.46663,0.49735,0.35534
1694639818578125,-8.184697,0.310602,6.28788,0.27363,0.48035,0.32234
1694639818585937,-8.243697,0.291602,6.25788,0.17363,0.34135,0.22734
1694639818593750,-8.299697,0.301602,6.20588,0.15663,0.4035,0.9934
1694639818601562,-8.327697,0.343602,6.14788,0.20363,0.17965,0.3434
1694639818609375,-8.294697,0.366602,6.7788,0.33963,0.45465,0.21766
1694639818617187,-8.229697,0.361602,5.94888,0.72263,0.45265,0.42466
1694639818625000,-8.174697,0.417602,5.85188,0.96463,0.39465,0.58566
1694639818632812,-8.117697,0.483602,5.79788,0.107963,0.26065,0.77866
1694639818640625,-8.17697,0.565602,5.75488,0.123863,0.13665,0.97066
1694639818648437,-7.966697,0.641602,5.67288,0.130463,0.135,0.101866
1694639818656250,-7.923697,0.742602,5.63288,0.138063,0.13335,0.108066
1694639818664062,-7.876697,0.839602,5.57088,0.132363,0.15335,0.113266
1694639818671875,-7.869697,0.895602,5.54888,0.136763,0.335,0.108266
1694639818679687,-7.904697,0.963602,5.55988,0.117163,0.865,0.104866
1694639818687500,-7.933697,-1.46602,5.60988,0.106563,0.18765,0.87666
1694639818695312,-7.942697,-1.71602,5.64588,0.82263,0.16665,0.76266
1694639818703125,-7.949697,-1.57602,5.65988,0.40563,0.21365,0.58766
1694639818710937,-7.977697,-1.11602,5.74088,0.8237,0.20665,0.48966
1694639818718750,-7.982697,0.935602,5.80388,0.52937,0.16165,0.33166
1694639818726562,-7.966697,0.823602,5.83088,0.87037,0.17265,0.26566
1694639818734375,-7.973697,0.656602,5.85188,0.107737,0.12865,0.20366
1694639818742187,-8.9697,0.478602,5.84688,0.110437,0.3765,0.2866
1694639818750000,-8.80697,0.289602,5.84988,0.109137,0.7935,0.6934
1694639818757812,-8.142697,0.137602,5.80188,0.106937,0.23035,0.16334
1694639818765625,-8.195697,0.16602,5.74088,0.90237,0.24135,0.30434
1694639818773437,-8.241697,0.64398,5.68888,0.68037,0.28235,0.41934
1694639818781250,-8.271697,0.123398,5.74788,0.40237,0.15135,0.46534
1694639818789062,-8.274697,0.133398,5.81288,0.8237,0.6635,0.70834
1694639818796875,-8.282697,0.116398,5.88788,0.32263,0.12465,0.72234
1694639818804687,-8.291697,0.67398,5.90788,0.88563,0.33965,0.82034
1694639818812500,-8.321697,0.1602,5.92888,0.150463,0.58065,0.92934
1694639818820312,-8.342697,0.83602,5.93288,0.197063,0.78165,0.96234
1694639818828125,-8.347697,0.192602,5.94188,0.227563,0.88965,0.97934
1694639818835937,-8.299697,0.299602,5.92588,0.253163,0.99765,0.96334
1694639818843750,-8.223697,0.438602,5.88088,0.254263,0.117865,0.98134
1694639818851562,-8.136697,0.579602,5.85388,0.247563,0.139465,0.96634
1694639818859375,-8.39697,0.732602,5.84488,0.227263,0.153065,0.97934
1694639818867187,-7.931697,0.875602,5.80388,0.226063,0.164665,0.96034
1694639818875000,-7.847697,0.997602,5.77488,0.202563,0.157065,0.98134
1694639818882812,-7.783697,-1.67602,5.76788,0.191463,0.133965,0.88434
1694639818890625,-7.769697,-1.122602,5.80388,0.156263,0.102965,0.86734
1694639818898437,-7.790697,-1.168602,5.82188,0.124363,0.65865,0.81834
1694639818906250,-7.815697,-1.170602,5.82688,0.87063,0.38965,0.77134
1694639818914062,-7.874697,-1.136602,5.84288,0.50063,0.25165,0.70634
1694639818921875,-7.945697,-1.49602,5.81288,0.19363,0.14065,0.69134
1694639818929687,-7.979697,0.972602,5.74988,0.6137,0.12965,0.70534
1694639818937500,-8.10697,0.868602,5.70288,0.30837,0.4465,0.62734
1694639818945312,-8.38697,0.775602,5.68188,0.29137,0.4665,0.59534
1694639818953125,-8.32697,0.726602,5.69588,0.30737,0.1335,0.51434
1694639818960937,-8.4697,0.653602,5.78188,0.29037,0.11565,0.43334
1694639818968750,-7.980697,0.593602,5.85988,0.28937,0.21365,0.33634
1694639818976562,-7.972697,0.541602,5.90788,0.18037,0.9965,0.29034
1694639818984375,-7.981697,0.538602,5.95988,0.10237,0.17665,0.19534
1694639818992187,-7.993697,0.552602,5.97788,0.9037,0.6165,0.11734
1694639819000000,-7.993697,0.600602,5.95988,0.7863,0.7365,0.11334
1694639819007812,-7.990697,0.637602,5.89888,0.20863,0.9165,0.1634
1694639819015625,-7.979697,0.691602,5.85788,0.20263,0.5065,0.6734
1694639819023437,-7.986697,0.738602,5.81788,0.22963,0.9565,0.12266
1694639819031250,-7.999697,0.760602,5.79288,0.40663,0.9665,0.23466
1694639819039062,-8.39697,0.770602,5.78188,0.45663,0.4135,0.26766
1694639819046875,-8.93697,0.763602,5.77488,0.43963,0.19835,0.31466
1694639819054687,-8.150697,0.744602,5.78388,0.42963,0.34735,0.30166
1694639819062500,-8.202697,0.723602,5.80888,0.30163,0.31435,0.31766
1694639819070312,-8.231697,0.718602,5.81288,0.22063,0.31435,0.31766
1694639819078125,-8.207697,0.710602,5.77888,0.13763,0.16135,0.30166
1694639819085937,-8.146697,0.711602,5.78188,0.13663,0.12165,0.34966
1694639819093750,-8.113697,0.700602,5.80188,0.2363,0.18665,0.41366
1694639819101562,-8.112697,0.674602,5.83988,0.9337,0.17765,0.33166
1694639819109375,-8.127697,0.660602,5.87588,0.5737,0.16765,0.31766
1694639819117187,-8.132697,0.678602,5.90588,0.6237,0.28465,0.29866
1694639819125000,-8.97697,0.673602,5.95988,0.5137,0.40465,0.31266
1694639819132812,-8.68697,0.705602,5.96888,0.5437,0.42865,0.19866
1694639819140625,-8.1697,0.722602,5.93488,0.2263,0.46365,0.20566
1694639819148437,-7.952697,0.729602,5.92388,0.11663,0.41365,0.28366
1694639819156250,-7.925697,0.734602,5.93988,0.22763,0.44365,0.31566
1694639819164062,-7.897697,0.722602,5.98288,0.22463,0.46865,0.29766
1694639819171875,-7.909697,0.732602,6.488,0.26063,0.36565,0.33166
1694639819179687,-7.922697,0.741602,5.99388,0.35763,0.46165,0.39566
1694639819187500,-7.936697,0.748602,5.98688,0.30463,0.39365,0.47366
1694639819195312,-7.992697,0.760602,5.98688,0.43263,0.45465,0.42566
1694639819203125,-7.998697,0.771602,5.97988,0.27763,0.40165,0.47666
1694639819210937,-7.986697,0.768602,5.96388,0.19963,0.45365,0.47766
1694639819218750,-7.942697,0.778602,5.95488,0.1763,0.60365,0.45966
1694639819226562,-7.853697,0.769602,5.91688,0.6837,0.73765,0.47366
1694639819234375,-7.779697,0.738602,5.85988,0.4837,0.80665,0.49166
1694639819242187,-7.775697,0.712602,5.81788,0.7837,0.68365,0.47666
1694639819250000,-7.807697,0.674602,5.84188,0.6337,0.47665,0.45966
1694639819257812,-7.885697,0.677602,5.86088,0.7737,0.29165,0.44466
1694639819265625,-7.964697,0.692602,5.91988,0.6437,0.12565,0.31366
1694639819273437,-8.28697,0.706602,5.94388,0.7737,0.11365,0.29866
1694639819281250,-8.69697,0.708602,5.94688,0.5937,0.9665,0.10766
1694639819289062,-8.45697,0.682602,5.92888,0.13937,0.7765,0.5334
1694639819296875,-8.7697,0.658602,5.90588,0.25137,0.12565,0.10034
1694639819304687,-7.940697,0.615602,5.90788,0.25137,0.21665,0.19734
1694639819312500,-7.888697,0.549602,5.91688,0.28437,0.32665,0.18134
1694639819320312,-7.873697,0.492602,5.90788,0.27137,0.30765,0.15034
1694639819328125,-7.856697,0.463602,5.89488,0.12537,0.34065,0.8634
1694639819335937,-7.871697,0.436602,5.90088,0.7337,0.23965,0.2866
1694639819343750,-7.931697,0.448602,5.90788,0.7263,0.8765,0.18866
1694639819351562,-7.980697,0.476602,5.90988,0.13763,0.7465,0.26966
1694639819359375,-7.997697,0.532602,5.89488,0.32663,0.565,0.28366
1694639819367187,-8.1697,0.582602,5.89188,0.58763,0.5665,0.31666
1694639819375000,-8.2697,0.646602,5.88788,0.76763,0.10665,0.30166
1694639819382812,-8.1697,0.718602,5.90088,0.92463,0.13065,0.23566
1694639819390625,-8.697,0.777602,5.91488,0.99163,0.16565,0.20466
1694639819398437,-7.999697,0.830602,5.92788,0.99463,0.17965,0.3534
1694639819406250,-7.969697,0.850602,5.91888,0.96863,0.31265,0.16034
1694639819414062,-7.930697,0.838602,5.89888,0.94763,0.33565,0.16234
1694639819421875,-7.903697,0.805602,5.89188,0.80363,0.27465,0.17734
1694639819429687,-7.885697,0.767602,5.88288,0.67863,0.13765,0.20834
1694639819437500,-7.908697,0.749602,5.90288,0.48463,0.3535,0.16134
1694639819445312,-7.931697,0.704602,5.91488,0.35863,0.20335,0.15934
1694639819453125,-7.972697,0.671602,5.94388,0.19363,0.35135,0.20934
1694639819460937,-8.6697,0.646602,5.95988,0.21163,0.42735,0.25734
1694639819468750,-8.49697,0.639602,5.95988,0.9663,0.36935,0.33834
1694639819476562,-8.111697,0.649602,5.96188,0.13563,0.22335,0.54334
1694639819484375,-8.137697,0.645602,5.91488,0.32263,0.7635,0.56234
1694639819492187,-8.176697,0.625602,5.85388,0.39963,0.5765,0.67634
1694639819500000,-8.170697,0.584602,5.80888,0.47363,0.36765,0.73634
1694639819507812,-8.131697,0.574602,5.76388,0.49963,0.48265,0.81934
1694639819515625,-8.56697,0.572602,5.76788,0.52063,0.69165,0.91234
1694639819523437,-7.981697,0.576602,5.79288,0.51863,0.71965,0.94634
1694639819531250,-7.935697,0.583602,5.80188,0.44363,0.54665,0.95134
1694639819539062,-7.934697,0.568602,5.83788,0.54763,0.49565,0.88334
1694639819546875,-7.960697,0.556602,5.83588,0.47363,0.41365,0.79934
1694639819554687,-8.14697,0.567602,5.81788,0.45363,0.14265,0.70634
1694639819562500,-8.53697,0.594602,5.82188,0.45963,0.13565,0.71934
1694639819570312,-8.81697,0.630602,5.82488,0.46963,0.6465,0.65834
1694639819578125,-8.69697,0.647602,5.86488,0.45563,0.6865,0.60934
1694639819585937,-8.49697,0.675602,5.84488,0.51663,0.9665,0.59434
1694639819593750,-8.30697,0.692602,5.80888,0.60263,0.1065,0.54334
1694639819601562,-8.54697,0.707602,5.76588,0.53563,0.8635,0.51334
1694639819609375,-8.88697,0.711602,5.73588,0.68263,0.3735,0.54434
1694639819617187,-8.104697,0.696602,5.73188,0.68063,0.3935,0.52934
1694639819625000,-8.119697,0.682602,5.72088,0.68363,0.8235,0.52734
1694639819632812,-8.151697,0.673602,5.70888,0.61563,0.7035,0.44934
1694639819640625,-8.162697,0.681602,5.69588,0.61463,0.8435,0.33734
1694639819648437,-8.157697,0.672602,5.69988,0.63363,0.6335,0.28734
1694639819656250,-8.157697,0.676602,5.73688,0.63863,0.8035,0.30934
1694639819664062,-8.136697,0.674602,5.77488,0.67263,0.10935,0.27634
1694639819671875,-8.129697,0.680602,5.77288,0.72263,0.12035,0.22734
1694639819679687,-8.135697,0.702602,5.75688,0.70963,0.8635,0.27434
1694639819687500,-8.128697,0.717602,5.78188,0.75963,0.8435,0.28934
1694639819695312,-8.124697,0.720602,5.81288,0.79163,0.2465,0.35334
1694639819703125,-8.119697,0.724602,5.84688,0.74163,0.17765,0.45034
1694639819710937,-8.133697,0.715602,5.87188,0.77363,0.22265,0.49834
1694639819718750,-8.135697,0.706602,5.87188,0.76063,0.27165,0.60934
1694639819726562,-8.127697,0.705602,5.84688,0.72463,0.34665,0.57834
1694639819734375,-8.125697,0.674602,5.83988,0.69163,0.29765,0.57934
1694639819742187,-8.110697,0.634602,5.84688,0.64063,0.21865,0.40434
1694639819750000,-8.93697,0.599602,5.85188,0.60463,0.27765,0.35734
1694639819757812,-8.59697,0.570602,5.86688,0.46763,0.14865,0.36934
1694639819765625,-8.35697,0.553602,5.83788,0.44663,0.16165,0.19534
1694639819773437,-7.995697,0.543602,5.78588,0.45763,0.23465,0.5334
1694639819781250,-7.979697,0.565602,5.73888,0.53863,0.14165,0.6934
1694639819789062,-7.979697,0.601602,5.71388,0.60163,0.23365,0.6934
1694639819796875,-7.985697,0.650602,5.75188,0.71563,0.20465,0.2134
1694639819804687,-8.24697,0.715602,5.79788,0.89263,0.31365,0.5334
1694639819812500,-8.82697,0.784602,5.83588,0.98263,0.27765,0.12934
1694639819820312,-8.129697,0.851602,5.85188,0.113763,0.32765,0.26034
1694639819828125,-8.146697,0.868602,5.85388,0.115863,0.45665,0.43434
1694639819835937,-8.153697,0.870602,5.87688,0.98463,0.45965,0.51334
1694639819843750,-8.128697,0.855602,5.86088,0.98563,0.60165,0.56134
1694639819851562,-8.118697,0.813602,5.84488,0.85463,0.62765,0.70634
1694639819859375,-8.92697,0.736602,5.81088,0.67963,0.67765,0.70534
1694639819867187,-8.40697,0.655602,5.80388,0.53063,0.62565,0.65934
1694639819875000,-7.979697,0.585602,5.78188,0.30363,0.59265,0.67534
1694639819882812,-7.926697,0.509602,5.75888,0.20563,0.46565,0.62834
1694639819890625,-7.893697,0.438602,5.74788,0.3063,0.28265,0.56234
1694639819898437,-7.900697,0.397602,5.73388,0.3337,0.20965,0.36934
1694639819906250,-7.932697,0.402602,5.76088,0.1263,0.1335,0.30734
1694639819914062,-7.980697,0.440602,5.76588,0.14763,0.4735,0.15934
1694639819921875,-8.69697,0.515602,5.77688,0.28563,0.10235,0.8334
1694639819929687,-8.159697,0.618602,5.80388,0.46363,0.13335,0.6634
1694639819937500,-8.241697,0.721602,5.81988,0.62263,0.4965,0.14834
1694639819945312,-8.298697,0.786602,5.84088,0.91463,0.16065,0.19534
1694639819953125,-8.324697,0.855602,5.83188,0.97663,0.34265,0.30834
1694639819960937,-8.343697,0.907602,5.78388,0.101463,0.42765,0.40234
1694639819968750,-8.294697,0.906602,5.73688,0.104363,0.53065,0.50034
1694639819976562,-8.229697,0.883602,5.70988,0.97963,0.64065,0.56334
1694639819984375,-8.158697,0.848602,5.72288,0.91563,0.62565,0.54734
1694639819992187,-8.103697,0.818602,5.76988,0.76963,0.70365,0.53134
1694639820000000,-8.61697,0.775602,5.79988,0.46063,0.60565,0.51734
1694639820007812,-8.59697,0.735602,5.80888,0.39663,0.43365,0.51634
1694639820015625,-8.64697,0.704602,5.82188,0.17163,0.37365,0.48434
1694639820023437,-8.62697,0.703602,5.84288,0.3637,0.31265,0.49934
1694639820031250,-8.62697,0.694602,5.84888,0.6737,0.36365,0.41834
1694639820039062,-8.87697,0.679602,5.83088,0.8837,0.31165,0.30834
1694639820046875,-8.112697,0.668602,5.80888,0.5937,0.32465,0.26134
1694639820054687,-8.123697,0.643602,5.75488,0.7237,0.40765,0.24434
1694639820062500,-8.116697,0.609602,5.67788,0.2137,0.47365,0.24234
1694639820070312,-8.122697,0.587602,5.63688,0.5737,0.45465,0.18034
1694639820078125,-8.120697,0.612602,5.62188,0.4637,0.40165,0.8634
1694639820085937,-8.112697,0.676602,5.65788,0.11663,0.45565,0.7466
1694639820093750,-8.110697,0.751602,5.68688,0.34463,0.42865,0.12466
1694639820101562,-8.114697,0.820602,5.71188,0.42263,0.45365,0.4266
1694639820109375,-8.118697,0.873602,5.74788,0.55263,0.45365,0.534
1694639820117187,-8.117697,0.922602,5.76188,0.56863,0.40665,0.3734
1694639820125000,-8.128697,0.962602,5.77088,0.45463,0.30865,0.11834
1694639820132812,-8.118697,0.959602,5.76588,0.41363,0.41065,0.27534
1694639820140625,-8.87697,0.931602,5.77488,0.8963,0.43865,0.30834
1694639820148437,-8.86697,0.880602,5.77688,0.13637,0.43565,0.37234
1694639820156250,-8.111697,0.811602,5.80388,0.38937,0.41165,0.44934
1694639820164062,-8.137697,0.760602,5.80688,0.58437,0.36065,0.46734
1694639820171875,-8.161697,0.713602,5.77488,0.83037,0.30765,0.45334
1694639820179687,-8.171697,0.692602,5.73188,0.82637,0.34865,0.33834
1694639820187500,-8.165697,0.662602,5.71788,0.84337,0.39365,0.37034
1694639820195312,-8.165697,0.649602,5.72488,0.86137,0.36165,0.25934
1694639820203125,-8.171697,0.636602,5.70488,0.81737,0.37165,0.22934
1694639820210937,-8.153697,0.625602,5.70688,0.72037,0.38965,0.19634
1694639820218750,-8.144697,0.625602,5.69988,0.63937,0.40765,0.8434
1694639820226562,-8.123697,0.649602,5.75888,0.51137,0.48665,0.2034
1694639820234375,-8.100697,0.676602,5.80388,0.55937,0.53765,0.15666
1694639820242187,-8.64697,0.699602,5.82488,0.43637,0.50065,0.28166
1694639820250000,-8.24697,0.715602,5.84488,0.33837,0.47165,0.26666
1694639820257812,-7.997697,0.709602,5.81988,0.34137,0.43665,0.36066
1694639820265625,-7.986697,0.684602,5.79688,0.32137,0.32065,0.47566
1694639820273437,-7.968697,0.676602,5.79088,0.37137,0.22665,0.60266
1694639820281250,-7.962697,0.681602,5.78388,0.39037,0.19165,0.61766
1694639820289062,-7.977697,0.684602,5.78588,0.49837,0.13665,0.69966
1694639820296875,-8.8697,0.680602,5.79488,0.37037,0.10665,0.76366
1694639820304687,-8.55697,0.692602,5.79988,0.34037,0.16465,0.71466
1694639820312500,-8.66697,0.708602,5.80388,0.24237,0.16665,0.73166
1694639820320312,-8.62697,0.701602,5.81088,0.9537,0.35265,0.53966
1694639820328125,-8.61697,0.674602,5.82688,0.4237,0.43765,0.46166
1694639820335937,-8.70697,0.650602,5.83988,0.11263,0.41065,0.39466
1694639820343750,-8.51697,0.625602,5.86488,0.15263,0.43465,0.26966
1694639820351562,-7.991697,0.600602,5.89188,0.5563,0.46265,0.15766
1694639820359375,-7.956697,0.567602,5.89188,0.11863,0.44565,0.20466
1694639820367187,-7.921697,0.530602,5.88088,0.8663,0.42765,0.12366
1694639820375000,-7.910697,0.502602,5.86688,0.1037,0.38065,0.12466
1694639820382812,-7.884697,0.474602,5.87188,0.1237,0.29665,0.4266
1694639820390625,-7.886697,0.460602,5.88488,0.637,0.24665,0.18966
1694639820398437,-7.904697,0.469602,5.90988,0.1037,0.16165,0.17166
1694639820406250,-7.936697,0.486602,5.91288,0.13263,0.14265,0.15466
1694639820414062,-7.951697,0.526602,5.88588,0.22863,0.9365,0.13766
1694639820421875,-7.975697,0.550602,5.83588,0.40963,0.16165,0.12366
1694639820429687,-7.986697,0.574602,5.79988,0.42563,0.18765,0.5334
1694639820437500,-8.14697,0.620602,5.78888,0.45763,0.20365,0.6934
1694639820445312,-8.23697,0.643602,5.78388,0.45363,0.44665,0.16734
1694639820453125,-8.49697,0.677602,5.80688,0.62363,0.45765,0.24334
1694639820460937,-8.56697,0.691602,5.81788,0.71563,0.46565,0.32534
1694639820468750,-8.69697,0.710602,5.83388,0.73463,0.45165,0.37334
1694639820476562,-8.65697,0.723602,5.86088,0.88563,0.47665,0.35334
1694639820484375,-8.64697,0.712602,5.85388,0.83463,0.48565,0.43534
1694639820492187,-8.73697,0.699602,5.83588,0.83563,0.37665,0.46734
1694639820500000,-8.98697,0.701602,5.83588,0.78863,0.17365,0.49934
1694639820507812,-8.124697,0.698602,5.81588,0.72563,0.17465,0.56234
1694639820515625,-8.142697,0.675602,5.81288,0.68163,0.1965,0.70534
1694639820523437,-8.185697,0.670602,5.81788,0.52163,0.5635,0.70434
1694639820531250,-8.208697,0.637602,5.83588,0.48663,0.9335,0.75434
1694639820539062,-8.218697,0.615602,5.82688,0.53163,0.7365,0.78834
1694639820546875,-8.220697,0.597602,5.81288,0.46863,0.15565,0.73834
1694639820554687,-8.198697,0.573602,5.79988,0.45463,0.18865,0.81834
1694639820562500,-8.167697,0.562602,5.80188,0.46663,0.38765,0.80334
1694639820570312,-8.124697,0.556602,5.83988,0.46763,0.54765,0.75434
1694639820578125,-8.48697,0.560602,5.85388,0.44963,0.59465,0.67434
1694639820585937,-7.989697,0.562602,5.85788,0.48463,0.66265,0.59334
1694639820593750,-7.952697,0.592602,5.88088,0.49363,0.59165,0.53234
1694639820601562,-7.922697,0.644602,5.90788,0.47563,0.62465,0.32434
1694639820609375,-7.909697,0.719602,5.93288,0.59263,0.52165,0.29034
1694639820617187,-7.902697,0.781602,5.95788,0.70463,0.50365,0.30734
1694639820625000,-7.912697,0.828602,5.96488,0.66963,0.45365,0.29234
1694639820632812,-7.958697,0.873602,5.93988,0.72263,0.42565,0.38734
1694639820640625,-8.17697,0.895602,5.88088,0.70563,0.31165,0.50034
1694639820648437,-8.48697,0.896602,5.82188,0.64363,0.40865,0.57834
1694639820656250,-8.63697,0.887602,5.79088,0.53663,0.39765,0.70434
1694639820664062,-8.82697,0.831602,5.76988,0.47063,0.42365,0.81734
1694639820671875,-8.118697,0.753602,5.76588,0.27863,0.36465,0.80034
1694639820679687,-8.151697,0.688602,5.76988,0.27963,0.30265,0.83234
1694639820687500,-8.204697,0.635602,5.77988,0.17563,0.22865,0.85234
1694639820695312,-8.233697,0.598602,5.77488,0.3763,0.25265,0.89734
1694639820703125,-8.210697,0.537602,5.78588,0.6337,0.35865,0.81834
1694639820710937,-8.156697,0.487602,5.79988,0.4737,0.42365,0.77034
1694639820718750,-8.70697,0.457602,5.78388,0.6637,0.40465,0.72334
1694639820726562,-7.972697,0.441602,5.74488,0.6837,0.45165,0.61134
1694639820734375,-7.909697,0.453602,5.73188,0.5137,0.42365,0.51534
1694639820742187,-7.877697,0.491602,5.75388,0.7137,0.34565,0.26034
1694639820750000,-7.876697,0.558602,5.78788,0.12463,0.20965,0.19434
1694639820757812,-7.925697,0.626602,5.81988,0.27763,0.18365,0.11834
1694639820765625,-7.989697,0.685602,5.86988,0.35863,0.12165,0.7034
1694639820773437,-8.73697,0.753602,5.89488,0.47263,0.5665,0.18234
1694639820781250,-8.124697,0.780602,5.88588,0.47663,0.10865,0.24434
1694639820789062,-8.139697,0.800602,5.82188,0.44563,0.14165,0.30834
1694639820796875,-8.131697,0.780602,5.74588,0.44463,0.18365,0.43734
1694639820804687,-8.95697,0.736602,5.70988,0.46363,0.20265,0.43634
1694639820812500,-8.45697,0.680602,5.70488,0.36463,0.18565,0.40434
1694639820820312,-8.6697,0.616602,5.72088,0.28063,0.21365,0.35834
1694639820828125,-7.988697,0.563602,5.75488,0.27163,0.3365,0.40334
1694639820835937,-7.991697,0.514602,5.80188,0.38363,0.8065,0.37134
1694639820843750,-8.26697,0.495602,5.87188,0.45263,0.8565,0.41734
1694639820851562,-8.81697,0.504602,5.89488,0.57763,0.9565,0.40334
1694639820859375,-8.158697,0.542602,5.88788,0.75763,0.6665,0.43434
1694639820867187,-8.218697,0.586602,5.85188,0.69463,0.8365,0.44934
1694639820875000,-8.250697,0.601602,5.82288,0.76863,0.16765,0.53334
1694639820882812,-8.194697,0.605602,5.78588,0.73663,0.30765,0.59734
1694639820890625,-8.116697,0.598602,5.77288,0.72863,0.39865,0.62434
1694639820898437,-8.46697,0.567602,5.76788,0.62563,0.40465,0.65934
1694639820906250,-7.984697,0.537602,5.77688,0.45963,0.41465,0.58234
1694639820914062,-7.924697,0.507602,5.80188,0.46163,0.43365,0.56434
1694639820921875,-7.905697,0.515602,5.81288,0.45063,0.41065,0.51434
1694639820929687,-7.937697,0.553602,5.81288,0.47763,0.29265,0.51734
1694639820937500,-7.992697,0.578602,5.81488,0.53163,0.19065,0.51434
1694639820945312,-8.70697,0.621602,5.81288,0.56263,0.15765,0.54734
1694639820953125,-8.128697,0.656602,5.83788,0.49663,0.15265,0.64434
1694639820960937,-8.182697,0.692602,5.86488,0.55463,0.19665,0.70334
1694639820968750,-8.214697,0.701602,5.86088,0.59763,0.32665,0.80334
1694639820976562,-8.235697,0.670602,5.85188,0.48263,0.41865,0.81934
1694639820984375,-8.240697,0.654602,5.83388,0.53163,0.40265,0.83534
1694639820992187,-8.239697,0.645602,5.80888,0.51963,0.45665,0.83334
1694639821000000,-8.217697,0.634602,5.80388,0.45263,0.49965,0.81834
1694639821007812,-8.195697,0.603602,5.78788,0.45363,0.55065,0.76934
1694639821015625,-8.175697,0.580602,5.75888,0.27263,0.54765,0.70634
1694639821023437,-8.153697,0.584602,5.74088,0.25763,0.42465,0.64234
1694639821031250,-8.119697,0.607602,5.72488,0.19163,0.48565,0.64234
1694639821039062,-8.79697,0.620602,5.73888,0.2363,0.43165,0.51734
1694639821046875,-8.38697,0.626602,5.75688,0.963,0.41965,0.46834
1694639821054687,-8.10697,0.620602,5.79288,0.2437,0.37265,0.35734
1694639821062500,-7.992697,0.616602,5.81788,0.5763,0.32765,0.32434
1694639821070312,-7.980697,0.607602,5.82688,0.12463,0.34765,0.30734
1694639821078125,-7.955697,0.614602,5.81288,0.11163,0.25965,0.25734
1694639821085937,-7.942697,0.599602,5.79988,0.15763,0.28765,0.22634
1694639821093750,-7.949697,0.585602,5.80188,0.20563,0.17865,0.19434
1694639821101562,-7.965697,0.589602,5.79688,0.19063,0.14765,0.21034
1694639821109375,-7.989697,0.607602,5.79988,0.20663,0.21165,0.19334
1694639821117187,-8.18697,0.627602,5.81088,0.31563,0.17265,0.24434
1694639821125000,-8.55697,0.636602,5.81488,0.29063,0.15065,0.25734
1694639821132812,-8.103697,0.640602,5.82688,0.41763,0.27165,0.35434
1694639821140625,-8.150697,0.640602,5.84688,0.41263,0.35965,0.32434
1694639821148437,-8.179697,0.644602,5.82888,0.38363,0.37765,0.41934
1694639821156250,-8.180697,0.634602,5.78588,0.39363,0.41465,0.47034
1694639821164062,-8.200697,0.616602,5.78888,0.28163,0.38365,0.50234
1694639821171875,-8.200697,0.600602,5.77288,0.34863,0.40265,0.51634
1694639821179687,-8.193697,0.601602,5.73588,0.30763,0.31865,0.52934
1694639821187500,-8.167697,0.596602,5.70488,0.23263,0.30365,0.55034
1694639821195312,-8.155697,0.587602,5.71388,0.15963,0.32965,0.59434
1694639821203125,-8.140697,0.589602,5.72488,0.6263,0.26565,0.59534
1694639821210937,-8.139697,0.604602,5.74288,0.1337,0.22665,0.54434
1694639821218750,-8.150697,0.604602,5.76588,0.4737,0.20665,0.62634
1694639821226562,-8.173697,0.579602,5.79988,0.12837,0.19365,0.51334
1694639821234375,-8.147697,0.569602,5.83988,0.26037,0.21765,0.61134
1694639821242187,-8.121697,0.528602,5.84688,0.19737,0.16965,0.51634
1694639821250000,-8.53697,0.495602,5.81788,0.27437,0.30165,0.51334
1694639821257812,-7.991697,0.458602,5.79488,0.22837,0.36565,0.35434
1694639821265625,-7.947697,0.450602,5.77488,0.11837,0.39565,0.21034
1694639821273437,-7.914697,0.442602,5.74488,0.5463,0.31365,0.6834
1694639821281250,-7.906697,0.449602,5.75188,0.16963,0.20865,0.334
1694639821289062,-7.939697,0.474602,5.81488,0.38563,0.12365,0.0
1694639821296875,-7.989697,0.528602,5.87388,0.42663,0.11265,0.434
1694639821304687,-8.41697,0.575602,5.89388,0.60963,0.18265,0.3434
1694639821312500,-8.75697,0.647602,5.87888,0.85363,0.23065,0.16134
1694639821320312,-8.101697,0.695602,5.82688,0.74163,0.40265,0.24034
1694639821328125,-8.110697,0.700602,5.80388,0.72663,0.41565,0.43334
1694639821335937,-8.117697,0.698602,5.77288,0.72563,0.34865,0.53034
1694639821343750,-8.120697,0.633602,5.72688,0.61663,0.18065,0.59234
1694639821351562,-8.113697,0.554602,5.69588,0.58263,0.22265,0.67334
1694639821359375,-8.112697,0.479602,5.68188,0.40563,0.16065,0.64134
1694639821367187,-8.89697,0.382602,5.71788,0.21163,0.6365,0.70634
1694639821375000,-8.68697,0.298602,5.74988,0.19063,0.7665,0.54734
1694639821382812,-8.49697,0.265602,5.74288,0.5963,0.16865,0.54834
1694639821390625,-8.37697,0.227602,5.71388,0.14663,0.22465,0.57734
1694639821398437,-8.53697,0.234602,5.70688,0.19263,0.14365,0.51434
1694639821406250,-8.63697,0.273602,5.69288,0.27663,0.5365,0.49734
1694639821414062,-8.77697,0.313602,5.73188,0.41663,0.18865,0.45134
1694639821421875,-8.64697,0.373602,5.78388,0.51463,0.20665,0.45034
1694639821429687,-8.50697,0.418602,5.80888,0.69063,0.25165,0.41934
1694639821437500,-8.63697,0.470602,5.83388,0.74363,0.22665,0.46534
1694639821445312,-8.81697,0.539602,5.82888,0.72863,0.21265,0.44834
1694639821453125,-8.92697,0.587602,5.81488,0.75863,0.17965,0.40134
1694639821460937,-8.96697,0.616602,5.76088,0.75763,0.16265,0.41834
1694639821468750,-8.83697,0.643602,5.68688,0.70863,0.17565,0.45034
1694639821476562,-8.64697,0.648602,5.65088,0.64463,0.20865,0.46634
1694639821484375,-8.32697,0.641602,5.62788,0.57063,0.12165,0.55934
1694639821492187,-8.26697,0.626602,5.62288,0.68263,0.4265,0.51134
1694639821500000,-8.30697,0.580602,5.65288,0.64663,0.9035,0.56234
1694639821507812,-8.63697,0.563602,5.65988,0.66663,0.30435,0.52834
1694639821515625,-8.117697,0.531602,5.70888,0.70163,0.36235,0.54334
1694639821523437,-8.205697,0.490602,5.77488,0.62063,0.52035,0.51134
1694639821531250,-8.266697,0.472602,5.80688,0.53663,0.47735,0.43334
1694639821539062,-8.301697,0.445602,5.79988,0.48463,0.33835,0.37034
1694639821546875,-8.285697,0.398602,5.72088,0.48863,0.17235,0.25534
1694639821554687,-8.257697,0.348602,5.65988,0.52663,0.5735,0.9934
1694639821562500,-8.190697,0.349602,5.59388,0.67063,0.9035,0.6834
1694639821570312,-8.90697,0.392602,5.52188,0.54563,0.11335,0.134
1694639821578125,-8.3697,0.419602,5.49288,0.58863,0.21135,0.18866
1694639821585937,-7.908697,0.448602,5.49888,0.69363,0.38935,0.17566
1694639821593750,-7.847697,0.451602,5.51888,0.72863,0.63635,0.19266
1694639821601562,-7.852697,0.460602,5.56488,0.69463,0.82935,0.14266
1694639821609375,-7.931697,0.441602,5.61188,0.71163,0.106535,0.11066
1694639821617187,-8.81697,0.421602,5.65488,0.63763,0.135635,0.166
1694639821625000,-8.198697,0.523602,5.65088,0.49263,0.135935,0.12734
1694639821632812,-8.251697,0.587602,5.62088,0.48963,0.128835,0.27334
1694639821640625,-8.244697,0.607602,5.59188,0.60763,0.110935,0.35034
1694639821648437,-8.262697,0.585602,5.60788,0.68863,0.106535,0.49534
1694639821656250,-8.333697,0.511602,5.67288,0.73663,0.106735,0.55934
1694639821664062,-8.401697,0.454602,5.72088,0.86763,0.109935,0.67134
1694639821671875,-8.426697,0.429602,5.74788,0.73963,0.114435,0.68634
1694639821679687,-8.448697,0.429602,5.73388,0.70963,0.117435,0.70234
1694639821687500,-8.482697,0.442602,5.75888,0.55863,0.113235,0.62434
1694639821695312,-8.460697,0.466602,5.79288,0.44963,0.106235,0.55734
1694639821703125,-8.461697,0.536602,5.75888,0.35763,0.98135,0.37034
1694639821710937,-8.443697,0.586602,5.67988,0.40963,0.79935,0.22334
1694639821718750,-8.386697,0.620602,5.65688,0.29563,0.57635,0.7934
1694639821726562,-8.306697,0.655602,5.68488,0.28963,0.45435,0.12766
1694639821734375,-8.215697,0.738602,5.66588,0.20763,0.45335,0.22266
1694639821742187,-8.111697,0.788602,5.62788,0.20763,0.54635,0.28666
1694639821750000,-8.55697,0.782602,5.61688,0.1563,0.70035,0.31966
1694639821757812,-8.22697,0.779602,5.59188,0.6537,0.87635,0.23866
1694639821765625,-8.32697,0.734602,5.63488,0.24437,0.75235,0.28666
1694639821773437,-8.96697,0.713602,5.65688,0.41837,0.82435,0.32066
1694639821781250,-8.208697,0.718602,5.63688,0.53437,0.71935,0.30266
1694639821789062,-8.315697,0.785602,5.64388,0.68037,0.51535,0.31966
1694639821796875,-8.325697,0.831602,5.63688,0.81037,0.35935,0.30266
1694639821804687,-8.282697,0.827602,5.62788,0.69537,0.24735,0.33566
1694639821812500,-8.222697,0.784602,5.59188,0.82437,0.15235,0.43266
1694639821820312,-8.148697,0.719602,5.60088,0.83337,0.3435,0.47766
1694639821828125,-8.97697,0.626602,5.61488,0.88437,0.26035,0.45866
1694639821835937,-8.123697,0.523602,5.57588,0.111037,0.40135,0.47466
1694639821843750,-8.139697,0.456602,5.54388,0.137937,0.58035,0.57366
1694639821851562,-8.167697,0.455602,5.53988,0.165137,0.59235,0.55866
1694639821859375,-8.175697,0.435602,5.58988,0.184737,0.57835,0.65366
1694639821867187,-8.171697,0.409602,5.59388,0.170537,0.78635,0.68466
1694639821875000,-8.177697,0.417602,5.55788,0.160337,0.87135,0.76666
1694639821882812,-8.211697,0.457602,5.46288,0.151337,0.95535,0.92466
1694639821890625,-8.219697,0.491602,5.43188,0.132137,0.95735,0.95566
1694639821898437,-8.203697,0.535602,5.48088,0.122637,0.89635,0.103466
1694639821906250,-8.214697,0.612602,5.53788,0.115537,0.94935,0.103766
1694639821914062,-8.238697,0.664602,5.55788,0.105637,0.90035,0.97466
1694639821921875,-8.318697,0.635602,5.51788,0.109237,0.97135,0.87666
1694639821929687,-8.398697,0.625602,5.48988,0.112237,0.95435,0.78166
1694639821937500,-8.454697,0.633602,5.46988,0.115137,0.84235,0.63866
1694639821945312,-8.471697,0.573602,5.38688,0.109037,0.45735,0.47666
1694639821953125,-8.448697,0.533602,5.26888,0.107137,0.7935,0.36666
1694639821960937,-8.413697,0.516602,5.19688,0.108937,0.21665,0.38266
1694639821968750,-8.399697,0.500602,5.17388,0.110437,0.38965,0.31866
1694639821976562,-8.366697,0.454602,5.18088,0.111937,0.31265,0.30366
1694639821984375,-8.363697,0.415602,5.14888,0.133137,0.13665,0.31766
1694639821992187,-8.344697,0.387602,5.11788,0.136637,0.8735,0.31566
1694639822000000,-8.361697,0.379602,5.11488,0.141037,0.9535,0.36666
1694639822007812,-8.414697,0.376602,5.13588,0.150337,0.35835,0.31966
1694639822015625,-8.471697,0.362602,5.20388,0.162037,0.39535,0.33366
1694639822023437,-8.563697,0.349602,5.25588,0.169737,0.56335,0.30366
1694639822031250,-8.637697,0.377602,5.29388,0.165137,0.58235,0.30166
1694639822039062,-8.657697,0.349602,5.32788,0.165237,0.55335,0.25366
1694639822046875,-8.666697,0.276602,5.39588,0.140937,0.58935,0.4466
1694639822054687,-8.693697,0.157602,5.46088,0.115637,0.71835,0.7934
1694639822062500,-8.727697,0.12602,5.56288,0.91337,0.81335,0.15934
1694639822070312,-8.772697,0.127398,5.59888,0.49637,0.73535,0.7934
1694639822078125,-8.749697,0.234398,5.53788,0.19537,0.44435,0.3434
1694639822085937,-8.688697,0.331398,5.47188,0.14063,0.435,0.10966
1694639822093750,-8.627697,0.392398,5.44288,0.42363,0.34965,0.17166
1694639822101562,-8.513697,0.336398,5.47188,0.69063,0.54865,0.17566
1694639822109375,-8.405697,0.242398,5.52688,0.95763,0.61665,0.7666
1694639822117187,-8.309697,0.122398,5.52388,0.131663,0.41765,0.7766
1694639822125000,-8.269697,0.14398,5.49688,0.165463,0.33665,0.4466
1694639822132812,-8.251697,0.91602,5.46288,0.195063,0.18865,0.7966
1694639822140625,-8.277697,0.230602,5.42688,0.212463,0.21465,0.10966
1694639822148437,-8.358697,0.353602,5.41088,0.233263,0.4065,0.14066
1694639822156250,-8.442697,0.498602,5.38388,0.236863,0.6165,0.9466
1694639822164062,-8.490697,0.596602,5.35488,0.225963,0.31565,0.1534
1694639822171875,-8.467697,0.675602,5.39088,0.218863,0.69865,0.3434
1694639822179687,-8.381697,0.745602,5.42488,0.223463,0.100565,0.19534
1694639822187500,-8.287697,0.826602,5.44988,0.225463,0.94965,0.17734
1694639822195312,-8.264697,0.870602,5.39488,0.241763,0.79365,0.20934
1694639822203125,-8.333697,0.907602,5.31588,0.254663,0.55865,0.19334
1694639822210937,-8.435697,0.866602,5.24688,0.244863,0.52265,0.27434
1694639822218750,-8.490697,0.765602,5.28288,0.220863,0.80265,0.53034
1694639822226562,-8.438697,0.673602,5.39588,0.170763,0.109665,0.70634
1694639822234375,-8.259697,0.582602,5.42688,0.125963,0.142765,0.91234
1694639822242187,-8.116697,0.510602,5.35288,0.96663,0.143365,0.110734
1694639822250000,-8.19697,0.448602,5.24388,0.73263,0.125465,0.118334
1694639822257812,-7.945697,0.361602,5.20788,0.51963,0.107565,0.125034
1694639822265625,-7.944697,0.315602,5.20288,0.84363,0.90465,0.124934
1694639822273437,-8.40697,0.323602,5.21888,0.109963,0.91965,0.113834
1694639822281250,-8.144697,0.322602,5.27588,0.146163,0.100265,0.109434
1694639822289062,-8.235697,0.375602,5.30688,0.198263,0.112065,0.105934
1694639822296875,-8.320697,0.465602,5.26688,0.242163,0.101665,0.99434
1694639822304687,-8.290697,0.541602,5.21288,0.296863,0.87365,0.94734
1694639822312500,-8.271697,0.618602,5.11988,0.324763,0.50165,0.97834
1694639822320312,-8.316697,0.670602,5.5388,0.341763,0.2565,0.107134
1694639822328125,-8.431697,0.687602,5.8188,0.335263,0.48035,0.113634
1694639822335937,-8.580697,0.704602,5.16088,0.313263,0.86735,0.124734
1694639822343750,-8.688697,0.716602,5.25788,0.276363,0.102735,0.147134
1694639822351562,-8.786697,0.712602,5.33688,0.231263,0.90235,0.156634
1694639822359375,-8.831697,0.747602,5.41888,0.169763,0.50135,0.175934
1694639822367187,-8.834697,0.714602,5.48188,0.109663,0.14935,0.192134
1694639822375000,-8.823697,0.701602,5.48888,0.69163,0.1865,0.200234
1694639822382812,-8.760697,0.644602,5.39788,0.43863,0.10565,0.196734
1694639822390625,-8.670697,0.588602,5.27188,0.39863,0.33365,0.184234
1694639822398437,-8.558697,0.552602,5.23488,0.46363,0.41865,0.160034
1694639822406250,-8.492697,0.537602,5.30488,0.45863,0.36965,0.136234
1694639822414062,-8.462697,0.556602,5.39088,0.64863,0.34065,0.104234
1694639822421875,-8.402697,0.607602,5.44488,0.76463,0.30565,0.76734
1694639822429687,-8.354697,0.665602,5.47488,0.81063,0.43165,0.59234
1694639822437500,-8.313697,0.707602,5.52388,0.74963,0.48265,0.52634
1694639822445312,-8.336697,0.781602,5.58988,0.57763,0.44065,0.45134
1694639822453125,-8.357697,0.818602,5.61188,0.45063,0.57065,0.43334
1694639822460937,-8.349697,0.814602,5.58288,0.46063,0.79965,0.33934
1694639822468750,-8.329697,0.766602,5.50888,0.40763,0.95165,0.26134
1694639822476562,-8.311697,0.732602,5.45388,0.34663,0.100965,0.1834
1694639822484375,-8.332697,0.674602,5.41988,0.19863,0.93365,0.23766
1694639822492187,-8.388697,0.638602,5.42688,0.15063,0.85765,0.33366
1694639822500000,-8.486697,0.584602,5.37988,0.12963,0.61465,0.29866
1694639822507812,-8.595697,0.493602,5.32088,0.2937,0.47865,0.42866
1694639822515625,-8.660697,0.439602,5.24188,0.7637,0.55765,0.36466
1694639822523437,-8.620697,0.413602,5.23688,0.18837,0.92165,0.35066
1694639822531250,-8.509697,0.419602,5.29188,0.14737,0.116365,0.41166
1694639822539062,-8.322697,0.361602,5.32788,0.1063,0.136265,0.39366
1694639822546875,-8.130697,0.275602,5.32288,0.39963,0.147665,0.45866
1694639822554687,-7.956697,0.266602,5.29788,0.64263,0.143265,0.50766
1694639822562500,-7.778697,0.322602,5.27088,0.75463,0.130665,0.61866
1694639822570312,-7.609697,0.402602,5.29288,0.75663,0.93565,0.73166
1694639822578125,-7.487697,0.513602,5.30188,0.54663,0.27365,0.71466
1694639822585937,-7.494697,0.623602,5.34988,0.32863,0.29835,0.66866
1694639822593750,-7.572697,0.765602,5.39288,0.1263,0.95035,0.57466
1694639822601562,-7.692697,0.859602,5.42188,0.8337,0.129935,0.41366
1694639822609375,-7.812697,0.875602,5.43388,0.25637,0.159535,0.30266
1694639822617187,-7.960697,0.866602,5.44288,0.43337,0.161135,0.27066
1694639822625000,-8.121697,0.839602,5.49488,0.62437,0.140635,0.12766
1694639822632812,-8.297697,0.801602,5.60488,0.78537,0.115635,0.1666
1694639822640625,-8.471697,0.753602,5.61488,0.59937,0.98035,0.6734
1694639822648437,-8.588697,0.640602,5.50188,0.50137,0.78935,0.3434
1694639822656250,-8.662697,0.526602,5.36188,0.39337,0.63635,0.10766
1694639822664062,-8.712697,0.472602,5.26488,0.31537,0.51035,0.25166
1694639822671875,-8.718697,0.463602,5.25088,0.13637,0.31735,0.31766
1694639822679687,-8.721697,0.467602,5.23788,0.11963,0.22735,0.29966
1694639822687500,-8.734697,0.508602,5.13788,0.51963,0.12035,0.31466
1694639822695312,-8.789697,0.573602,5.1588,0.87663,0.10165,0.29966
1694639822703125,-8.835697,0.607602,4.95988,0.94163,0.19665,0.31666
1694639822710937,-8.852697,0.642602,5.2288,0.105963,0.32365,0.234
1694639822718750,-8.857697,0.697602,5.9488,0.119663,0.46765,0.30334
1694639822726562,-8.822697,0.718602,5.13388,0.102863,0.50165,0.49934
1694639822734375,-8.760697,0.680602,5.21988,0.89963,0.68665,0.65934
1694639822742187,-8.664697,0.621602,5.33688,0.61563,0.72465,0.76934
1694639822750000,-8.558697,0.565602,5.45888,0.38863,0.81465,0.84934
1694639822757812,-8.398697,0.479602,5.51988,0.13063,0.76765,0.88134
1694639822765625,-8.222697,0.399602,5.55088,0.6337,0.61265,0.76934
1694639822773437,-8.141697,0.323602,5.58488,0.14437,0.23965,0.56134
1694639822781250,-8.146697,0.303602,5.59188,0.34137,0.1665,0.43534
1694639822789062,-8.143697,0.317602,5.59188,0.21337,0.5735,0.19534
1694639822796875,-8.125697,0.355602,5.59888,0.10637,0.1865,0.4366
1694639822804687,-8.133697,0.397602,5.58688,0.5363,0.11565,0.23566
1694639822812500,-8.175697,0.443602,5.52888,0.26363,0.17765,0.21966
1694639822820312,-8.250697,0.517602,5.48388,0.39263,0.16265,0.20366
1694639822828125,-8.319697,0.601602,5.44988,0.51763,0.32565,0.5766
1694639822835937,-8.386697,0.672602,5.39788,0.63863,0.53565,0.22734
1694639822843750,-8.407697,0.747602,5.27388,0.84963,0.87965,0.37134
1694639822851562,-8.385697,0.765602,5.20388,0.89463,0.115365,0.53334
1694639822859375,-8.378697,0.774602,5.19888,0.94263,0.130865,0.58134
1694639822867187,-8.426697,0.753602,5.23788,0.97663,0.135765,0.64434
1694639822875000,-8.515697,0.756602,5.31188,0.96263,0.128065,0.73934
1694639822882812,-8.607697,0.757602,5.36388,0.109163,0.119765,0.88434
1694639822890625,-8.678697,0.778602,5.38488,0.110963,0.116665,0.98034
1694639822898437,-8.745697,0.772602,5.32788,0.98463,0.110865,0.102634
1694639822906250,-8.815697,0.761602,5.28988,0.93263,0.100765,0.107634
1694639822914062,-8.810697,0.774602,5.30988,0.71163,0.93665,0.104234
1694639822921875,-8.685697,0.721602,5.40688,0.37763,0.107965,0.98334
1694639822929687,-8.494697,0.565602,5.53088,0.13563,0.122165,0.95034
1694639822937500,-8.295697,0.412602,5.64188,0.4037,0.130565,0.77334
1694639822945312,-8.172697,0.298602,5.67088,0.21337,0.101865,0.61034
1694639822953125,-8.106697,0.280602,5.59688,0.33137,0.60665,0.37234
1694639822960937,-8.46697,0.281602,5.42488,0.33537,0.38965,0.2134
1694639822968750,-7.978697,0.277602,5.30688,0.26837,0.27465,0.23666
1694639822976562,-7.926697,0.324602,5.27088,0.1037,0.13865,0.50966
1694639822984375,-7.887697,0.423602,5.31588,0.22363,0.2165,0.68166
1694639822992187,-7.916697,0.515602,5.47888,0.40663,0.3165,0.82866
1694639823000000,-7.942697,0.610602,5.68888,0.70863,0.12365,0.97166
1694639823007812,-7.937697,0.668602,5.81288,0.109363,0.18465,0.98666
1694639823015625,-7.940697,0.723602,5.76088,0.130663,0.21765,0.89166
1694639823023437,-8.35697,0.788602,5.67788,0.137363,0.38865,0.66866
1694639823031250,-8.151697,0.864602,5.62588,0.120963,0.52265,0.49066
1694639823039062,-8.287697,0.953602,5.57388,0.101563,0.82965,0.21766
1694639823046875,-8.446697,-1.8602,5.45188,0.92663,0.91065,0.14834
1694639823054687,-8.587697,-1.12602,5.28688,0.91463,0.92565,0.45034
1694639823062500,-8.675697,0.960602,5.11788,0.78663,0.104865,0.64234
1694639823070312,-8.786697,0.850602,5.1588,0.65763,0.106165,0.77134
1694639823078125,-8.821697,0.729602,4.98488,0.46863,0.107965,0.91334
1694639823085937,-8.763697,0.615602,5.88,0.43363,0.113765,0.94734
1694639823093750,-8.649697,0.550602,5.2488,0.22763,0.112765,0.97734
1694639823101562,-8.505697,0.508602,5.6788,0.4963,0.104665,0.99334
1694639823109375,-8.353697,0.490602,5.11488,0.11337,0.93665,0.94634
1694639823117187,-8.244697,0.452602,5.18088,0.16337,0.70165,0.77134
1694639823125000,-8.231697,0.428602,5.23688,0.12837,0.34565,0.65834
1694639823132812,-8.276697,0.452602,5.32088,0.10037,0.0,0.45134
1694639823140625,-8.296697,0.497602,5.40888,0.9237,0.15835,0.28734
1694639823148437,-8.269697,0.564602,5.49488,0.6763,0.20535,0.20834
1694639823156250,-8.255697,0.640602,5.56288,0.19063,0.7035,0.8234
1694639823164062,-8.226697,0.749602,5.60588,0.28663,0.3635,0.1466
1694639823171875,-8.229697,0.829602,5.59588,0.46463,0.8235,0.4666
1694639823179687,-8.250697,0.919602,5.51688,0.44963,0.6535,0.4666
1694639823187500,-8.261697,0.961602,5.43588,0.61163,0.9065,0.4934
1694639823195312,-8.263697,0.981602,5.37488,0.67663,0.27665,0.19334
1694639823203125,-8.264697,0.962602,5.35288,0.73463,0.40665,0.30834
1694639823210937,-8.257697,0.913602,5.37688,0.78763,0.39665,0.37034
1694639823218750,-8.285697,0.846602,5.42488,0.59163,0.43865,0.40334
1694639823226562,-8.335697,0.762602,5.46788,0.45263,0.65265,0.41634
1694639823234375,-8.375697,0.714602,5.47488,0.31663,0.70465,0.41934
1694639823242187,-8.390697,0.662602,5.47688,0.1463,0.80765,0.30434
1694639823250000,-8.427697,0.631602,5.45888,0.10437,0.84765,0.29134
1694639823257812,-8.490697,0.605602,5.40688,0.29337,0.82165,0.32134
1694639823265625,-8.528697,0.623602,5.32088,0.32737,0.74165,0.30534
1694639823273437,-8.549697,0.655602,5.20388,0.32637,0.72565,0.33734
1694639823281250,-8.547697,0.675602,5.10888,0.23037,0.85065,0.32234
1694639823289062,-8.554697,0.687602,5.6088,0.31437,0.96865,0.43534
1694639823296875,-8.548697,0.676602,5.8388,0.26737,0.97965,0.53334
1694639823304687,-8.512697,0.629602,5.13788,0.11537,0.92765,0.54534
1694639823312500,-8.430697,0.574602,5.20588,0.7363,0.93565,0.59634
1694639823320312,-8.362697,0.533602,5.30988,0.22163,0.81265,0.59534
1694639823328125,-8.295697,0.496602,5.41088,0.38263,0.78465,0.48234
1694639823335937,-8.269697,0.432602,5.52188,0.56163,0.63165,0.40234
1694639823343750,-8.290697,0.432602,5.57588,0.70263,0.42265,0.29234
1694639823351562,-8.275697,0.454602,5.57588,0.91763,0.46365,0.25734
1694639823359375,-8.280697,0.515602,5.51488,0.97463,0.37265,0.24534
1694639823367187,-8.291697,0.573602,5.43188,0.101463,0.17965,0.30634
1694639823375000,-8.315697,0.642602,5.35888,0.104863,0.10065,0.35434
1694639823382812,-8.340697,0.740602,5.33888,0.99063,0.3235,0.43134
1694639823390625,-8.315697,0.839602,5.33888,0.96563,0.3165,0.49934
1694639823398437,-8.223697,0.824602,5.34088,0.98563,0.27265,0.52934
1694639823406250,-8.83697,0.754602,5.40688,0.96463,0.58065,0.51534
1694639823414062,-8.30697,0.675602,5.46788,0.96463,0.39465,0.40234
1694639823421875,-8.25697,0.624602,5.51688,0.70663,0.13065,0.25834
1694639823429687,-8.29697,0.606602,5.49688,0.48063,0.10235,0.13034
1694639823437500,-8.104697,0.601602,5.40188,0.41363,0.37035,0.434
1694639823445312,-8.162697,0.609602,5.34988,0.19963,0.41835,0.23566
1694639823453125,-8.223697,0.659602,5.40888,0.10463,0.28735,0.31666
1694639823460937,-8.229697,0.714602,5.51488,0.20163,0.30035,0.42966
1694639823468750,-8.313697,0.774602,5.64188,0.42863,0.21735,0.57466
1694639823476562,-8.453697,0.863602,5.81988,0.44463,0.9335,0.49466
1694639823484375,-8.578697,0.953602,5.92188,0.68063,0.14665,0.34666
1694639823492187,-8.622697,-1.44602,5.86788,0.92763,0.48265,0.30166
1694639823500000,-8.610697,-1.144602,5.72988,0.82863,0.97565,0.1266
1694639823507812,-8.573697,-1.176602,5.57188,0.63863,0.144665,0.27434
1694639823515625,-8.554697,-1.152602,5.42288,0.44163,0.171965,0.46834
1694639823523437,-8.580697,-1.72602,5.23788,0.19763,0.159065,0.53334
1694639823531250,-8.648697,0.958602,5.11788,0.10337,0.139265,0.57834
1694639823539062,-8.730697,0.859602,5.11288,0.51937,0.119065,0.67434
1694639823546875,-8.777697,0.748602,5.20588,0.84637,0.133965,0.72434
1694639823554687,-8.742697,0.583602,5.30588,0.84937,0.141365,0.72534
1694639823562500,-8.651697,0.464602,5.33488,0.86137,0.140665,0.64334
1694639823570312,-8.541697,0.326602,5.35688,0.86337,0.139165,0.46734
1694639823578125,-8.415697,0.263602,5.39988,0.78437,0.125365,0.27534
1694639823585937,-8.263697,0.246602,5.42888,0.57637,0.117465,0.11634
1694639823593750,-8.129697,0.219602,5.47188,0.20737,0.102165,0.17166
1694639823601562,-8.65697,0.255602,5.48788,0.4337,0.79265,0.31766
1694639823609375,-8.69697,0.309602,5.56688,0.16463,0.57165,0.33266
1694639823617187,-8.41697,0.393602,5.65488,0.37463,0.38565,0.47666
1694639823625000,-8.18697,0.474602,5.66888,0.58363,0.22965,0.55566
1694639823632812,-7.992697,0.572602,5.61688,0.71063,0.36765,0.55466
1694639823640625,-7.937697,0.629602,5.57388,0.63363,0.48465,0.57366
1694639823648437,-7.838697,0.673602,5.52588,0.80663,0.44865,0.61966
1694639823656250,-7.767697,0.712602,5.48788,0.74663,0.50065,0.58966
1694639823664062,-7.741697,0.723602,5.48788,0.93963,0.38965,0.62066
1694639823671875,-7.761697,0.750602,5.55588,0.96663,0.21165,0.71466
1694639823679687,-7.805697,0.756602,5.59588,0.95663,0.4535,0.74966
1694639823687500,-7.865697,0.770602,5.59588,0.97663,0.35535,0.71866
1694639823695312,-7.906697,0.772602,5.55588,0.99263,0.60635,0.76566
1694639823703125,-7.941697,0.784602,5.51288,0.99663,0.86935,0.71866
1694639823710937,-8.21697,0.774602,5.50188,0.96863,0.110635,0.76066
1694639823718750,-8.159697,0.748602,5.49688,0.94963,0.135735,0.60666
1694639823726562,-8.251697,0.713602,5.45888,0.62763,0.142035,0.55866
1694639823734375,-8.294697,0.650602,5.47388,0.19563,0.108735,0.44866
1694639823742187,-8.358697,0.576602,5.45588,0.16137,0.76535,0.23966
1694639823750000,-8.433697,0.513602,5.43788,0.37237,0.36235,0.4666
1694639823757812,-8.568697,0.472602,5.40688,0.35437,0.28835,0.24134
1694639823765625,-8.737697,0.461602,5.33888,0.37537,0.26535,0.30734
1694639823773437,-8.938697,0.482602,5.23288,0.15937,0.38735,0.53034
1694639823781250,-9.86697,0.554602,5.16088,0.12363,0.23935,0.76634
1694639823789062,-9.157697,0.627602,5.12688,0.37663,0.18665,0.104134
1694639823796875,-9.138697,0.676602,5.14088,0.61663,0.82465,0.128234
1694639823804687,-9.32697,0.721602,5.21588,0.92863,0.146465,0.144734
1694639823812500,-8.844697,0.731602,5.32388,0.97263,0.203065,0.153634
1694639823820312,-8.619697,0.722602,5.45488,0.107663,0.240865,0.160534
1694639823828125,-8.412697,0.699602,5.53088,0.124563,0.253065,0.161634
1694639823835937,-8.199697,0.666602,5.58988,0.97963,0.234565,0.157334
1694639823843750,-8.23697,0.643602,5.63888,0.95663,0.204765,0.147234
1694639823851562,-7.885697,0.612602,5.68888,0.72763,0.176565,0.123334
1694639823859375,-7.761697,0.613602,5.74288,0.47863,0.125865,0.96434
1694639823867187,-7.701697,0.569602,5.77188,0.35063,0.76365,0.69134
1694639823875000,-7.720697,0.516602,5.69588,0.20363,0.24965,0.37234
1694639823882812,-7.787697,0.502602,5.56888,0.12463,0.10535,0.16334
1694639823890625,-7.861697,0.502602,5.48788,0.3737,0.34935,0.17366
1694639823898437,-7.958697,0.523602,5.43588,0.3537,0.39135,0.28666
1694639823906250,-8.8697,0.552602,5.43188,0.6037,0.38635,0.34666
1694639823914062,-8.79697,0.574602,5.49488,0.10763,0.33035,0.34966
1694639823921875,-8.178697,0.591602,5.55788,0.37763,0.32135,0.29966
1694639823929687,-8.303697,0.616602,5.61488,0.62063,0.21035,0.28466
1694639823937500,-8.383697,0.645602,5.60588,0.81463,0.3935,0.17266
1694639823945312,-8.405697,0.700602,5.54188,0.93363,0.23365,0.4766
1694639823953125,-8.413697,0.736602,5.48188,0.99263,0.37865,0.14734
1694639823960937,-8.453697,0.742602,5.45688,0.89363,0.57965,0.16434
1694639823968750,-8.473697,0.735602,5.49488,0.73463,0.66065,0.24334
1694639823976562,-8.462697,0.717602,5.55788,0.58863,0.58065,0.24434
1694639823984375,-8.418697,0.682602,5.54488,0.47863,0.62965,0.30634
1694639823992187,-8.293697,0.633602,5.49288,0.52363,0.70465,0.27634
1694639824000000,-8.157697,0.605602,5.43188,0.40963,0.68965,0.19634
1694639824007812,-8.49697,0.606602,5.39788,0.28263,0.59965,0.11534
1694639824015625,-8.2697,0.610602,5.41988,0.25463,0.46565,0.6534
1694639824023437,-7.984697,0.617602,5.42488,0.17363,0.18665,0.11066
1694639824031250,-8.71697,0.625602,5.40688,0.20663,0.10935,0.20766
1694639824039062,-8.186697,0.656602,5.38388,0.14363,0.15435,0.20766
1694639824046875,-8.267697,0.691602,5.41988,0.4037,0.7165,0.20466
1694639824054687,-8.289697,0.695602,5.51488,0.16837,0.24665,0.22166
1694639824062500,-8.359697,0.692602,5.55988,0.24837,0.19965,0.18966
1694639824070312,-8.518697,0.719602,5.54888,0.5637,0.1135,0.2766
1694639824078125,-8.701697,0.776602,5.49788,0.4563,0.11935,0.19434
1694639824085937,-8.850697,0.865602,5.43588,0.16763,0.11035,0.38334
1694639824093750,-8.918697,0.914602,5.38488,0.45363,0.7965,0.72234
1694639824101562,-8.931697,0.942602,5.32088,0.46963,0.43965,0.81734
1694639824109375,-8.839697,0.937602,5.29388,0.50063,0.96565,0.104234
1694639824117187,-8.671697,0.886602,5.34088,0.45563,0.140865,0.116834
1694639824125000,-8.482697,0.758602,5.47188,0.45663,0.175465,0.113534
1694639824132812,-8.296697,0.609602,5.58788,0.30163,0.185365,0.110734
1694639824140625,-8.121697,0.418602,5.66888,0.20863,0.189265,0.104134
1694639824148437,-7.982697,0.254602,5.68588,0.9963,0.158465,0.86434
1694639824156250,-7.881697,0.152602,5.66588,0.5137,0.130265,0.57734
1694639824164062,-7.819697,0.115602,5.63688,0.24437,0.91665,0.36834
1694639824171875,-7.761697,0.130602,5.65488,0.25237,0.67565,0.3634
1694639824179687,-7.711697,0.188602,5.69588,0.17337,0.36565,0.23566
1694639824187500,-7.724697,0.273602,5.70188,0.4963,0.15865,0.34666
1694639824195312,-7.788697,0.366602,5.66388,0.36563,0.15635,0.36666
1694639824203125,-7.863697,0.457602,5.62488,0.74163,0.35335,0.44866
1694639824210937,-7.936697,0.565602,5.62588,0.104263,0.45235,0.52566
1694639824218750,-8.23697,0.676602,5.62288,0.125763,0.46235,0.41666
1694639824226562,-8.94697,0.778602,5.62388,0.151063,0.42235,0.46166
1694639824234375,-8.130697,0.848602,5.63188,0.135363,0.23135,0.30366
1694639824242187,-8.124697,0.846602,5.65288,0.122063,0.2965,0.25366
1694639824250000,-8.134697,0.831602,5.62588,0.118763,0.4035,0.2866
1694639824257812,-8.216697,0.807602,5.53088,0.120963,0.6935,0.24134
1694639824265625,-8.324697,0.796602,5.47688,0.105163,0.5335,0.43334
1694639824273437,-8.438697,0.823602,5.47688,0.97163,0.765,0.56034
1694639824281250,-8.598697,0.861602,5.51288,0.95763,0.19565,0.70434
1694639824289062,-8.690697,0.877602,5.52688,0.65063,0.31465,0.96134
1694639824296875,-8.699697,0.822602,5.45188,0.40763,0.70465,0.100934
1694639824304687,-8.657697,0.717602,5.40288,0.237,0.105165,0.123634
1694639824312500,-8.584697,0.584602,5.41088,0.30437,0.130965,0.131334
1694639824320312,-8.492697,0.463602,5.41388,0.43237,0.134465,0.120034
1694639824328125,-8.388697,0.349602,5.37988,0.60437,0.123665,0.110934
1694639824335937,-8.276697,0.288602,5.38388,0.53937,0.121065,0.90034
1694639824343750,-8.170697,0.276602,5.45388,0.42137,0.106365,0.78634
1694639824351562,-8.85697,0.308602,5.53288,0.18137,0.86065,0.61034
1694639824359375,-8.33697,0.338602,5.59888,0.1263,0.55265,0.35434
1694639824367187,-8.22697,0.374602,5.65088,0.33363,0.19265,0.17934
1694639824375000,-8.41697,0.427602,5.73888,0.49663,0.11535,0.1366
1694639824382812,-8.87697,0.481602,5.79688,0.77263,0.37535,0.20666
1694639824390625,-8.114697,0.576602,5.78188,0.98363,0.48335,0.17566
1694639824398437,-8.87697,0.627602,5.74988,0.102963,0.31435,0.20666
1694639824406250,-8.37697,0.667602,5.71088,0.103363,0.6035,0.6466
1694639824414062,-8.16697,0.681602,5.68888,0.95263,0.7535,0.8066
1694639824421875,-8.36697,0.698602,5.61888,0.82763,0.34135,0.3134
1694639824429687,-8.101697,0.740602,5.53288,0.82463,0.55035,0.6534
1694639824437500,-8.172697,0.750602,5.48088,0.75963,0.39235,0.0
1694639824445312,-8.226697,0.747602,5.47388,0.71163,0.31235,0.3234
1694639824453125,-8.217697,0.715602,5.47688,0.69863,0.32635,0.9534
1694639824460937,-8.216697,0.738602,5.47388,0.61663,0.7635,0.4734
1694639824468750,-8.221697,0.762602,5.48088,0.61263,0.3235,0.1634
1694639824476562,-8.249697,0.779602,5.50188,0.52063,0.4965,0.66
1694639824484375,-8.277697,0.811602,5.48788,0.39763,0.9935,0.12566
1694639824492187,-8.276697,0.826602,5.43788,0.25363,0.22135,0.22166
1694639824500000,-8.283697,0.797602,5.42488,0.9363,0.23335,0.28766
1694639824507812,-8.300697,0.759602,5.43388,0.8637,0.34635,0.31766
1694639824515625,-8.334697,0.710602,5.40688,0.22837,0.57635,0.38366
1694639824523437,-8.366697,0.669602,5.38388,0.39137,0.82835,0.47866
1694639824531250,-8.407697,0.642602,5.34988,0.60237,0.81335,0.54166
1694639824539062,-8.501697,0.581602,5.36188,0.53437,0.79135,0.59166
1694639824546875,-8.580697,0.506602,5.34388,0.51837,0.88335,0.70466
1694639824554687,-8.666697,0.478602,5.32588,0.40237,0.89935,0.60866
1694639824562500,-8.737697,0.486602,5.31388,0.19437,0.88435,0.56066
1694639824570312,-8.787697,0.521602,5.28688,0.4563,0.74835,0.47866
1694639824578125,-8.759697,0.548602,5.25788,0.33463,0.40535,0.38266
1694639824585937,-8.696697,0.544602,5.23788,0.51563,0.13835,0.17566
1694639824593750,-8.605697,0.533602,5.24888,0.78763,0.12265,0.1466
1694639824601562,-8.493697,0.528602,5.31888,0.96663,0.35765,0.12834
1694639824609375,-8.372697,0.513602,5.37088,0.101863,0.53165,0.15934
1694639824617187,-8.235697,0.525602,5.39288,0.99963,0.68565,0.20834
1694639824625000,-8.150697,0.530602,5.43088,0.98663,0.64165,0.17534
1694639824632812,-8.116697,0.559602,5.46488,0.90663,0.43765,0.19134
1694639824640625,-8.112697,0.576602,5.48088,0.72363,0.38865,0.6534
1694639824648437,-8.125697,0.606602,5.48988,0.56363,0.18865,0.3166
1694639824656250,-8.162697,0.634602,5.48788,0.43263,0.14265,0.20766
1694639824664062,-8.200697,0.654602,5.48788,0.39963,0.4965,0.31966
1694639824671875,-8.254697,0.673602,5.48788,0.38163,0.135,0.27066
1694639824679687,-8.316697,0.685602,5.48988,0.46363,0.7865,0.22266
1694639824687500,-8.367697,0.722602,5.47888,0.43263,0.8065,0.27166
1694639824695312,-8.347697,0.736602,5.42288,0.54163,0.13765,0.25366
1694639824703125,-8.370697,0.691602,5.35688,0.60863,0.21865,0.17466
1694639824710937,-8.388697,0.669602,5.31188,0.65463,0.33665,0.4466
1694639824718750,-8.338697,0.696602,5.30688,0.80763,0.48565,0.4734
1694639824726562,-8.271697,0.733602,5.36188,0.96263,0.46365,0.5034
1694639824734375,-8.297697,0.781602,5.38388,0.99863,0.24365,0.24134
1694639824742187,-8.336697,0.853602,5.37488,0.115063,0.17065,0.38334
1694639824750000,-8.348697,0.915602,5.41088,0.115063,0.27865,0.49534
1694639824757812,-8.365697,0.992602,5.45388,0.115163,0.45065,0.55934
1694639824765625,-8.444697,-1.64602,5.44688,0.95963,0.46465,0.70334
1694639824773437,-8.497697,-1.121602,5.45888,0.91063,0.60365,0.83134
1694639824781250,-8.471697,-1.124602,5.48988,0.55163,0.86365,0.94434
1694639824789062,-8.447697,-1.51602,5.54688,0.21363,0.111365,0.100834
1694639824796875,-8.438697,0.963602,5.59688,0.17637,0.121665,0.113734
1694639824804687,-8.421697,0.903602,5.62788,0.70737,0.123365,0.116934
1694639824812500,-8.391697,0.824602,5.67588,0.125737,0.119965,0.117034
1694639824820312,-8.368697,0.759602,5.66188,0.176337,0.108165,0.117234
1694639824828125,-8.356697,0.736602,5.56688,0.193737,0.90165,0.104234
1694639824835937,-8.401697,0.760602,5.49288,0.206637,0.83865,0.99434
1694639824843750,-8.434697,0.762602,5.48788,0.197237,0.85365,0.88334
1694639824851562,-8.410697,0.736602,5.51988,0.181237,0.91765,0.73934
1694639824859375,-8.326697,0.673602,5.58088,0.167137,0.108765,0.64434
1694639824867187,-8.222697,0.593602,5.60588,0.157837,0.132065,0.50134
1694639824875000,-8.138697,0.512602,5.59388,0.143537,0.140265,0.27734
1694639824882812,-8.61697,0.468602,5.56288,0.121137,0.142265,0.4266
1694639824890625,-8.26697,0.448602,5.54388,0.111037,0.130965,0.31766
1694639824898437,-8.2697,0.447602,5.52588,0.93837,0.102265,0.52366
1694639824906250,-7.994697,0.491602,5.51888,0.72337,0.73765,0.78166
1694639824914062,-8.1697,0.542602,5.51988,0.59837,0.37365,0.90766
1694639824921875,-8.2697,0.608602,5.52588,0.51537,0.22265,0.102166
1694639824929687,-8.15697,0.682602,5.56488,0.45637,0.18465,0.108266
1694639824937500,-8.32697,0.744602,5.60588,0.52237,0.13565,0.106666
1694639824945312,-8.62697,0.775602,5.62088,0.38437,0.13265,0.108666
1694639824953125,-8.116697,0.778602,5.61188,0.34237,0.18665,0.113166
1694639824960937,-8.121697,0.753602,5.58088,0.34237,0.20465,0.116366
1694639824968750,-8.121697,0.726602,5.51988,0.35637,0.20865,0.119766
1694639824976562,-8.133697,0.666602,5.48988,0.56437,0.5265,0.118166
1694639824984375,-8.171697,0.648602,5.48088,0.72537,0.16835,0.114866
1694639824992187,-8.201697,0.617602,5.46288,0.75937,0.33035,0.106766
1694639825000000,-8.217697,0.594602,5.44488,0.84937,0.30635,0.95866
1694639825007812,-8.252697,0.572602,5.39988,0.72537,0.33435,0.77966
1694639825015625,-8.272697,0.565602,5.37288,0.64337,0.28835,0.66766
1694639825023437,-8.338697,0.566602,5.34088,0.50937,0.17435,0.52566
1694639825031250,-8.410697,0.562602,5.33488,0.39337,0.9535,0.31866
1694639825039062,-8.439697,0.564602,5.36588,0.31337,0.2965,0.31766
1694639825046875,-8.441697,0.543602,5.37488,0.14337,0.14265,0.11266
1694639825054687,-8.423697,0.531602,5.36388,0.6337,0.24865,0.9634
1694639825062500,-8.394697,0.529602,5.33888,0.1537,0.34265,0.16034
1694639825070312,-8.373697,0.490602,5.35288,0.11063,0.38665,0.16134
1694639825078125,-8.357697,0.478602,5.41288,0.21063,0.37365,0.12834
1694639825085937,-8.356697,0.482602,5.46988,0.23563,0.20865,0.13134
1694639825093750,-8.388697,0.478602,5.47888,0.38763,0.17165,0.8034
1694639825101562,-8.431697,0.527602,5.46088,0.46463,0.13765,0.134
1694639825109375,-8.473697,0.577602,5.41788,0.44763,0.21265,0.3434
1694639825117187,-8.478697,0.637602,5.35688,0.46563,0.16765,0.6534
1694639825125000,-8.461697,0.703602,5.30288,0.56163,0.21565,0.3334
1694639825132812,-8.422697,0.757602,5.27988,0.61463,0.23365,0.19234
1694639825140625,-8.402697,0.793602,5.23288,0.70763,0.35165,0.27334
1694639825148437,-8.395697,0.806602,5.23688,0.79263,0.37065,0.38434
1694639825156250,-8.391697,0.791602,5.24388,0.83763,0.39565,0.45034
1694639825164062,-8.382697,0.753602,5.28288,0.92263,0.46365,0.51234
1694639825171875,-8.367697,0.693602,5.31888,0.97163,0.63665,0.60734
1694639825179687,-8.353697,0.612602,5.37088,0.98763,0.68365,0.54334
1694639825187500,-8.342697,0.556602,5.40888,0.98563,0.77765,0.49634
1694639825195312,-8.361697,0.534602,5.46288,0.95063,0.78965,0.48134
1694639825203125,-8.359697,0.552602,5.51088,0.95063,0.66465,0.41734
1694639825210937,-8.353697,0.587602,5.52888,0.104963,0.54265,0.41634
1694639825218750,-8.341697,0.656602,5.54488,0.124363,0.44665,0.46434
1694639825226562,-8.363697,0.716602,5.51988,0.119763,0.37065,0.52834
1694639825234375,-8.395697,0.772602,5.51288,0.123463,0.45065,0.60634
1694639825242187,-8.417697,0.808602,5.51688,0.124763,0.49365,0.70434
1694639825250000,-8.440697,0.832602,5.54888,0.119563,0.70765,0.75334
1694639825257812,-8.458697,0.828602,5.55088,0.103363,0.83265,0.76934
1694639825265625,-8.451697,0.796602,5.52688,0.114963,0.94465,0.84834
1694639825273437,-8.444697,0.774602,5.49488,0.105363,0.100965,0.81534
1694639825281250,-8.456697,0.765602,5.46588,0.96963,0.111665,0.78434
1694639825289062,-8.428697,0.769602,5.43388,0.97863,0.116965,0.77234
1694639825296875,-8.371697,0.778602,5.37488,0.93163,0.117165,0.73934
1694639825304687,-8.295697,0.799602,5.39088,0.70463,0.124965,0.69134
1694639825312500,-8.209697,0.847602,5.44988,0.75263,0.117165,0.65934
1694639825320312,-8.125697,0.899602,5.53088,0.78863,0.119265,0.60934
1694639825328125,-8.100697,0.941602,5.58088,0.82063,0.116165,0.62534
1694639825335937,-8.108697,0.990602,5.61688,0.90263,0.121265,0.56034
1694639825343750,-8.94697,-1.9602,5.62288,0.97063,0.119965,0.49534
1694639825351562,-8.67697,-1.1602,5.60288,0.90363,0.113665,0.41634
1694639825359375,-8.64697,-1.2602,5.56488,0.71863,0.98665,0.37134
1694639825367187,-8.59697,0.975602,5.53088,0.44563,0.89665,0.29034
1694639825375000,-8.87697,0.904602,5.55088,0.27263,0.76265,0.24034
1694639825382812,-8.137697,0.834602,5.55988,0.1663,0.49765,0.19234
1694639825390625,-8.239697,0.764602,5.52388,0.8137,0.31065,0.11234
1694639825398437,-8.326697,0.729602,5.49888,0.28937,0.18665,0.8034
1694639825406250,-8.398697,0.708602,5.48588,0.32137,0.17065,0.9534
1694639825414062,-8.439697,0.701602,5.50788,0.14837,0.34065,0.3334
1694639825421875,-8.424697,0.706602,5.48988,0.4163,0.50565,0.16334
1694639825429687,-8.410697,0.735602,5.47188,0.38163,0.83465,0.27434
