time,Acceleration X (m/s^2),Acceleration Y (m/s^2),Acceleration Z (m/s^2),Angular Velocity X (rad/s),Angular Velocity Y (rad/s),Angular Velocity Z (rad/s)
1694639971632812,-8.226792,-1.228917,5.533328,-0.061485,,
1694639971640625,-8.269792,-1.261917,5.612328,0.67685,0.45605,0.17637
1694639971648437,-8.347792,-1.273917,5.648328,0.54685,0.64105,0.3237
1694639971656250,-8.399792,-1.261917,5.632328,0.48185,0.78105,0.1663
1694639971664062,-8.449792,-1.212917,5.635328,0.42985,0.92005,0.1537
1694639971671875,-8.481792,-1.143917,5.607328,0.25385,0.92005,0.1537
1694639971687500,-8.370792,-1.15917,5.526328,0.18085,0.86705,0.20437
1694639971695312,-8.244792,-1.3917,5.469328,0.20385,0.76605,0.17537
1694639971703125,-8.98792,-1.2917,5.465328,0.18985,0.79805,0.19137
1694639971710937,-7.953792,-1.27917,5.415328,0.21985,0.54405,0.9437
1694639971734375,-8.145792,-1.159917,5.560328,0.1985,0.17305,0.4763
1694639971742187,-8.293792,-1.143917,5.616328,0.13085,0.14105,0.3163
1694639971750000,-8.446792,-1.128917,5.628328,0.37385,0.15705,0.4763
1694639971757812,-8.563792,-1.71917,5.623328,0.41985,0.21805,0.9563
1694639971765625,-8.622792,0.985917,5.578328,0.51785,0.28405,0.6437
1694639971773437,-8.610792,0.902917,5.510328,0.73985,0.44005,0.20837
1694639971781250,-8.523792,0.843917,5.438328,0.77285,0.62805,0.17637
1694639971789062,-8.430792,0.840917,5.388328,0.88385,0.72105,0.15937
1694639971796875,-8.324792,0.870917,5.377328,0.100185,0.81405,0.1563
1694639971804687,-8.195792,0.932917,5.395328,0.96685,0.90605,0.8063
1694639971812500,-8.100792,-1.11917,5.402328,0.116385,0.93705,0.25563
1694639971820312,-8.28792,-1.50917,5.390328,0.142285,0.90405,0.43163
1694639971828125,-7.981792,-1.31917,5.383328,0.163585,0.82605,0.59063
1694639971835937,-7.957792,-1.27917,5.336328,0.177885,0.82205,0.73563
1694639971843750,-7.973792,0.994917,5.298328,0.194185,0.85205,0.87963
1694639971851562,-7.989792,0.985917,5.291328,0.199185,0.74305,0.95963
1694639971859375,-7.990792,-1.4917,5.329328,0.203185,0.63805,0.100563
1694639971867187,-7.952792,-1.63917,5.368328,0.197785,0.61705,0.105563
1694639971875000,-7.931792,-1.105917,5.417328,0.188085,0.52105,0.111963
1694639971882812,-7.936792,-1.107917,5.469328,0.169185,0.38405,0.121463
1694639971890625,-7.972792,-1.89917,5.517328,0.140185,0.18105,0.114963
1694639971898437,-8.38792,-1.143917,5.521328,0.86685,0.5405,0.107063
1694639971906250,-8.219792,-1.203917,5.573328,0.28485,0.13405,0.97463
1694639971914062,-8.253792,-1.216917,5.653328,0.4415,0.17605,0.76863
1694639971921875,-8.374792,-1.269917,5.567328,0.16915,0.19905,0.62263
1694639971929687,-8.455792,-1.295917,5.528328,0.36915,0.21005,0.52863
1694639971937500,-8.485792,-1.342917,5.546328,0.22215,0.29505,0.25563
1694639971945312,-8.432792,-1.405917,5.569328,0.9215,0.31305,0.11063
1694639971953125,-8.352792,-1.417917,5.546328,0.1785,0.29605,0.11163
1694639971960937,-8.276792,-1.398917,5.535328,0.38885,0.29705,0.7963
1694639971968750,-8.231792,-1.412917,5.530328,0.47085,0.34505,0.6363
1694639971976562,-8.217792,-1.453917,5.512328,0.51885,0.25105,0.7963
1694639971984375,-8.203792,-1.482917,5.474328,0.50285,0.20405,0.6363
1694639971992187,-8.191792,-1.508917,5.451328,0.40585,0.17305,0.1563
1694639972000000,-8.187792,-1.531917,5.454328,0.19285,0.18705,0.3263
1694639972007812,-8.180792,-1.524917,5.494328,0.8115,0.17105,0.6463
1694639972015625,-8.140792,-1.491917,5.526328,0.28915,0.18605,0.11163
1694639972023437,-8.134792,-1.434917,5.560328,0.59515,0.29605,0.6363
1694639972031250,-8.131792,-1.357917,5.571328,0.80815,0.23305,0.0
1694639972039062,-8.148792,-1.247917,5.553328,0.109615,0.23705,0.25637
1694639972046875,-8.199792,-1.163917,5.542328,0.134415,0.21805,0.27137
1694639972054687,-8.284792,-1.115917,5.501328,0.134315,0.1705,0.41537
1694639972062500,-8.290792,-1.42917,5.449328,0.134615,0.13695,0.63937
1694639972070312,-8.237792,0.967917,5.483328,0.116715,0.22895,0.73537
1694639972078125,-8.280792,0.933917,5.469328,0.77915,0.43095,0.76737
1694639972085937,-8.337792,0.926917,5.397328,0.50615,0.52495,0.75137
1694639972093750,-8.429792,0.925917,5.461328,0.21615,0.52695,0.73437
1694639972101562,-8.536792,0.918917,5.510328,0.19085,0.44495,0.72037
1694639972109375,-8.594792,0.951917,5.474328,0.55985,0.30495,0.70337
1694639972117187,-8.595792,-1.28917,5.377328,0.89985,0.14895,0.62337
1694639972125000,-8.540792,-1.116917,5.305328,0.115585,0.13005,0.51137
1694639972132812,-8.405792,-1.252917,5.266328,0.141885,0.24105,0.36837
1694639972140625,-8.265792,-1.381917,5.250328,0.146485,0.28205,0.14337
1694639972148437,-8.140792,-1.503917,5.284328,0.140485,0.32805,0.17563
1694639972156250,-8.49792,-1.606917,5.320328,0.119585,0.46505,0.41663
1694639972164062,-8.26792,-1.653917,5.359328,0.87785,0.46605,0.54263
1694639972171875,-8.53792,-1.619917,5.460328,0.37885,0.55905,0.63863
1694639972179687,-8.83792,-1.534917,5.567328,0.21915,0.68405,0.55863
1694639972187500,-8.117792,-1.416917,5.639328,0.78915,0.86905,0.49563
1694639972195312,-8.125792,-1.294917,5.641328,0.128815,0.93505,0.25563
1694639972203125,-8.149792,-1.175917,5.591328,0.173315,0.88605,0.1763
1694639972210937,-8.127792,-1.30917,5.533328,0.203815,0.82705,0.25537
1694639972218750,-8.108792,0.925917,5.426328,0.202715,0.68605,0.41437
1694639972226562,-8.116792,0.863917,5.379328,0.188315,0.56105,0.52637
1694639972234375,-8.120792,0.844917,5.341328,0.148715,0.19305,0.65637
1694639972242187,-8.156792,0.873917,5.316328,0.97615,0.8105,0.63937
1694639972250000,-8.177792,0.939917,5.327328,0.52115,0.405,0.55937
1694639972257812,-8.187792,-1.36917,5.338328,0.7785,0.2495,0.57637
1694639972265625,-8.233792,-1.91917,5.347328,0.54885,0.2595,0.40037
1694639972273437,-8.286792,-1.153917,5.341328,0.99885,0.7295,0.35237
1694639972281250,-8.350792,-1.171917,5.316328,0.124885,0.5495,0.27337
1694639972289062,-8.416792,-1.162917,5.284328,0.137185,0.7295,0.22437
1694639972296875,-8.447792,-1.128917,5.246328,0.143985,0.3605,0.11337
1694639972304687,-8.442792,-1.98917,5.185328,0.125685,0.1405,0.6337
1694639972312500,-8.399792,-1.118917,5.126328,0.112985,0.1505,0.1663
1694639972320312,-8.352792,-1.134917,5.156328,0.88685,0.9005,0.17663
1694639972328125,-8.313792,-1.145917,5.214328,0.70285,0.205,0.23863
1694639972335937,-8.308792,-1.147917,5.291328,0.45985,0.6305,0.33463
1694639972343750,-8.328792,-1.138917,5.377328,0.42885,0.15605,0.39863
1694639972351562,-8.356792,-1.127917,5.481328,0.26185,0.18405,0.43163
1694639972359375,-8.359792,-1.105917,5.535328,0.37585,0.40305,0.52763
1694639972367187,-8.348792,-1.83917,5.528328,0.40785,0.58905,0.55963
1694639972375000,-8.315792,-1.52917,5.521328,0.42285,0.66705,0.54363
1694639972382812,-8.266792,-1.31917,5.517328,0.48785,0.69805,0.59163
1694639972390625,-8.232792,-1.51917,5.521328,0.48885,0.73005,0.59163
1694639972398437,-8.202792,-1.73917,5.517328,0.62385,0.51405,0.63763
1694639972406250,-8.198792,-1.90917,5.497328,0.71585,0.38705,0.57463
1694639972414062,-8.227792,-1.151917,5.440328,0.75485,0.26505,0.62163
1694639972421875,-8.256792,-1.210917,5.361328,0.79985,0.18505,0.63863
1694639972429687,-8.300792,-1.274917,5.311328,0.93085,0.13905,0.58963
1694639972437500,-8.313792,-1.310917,5.302328,0.95685,0.2195,0.56063
1694639972445312,-8.306792,-1.332917,5.282328,0.86185,0.6595,0.52763
1694639972453125,-8.303792,-1.347917,5.266328,0.70585,0.7795,0.47763
1694639972460937,-8.294792,-1.338917,5.246328,0.49385,0.6295,0.41463
1694639972468750,-8.315792,-1.325917,5.232328,0.19685,0.1895,0.31963
1694639972476562,-8.362792,-1.297917,5.228328,0.4115,0.6195,0.23863
1694639972484375,-8.401792,-1.230917,5.248328,0.28515,0.6195,0.7863
1694639972492187,-8.420792,-1.173917,5.296328,0.42015,0.4705,0.8037
1694639972500000,-8.430792,-1.117917,5.332328,0.67615,0.8105,0.20837
1694639972507812,-8.442792,-1.66917,5.377328,0.62815,0.19005,0.20837
1694639972515625,-8.447792,-1.26917,5.402328,0.50215,0.26605,0.16037
1694639972523437,-8.422792,-1.26917,5.454328,0.34215,0.26705,0.23937
1694639972531250,-8.414792,-1.29917,5.510328,0.11715,0.31305,0.17537
1694639972539062,-8.385792,0.998917,5.546328,0.7885,0.34505,0.14437
1694639972546875,-8.349792,0.985917,5.578328,0.22785,0.36205,0.8037
1694639972554687,-8.291792,-1.917,5.580328,0.40385,0.32905,0.3237
1694639972562500,-8.235792,-1.21917,5.546328,0.44985,0.29405,0.9663
1694639972570312,-8.184792,-1.63917,5.488328,0.55585,0.32905,0.28663
1694639972578125,-8.134792,-1.130917,5.433328,0.58885,0.17305,0.31863
1694639972585937,-8.93792,-1.175917,5.356328,0.52485,0.18805,0.38263
1694639972593750,-8.48792,-1.229917,5.289328,0.50585,0.10605,0.52763
1694639972601562,-8.29792,-1.269917,5.219328,0.33285,0.6395,0.54263
1694639972609375,-8.20792,-1.316917,5.178328,0.13585,0.16195,0.59163
1694639972617187,-8.32792,-1.349917,5.171328,0.11815,0.36195,0.59063
1694639972625000,-8.96792,-1.372917,5.187328,0.64715,0.51695,0.52563
1694639972632812,-8.164792,-1.360917,5.223328,0.82715,0.54895,0.52563
1694639972640625,-8.209792,-1.337917,5.246328,0.110115,0.37495,0.34963
1694639972648437,-8.268792,-1.305917,5.266328,0.137815,0.31195,0.20563
1694639972656250,-8.318792,-1.274917,5.259328,0.156615,0.20495,0.9537
1694639972664062,-8.438792,-1.294917,5.255328,0.164815,0.17195,0.28737
1694639972671875,-8.408792,-1.273917,5.318328,0.165315,0.7695,0.47937
1694639972679687,-8.306792,-1.299917,5.287328,0.160615,0.12295,0.68637
1694639972687500,-8.369792,-1.329917,5.289328,0.138215,0.27895,0.81437
1694639972695312,-8.348792,-1.373917,5.280328,0.115615,0.32195,0.97437
1694639972703125,-8.342792,-1.408917,5.300328,0.108515,0.50495,0.108837
1694639972710937,-8.313792,-1.418917,5.289328,0.102315,0.59995,0.111937
1694639972718750,-8.275792,-1.421917,5.289328,0.97515,0.64695,0.108737
1694639972726562,-8.266792,-1.423917,5.325328,0.99115,0.55295,0.113537
1694639972734375,-8.268792,-1.420917,5.357328,0.108515,0.56795,0.112037
1694639972742187,-8.283792,-1.370917,5.420328,0.114115,0.50795,0.116637
1694639972750000,-8.300792,-1.294917,5.436328,0.131815,0.41495,0.108637
1694639972757812,-8.332792,-1.221917,5.454328,0.138415,0.29095,0.107037
1694639972765625,-8.367792,-1.138917,5.451328,0.152515,0.31995,0.108737
1694639972773437,-8.379792,-1.74917,5.431328,0.161015,0.30695,0.107037
1694639972781250,-8.393792,-1.52917,5.433328,0.162715,0.32395,0.108537
1694639972789062,-8.368792,-1.67917,5.393328,0.139615,0.33695,0.100737
1694639972796875,-8.322792,-1.132917,5.352328,0.128215,0.53895,0.103937
1694639972804687,-8.263792,-1.199917,5.280328,0.103815,0.53895,0.95937
1694639972812500,-8.230792,-1.261917,5.264328,0.95315,0.56895,0.83237
1694639972820312,-8.250792,-1.299917,5.273328,0.110015,0.58695,0.78437
1694639972828125,-8.309792,-1.353917,5.287328,0.108115,0.52395,0.72037
1694639972835937,-8.402792,-1.359917,5.321328,0.116715,0.39995,0.78337
1694639972843750,-8.458792,-1.315917,5.334328,0.135715,0.22795,0.73637
1694639972851562,-8.511792,-1.262917,5.293328,0.141415,0.10495,0.87837
1694639972859375,-8.513792,-1.184917,5.214328,0.154115,0.705,0.99137
1694639972867187,-8.490792,-1.123917,5.144328,0.146215,0.895,0.100737
1694639972875000,-8.467792,-1.39917,5.126328,0.133615,0.2495,0.108637
1694639972882812,-8.431792,0.991917,5.153328,0.122015,0.3995,0.107137
1694639972890625,-8.410792,0.964917,5.203328,0.96315,0.3995,0.107037
1694639972898437,-8.401792,0.934917,5.282328,0.75315,0.2495,0.97437
1694639972906250,-8.433792,0.893917,5.379328,0.34915,0.705,0.95837
1694639972914062,-8.490792,0.837917,5.449328,0.9015,0.10005,0.83137
1694639972921875,-8.567792,0.769917,5.472328,0.2385,0.14705,0.81537
1694639972929687,-8.625792,0.784917,5.456328,0.39785,0.14805,0.75137
1694639972937500,-8.629792,0.826917,5.359328,0.75085,0.24005,0.63937
1694639972945312,-8.577792,0.855917,5.266328,0.109385,0.28805,0.52837
1694639972953125,-8.479792,0.914917,5.208328,0.142085,0.22505,0.35237
1694639972960937,-8.373792,-1.23917,5.158328,0.167785,0.19105,0.14437
1694639972968750,-8.262792,-1.106917,5.171328,0.155585,0.19005,0.23863
1694639972976562,-8.176792,-1.174917,5.194328,0.162085,0.37305,0.54263
1694639972984375,-8.141792,-1.209917,5.183328,0.144885,0.59205,0.74963
1694639972992187,-8.155792,-1.210917,5.232328,0.115485,0.71405,0.89463
1694639973000000,-8.169792,-1.172917,5.309328,0.89885,0.82205,0.103863
1694639973007812,-8.172792,-1.123917,5.343328,0.55785,0.86705,0.103863
1694639973015625,-8.162792,-1.68917,5.329328,0.33285,0.89905,0.97463
1694639973023437,-8.163792,-1.46917,5.311328,0.2815,0.86405,0.96063
1694639973031250,-8.185792,-1.36917,5.305328,0.3915,0.69705,0.81463
1694639973039062,-8.221792,-1.45917,5.271328,0.5815,0.41605,0.70263
1694639973046875,-8.245792,-1.51917,5.239328,0.4185,0.18505,0.55863
1694639973054687,-8.283792,-1.64917,5.226328,0.31285,0.9105,0.46263
1694639973062500,-8.327792,-1.92917,5.226328,0.56985,0.9395,0.25463
1694639973070312,-8.358792,-1.142917,5.246328,0.84485,0.2995,0.15863
1694639973078125,-8.397792,-1.195917,5.255328,0.105685,0.16895,0.17463
1694639973085937,-8.459792,-1.241917,5.239328,0.132985,0.27795,0.7863
1694639973093750,-8.530792,-1.286917,5.205328,0.142585,0.29395,0.6263
1694639973101562,-8.610792,-1.320917,5.181328,0.152185,0.23095,0.3063
1694639973109375,-8.632792,-1.355917,5.145328,0.147385,0.16695,0.6537
1694639973117187,-8.613792,-1.400917,5.126328,0.157085,0.2595,0.3337
1694639973125000,-8.564792,-1.412917,5.147328,0.139085,0.6405,0.11163
1694639973132812,-8.493792,-1.413917,5.203328,0.119485,0.24805,0.19263
1694639973140625,-8.443792,-1.403917,5.230328,0.108585,0.39105,0.27163
1694639973148437,-8.406792,-1.355917,5.278328,0.85785,0.40405,0.35163
1694639973156250,-8.387792,-1.302917,5.309328,0.61385,0.63505,0.44863
1694639973164062,-8.372792,-1.247917,5.348328,0.43585,0.72805,0.49663
1694639973171875,-8.335792,-1.203917,5.411328,0.43885,0.84005,0.51163
1694639973179687,-8.290792,-1.185917,5.418328,0.40885,0.88605,0.62263
1694639973187500,-8.250792,-1.173917,5.442328,0.45485,0.93105,0.71963
1694639973195312,-8.232792,-1.164917,5.433328,0.63785,0.76205,0.67063
1694639973203125,-8.201792,-1.176917,5.395328,0.74785,0.65105,0.70363
1694639973210937,-8.214792,-1.202917,5.347328,0.89685,0.43405,0.70263
1694639973218750,-8.236792,-1.244917,5.309328,0.98985,0.26005,0.65563
1694639973226562,-8.255792,-1.282917,5.289328,0.97585,0.12305,0.55863
1694639973234375,-8.281792,-1.309917,5.271328,0.101185,0.12505,0.47763
1694639973242187,-8.333792,-1.328917,5.248328,0.103485,0.5295,0.36863
1694639973250000,-8.355792,-1.338917,5.223328,0.100685,0.3095,0.30263
1694639973257812,-8.382792,-1.371917,5.194328,0.95285,0.3695,0.25763
1694639973265625,-8.420792,-1.390917,5.160328,0.85485,0.8095,0.8063
1694639973273437,-8.435792,-1.387917,5.142328,0.76185,0.2995,0.6363
1694639973281250,-8.473792,-1.380917,5.140328,0.61285,0.4495,0.6437
1694639973289062,-8.498792,-1.362917,5.153328,0.51685,0.1295,0.11237
1694639973296875,-8.497792,-1.368917,5.162328,0.45385,0.6605,0.14437
1694639973304687,-8.480792,-1.382917,5.151328,0.46785,0.12605,0.6437
1694639973312500,-8.426792,-1.399917,5.185328,0.44885,0.18105,0.9763
1694639973320312,-8.383792,-1.400917,5.217328,0.46785,0.20005,0.16063
1694639973328125,-8.363792,-1.400917,5.269328,0.45385,0.27905,0.25563
1694639973335937,-8.346792,-1.380917,5.305328,0.43885,0.32505,0.38363
1694639973343750,-8.352792,-1.358917,5.345328,0.47285,0.37205,0.46363
1694639973351562,-8.346792,-1.346917,5.350328,0.36185,0.37205,0.51063
1694639973359375,-8.343792,-1.324917,5.325328,0.23785,0.32805,0.52563
1694639973367187,-8.321792,-1.313917,5.253328,0.33085,0.31005,0.52663
1694639973375000,-8.295792,-1.307917,5.208328,0.23385,0.21705,0.47863
1694639973382812,-8.273792,-1.292917,5.167328,0.10285,0.13805,0.43163
1694639973390625,-8.263792,-1.292917,5.162328,0.2515,0.4605,0.31863
1694639973398437,-8.286792,-1.299917,5.156328,0.4315,0.6295,0.19063
1694639973406250,-8.318792,-1.278917,5.144328,0.5815,0.9395,0.23863
1694639973414062,-8.348792,-1.277917,5.128328,0.3915,0.13695,0.7763
1694639973421875,-8.392792,-1.240917,5.135328,0.6515,0.9595,0.0
1694639973429687,-8.431792,-1.224917,5.140328,0.4815,0.6195,0.1637
1694639973437500,-8.474792,-1.188917,5.124328,0.5015,0.6395,0.6337
1694639973445312,-8.521792,-1.140917,5.117328,0.6215,0.2995,0.4837
1694639973453125,-8.564792,-1.84917,5.131328,0.4815,0.4905,0.12837
1694639973460937,-8.563792,-1.42917,5.104328,0.6315,0.6505,0.17637
1694639973468750,-8.549792,-1.33917,5.92328,0.3015,0.12705,0.6437
1694639973476562,-8.523792,-1.27917,5.63328,0.6685,0.14105,0.6363
1694639973484375,-8.485792,-1.10917,5.22328,0.22785,0.17205,0.11163
1694639973492187,-8.463792,-1.6917,4.986328,0.44985,0.13705,0.8163
1694639973500000,-8.447792,-1.11917,4.952328,0.64785,0.0,0.14363
1694639973507812,-8.447792,-1.28917,4.937328,0.82785,0.0,0.30363
1694639973515625,-8.456792,-1.44917,4.941328,0.98985,0.9695,0.39963
1694639973523437,-8.468792,-1.121917,4.943328,0.121685,0.6105,0.49463
1694639973531250,-8.469792,-1.178917,4.948328,0.139785,0.15505,0.59063
1694639973539062,-8.457792,-1.223917,4.946328,0.152785,0.12405,0.70163
1694639973546875,-8.461792,-1.288917,4.964328,0.145985,0.3695,0.70363
1694639973554687,-8.456792,-1.323917,5.4328,0.138185,0.8095,0.75063
1694639973562500,-8.444792,-1.347917,5.13328,0.117585,0.6495,0.87763
1694639973570312,-8.474792,-1.339917,5.45328,0.90985,0.8895,0.80063
1694639973578125,-8.493792,-1.322917,5.77328,0.54985,0.195,0.86063
1694639973585937,-8.482792,-1.324917,5.97328,0.31785,0.10505,0.79863
1694639973593750,-8.458792,-1.298917,5.79328,0.10785,0.15305,0.71763
1694639973601562,-8.468792,-1.265917,5.54328,0.2415,0.15205,0.67063
1694639973609375,-8.468792,-1.236917,5.65328,0.3815,0.1305,0.55863
1694639973617187,-8.488792,-1.236917,5.101328,0.3815,0.6395,0.51063
1694639973625000,-8.497792,-1.231917,5.151328,0.7085,0.11095,0.33463
1694639973632812,-8.525792,-1.203917,5.212328,0.17985,0.11495,0.33663
1694639973640625,-8.551792,-1.215917,5.242328,0.33285,0.12395,0.31763
1694639973648437,-8.600792,-1.242917,5.239328,0.47885,0.5895,0.18963
1694639973656250,-8.636792,-1.271917,5.201328,0.52085,0.6095,0.11063
1694639973664062,-8.629792,-1.292917,5.129328,0.72885,0.10895,0.12763
1694639973671875,-8.594792,-1.327917,5.74328,0.73185,0.7595,0.14263
1694639973679687,-8.527792,-1.373917,5.50328,0.74285,0.6595,0.16063
1694639973687500,-8.466792,-1.407917,5.40328,0.58685,0.7695,0.19063
1694639973695312,-8.411792,-1.458917,5.40328,0.46085,0.12395,0.31863
1694639973703125,-8.386792,-1.499917,5.47328,0.42485,0.1695,0.31863
1694639973710937,-8.395792,-1.512917,5.68328,0.10485,0.4505,0.46263
1694639973718750,-8.397792,-1.505917,5.97328,0.5515,0.15505,0.43063
1694639973726562,-8.406792,-1.465917,5.124328,0.25015,0.20105,0.47863
1694639973734375,-8.392792,-1.422917,5.156328,0.37115,0.38205,0.46463
1694639973742187,-8.377792,-1.386917,5.162328,0.48115,0.44905,0.41563
1694639973750000,-8.319792,-1.323917,5.171328,0.56515,0.65105,0.40063
1694639973757812,-8.282792,-1.268917,5.171328,0.56515,0.63505,0.36863
1694639973765625,-8.307792,-1.234917,5.167328,0.48415,0.40205,0.27263
1694639973773437,-8.301792,-1.225917,5.160328,0.54715,0.24705,0.22363
1694639973781250,-8.342792,-1.260917,5.140328,0.35315,0.9405,0.4763
1694639973789062,-8.390792,-1.284917,5.129328,0.34115,0.3295,0.6337
1694639973796875,-8.404792,-1.346917,5.140328,0.32415,0.10695,0.28837
1694639973804687,-8.454792,-1.409917,5.120328,0.28915,0.19895,0.28837
1694639973812500,-8.504792,-1.444917,5.113328,0.31215,0.18595,0.46237
1694639973820312,-8.548792,-1.463917,5.90328,0.24615,0.19895,0.55937
1694639973828125,-8.568792,-1.454917,5.59328,0.26215,0.2105,0.63937
1694639973835937,-8.594792,-1.446917,5.54328,0.19715,0.5405,0.70437
1694639973843750,-8.597792,-1.420917,5.79328,0.31315,0.20905,0.71937
1694639973851562,-8.591792,-1.383917,5.104328,0.30115,0.28605,0.79837
1694639973859375,-8.599792,-1.340917,5.133328,0.23415,0.35005,0.78337
1694639973867187,-8.622792,-1.300917,5.131328,0.12215,0.55105,0.71837
1694639973875000,-8.619792,-1.291917,5.138328,0.5615,0.69205,0.60737
1694639973882812,-8.616792,-1.249917,5.151328,0.4015,0.80005,0.52737
1694639973890625,-8.567792,-1.244917,5.178328,0.11785,0.90705,0.43037
1694639973898437,-8.510792,-1.255917,5.219328,0.27185,0.94005,0.27237
1694639973906250,-8.452792,-1.234917,5.262328,0.20585,0.107905,0.15937
1694639973914062,-8.406792,-1.195917,5.296328,0.28785,0.109205,0.11263
1694639973921875,-8.394792,-1.164917,5.291328,0.18985,0.107305,0.28863
1694639973929687,-8.398792,-1.110917,5.284328,0.18085,0.112205,0.43163
1694639973937500,-8.422792,-1.57917,5.241328,0.4985,0.111905,0.55963
1694639973945312,-8.425792,-1.6917,5.217328,0.8015,0.107205,0.56063
1694639973953125,-8.459792,0.939917,5.201328,0.4615,0.110305,0.55963
1694639973960937,-8.487792,0.884917,5.135328,0.6215,0.107205,0.59163
1694639973968750,-8.476792,0.864917,5.86328,0.6015,0.93305,0.55963
1694639973976562,-8.459792,0.858917,5.43328,0.7585,0.89305,0.54663
1694639973984375,-8.438792,0.878917,5.4328,0.37385,0.87105,0.49563
1694639973992187,-8.395792,0.916917,4.977328,0.53585,0.70005,0.41563
1694639974000000,-8.347792,0.970917,4.948328,0.87285,0.46705,0.33563
1694639974007812,-8.310792,-1.35917,4.950328,0.98685,0.29605,0.30363
1694639974015625,-8.291792,-1.99917,4.961328,0.107285,0.20405,0.36663
1694639974023437,-8.261792,-1.175917,5.2328,0.122985,0.23405,0.28763
1694639974031250,-8.229792,-1.242917,5.31328,0.130985,0.15705,0.19163
1694639974039062,-8.203792,-1.322917,5.49328,0.140885,0.6405,0.19063
1694639974046875,-8.199792,-1.388917,5.65328,0.131485,0.1805,0.23863
1694639974054687,-8.190792,-1.397917,5.72328,0.118485,0.8005,0.17463
1694639974062500,-8.210792,-1.435917,5.70328,0.99185,0.1705,0.25463
1694639974070312,-8.253792,-1.487917,5.70328,0.67085,0.6505,0.23763
1694639974078125,-8.312792,-1.480917,5.113328,0.31385,0.12505,0.35063
1694639974085937,-8.369792,-1.450917,5.151328,0.13485,0.18605,0.35063
1694639974093750,-8.418792,-1.412917,5.203328,0.5915,0.35805,0.36663
1694639974101562,-8.487792,-1.340917,5.223328,0.22315,0.43505,0.25563
1694639974109375,-8.553792,-1.244917,5.246328,0.32215,0.41905,0.17563
1694639974117187,-8.565792,-1.192917,5.246328,0.24015,0.43705,0.7963
1694639974125000,-8.570792,-1.150917,5.230328,0.6615,0.43805,0.6437
1694639974132812,-8.560792,-1.120917,5.194328,0.2885,0.40705,0.19137
1694639974140625,-8.537792,-1.122917,5.174328,0.21085,0.26905,0.24037
1694639974148437,-8.517792,-1.140917,5.172328,0.38485,0.15905,0.28737
1694639974156250,-8.536792,-1.200917,5.149328,0.49985,0.2005,0.28837
1694639974164062,-8.550792,-1.242917,5.136328,0.47785,0.9595,0.30237
1694639974171875,-8.586792,-1.263917,5.99328,0.51785,0.15095,0.28837
1694639974179687,-8.599792,-1.302917,5.81328,0.48785,0.16595,0.27337
1694639974187500,-8.586792,-1.298917,5.52328,0.42185,0.8995,0.20837
1694639974195312,-8.559792,-1.306917,5.29328,0.25685,0.10795,0.16037
1694639974203125,-8.510792,-1.293917,5.18328,0.9585,0.18805,0.8037
1694639974210937,-8.457792,-1.270917,5.13328,0.6515,0.20205,0.6463
1694639974218750,-8.403792,-1.275917,5.47328,0.22915,0.22905,0.11363
1694639974226562,-8.354792,-1.249917,5.79328,0.21215,0.24405,0.12963
1694639974234375,-8.332792,-1.247917,5.99328,0.17715,0.29405,0.23963
1694639974242187,-8.308792,-1.235917,5.106328,0.14615,0.29005,0.30563
1694639974250000,-8.284792,-1.227917,5.167328,0.12115,0.18705,0.33463
1694639974257812,-8.296792,-1.221917,5.221328,0.4515,0.27905,0.31963
1694639974265625,-8.329792,-1.222917,5.262328,0.8915,0.23405,0.31863
1694639974273437,-8.390792,-1.239917,5.321328,0.4215,0.14005,0.30263
1694639974281250,-8.488792,-1.238917,5.334328,0.11885,0.1495,0.19063
1694639974289062,-8.544792,-1.259917,5.298328,0.13485,0.10695,0.6263
1694639974296875,-8.584792,-1.272917,5.210328,0.9785,0.10895,0.1637
1694639974304687,-8.591792,-1.295917,5.138328,0.12385,0.8195,0.15837
1694639974312500,-8.570792,-1.303917,5.86328,0.19185,0.5995,0.22337
1694639974320312,-8.552792,-1.330917,5.43328,0.20885,0.10595,0.30437
1694639974328125,-8.534792,-1.342917,5.9328,0.18985,0.12395,0.30337
1694639974335937,-8.518792,-1.364917,5.11328,0.21085,0.3505,0.24037
1694639974343750,-8.515792,-1.374917,5.36328,0.16485,0.8305,0.19337
1694639974351562,-8.502792,-1.379917,5.92328,0.17985,0.29905,0.4837
1694639974359375,-8.489792,-1.365917,5.115328,0.12785,0.26505,0.4863
1694639974367187,-8.462792,-1.378917,5.122328,0.3415,0.38605,0.19263
1694639974375000,-8.415792,-1.383917,5.135328,0.4715,0.46605,0.30363
1694639974382812,-8.365792,-1.361917,5.138328,0.10715,0.54505,0.38263
1694639974390625,-8.310792,-1.340917,5.133328,0.14115,0.60505,0.44763
1694639974398437,-8.283792,-1.296917,5.147328,0.31615,0.56005,0.46263
1694639974406250,-8.274792,-1.228917,5.187328,0.30215,0.54205,0.51163
1694639974414062,-8.285792,-1.186917,5.212328,0.33515,0.52705,0.44763
1694639974421875,-8.326792,-1.154917,5.223328,0.36615,0.45005,0.38263
1694639974429687,-8.376792,-1.124917,5.201328,0.38315,0.29605,0.23863
1694639974437500,-8.425792,-1.130917,5.171328,0.33615,0.18805,0.7963
1694639974445312,-8.474792,-1.136917,5.160328,0.33915,0.14005,0.1563
1694639974453125,-8.501792,-1.161917,5.122328,0.27515,0.6205,0.1537
1694639974460937,-8.516792,-1.204917,5.117328,0.9615,0.11105,0.12837
1694639974468750,-8.522792,-1.249917,5.113328,0.3085,0.11105,0.14437
1694639974476562,-8.544792,-1.282917,5.115328,0.17585,0.20305,0.6337
1694639974484375,-8.568792,-1.299917,5.102328,0.30985,0.15805,0.1637
1694639974492187,-8.593792,-1.301917,5.90328,0.43685,0.26705,0.3163
1694639974500000,-8.604792,-1.292917,5.102328,0.44885,0.38805,0.4863
1694639974507812,-8.594792,-1.248917,5.102328,0.46385,0.51005,0.11363
1694639974515625,-8.568792,-1.193917,5.113328,0.44785,0.65305,0.8163
1694639974523437,-8.550792,-1.169917,5.149328,0.36685,0.68105,0.19363
1694639974531250,-8.526792,-1.158917,5.149328,0.27285,0.82405,0.27263
1694639974539062,-8.485792,-1.161917,5.158328,0.22185,0.82305,0.17763
1694639974546875,-8.405792,-1.189917,5.165328,0.20485,0.67805,0.29063
1694639974554687,-8.339792,-1.218917,5.156328,0.19285,0.62205,0.28863
1694639974562500,-8.268792,-1.277917,5.131328,0.24485,0.54305,0.41563
1694639974570312,-8.236792,-1.328917,5.146328,0.19685,0.43305,0.52763
1694639974578125,-8.243792,-1.335917,5.162328,0.21685,0.46505,0.63863
1694639974585937,-8.254792,-1.354917,5.180328,0.12185,0.43305,0.70263
1694639974593750,-8.313792,-1.323917,5.219328,0.1015,0.60305,0.70363
1694639974601562,-8.367792,-1.262917,5.235328,0.3585,0.72705,0.71963
1694639974609375,-8.411792,-1.202917,5.223328,0.1985,0.69605,0.68763
1694639974617187,-8.434792,-1.141917,5.178328,0.10385,0.73105,0.59063
1694639974625000,-8.447792,-1.57917,5.122328,0.9885,0.68205,0.51163
1694639974632812,-8.447792,-1.24917,5.86328,0.16485,0.57505,0.41563
1694639974640625,-8.444792,-1.39917,5.59328,0.14985,0.43605,0.30263
1694639974648437,-8.442792,-1.82917,5.54328,0.38685,0.40205,0.24063
1694639974656250,-8.434792,-1.113917,5.52328,0.51885,0.35805,0.25563
1694639974664062,-8.445792,-1.164917,5.79328,0.66085,0.29205,0.24063
1694639974671875,-8.470792,-1.181917,5.77328,0.74185,0.24505,0.24063
1694639974679687,-8.478792,-1.165917,5.92328,0.77985,0.15705,0.25463
1694639974687500,-8.496792,-1.163917,5.86328,0.74485,0.18605,0.25563
1694639974695312,-8.521792,-1.167917,5.77328,0.74285,0.19805,0.28863
1694639974703125,-8.548792,-1.142917,5.74328,0.61885,0.35905,0.33463
1694639974710937,-8.555792,-1.122917,5.56328,0.72885,0.42005,0.30363
1694639974718750,-8.581792,-1.73917,5.50328,0.72385,0.39905,0.30563
1694639974726562,-8.572792,-1.87917,5.14328,0.82085,0.41405,0.32163
1694639974734375,-8.498792,-1.103917,4.995328,0.96785,0.44505,0.48163
1694639974742187,-8.434792,-1.122917,4.966328,0.116485,0.51005,0.56063
1694639974750000,-8.407792,-1.140917,4.961328,0.128085,0.54405,0.62263
1694639974757812,-8.393792,-1.178917,5.18328,0.128185,0.46405,0.73563
1694639974765625,-8.368792,-1.222917,5.65328,0.146185,0.44905,0.79863
1694639974773437,-8.366792,-1.231917,5.115328,0.146085,0.46405,0.87863
1694639974781250,-8.381792,-1.240917,5.142328,0.126885,0.47905,0.94263
1694639974789062,-8.417792,-1.242917,5.194328,0.119885,0.56605,0.97663
1694639974796875,-8.464792,-1.230917,5.199328,0.102385,0.49205,0.94363
1694639974804687,-8.492792,-1.201917,5.163328,0.92285,0.58205,0.86463
1694639974812500,-8.512792,-1.176917,5.115328,0.92685,0.65105,0.81463
1694639974820312,-8.515792,-1.134917,5.83328,0.82785,0.54005,0.73563
1694639974828125,-8.499792,-1.101917,5.50328,0.71785,0.43305,0.71863
1694639974835937,-8.462792,-1.86917,5.20328,0.87185,0.34805,0.59363
1694639974843750,-8.431792,-1.80917,5.27328,0.79185,0.30405,0.51363
1694639974851562,-8.413792,-1.96917,5.41328,0.90485,0.21005,0.51363
1694639974859375,-8.410792,-1.115917,5.65328,0.98985,0.17005,0.47963
1694639974867187,-8.414792,-1.139917,5.77328,0.100885,0.14005,0.51063
1694639974875000,-8.451792,-1.172917,5.88328,0.116885,0.7605,0.51063
1694639974882812,-8.493792,-1.234917,5.86328,0.134685,0.12305,0.57463
1694639974890625,-8.513792,-1.291917,5.72328,0.152285,0.18405,0.57563
1694639974898437,-8.518792,-1.324917,5.72328,0.144585,0.15405,0.68663
1694639974906250,-8.512792,-1.367917,5.77328,0.132885,0.16505,0.71963
1694639974914062,-8.507792,-1.407917,5.70328,0.123185,0.18005,0.70363
1694639974921875,-8.502792,-1.411917,5.70328,0.104085,0.19905,0.71863
1694639974929687,-8.504792,-1.389917,5.79328,0.94285,0.27705,0.70263
1694639974937500,-8.516792,-1.396917,5.77328,0.80985,0.38005,0.72063
1694639974945312,-8.506792,-1.411917,5.104328,0.71285,0.47805,0.59263
1694639974953125,-8.480792,-1.439917,5.147328,0.72285,0.64205,0.57863
1694639974960937,-8.422792,-1.465917,5.178328,0.71385,0.73005,0.59163
1694639974968750,-8.379792,-1.455917,5.219328,0.64285,0.76905,0.59463
1694639974976562,-8.354792,-1.449917,5.287328,0.49885,0.70805,0.57763
1694639974984375,-8.332792,-1.419917,5.334328,0.46485,0.65705,0.59463
1694639974992187,-8.335792,-1.370917,5.332328,0.30185,0.64205,0.49963
1694639975000000,-8.358792,-1.314917,5.312328,0.15785,0.72405,0.41863
1694639975007812,-8.397792,-1.269917,5.289328,0.9285,0.63105,0.35463
1694639975015625,-8.438792,-1.238917,5.264328,0.515,0.47405,0.24263
1694639975023437,-8.444792,-1.226917,5.237328,0.8215,0.41705,0.19263
1694639975031250,-8.428792,-1.217917,5.205328,0.3085,0.40405,0.14463
1694639975039062,-8.420792,-1.229917,5.187328,0.15785,0.38505,0.8163
1694639975046875,-8.405792,-1.257917,5.178328,0.22585,0.37405,0.6363
1694639975054687,-8.388792,-1.273917,5.169328,0.33785,0.27805,0.14463
1694639975062500,-8.383792,-1.295917,5.135328,0.46785,0.23105,0.16063
1694639975070312,-8.375792,-1.326917,5.86328,0.45385,0.21805,0.17563
1694639975078125,-8.380792,-1.360917,5.52328,0.49785,0.29005,0.22563
1694639975085937,-8.391792,-1.371917,5.45328,0.46485,0.36805,0.22563
1694639975093750,-8.426792,-1.380917,5.72328,0.42485,0.42105,0.28663
1694639975101562,-8.478792,-1.358917,5.140328,0.25685,0.54205,0.24063
1694639975109375,-8.524792,-1.309917,5.224328,0.4185,0.67605,0.25863
1694639975117187,-8.548792,-1.279917,5.242328,0.6285,0.70005,0.20863
1694639975125000,-8.556792,-1.233917,5.230328,0.9585,0.77805,0.20863
1694639975132812,-8.534792,-1.204917,5.228328,0.4785,0.85705,0.22363
1694639975140625,-8.474792,-1.199917,5.226328,0.2685,0.94705,0.19363
1694639975148437,-8.415792,-1.208917,5.221328,0.6485,0.88805,0.27163
1694639975156250,-8.353792,-1.212917,5.235328,0.17085,0.99005,0.30663
1694639975164062,-8.301792,-1.228917,5.284328,0.23785,0.83605,0.33763
1694639975171875,-8.249792,-1.242917,5.309328,0.32185,0.71505,0.33663
1694639975179687,-8.224792,-1.258917,5.334328,0.46885,0.68405,0.35163
1694639975187500,-8.217792,-1.282917,5.357328,0.29385,0.68605,0.28763
1694639975195312,-8.248792,-1.293917,5.332328,0.26085,0.55905,0.43163
1694639975203125,-8.284792,-1.308917,5.287328,0.16185,0.41605,0.38463
1694639975210937,-8.336792,-1.309917,5.246328,0.0,0.43205,0.28863
1694639975218750,-8.380792,-1.295917,5.196328,0.3385,0.43505,0.30363
1694639975226562,-8.404792,-1.236917,5.169328,0.8315,0.35105,0.28963
1694639975234375,-8.425792,-1.195917,5.153328,0.6515,0.37005,0.24063
1694639975242187,-8.461792,-1.171917,5.165328,0.10315,0.42505,0.24363
1694639975250000,-8.474792,-1.136917,5.196328,0.3115,0.45105,0.22363
1694639975257812,-8.488792,-1.107917,5.205328,0.3385,0.65405,0.23963
1694639975265625,-8.482792,-1.85917,5.226328,0.14585,0.68505,0.22363
1694639975273437,-8.466792,-1.85917,5.228328,0.35685,0.81105,0.22363
1694639975281250,-8.446792,-1.108917,5.237328,0.48485,0.74705,0.31963
1694639975289062,-8.425792,-1.135917,5.246328,0.46685,0.65305,0.27263
1694639975296875,-8.404792,-1.146917,5.273328,0.60185,0.73305,0.36663
1694639975304687,-8.389792,-1.192917,5.307328,0.69085,0.69405,0.40163
1694639975312500,-8.373792,-1.218917,5.284328,0.85385,0.68105,0.38563
1694639975320312,-8.346792,-1.256917,5.239328,0.75585,0.78705,0.49763
1694639975328125,-8.318792,-1.283917,5.205328,0.75685,0.72405,0.51363
1694639975335937,-8.273792,-1.279917,5.203328,0.74985,0.68605,0.52663
1694639975343750,-8.242792,-1.280917,5.203328,0.64385,0.63105,0.52963
1694639975351562,-8.236792,-1.278917,5.199328,0.52885,0.72005,0.59463
1694639975359375,-8.240792,-1.278917,5.221328,0.45185,0.67805,0.59263
1694639975367187,-8.258792,-1.244917,5.223328,0.47285,0.69905,0.52763
1694639975375000,-8.281792,-1.215917,5.221328,0.43585,0.66305,0.54563
1694639975382812,-8.306792,-1.197917,5.223328,0.29085,0.68105,0.49663
1694639975390625,-8.322792,-1.174917,5.196328,0.34085,0.58905,0.51163
1694639975398437,-8.336792,-1.145917,5.167328,0.35685,0.57405,0.46363
1694639975406250,-8.351792,-1.149917,5.135328,0.29585,0.43505,0.47863
1694639975414062,-8.382792,-1.151917,5.147328,0.30985,0.40205,0.46363
1694639975421875,-8.400792,-1.153917,5.142328,0.27885,0.27805,0.43163
1694639975429687,-8.429792,-1.157917,5.131328,0.37785,0.29505,0.44663
1694639975437500,-8.454792,-1.168917,5.117328,0.45785,0.28005,0.41463
1694639975445312,-8.458792,-1.196917,5.86328,0.48985,0.31105,0.44663
1694639975453125,-8.457792,-1.225917,5.65328,0.47285,0.23405,0.27063
1694639975460937,-8.450792,-1.286917,5.18328,0.61585,0.18405,0.36863
1694639975468750,-8.463792,-1.314917,4.993328,0.71285,0.13705,0.33563
1694639975476562,-8.470792,-1.332917,4.989328,0.77585,0.8905,0.35263
1694639975484375,-8.462792,-1.345917,5.328,0.79285,0.12205,0.30363
1694639975492187,-8.462792,-1.345917,5.38328,0.73185,0.21805,0.35063
1694639975500000,-8.469792,-1.336917,5.88328,0.71485,0.21905,0.25463
1694639975507812,-8.485792,-1.316917,5.151328,0.47285,0.24905,0.33463
1694639975515625,-8.503792,-1.306917,5.172328,0.44085,0.26405,0.33463
1694639975523437,-8.511792,-1.260917,5.165328,0.26085,0.35705,0.33563
1694639975531250,-8.520792,-1.220917,5.181328,0.19585,0.49705,0.31963
1694639975539062,-8.487792,-1.176917,5.212328,0.21385,0.48205,0.36763
1694639975546875,-8.449792,-1.143917,5.244328,0.19985,0.48405,0.31863
1694639975554687,-8.387792,-1.120917,5.269328,0.24385,0.46605,0.31963
1694639975562500,-8.320792,-1.116917,5.280328,0.19985,0.40605,0.28663
1694639975570312,-8.264792,-1.157917,5.277328,0.34185,0.41905,0.36763
1694639975578125,-8.230792,-1.180917,5.280328,0.40585,0.41805,0.41563
1694639975585937,-8.227792,-1.218917,5.246328,0.43985,0.31205,0.28763
1694639975593750,-8.245792,-1.276917,5.212328,0.44885,0.22005,0.41363
1694639975601562,-8.261792,-1.319917,5.212328,0.31585,0.4605,0.43063
1694639975609375,-8.308792,-1.345917,5.199328,0.34285,0.1995,0.43163
1694639975617187,-8.355792,-1.342917,5.185328,0.21485,0.1695,0.33463
1694639975625000,-8.392792,-1.343917,5.176328,0.21885,0.6195,0.30163
1694639975632812,-8.449792,-1.338917,5.160328,0.13485,0.10995,0.27063
1694639975640625,-8.509792,-1.317917,5.169328,0.5715,0.13995,0.25463
1694639975648437,-8.546792,-1.301917,5.165328,0.9415,0.6295,0.12763
1694639975656250,-8.571792,-1.270917,5.185328,0.11015,0.7795,0.11163
1694639975664062,-8.571792,-1.250917,5.201328,0.11115,0.7805,0.6363
1694639975671875,-8.558792,-1.226917,5.208328,0.8015,0.21805,0.7963
1694639975679687,-8.538792,-1.199917,5.221328,0.6115,0.25005,0.7963
1694639975687500,-8.503792,-1.178917,5.221328,0.9985,0.39005,0.17563
1694639975695312,-8.449792,-1.160917,5.205328,0.23385,0.43805,0.27063
1694639975703125,-8.407792,-1.131917,5.223328,0.37485,0.54505,0.35163
1694639975710937,-8.365792,-1.129917,5.257328,0.45485,0.46605,0.36763
1694639975718750,-8.353792,-1.156917,5.298328,0.45385,0.46505,0.38363
1694639975726562,-8.353792,-1.194917,5.318328,0.48785,0.40405,0.36763
1694639975734375,-8.378792,-1.225917,5.307328,0.54685,0.42605,0.48263
1694639975742187,-8.399792,-1.253917,5.302328,0.64985,0.38705,0.51163
1694639975750000,-8.432792,-1.268917,5.273328,0.68385,0.38905,0.44663
1694639975757812,-8.439792,-1.267917,5.239328,0.48985,0.45105,0.46263
1694639975765625,-8.400792,-1.284917,5.171328,0.48885,0.46505,0.47963
1694639975773437,-8.333792,-1.292917,5.122328,0.35585,0.49405,0.44863
1694639975781250,-8.282792,-1.270917,5.115328,0.19785,0.46505,0.52763
1694639975789062,-8.252792,-1.213917,5.137328,0.1785,0.41505,0.48063
1694639975796875,-8.253792,-1.153917,5.167328,0.7815,0.43305,0.43163
1694639975804687,-8.250792,-1.74917,5.178328,0.4715,0.41605,0.41663
1694639975812500,-8.264792,0.998917,5.214328,0.6215,0.41905,0.36763
1694639975820312,-8.282792,0.951917,5.232328,0.4415,0.43505,0.36763
1694639975828125,-8.318792,0.972917,5.237328,0.7615,0.42005,0.31863
1694639975835937,-8.362792,-1.5917,5.212328,0.7085,0.32605,0.41463
1694639975843750,-8.409792,-1.4917,5.176328,0.24985,0.20205,0.46263
1694639975851562,-8.460792,-1.43917,5.167328,0.34685,0.17005,0.51063
1694639975859375,-8.503792,-1.77917,5.122328,0.72685,0.17705,0.56163
1694639975867187,-8.506792,-1.94917,5.88328,0.101185,0.14005,0.60563
1694639975875000,-8.487792,-1.113917,5.54328,0.124385,0.9505,0.70063
1694639975882812,-8.474792,-1.159917,5.68328,0.128185,0.7105,0.76763
1694639975890625,-8.462792,-1.194917,5.83328,0.128685,0.13705,0.84663
1694639975898437,-8.484792,-1.200917,5.115328,0.124285,0.9205,0.90863
1694639975906250,-8.507792,-1.180917,5.151328,0.112985,0.15505,0.86063
1694639975914062,-8.559792,-1.175917,5.156328,0.88285,0.22905,0.92663
1694639975921875,-8.610792,-1.165917,5.190328,0.70485,0.24605,0.78263
1694639975929687,-8.622792,-1.152917,5.219328,0.50885,0.35605,0.70263
1694639975937500,-8.628792,-1.147917,5.226328,0.36485,0.40305,0.68663
1694639975945312,-8.600792,-1.150917,5.271328,0.19885,0.43205,0.70363
1694639975953125,-8.548792,-1.131917,5.296328,0.21685,0.63505,0.70263
1694639975960937,-8.488792,-1.105917,5.307328,0.23485,0.68505,0.59063
1694639975968750,-8.399792,-1.73917,5.309328,0.21685,0.66905,0.55863
1694639975976562,-8.346792,-1.50917,5.327328,0.40885,0.68305,0.57563
1694639975984375,-8.317792,-1.19917,5.341328,0.42385,0.60505,0.54363
1694639975992187,-8.293792,0.988917,5.341328,0.57385,0.46705,0.55863
1694639976000000,-8.290792,0.990917,5.316328,0.70285,0.38905,0.52663
1694639976007812,-8.295792,0.984917,5.259328,0.87885,0.32605,0.51063
1694639976015625,-8.295792,0.988917,5.203328,0.100885,0.25005,0.44663
1694639976023437,-8.322792,-1.13917,5.131328,0.97185,0.16605,0.52863
1694639976031250,-8.354792,-1.48917,5.86328,0.104985,0.8205,0.56263
1694639976039062,-8.397792,-1.87917,5.59328,0.116485,0.8605,0.54463
1694639976046875,-8.435792,-1.104917,5.47328,0.123185,0.12105,0.55963
1694639976054687,-8.472792,-1.110917,5.59328,0.123385,0.24805,0.57463
1694639976062500,-8.490792,-1.98917,5.70328,0.125185,0.27905,0.63863
1694639976070312,-8.488792,-1.100917,5.83328,0.123885,0.45305,0.63763
1694639976078125,-8.461792,-1.112917,5.106328,0.121685,0.46605,0.57463
1694639976085937,-8.433792,-1.102917,5.124328,0.109885,0.44405,0.62563
1694639976093750,-8.408792,-1.85917,5.162328,0.102085,0.44705,0.62363
1694639976101562,-8.376792,-1.91917,5.192328,0.102285,0.54405,0.57463
1694639976109375,-8.345792,-1.110917,5.223328,0.97285,0.52705,0.62363
1694639976117187,-8.325792,-1.132917,5.223328,0.87685,0.40205,0.59163
1694639976125000,-8.321792,-1.180917,5.208328,0.92985,0.32605,0.65463
1694639976132812,-8.307792,-1.223917,5.169328,0.97785,0.20105,0.62263
1694639976140625,-8.318792,-1.269917,5.147328,0.94585,0.23305,0.60663
1694639976148437,-8.329792,-1.300917,5.126328,0.86285,0.12205,0.63863
1694639976156250,-8.337792,-1.289917,5.128328,0.94785,0.9205,0.63763
1694639976164062,-8.358792,-1.267917,5.115328,0.84585,0.1105,0.59163
1694639976171875,-8.417792,-1.233917,5.144328,0.66585,0.7205,0.52863
1694639976179687,-8.483792,-1.196917,5.174328,0.45685,0.8905,0.54363
1694639976187500,-8.530792,-1.175917,5.162328,0.21585,0.12205,0.49463
1694639976195312,-8.575792,-1.148917,5.142328,0.18485,0.17005,0.44663
1694639976203125,-8.616792,-1.121917,5.131328,0.6985,0.15305,0.43163
1694639976210937,-8.642792,-1.87917,5.122328,0.12085,0.14105,0.27063
1694639976218750,-8.637792,-1.86917,5.124328,0.11185,0.16405,0.28963
1694639976226562,-8.581792,-1.66917,5.126328,0.33985,0.19905,0.30463
1694639976234375,-8.545792,-1.56917,5.158328,0.46685,0.29105,0.28863
1694639976242187,-8.503792,-1.77917,5.208328,0.65985,0.38305,0.30563
1694639976250000,-8.446792,-1.124917,5.242328,0.86885,0.39905,0.28963
1694639976257812,-8.407792,-1.187917,5.269328,0.92085,0.41805,0.36863
1694639976265625,-8.382792,-1.211917,5.275328,0.95385,0.46705,0.33563
1694639976273437,-8.361792,-1.271917,5.280328,0.92185,0.45105,0.35163
1694639976281250,-8.365792,-1.307917,5.273328,0.71185,0.46605,0.39963
1694639976289062,-8.391792,-1.320917,5.271328,0.49985,0.51105,0.35263
1694639976296875,-8.398792,-1.301917,5.235328,0.40585,0.48205,0.36763
1694639976304687,-8.406792,-1.244917,5.221328,0.30885,0.45105,0.33563
1694639976312500,-8.407792,-1.193917,5.221328,0.15885,0.63305,0.32163
1694639976320312,-8.383792,-1.160917,5.223328,0.12785,0.71305,0.35263
1694639976328125,-8.356792,-1.136917,5.219328,0.8185,0.76305,0.30363
1694639976335937,-8.356792,-1.125917,5.246328,0.0,0.68405,0.28763
1694639976343750,-8.342792,-1.97917,5.282328,0.5885,0.62905,0.30663
1694639976351562,-8.373792,-1.103917,5.271328,0.18885,0.56705,0.29063
1694639976359375,-8.402792,-1.96917,5.271328,0.21985,0.58105,0.30763
1694639976367187,-8.437792,-1.116917,5.264328,0.23885,0.42905,0.28963
1694639976375000,-8.477792,-1.130917,5.269328,0.42085,0.43505,0.30363
1694639976382812,-8.495792,-1.130917,5.248328,0.46885,0.45105,0.28763
1694639976390625,-8.501792,-1.152917,5.237328,0.45385,0.43505,0.30363
1694639976398437,-8.503792,-1.165917,5.230328,0.43685,0.38805,0.25563
1694639976406250,-8.491792,-1.189917,5.205328,0.39185,0.39005,0.28663
1694639976414062,-8.498792,-1.210917,5.187328,0.17585,0.43105,0.27363
1694639976421875,-8.487792,-1.219917,5.187328,0.3315,0.38605,0.22463
1694639976429687,-8.482792,-1.212917,5.194328,0.5015,0.41705,0.19263
1694639976437500,-8.462792,-1.176917,5.210328,0.12715,0.43605,0.20763
1694639976445312,-8.441792,-1.139917,5.212328,0.27615,0.52805,0.17663
1694639976453125,-8.430792,-1.106917,5.235328,0.28915,0.68605,0.19163
1694639976460937,-8.410792,-1.64917,5.271328,0.33515,0.78005,0.20763
1694639976468750,-8.377792,-1.67917,5.237328,0.22915,0.80805,0.20863
1694639976476562,-8.343792,-1.63917,5.203328,0.6715,0.85605,0.19263
1694639976484375,-8.287792,-1.73917,5.171328,0.6515,0.82505,0.22363
1694639976492187,-8.242792,-1.67917,5.160328,0.1515,0.67005,0.22363
1694639976500000,-8.187792,-1.88917,5.167328,0.2585,0.66105,0.22663
1694639976507812,-8.168792,-1.101917,5.196328,0.4815,0.46705,0.19163
1694639976515625,-8.184792,-1.101917,5.219328,0.3215,0.27905,0.19163
1694639976523437,-8.240792,-1.92917,5.219328,0.4915,0.23005,0.20863
1694639976531250,-8.306792,-1.64917,5.223328,0.1915,0.21105,0.16163
1694639976539062,-8.364792,-1.39917,5.205328,0.4715,0.18505,0.20763
1694639976546875,-8.411792,-1.18917,5.178328,0.6215,0.17205,0.7963
1694639976554687,-8.417792,-1.12917,5.158328,0.5315,0.17905,0.13063
1694639976562500,-8.405792,-1.45917,5.147328,0.6615,0.16605,0.17763
1694639976570312,-8.352792,-1.94917,5.156328,0.3015,0.18605,0.19163
1694639976578125,-8.302792,-1.152917,5.187328,0.6685,0.17105,0.19163
1694639976585937,-8.271792,-1.167917,5.214328,0.6285,0.19505,0.27363
1694639976593750,-8.264792,-1.173917,5.273328,0.0,0.21305,0.25763
1694639976601562,-8.308792,-1.163917,5.334328,0.4615,0.27905,0.25563
1694639976609375,-8.374792,-1.154917,5.364328,0.3515,0.36605,0.28963
1694639976617187,-8.425792,-1.108917,5.388328,0.9515,0.35805,0.17563
1694639976625000,-8.478792,-1.54917,5.377328,0.16115,0.34205,0.11163
1694639976632812,-8.508792,-1.30917,5.332328,0.8315,0.42005,0.3263
1694639976640625,-8.492792,-1.24917,5.289328,0.6915,0.43505,0.4637
1694639976648437,-8.459792,-1.53917,5.248328,0.2415,0.38205,0.4537
1694639976656250,-8.415792,-1.76917,5.212328,0.1915,0.32505,0.63
1694639976664062,-8.368792,-1.114917,5.205328,0.14185,0.32305,0.11363
1694639976671875,-8.333792,-1.161917,5.203328,0.28985,0.37405,0.11263
1694639976679687,-8.309792,-1.196917,5.221328,0.34585,0.42305,0.18063
1694639976687500,-8.312792,-1.205917,5.235328,0.45685,0.35905,0.25463
1694639976695312,-8.352792,-1.220917,5.262328,0.40585,0.34205,0.23963
1694639976703125,-8.400792,-1.197917,5.278328,0.35685,0.38905,0.25563
1694639976710937,-8.449792,-1.165917,5.302328,0.19685,0.40605,0.19163
1694639976718750,-8.497792,-1.100917,5.318328,0.21285,0.43805,0.12763
1694639976726562,-8.520792,-1.22917,5.312328,0.16585,0.42405,0.4663
1694639976734375,-8.520792,0.985917,5.291328,0.9185,0.43505,0.11037
1694639976742187,-8.475792,0.955917,5.239328,0.12585,0.39205,0.19137
1694639976750000,-8.440792,0.972917,5.192328,0.13285,0.36405,0.20337
1694639976757812,-8.411792,0.988917,5.167328,0.19685,0.30005,0.18737
1694639976765625,-8.394792,-1.16917,5.165328,0.36585,0.16705,0.9337
1694639976773437,-8.388792,-1.55917,5.149328,0.56985,0.25205,0.6263
1694639976781250,-8.394792,-1.96917,5.147328,0.66385,0.17205,0.15963
1694639976789062,-8.392792,-1.125917,5.158328,0.70785,0.25905,0.19363
1694639976796875,-8.396792,-1.160917,5.196328,0.82085,0.32105,0.24163
1694639976804687,-8.421792,-1.158917,5.217328,0.83785,0.43205,0.30563
1694639976812500,-8.438792,-1.130917,5.194328,0.75185,0.42205,0.44563
1694639976820312,-8.445792,-1.112917,5.183328,0.71585,0.49905,0.36663
1694639976828125,-8.442792,-1.70917,5.169328,0.61785,0.51405,0.38363
1694639976835937,-8.422792,-1.39917,5.124328,0.57085,0.49905,0.39863
1694639976843750,-8.391792,-1.29917,5.92328,0.56885,0.52905,0.41563
1694639976851562,-8.357792,-1.18917,5.113328,0.58985,0.45305,0.44563
1694639976859375,-8.342792,-1.16917,5.113328,0.68385,0.28005,0.39863
1694639976867187,-8.328792,-1.36917,5.135328,0.71885,0.17105,0.44663
1694639976875000,-8.332792,-1.50917,5.180328,0.74785,0.18605,0.36763
1694639976882812,-8.357792,-1.54917,5.203328,0.72885,0.16805,0.36763
1694639976890625,-8.410792,-1.68917,5.226328,0.84785,0.21905,0.36663
1694639976898437,-8.464792,-1.74917,5.223328,0.84685,0.22005,0.31863
1694639976906250,-8.516792,-1.83917,5.221328,0.68185,0.18505,0.38363
1694639976914062,-8.565792,-1.98917,5.196328,0.89185,0.21705,0.39963
1694639976921875,-8.616792,-1.113917,5.163328,0.90685,0.16605,0.48063
1694639976929687,-8.604792,-1.110917,5.138328,0.89585,0.29505,0.55863
1694639976937500,-8.594792,-1.100917,5.124328,0.95585,0.33905,0.51163
1694639976945312,-8.533792,-1.94917,5.129328,0.98885,0.43405,0.55963
1694639976953125,-8.474792,-1.66917,5.138328,0.82485,0.41505,0.54463
1694639976960937,-8.409792,-1.62917,5.138328,0.82585,0.41605,0.55963
1694639976968750,-8.344792,-1.70917,5.131328,0.82585,0.47905,0.54463
1694639976976562,-8.318792,-1.79917,5.137328,0.71385,0.59005,0.52763
1694639976984375,-8.312792,-1.93917,5.156328,0.76085,0.46305,0.49663
1694639976992187,-8.323792,-1.75917,5.160328,0.74485,0.38505,0.51263
1694639977000000,-8.339792,-1.59917,5.167328,0.74885,0.21805,0.39863
1694639977007812,-8.350792,-1.61917,5.169328,0.76085,0.19905,0.35263
1694639977015625,-8.359792,-1.65917,5.169328,0.72985,0.21705,0.33563
1694639977023437,-8.370792,-1.67917,5.162328,0.68385,0.17205,0.31863
1694639977031250,-8.390792,-1.98917,5.147328,0.50185,0.2095,0.33663
1694639977039062,-8.394792,-1.144917,5.147328,0.43985,0.195,0.31963
1694639977046875,-8.404792,-1.179917,5.144328,0.29885,0.1595,0.33463
1694639977054687,-8.417792,-1.190917,5.147328,0.40985,0.4605,0.31863
1694639977062500,-8.445792,-1.204917,5.144328,0.25985,0.15205,0.35263
1694639977070312,-8.465792,-1.192917,5.138328,0.42385,0.17105,0.30363
1694639977078125,-8.483792,-1.165917,5.151328,0.44185,0.9305,0.30263
1694639977085937,-8.495792,-1.129917,5.144328,0.45585,0.10805,0.28763
1694639977093750,-8.500792,-1.98917,5.158328,0.47185,0.15505,0.28763
1694639977101562,-8.477792,-1.117917,5.181328,0.48685,0.15505,0.25563
1694639977109375,-8.454792,-1.154917,5.187328,0.61885,0.17305,0.22263
1694639977117187,-8.438792,-1.186917,5.167328,0.56885,0.18805,0.22263
1694639977125000,-8.410792,-1.224917,5.169328,0.53485,0.18605,0.23963
1694639977132812,-8.401792,-1.253917,5.190328,0.51685,0.15105,0.27263
1694639977140625,-8.397792,-1.271917,5.210328,0.25885,0.9105,0.20863
1694639977148437,-8.412792,-1.293917,5.210328,0.15885,0.16505,0.16163
1694639977156250,-8.434792,-1.292917,5.194328,0.0,0.17005,0.14363
1694639977164062,-8.437792,-1.290917,5.178328,0.8315,0.16705,0.11363
1694639977171875,-8.452792,-1.294917,5.174328,0.30615,0.21805,0.6363
1694639977179687,-8.436792,-1.308917,5.151328,0.30715,0.32705,0.4763
1694639977187500,-8.404792,-1.335917,5.129328,0.32415,0.40505,0.4863
1694639977195312,-8.353792,-1.331917,5.124328,0.27615,0.34205,0.8063
1694639977203125,-8.308792,-1.341917,5.151328,0.32615,0.48005,0.8163
1694639977210937,-8.293792,-1.305917,5.194328,0.20915,0.39005,0.6363
1694639977218750,-8.285792,-1.246917,5.259328,0.22615,0.31105,0.9563
1694639977226562,-8.310792,-1.216917,5.293328,0.25915,0.28005,0.1563
1694639977234375,-8.326792,-1.183917,5.284328,0.29215,0.26605,0.11137
1694639977242187,-8.362792,-1.165917,5.280328,0.32515,0.17405,0.25637
1694639977250000,-8.393792,-1.171917,5.257328,0.30915,0.19005,0.31937
1694639977257812,-8.429792,-1.166917,5.232328,0.34615,0.14005,0.38237
1694639977265625,-8.448792,-1.166917,5.219328,0.33415,0.12205,0.50937
1694639977273437,-8.463792,-1.170917,5.196328,0.28215,0.11305,0.60637
1694639977281250,-8.471792,-1.176917,5.167328,0.16815,0.9905,0.71937
1694639977289062,-8.467792,-1.201917,5.138328,0.9215,0.6305,0.70137
1694639977296875,-8.452792,-1.204917,5.99328,0.4515,0.6205,0.71737
1694639977304687,-8.451792,-1.239917,5.86328,0.2915,0.9305,0.73337
1694639977312500,-8.448792,-1.276917,5.86328,0.5715,0.16105,0.71937
1694639977320312,-8.467792,-1.314917,5.117328,0.4215,0.18905,0.60637
1694639977328125,-8.509792,-1.328917,5.135328,0.6915,0.20705,0.49537
1694639977335937,-8.554792,-1.317917,5.142328,0.6915,0.30005,0.39937
1694639977343750,-8.596792,-1.288917,5.136328,0.6215,0.50705,0.31537
1694639977351562,-8.600792,-1.239917,5.163328,0.11915,0.64105,0.30337
1694639977359375,-8.588792,-1.173917,5.208328,0.25215,0.85605,0.22237
1694639977367187,-8.548792,-1.111917,5.226328,0.26415,0.90605,0.20737
1694639977375000,-8.482792,-1.34917,5.221328,0.32915,0.89005,0.20737
1694639977382812,-8.414792,0.975917,5.223328,0.30915,0.98305,0.0
1694639977390625,-8.377792,0.955917,5.253328,0.33215,0.86605,0.5063
1694639977398437,-8.348792,0.935917,5.269328,0.33015,0.77705,0.4637
1694639977406250,-8.329792,0.952917,5.280328,0.35715,0.70205,0.1537
1694639977414062,-8.322792,0.959917,5.289328,0.25915,0.46905,0.9637
1694639977421875,-8.334792,0.981917,5.323328,0.10015,0.48305,0.1663
1694639977429687,-8.374792,0.985917,5.327328,0.6815,0.26305,0.3137
1694639977437500,-8.414792,0.983917,5.318328,0.15785,0.21705,0.11137
1694639977445312,-8.445792,0.984917,5.269328,0.22485,0.17205,0.1537
1694639977453125,-8.497792,0.997917,5.210328,0.39985,0.18705,0.11137
1694639977460937,-8.541792,-1.18917,5.135328,0.54585,0.23305,0.4737
1694639977468750,-8.561792,-1.47917,5.83328,0.61185,0.32605,0.9663
1694639977476562,-8.549792,-1.91917,5.83328,0.73985,0.32605,0.1663
1694639977484375,-8.526792,-1.131917,5.95328,0.90285,0.43705,0.12763
1694639977492187,-8.492792,-1.139917,5.111328,0.95285,0.45205,0.25563
1694639977500000,-8.446792,-1.135917,5.145328,0.89885,0.67705,0.35463
1694639977507812,-8.426792,-1.127917,5.178328,0.84985,0.75205,0.45163
1694639977515625,-8.419792,-1.109917,5.219328,0.75985,0.88505,0.55963
1694639977523437,-8.388792,-1.93917,5.255328,0.69585,0.93305,0.54363
1694639977531250,-8.341792,-1.59917,5.275328,0.59985,0.93205,0.57563
1694639977539062,-8.292792,-1.64917,5.278328,0.48485,0.96305,0.57663
1694639977546875,-8.240792,-1.87917,5.266328,0.46985,0.88505,0.60763
1694639977554687,-8.215792,-1.114917,5.250328,0.45485,0.71105,0.70463
1694639977562500,-8.199792,-1.148917,5.239328,0.58385,0.64905,0.67263
1694639977570312,-8.218792,-1.182917,5.241328,0.66885,0.49605,0.63863
1694639977578125,-8.249792,-1.206917,5.253328,0.65285,0.48105,0.62263
1694639977585937,-8.265792,-1.255917,5.259328,0.79385,0.41605,0.57563
1694639977593750,-8.297792,-1.296917,5.244328,0.81785,0.24905,0.57363
1694639977601562,-8.323792,-1.338917,5.237328,0.79785,0.20205,0.47863
1694639977609375,-8.363792,-1.373917,5.223328,0.73185,0.7605,0.43163
1694639977617187,-8.390792,-1.395917,5.210328,0.53485,0.2805,0.30363
1694639977625000,-8.432792,-1.403917,5.192328,0.45685,0.3005,0.28763
1694639977632812,-8.493792,-1.386917,5.160328,0.21285,0.7805,0.17563
1694639977640625,-8.522792,-1.339917,5.124328,0.2085,0.12705,0.3063
1694639977648437,-8.510792,-1.297917,5.120328,0.6115,0.18805,0.4763
1694639977656250,-8.497792,-1.238917,5.131328,0.4915,0.18805,0.3237
1694639977664062,-8.464792,-1.198917,5.131328,0.13115,0.29805,0.19237
1694639977671875,-8.442792,-1.184917,5.142328,0.8515,0.39105,0.19137
1694639977679687,-8.415792,-1.186917,5.162328,0.3415,0.44005,0.22437
1694639977687500,-8.402792,-1.191917,5.192328,0.9385,0.39105,0.11137
1694639977695312,-8.401792,-1.214917,5.226328,0.26485,0.36305,0.1737
1694639977703125,-8.396792,-1.248917,5.235328,0.42085,0.34405,0.4763
1694639977710937,-8.404792,-1.310917,5.251328,0.48685,0.37505,0.17563
1694639977718750,-8.424792,-1.350917,5.257328,0.48785,0.37405,0.23963
1694639977726562,-8.469792,-1.374917,5.237328,0.47085,0.35805,0.31963
1694639977734375,-8.500792,-1.398917,5.230328,0.41785,0.36705,0.33763
1694639977742187,-8.517792,-1.399917,5.219328,0.26185,0.43405,0.39963
1694639977750000,-8.527792,-1.377917,5.223328,0.11485,0.41905,0.30363
1694639977757812,-8.518792,-1.335917,5.221328,0.2915,0.46605,0.35163
1694639977765625,-8.528792,-1.311917,5.228328,0.19115,0.45005,0.36763
1694639977773437,-8.522792,-1.249917,5.244328,0.32315,0.49605,0.30463
1694639977781250,-8.500792,-1.200917,5.244328,0.39915,0.46805,0.22263
1694639977789062,-8.498792,-1.185917,5.242328,0.30515,0.46705,0.17563
1694639977796875,-8.485792,-1.171917,5.273328,0.40215,0.51505,0.11163
1694639977804687,-8.472792,-1.132917,5.300328,0.35615,0.57605,0.11263
1694639977812500,-8.446792,-1.97917,5.321328,0.19315,0.59205,0.19163
1694639977820312,-8.433792,-1.93917,5.314328,0.19415,0.56005,0.20763
1694639977828125,-8.417792,-1.82917,5.298328,0.8315,0.49505,0.19263
1694639977835937,-8.408792,-1.93917,5.241328,0.6515,0.54305,0.27263
1694639977843750,-8.381792,-1.102917,5.203328,0.2085,0.51405,0.33563
1694639977851562,-8.372792,-1.123917,5.165328,0.20985,0.49405,0.40063
1694639977859375,-8.349792,-1.151917,5.122328,0.29485,0.51305,0.44763
1694639977867187,-8.337792,-1.178917,5.113328,0.31285,0.41905,0.54263
1694639977875000,-8.335792,-1.170917,5.113328,0.39085,0.63605,0.55963
1694639977882812,-8.286792,-1.139917,5.117328,0.45685,0.74605,0.60763
1694639977890625,-8.234792,-1.131917,5.119328,0.42685,0.71605,0.55863
1694639977898437,-8.210792,-1.124917,5.119328,0.21685,0.77805,0.54263
1694639977906250,-8.177792,-1.114917,5.122328,0.19585,0.63505,0.55963
1694639977914062,-8.172792,-1.100917,5.122328,0.21785,0.57705,0.47863
1694639977921875,-8.195792,-1.102917,5.110328,0.16985,0.38905,0.46263
1694639977929687,-8.230792,-1.95917,5.104328,0.17085,0.39005,0.47763
1694639977937500,-8.256792,-1.80917,5.142328,0.21185,0.33805,0.44863
1694639977945312,-8.312792,-1.58917,5.180328,0.20285,0.25005,0.38163
1694639977953125,-8.379792,-1.65917,5.185328,0.25985,0.30705,0.41663
1694639977960937,-8.428792,-1.42917,5.192328,0.34585,0.28005,0.43063
1694639977968750,-8.476792,-1.37917,5.169328,0.50485,0.29605,0.33463
1694639977976562,-8.496792,-1.48917,5.147328,0.55185,0.24805,0.35163
1694639977984375,-8.497792,-1.76917,5.140328,0.70285,0.15705,0.38263
1694639977992187,-8.482792,-1.94917,5.124328,0.80985,0.17105,0.28763
1694639978000000,-8.459792,-1.116917,5.95328,0.92785,0.18805,0.36663
1694639978007812,-8.465792,-1.161917,5.72328,0.99085,0.18705,0.38263
1694639978015625,-8.476792,-1.187917,5.52328,0.87685,0.21805,0.38363
1694639978023437,-8.469792,-1.194917,5.68328,0.89285,0.27905,0.44663
1694639978031250,-8.471792,-1.201917,5.77328,0.90885,0.29505,0.43163
1694639978039062,-8.476792,-1.194917,5.92328,0.68285,0.37205,0.46363
1694639978046875,-8.467792,-1.170917,5.115328,0.69785,0.45005,0.49563
1694639978054687,-8.452792,-1.146917,5.165328,0.58185,0.45905,0.57763
1694639978062500,-8.452792,-1.132917,5.176328,0.47485,0.49605,0.60663
1694639978070312,-8.432792,-1.126917,5.187328,0.48985,0.52805,0.55863
1694639978078125,-8.403792,-1.110917,5.230328,0.47885,0.45105,0.60563
1694639978085937,-8.373792,-1.126917,5.235328,0.46285,0.53005,0.55763
1694639978093750,-8.345792,-1.127917,5.248328,0.55185,0.52705,0.54363
1694639978101562,-8.321792,-1.94917,5.259328,0.47285,0.48105,0.52763
1694639978109375,-8.311792,-1.108917,5.273328,0.47585,0.45105,0.52663
1694639978117187,-8.318792,-1.126917,5.280328,0.45585,0.29405,0.43163
1694639978125000,-8.317792,-1.130917,5.275328,0.60485,0.32705,0.46263
1694639978132812,-8.326792,-1.125917,5.237328,0.67085,0.26605,0.41463
1694639978140625,-8.367792,-1.125917,5.203328,0.53885,0.20205,0.38263
1694639978148437,-8.403792,-1.124917,5.169328,0.61885,0.7705,0.35063
1694639978156250,-8.436792,-1.134917,5.131328,0.58685,0.6405,0.20663
1694639978164062,-8.468792,-1.137917,5.108328,0.52085,0.1595,0.20763
1694639978171875,-8.512792,-1.145917,5.117328,0.53685,0.1495,0.19163
1694639978179687,-8.523792,-1.144917,5.131328,0.57185,0.105,0.20663
1694639978187500,-8.534792,-1.169917,5.122328,0.55385,0.1605,0.20663
1694639978195312,-8.538792,-1.184917,5.111328,0.52185,0.4705,0.19063
1694639978203125,-8.516792,-1.182917,5.106328,0.60285,0.11005,0.20663
1694639978210937,-8.520792,-1.189917,5.111328,0.48785,0.10905,0.25563
1694639978218750,-8.475792,-1.221917,5.120328,0.45285,0.37305,0.23963
1694639978226562,-8.406792,-1.253917,5.142328,0.44885,0.42905,0.30563
1694639978234375,-8.329792,-1.271917,5.149328,0.42385,0.35805,0.28763
1694639978242187,-8.253792,-1.284917,5.160328,0.25985,0.24505,0.33663
1694639978250000,-8.194792,-1.315917,5.160328,0.10285,0.18705,0.27063
1694639978257812,-8.198792,-1.345917,5.151328,0.9515,0.2905,0.20763
1694639978265625,-8.244792,-1.368917,5.171328,0.20315,0.9405,0.23863
1694639978273437,-8.286792,-1.357917,5.223328,0.33915,0.1895,0.14463
1694639978281250,-8.344792,-1.320917,5.280328,0.36615,0.6405,0.4663
1694639978289062,-8.414792,-1.270917,5.325328,0.25715,0.12505,0.0
1694639978296875,-8.487792,-1.214917,5.330328,0.24615,0.7705,0.15937
1694639978304687,-8.531792,-1.149917,5.303328,0.8515,0.4605,0.23937
1694639978312500,-8.585792,-1.86917,5.264328,0.4915,0.4295,0.32037
1694639978320312,-8.592792,-1.64917,5.224328,0.6815,0.4495,0.30337
1694639978328125,-8.601792,-1.75917,5.192328,0.2885,0.4905,0.30337
1694639978335937,-8.576792,-1.59917,5.163328,0.21085,0.14405,0.20837
1694639978343750,-8.551792,-1.89917,5.158328,0.27185,0.20105,0.0
1694639978351562,-8.526792,-1.118917,5.147328,0.35585,0.32705,0.15963
1694639978359375,-8.513792,-1.127917,5.165328,0.53285,0.49805,0.27163
1694639978367187,-8.488792,-1.123917,5.190328,0.69685,0.43605,0.30363
1694639978375000,-8.496792,-1.88917,5.205328,0.66285,0.65005,0.51263
1694639978382812,-8.498792,-1.59917,5.219328,0.69785,0.65205,0.55963
1694639978390625,-8.503792,-1.27917,5.244328,0.60085,0.62105,0.54363
1694639978398437,-8.490792,0.981917,5.278328,0.56885,0.55905,0.52763
1694639978406250,-8.445792,0.986917,5.275328,0.52585,0.43705,0.49363
1694639978414062,-8.408792,-1.24917,5.235328,0.47785,0.43705,0.46163
1694639978421875,-8.384792,-1.65917,5.178328,0.43885,0.41805,0.49563
1694639978429687,-8.349792,-1.111917,5.128328,0.47785,0.34405,0.44563
1694639978437500,-8.313792,-1.139917,5.128328,0.47285,0.21605,0.46363
1694639978445312,-8.331792,-1.159917,5.128328,0.58685,0.17005,0.46263
1694639978453125,-8.364792,-1.160917,5.126328,0.57585,0.18705,0.52563
1694639978460937,-8.400792,-1.135917,5.156328,0.62185,0.17005,0.55863
1694639978468750,-8.446792,-1.106917,5.142328,0.68585,0.18605,0.51063
1694639978476562,-8.500792,-1.70917,5.115328,0.71385,0.32305,0.54363
1694639978484375,-8.532792,-1.52917,5.102328,0.70885,0.39505,0.52963
1694639978492187,-8.538792,-1.38917,5.90328,0.82985,0.43505,0.52663
1694639978500000,-8.516792,-1.45917,5.86328,0.87685,0.41805,0.59163
1694639978507812,-8.496792,-1.50917,5.122328,0.96085,0.38805,0.67063
1694639978515625,-8.444792,-1.68917,5.131328,0.95985,0.43405,0.70263
1694639978523437,-8.402792,-1.62917,5.140328,0.95885,0.47905,0.75163
1694639978531250,-8.391792,-1.43917,5.167328,0.92585,0.50805,0.79963
1694639978539062,-8.398792,-1.20917,5.199328,0.79685,0.52605,0.75163
1694639978546875,-8.402792,0.996917,5.228328,0.71785,0.46505,0.62263
1694639978554687,-8.394792,0.992917,5.246328,0.73085,0.46505,0.55963
1694639978562500,-8.364792,-1.23917,5.230328,0.57185,0.40405,0.52663
1694639978570312,-8.347792,-1.78917,5.212328,0.45785,0.35705,0.46263
1694639978578125,-8.342792,-1.121917,5.196328,0.48885,0.27905,0.41563
1694639978585937,-8.359792,-1.167917,5.156328,0.47585,0.20205,0.38263
1694639978593750,-8.386792,-1.198917,5.144328,0.45685,0.17005,0.36763
1694639978601562,-8.388792,-1.191917,5.156328,0.47385,0.20205,0.38263
1694639978609375,-8.373792,-1.164917,5.169328,0.45985,0.31105,0.47863
1694639978617187,-8.350792,-1.103917,5.165328,0.43885,0.35605,0.41563
1694639978625000,-8.348792,-1.52917,5.162328,0.47485,0.34105,0.52663
1694639978632812,-8.373792,-1.20917,5.160328,0.45885,0.32505,0.52663
1694639978640625,-8.409792,-1.4917,5.156328,0.45785,0.24705,0.47963
1694639978648437,-8.461792,0.983917,5.140328,0.49385,0.18605,0.52663
1694639978656250,-8.508792,0.966917,5.151328,0.58585,0.16905,0.43163
1694639978664062,-8.526792,0.979917,5.156328,0.66385,0.18105,0.43263
1694639978671875,-8.542792,0.998917,5.174328,0.69685,0.13705,0.35163
1694639978679687,-8.517792,-1.26917,5.201328,0.72785,0.7305,0.36863
1694639978687500,-8.489792,-1.72917,5.205328,0.71685,0.9305,0.39863
1694639978695312,-8.470792,-1.130917,5.199328,0.73385,0.15705,0.31863
1694639978703125,-8.454792,-1.181917,5.203328,0.71285,0.10605,0.38363
1694639978710937,-8.419792,-1.192917,5.180328,0.49185,0.12505,0.39863
1694639978718750,-8.395792,-1.207917,5.190328,0.38785,0.11905,0.32063
1694639978726562,-8.361792,-1.220917,5.214328,0.19585,0.16705,0.36863
1694639978734375,-8.319792,-1.223917,5.214328,0.16385,0.17005,0.28763
1694639978742187,-8.311792,-1.197917,5.199328,0.15985,0.14805,0.28963
1694639978750000,-8.315792,-1.175917,5.180328,0.6385,0.18205,0.25663
1694639978757812,-8.338792,-1.143917,5.158328,0.6315,0.17005,0.20763
1694639978765625,-8.374792,-1.125917,5.151328,0.5215,0.18105,0.9763
1694639978773437,-8.406792,-1.80917,5.149328,0.2985,0.20105,0.1663
1694639978781250,-8.442792,-1.29917,5.138328,0.4915,0.18705,0.3263
1694639978789062,-8.482792,0.995917,5.133328,0.5315,0.15005,0.1437
1694639978796875,-8.506792,0.981917,5.149328,0.6515,0.17205,0.4837
1694639978804687,-8.524792,0.945917,5.156328,0.1485,0.15605,0.3137
1694639978812500,-8.547792,0.948917,5.124328,0.15385,0.16505,0.10937
1694639978820312,-8.594792,0.951917,5.115328,0.35085,0.15305,0.7837
1694639978828125,-8.616792,0.948917,5.120328,0.48385,0.17205,0.3163
1694639978835937,-8.617792,0.951917,5.97328,0.46085,0.17905,0.1237
1694639978843750,-8.616792,0.949917,5.90328,0.65885,0.23105,0.6563
1694639978851562,-8.582792,0.976917,5.93328,0.80485,0.32405,0.12963
1694639978859375,-8.551792,0.996917,5.88328,0.86985,0.33905,0.24063
1694639978867187,-8.519792,-1.34917,5.79328,0.72585,0.32305,0.30463
1694639978875000,-8.466792,-1.103917,5.86328,0.71285,0.37405,0.28763
1694639978882812,-8.401792,-1.165917,5.77328,0.70885,0.46005,0.43363
1694639978890625,-8.328792,-1.199917,5.108328,0.50285,0.43205,0.49663
1694639978898437,-8.265792,-1.241917,5.156328,0.42585,0.46405,0.62363
1694639978906250,-8.247792,-1.269917,5.174328,0.27685,0.44405,0.64063
1694639978914062,-8.246792,-1.293917,5.185328,0.19685,0.46105,0.65663
1694639978921875,-8.266792,-1.264917,5.183328,0.8585,0.46405,0.62363
1694639978929687,-8.296792,-1.212917,5.185328,0.5715,0.46505,0.59063
1694639978937500,-8.306792,-1.179917,5.199328,0.7915,0.43105,0.51263
1694639978945312,-8.304792,-1.159917,5.228328,0.15815,0.43405,0.43163
1694639978953125,-8.304792,-1.155917,5.235328,0.24015,0.38705,0.36763
1694639978960937,-8.295792,-1.186917,5.248328,0.22215,0.16905,0.30363
1694639978968750,-8.312792,-1.196917,5.248328,0.23915,0.12305,0.19163
1694639978976562,-8.354792,-1.229917,5.239328,0.15915,0.7895,0.15963
1694639978984375,-8.399792,-1.229917,5.257328,0.24315,0.1795,0.6463
1694639978992187,-8.433792,-1.230917,5.239328,0.12815,0.4495,0.11237
1694639979000000,-8.468792,-1.252917,5.230328,0.18115,0.6405,0.27137
1694639979007812,-8.479792,-1.260917,5.201328,0.11515,0.14305,0.32037
1694639979015625,-8.490792,-1.278917,5.147328,0.5315,0.15905,0.38337
1694639979023437,-8.499792,-1.293917,5.108328,0.8615,0.11305,0.51137
1694639979031250,-8.515792,-1.280917,5.106328,0.2615,0.17105,0.52537
1694639979039062,-8.539792,-1.263917,5.106328,0.8015,0.18005,0.58737
1694639979046875,-8.551792,-1.248917,5.92328,0.5415,0.20905,0.65537
1694639979054687,-8.569792,-1.239917,5.102328,0.6915,0.20805,0.57537
1694639979062500,-8.570792,-1.240917,5.140328,0.6115,0.35905,0.62137
1694639979070312,-8.572792,-1.222917,5.190328,0.7615,0.45405,0.59037
1694639979078125,-8.578792,-1.214917,5.217328,0.5515,0.45705,0.55937
1694639979085937,-8.583792,-1.194917,5.224328,0.6915,0.55105,0.49537
1694639979093750,-8.581792,-1.170917,5.217328,0.3615,0.67505,0.35137
1694639979101562,-8.564792,-1.131917,5.196328,0.4415,0.74705,0.36537
1694639979109375,-8.526792,-1.120917,5.178328,0.4015,0.84405,0.31837
1694639979117187,-8.486792,-1.112917,5.192328,0.7315,0.85905,0.27037
1694639979125000,-8.449792,-1.89917,5.217328,0.6115,0.82005,0.20437
1694639979132812,-8.417792,-1.82917,5.253328,0.5415,0.84305,0.15937
1694639979140625,-8.411792,-1.65917,5.287328,0.7415,0.88705,0.17437
1694639979148437,-8.393792,-1.65917,5.309328,0.9015,0.71405,0.17337
1694639979156250,-8.379792,-1.65917,5.302328,0.5415,0.65605,0.20737
1694639979164062,-8.379792,-1.67917,5.284328,0.7115,0.59405,0.23937
1694639979171875,-8.391792,-1.56917,5.251328,0.5615,0.52905,0.22237
1694639979179687,-8.382792,-1.58917,5.212328,0.7115,0.42305,0.28737
1694639979187500,-8.369792,-1.59917,5.185328,0.9115,0.40205,0.31737
1694639979195312,-8.380792,-1.67917,5.174328,0.12115,0.32505,0.30137
1694639979203125,-8.396792,-1.75917,5.156328,0.11015,0.31805,0.31537
1694639979210937,-8.408792,-1.87917,5.133328,0.5515,0.29605,0.30237
1694639979218750,-8.442792,-1.82917,5.129328,0.7315,0.37205,0.26937
1694639979226562,-8.479792,-1.40917,5.126328,0.8585,0.43105,0.22037
1694639979234375,-8.491792,0.989917,5.117328,0.11785,0.41305,0.17237
1694639979242187,-8.509792,0.962917,5.117328,0.32785,0.57105,0.17237
1694639979250000,-8.493792,0.944917,5.133328,0.44385,0.68605,0.19037
1694639979257812,-8.449792,0.942917,5.111328,0.60685,0.76105,0.1763
1694639979265625,-8.392792,0.985917,5.106328,0.72085,0.73105,0.4963
1694639979273437,-8.344792,-1.28917,5.129328,0.67285,0.69705,0.17763
1694639979281250,-8.292792,-1.73917,5.158328,0.78985,0.71605,0.24063
1694639979289062,-8.269792,-1.100917,5.194328,0.80485,0.73005,0.27263
1694639979296875,-8.276792,-1.106917,5.207328,0.74385,0.71605,0.36763
1694639979304687,-8.271792,-1.89917,5.217328,0.72685,0.49805,0.27163
1694639979312500,-8.274792,-1.91917,5.223328,0.67885,0.45105,0.28763
1694639979320312,-8.278792,-1.95917,5.226328,0.45285,0.42005,0.27163
1694639979328125,-8.294792,-1.88917,5.226328,0.46785,0.42005,0.16063
1694639979335937,-8.327792,-1.65917,5.226328,0.37485,0.36005,0.17463
1694639979343750,-8.372792,-1.69917,5.221328,0.40585,0.23505,0.7963
1694639979351562,-8.401792,-1.106917,5.228328,0.44085,0.20405,0.15863
1694639979359375,-8.421792,-1.122917,5.228328,0.49885,0.20105,0.4863
1694639979367187,-8.434792,-1.164917,5.226328,0.67985,0.20405,0.9563
1694639979375000,-8.434792,-1.195917,5.244328,0.64385,0.16805,0.11363
1694639979382812,-8.429792,-1.201917,5.235328,0.64785,0.17205,0.17563
1694639979390625,-8.415792,-1.200917,5.232328,0.74385,0.18705,0.15963
1694639979398437,-8.408792,-1.186917,5.208328,0.73285,0.17305,0.23863
1694639979406250,-8.404792,-1.188917,5.180328,0.68385,0.26605,0.27063
1694639979414062,-8.389792,-1.195917,5.171328,0.50185,0.37305,0.28763
1694639979421875,-8.370792,-1.229917,5.185328,0.45685,0.38905,0.35163
1694639979429687,-8.343792,-1.238917,5.178328,0.39085,0.38805,0.39963
1694639979437500,-8.322792,-1.262917,5.187328,0.41085,0.43605,0.43063
1694639979445312,-8.284792,-1.281917,5.171328,0.37785,0.45105,0.46263
1694639979453125,-8.273792,-1.276917,5.165328,0.23485,0.34205,0.51063
1694639979460937,-8.253792,-1.279917,5.187328,0.18585,0.35705,0.52663
1694639979468750,-8.248792,-1.277917,5.205328,0.7285,0.32705,0.46263
1694639979476562,-8.252792,-1.317917,5.219328,0.16785,0.23205,0.46263
1694639979484375,-8.295792,-1.330917,5.250328,0.5285,0.18505,0.36763
1694639979492187,-8.339792,-1.335917,5.255328,0.7285,0.9405,0.28663
1694639979500000,-8.386792,-1.343917,5.251328,0.2285,0.6405,0.14263
1694639979507812,-8.449792,-1.342917,5.251328,0.1215,0.5995,0.1737
1694639979515625,-8.496792,-1.333917,5.246328,0.6415,0.1295,0.16037
1694639979523437,-8.554792,-1.343917,5.230328,0.3115,0.5895,0.25637
1694639979531250,-8.612792,-1.340917,5.196328,0.5015,0.7495,0.32037
1694639979539062,-8.646792,-1.351917,5.142328,0.6715,0.5995,0.32037
1694639979546875,-8.621792,-1.378917,5.93328,0.5515,0.7895,0.41437
1694639979554687,-8.605792,-1.370917,5.106328,0.4285,0.11005,0.33437
1694639979562500,-8.578792,-1.376917,5.151328,0.2985,0.22205,0.30437
1694639979570312,-8.547792,-1.346917,5.199328,0.6815,0.36205,0.31937
1694639979578125,-8.505792,-1.304917,5.244328,0.9185,0.43905,0.27137
1694639979585937,-8.492792,-1.268917,5.280328,0.385,0.45805,0.19337
1694639979593750,-8.511792,-1.226917,5.289328,0.6615,0.65805,0.16037
1694639979601562,-8.532792,-1.153917,5.303328,0.5315,0.67105,0.11137
1694639979609375,-8.555792,-1.86917,5.314328,0.6415,0.67405,0.12837
1694639979617187,-8.574792,-1.53917,5.325328,0.4915,0.59305,0.4763
1694639979625000,-8.554792,-1.33917,5.325328,0.6515,0.59405,0.0
1694639979632812,-8.529792,-1.28917,5.334328,0.1215,0.58005,0.4663
1694639979640625,-8.498792,-1.36917,5.314328,0.16685,0.53205,0.19063
1694639979648437,-8.487792,-1.28917,5.266328,0.29285,0.57605,0.27163
1694639979656250,-8.456792,-1.30917,5.226328,0.53485,0.71605,0.36763
1694639979664062,-8.415792,-1.33917,5.196328,0.64685,0.70005,0.35163
1694639979671875,-8.372792,-1.45917,5.171328,0.79585,0.71705,0.46263
1694639979679687,-8.314792,-1.81917,5.153328,0.98985,0.73105,0.55963
1694639979687500,-8.246792,-1.122917,5.158328,0.97585,0.68405,0.70263
1694639979695312,-8.192792,-1.165917,5.171328,0.101985,0.66505,0.70463
1694639979703125,-8.169792,-1.163917,5.192328,0.97685,0.62105,0.75063
1694639979710937,-8.185792,-1.176917,5.205328,0.89685,0.58905,0.81463
1694639979718750,-8.205792,-1.191917,5.194328,0.81585,0.55805,0.83063
1694639979726562,-8.207792,-1.191917,5.185328,0.59385,0.62205,0.81363
1694639979734375,-8.189792,-1.202917,5.162328,0.54285,0.52705,0.79863
1694639979742187,-8.166792,-1.211917,5.160328,0.59285,0.54305,0.81363
1694639979750000,-8.157792,-1.229917,5.135328,0.52685,0.41805,0.78263
1694639979757812,-8.182792,-1.220917,5.126328,0.54285,0.43405,0.76663
1694639979765625,-8.216792,-1.198917,5.151328,0.47685,0.32405,0.70263
1694639979773437,-8.259792,-1.193917,5.165328,0.45885,0.21505,0.57463
1694639979781250,-8.325792,-1.210917,5.208328,0.45785,0.13805,0.47863
1694639979789062,-8.381792,-1.224917,5.210328,0.47485,0.10905,0.35063
1694639979796875,-8.449792,-1.230917,5.208328,0.45385,0.9005,0.27263
1694639979804687,-8.519792,-1.239917,5.167328,0.52485,0.4495,0.25463
1694639979812500,-8.598792,-1.238917,5.115328,0.50585,0.6195,0.22263
1694639979820312,-8.663792,-1.235917,5.106328,0.55485,0.1395,0.14263
1694639979828125,-8.670792,-1.240917,5.86328,0.51885,0.10805,0.20763
1694639979835937,-8.659792,-1.213917,5.104328,0.69685,0.21905,0.19163
1694639979843750,-8.621792,-1.200917,5.115328,0.69785,0.29705,0.23963
1694639979851562,-8.583792,-1.192917,5.149328,0.68185,0.42105,0.33563
1694639979859375,-8.536792,-1.186917,5.183328,0.72885,0.56005,0.35163
1694639979867187,-8.492792,-1.185917,5.192328,0.71085,0.68505,0.31963
1694639979875000,-8.427792,-1.166917,5.217328,0.84085,0.73205,0.39963
1694639979882812,-8.373792,-1.186917,5.223328,0.77885,0.71705,0.39863
1694639979890625,-8.342792,-1.199917,5.226328,0.72685,0.66605,0.44863
1694639979898437,-8.299792,-1.201917,5.262328,0.68285,0.68505,0.44663
1694639979906250,-8.261792,-1.206917,5.268328,0.52085,0.49605,0.51163
1694639979914062,-8.253792,-1.244917,5.259328,0.39185,0.40305,0.47963
1694639979921875,-8.260792,-1.252917,5.259328,0.39285,0.43505,0.44663
1694639979929687,-8.267792,-1.237917,5.241328,0.42185,0.29205,0.44863
1694639979937500,-8.294792,-1.197917,5.219328,0.29685,0.23305,0.41463
1694639979945312,-8.328792,-1.161917,5.189328,0.26385,0.34105,0.44663
1694639979953125,-8.357792,-1.142917,5.194328,0.29785,0.25005,0.33463
1694639979960937,-8.398792,-1.142917,5.187328,0.24885,0.17205,0.30263
1694639979968750,-8.452792,-1.132917,5.160328,0.33085,0.18805,0.31863
1694639979976562,-8.516792,-1.144917,5.142328,0.31585,0.8005,0.23763
1694639979984375,-8.563792,-1.175917,5.129328,0.42485,0.14205,0.14263
1694639979992187,-8.599792,-1.190917,5.142328,0.44985,0.18305,0.14563
1694639980000000,-8.582792,-1.219917,5.122328,0.50485,0.18905,0.15863
1694639980007812,-8.553792,-1.257917,5.95328,0.48885,0.23505,0.20663
1694639980015625,-8.521792,-1.313917,5.83328,0.48785,0.20205,0.28763
1694639980023437,-8.485792,-1.333917,5.101328,0.47385,0.23305,0.33463
1694639980031250,-8.435792,-1.329917,5.104328,0.49285,0.23505,0.31763
1694639980039062,-8.403792,-1.327917,5.115328,0.47885,0.33005,0.34963
1694639980046875,-8.370792,-1.319917,5.113328,0.28285,0.28205,0.30263
1694639980054687,-8.330792,-1.309917,5.101328,0.21485,0.29605,0.28663
1694639980062500,-8.295792,-1.289917,5.90328,0.21585,0.31305,0.23863
1694639980070312,-8.288792,-1.281917,5.88328,0.8685,0.17105,0.28663
1694639980078125,-8.304792,-1.252917,5.128328,0.7615,0.23405,0.19063
1694639980085937,-8.323792,-1.238917,5.183328,0.4415,0.26405,0.25563
1694639980093750,-8.354792,-1.231917,5.228328,0.9415,0.34405,0.12763
1694639980101562,-8.392792,-1.217917,5.241328,0.4515,0.37505,0.15963
1694639980109375,-8.406792,-1.206917,5.232328,0.1415,0.35805,0.15963
1694639980117187,-8.415792,-1.195917,5.226328,0.85,0.32805,0.6363
1694639980125000,-8.418792,-1.166917,5.176328,0.1515,0.28105,0.4763
1694639980132812,-8.438792,-1.157917,5.151328,0.9885,0.28205,0.3163
1694639980140625,-8.481792,-1.138917,5.129328,0.17985,0.18905,0.0
1694639980148437,-8.495792,-1.148917,5.126328,0.22285,0.17005,0.7937
1694639980156250,-8.521792,-1.133917,5.129328,0.22585,0.17305,0.6437
1694639980164062,-8.557792,-1.160917,5.131328,0.33485,0.18205,0.1763
1694639980171875,-8.577792,-1.182917,5.122328,0.46685,0.17005,0.3263
1694639980179687,-8.574792,-1.188917,5.126328,0.45185,0.32805,0.7963
1694639980187500,-8.550792,-1.211917,5.147328,0.31885,0.24405,0.6563
1694639980195312,-8.522792,-1.208917,5.181328,0.24485,0.34405,0.9563
1694639980203125,-8.487792,-1.203917,5.208328,0.19385,0.42105,0.14363
1694639980210937,-8.460792,-1.225917,5.196328,0.1585,0.35705,0.14463
1694639980218750,-8.422792,-1.235917,5.187328,0.1615,0.41905,0.22463
1694639980226562,-8.412792,-1.243917,5.199328,0.6215,0.51405,0.20763
1694639980234375,-8.381792,-1.244917,5.183328,0.4615,0.51305,0.28763
1694639980242187,-8.352792,-1.207917,5.178328,0.6115,0.40405,0.27163
1694639980250000,-8.330792,-1.183917,5.185328,0.4815,0.41905,0.27163
1694639980257812,-8.315792,-1.190917,5.196328,0.6415,0.41905,0.27163
1694639980265625,-8.292792,-1.175917,5.198328,0.3015,0.40405,0.27163
1694639980273437,-8.313792,-1.175917,5.201328,0.4915,0.38605,0.27263
1694639980281250,-8.333792,-1.183917,5.194328,0.6315,0.29505,0.15963
1694639980289062,-8.380792,-1.163917,5.196328,0.4915,0.21505,0.14463
1694639980296875,-8.439792,-1.135917,5.194328,0.6915,0.16505,0.4963
1694639980304687,-8.492792,-1.123917,5.165328,0.3015,0.18805,0.4763
1694639980312500,-8.522792,-1.114917,5.131328,0.0,0.12505,0.1563
1694639980320312,-8.522792,-1.96917,5.90328,0.1385,0.12605,0.14337
1694639980328125,-8.502792,-1.92917,5.104328,0.6485,0.18905,0.11237
1694639980335937,-8.484792,-1.94917,5.115328,0.13085,0.19005,0.11237
1694639980343750,-8.464792,-1.108917,5.120328,0.18885,0.26205,0.6237
1694639980351562,-8.448792,-1.121917,5.131328,0.22585,0.29705,0.3163
1694639980359375,-8.429792,-1.139917,5.142328,0.19385,0.32805,0.4763
1694639980367187,-8.434792,-1.148917,5.158328,0.20985,0.34205,0.14463
1694639980375000,-8.418792,-1.162917,5.158328,0.19385,0.26605,0.1563
1694639980382812,-8.408792,-1.188917,5.183328,0.19685,0.34405,0.14363
1694639980390625,-8.399792,-1.186917,5.185328,0.16785,0.39105,0.20663
1694639980398437,-8.389792,-1.186917,5.194328,0.21185,0.38905,0.23963
1694639980406250,-8.384792,-1.193917,5.185328,0.18285,0.37405,0.33463
1694639980414062,-8.370792,-1.206917,5.178328,0.13485,0.29705,0.22263
1694639980421875,-8.362792,-1.196917,5.183328,0.5085,0.35705,0.31963
1694639980429687,-8.363792,-1.202917,5.162328,0.10285,0.37405,0.30263
1694639980437500,-8.370792,-1.204917,5.149328,0.9885,0.37305,0.27163
1694639980445312,-8.379792,-1.197917,5.135328,0.11885,0.32805,0.20663
1694639980453125,-8.386792,-1.177917,5.131328,0.5485,0.34405,0.22263
1694639980460937,-8.407792,-1.129917,5.142328,0.11485,0.26405,0.17563
1694639980468750,-8.421792,-1.97917,5.160328,0.19485,0.29705,0.6363
1694639980476562,-8.439792,-1.72917,5.183328,0.16785,0.25305,0.1463
1694639980484375,-8.477792,-1.56917,5.205328,0.14985,0.22205,0.1737
1694639980492187,-8.509792,-1.69917,5.199328,0.14485,0.20505,0.12837
1694639980500000,-8.544792,-1.102917,5.176328,0.26085,0.14405,0.16137
1694639980507812,-8.561792,-1.134917,5.140328,0.27885,0.17605,0.11337
1694639980515625,-8.554792,-1.177917,5.115328,0.40585,0.15905,0.9637
1694639980523437,-8.525792,-1.222917,5.120328,0.43485,0.17205,0.0
1694639980531250,-8.504792,-1.258917,5.129328,0.43885,0.25005,0.14363
1694639980539062,-8.454792,-1.280917,5.138328,0.47285,0.32805,0.20663
1694639980546875,-8.409792,-1.290917,5.156328,0.43985,0.42205,0.23863
1694639980554687,-8.389792,-1.295917,5.171328,0.27785,0.48305,0.30363
1694639980562500,-8.373792,-1.273917,5.203328,0.8585,0.56005,0.39863
1694639980570312,-8.362792,-1.255917,5.223328,0.2515,0.62405,0.38263
1694639980578125,-8.352792,-1.240917,5.205328,0.3015,0.57505,0.31963
1694639980585937,-8.345792,-1.232917,5.185328,0.4815,0.48105,0.33563
1694639980593750,-8.334792,-1.207917,5.171328,0.6015,0.45105,0.31863
1694639980601562,-8.326792,-1.199917,5.169328,0.6515,0.40105,0.25663
1694639980609375,-8.317792,-1.203917,5.162328,0.4815,0.26305,0.20763
1694639980617187,-8.323792,-1.200917,5.147328,0.2615,0.17305,0.15863
1694639980625000,-8.346792,-1.216917,5.153328,0.3215,0.10805,0.7963
1694639980632812,-8.368792,-1.238917,5.138328,0.6485,0.7705,0.7963
1694639980640625,-8.385792,-1.259917,5.122328,0.18085,0.8005,0.3063
1694639980648437,-8.398792,-1.275917,5.126328,0.17885,0.9405,0.3163
1694639980656250,-8.425792,-1.285917,5.153328,0.17885,0.4905,0.9637
1694639980664062,-8.470792,-1.303917,5.171328,0.17485,0.9505,0.20737
1694639980671875,-8.505792,-1.307917,5.174328,0.12685,0.7905,0.15937
1694639980679687,-8.539792,-1.317917,5.165328,0.3415,0.11105,0.17637
1694639980687500,-8.575792,-1.303917,5.167328,0.3415,0.20605,0.27237
1694639980695312,-8.576792,-1.277917,5.163328,0.715,0.31205,0.28637
1694639980703125,-8.551792,-1.264917,5.187328,0.7785,0.40805,0.25537
1694639980710937,-8.514792,-1.229917,5.178328,0.5785,0.43605,0.22237
1694639980718750,-8.476792,-1.210917,5.163328,0.12085,0.57405,0.20537
1694639980726562,-8.416792,-1.197917,5.167328,0.12085,0.63905,0.22237
1694639980734375,-8.393792,-1.182917,5.194328,0.18685,0.59205,0.17437
1694639980742187,-8.368792,-1.180917,5.235328,0.20885,0.51505,0.4863
1694639980750000,-8.340792,-1.170917,5.259328,0.28885,0.53005,0.9663
1694639980757812,-8.346792,-1.183917,5.264328,0.30685,0.62405,0.12763
1694639980765625,-8.346792,-1.190917,5.284328,0.23885,0.65105,0.20863
1694639980773437,-8.355792,-1.184917,5.309328,0.19685,0.60905,0.19163
1694639980781250,-8.344792,-1.187917,5.289328,0.19585,0.63905,0.23963
1694639980789062,-8.334792,-1.198917,5.239328,0.18185,0.49905,0.30363
1694639980796875,-8.350792,-1.209917,5.221328,0.6585,0.46605,0.28763
1694639980804687,-8.339792,-1.222917,5.201328,0.3585,0.42005,0.28763
1694639980812500,-8.343792,-1.218917,5.178328,0.6985,0.31105,0.30263
1694639980820312,-8.357792,-1.200917,5.162328,0.4515,0.32605,0.27163
1694639980828125,-8.389792,-1.178917,5.185328,0.4615,0.20105,0.22363
1694639980835937,-8.414792,-1.167917,5.183328,0.5115,0.22605,0.24163
1694639980843750,-8.463792,-1.159917,5.183328,0.285,0.18705,0.12763
1694639980851562,-8.506792,-1.149917,5.171328,0.3315,0.18705,0.3263
1694639980859375,-8.530792,-1.151917,5.160328,0.14885,0.17305,0.4763
1694639980867187,-8.543792,-1.162917,5.142328,0.19485,0.18805,0.4763
1694639980875000,-8.545792,-1.164917,5.135328,0.35685,0.17305,0.3163
1694639980882812,-8.521792,-1.162917,5.124328,0.45085,0.32705,0.8063
1694639980890625,-8.513792,-1.180917,5.131328,0.45785,0.28205,0.22263
1694639980898437,-8.496792,-1.196917,5.124328,0.51885,0.31105,0.23963
1694639980906250,-8.487792,-1.198917,5.144328,0.59885,0.40405,0.30363
1694639980914062,-8.469792,-1.192917,5.169328,0.61485,0.42005,0.30363
1694639980921875,-8.431792,-1.190917,5.203328,0.51985,0.49905,0.30363
1694639980929687,-8.371792,-1.172917,5.219328,0.48285,0.63605,0.28863
1694639980937500,-8.311792,-1.175917,5.178328,0.48185,0.57105,0.33763
1694639980945312,-8.270792,-1.177917,5.169328,0.26285,0.62305,0.38363
1694639980953125,-8.261792,-1.196917,5.149328,0.28985,0.52305,0.43363
1694639980960937,-8.297792,-1.206917,5.133328,0.25885,0.43205,0.35263
1694639980968750,-8.329792,-1.188917,5.131328,0.22485,0.35305,0.32163
1694639980976562,-8.369792,-1.185917,5.142328,0.27485,0.29205,0.32063
1694639980984375,-8.398792,-1.173917,5.147328,0.40585,0.34105,0.35163
1694639980992187,-8.409792,-1.166917,5.144328,0.47285,0.28005,0.30263
1694639981000000,-8.439792,-1.166917,5.129328,0.58085,0.24505,0.28863
1694639981007812,-8.449792,-1.159917,5.97328,0.61585,0.18605,0.30363
1694639981015625,-8.456792,-1.150917,5.74328,0.48885,0.18705,0.28663
1694639981023437,-8.470792,-1.152917,5.63328,0.51885,0.18605,0.30363
1694639981031250,-8.486792,-1.152917,5.77328,0.46985,0.16805,0.28863
1694639981039062,-8.491792,-1.158917,5.65328,0.49185,0.20405,0.30263
1694639981046875,-8.498792,-1.156917,5.74328,0.43985,0.24905,0.27163
1694639981054687,-8.519792,-1.151917,5.83328,0.47385,0.20205,0.33463
1694639981062500,-8.548792,-1.166917,5.83328,0.47285,0.23305,0.31863
1694639981070312,-8.552792,-1.166917,5.77328,0.45985,0.17405,0.23863
1694639981078125,-8.536792,-1.166917,5.77328,0.55585,0.20405,0.22263
1694639981085937,-8.501792,-1.194917,5.86328,0.58185,0.23105,0.30463
1694639981093750,-8.451792,-1.197917,5.95328,0.50285,0.17005,0.28763
1694639981101562,-8.412792,-1.235917,5.104328,0.60085,0.18605,0.30363
1694639981109375,-8.401792,-1.282917,5.122328,0.45485,0.23205,0.35163
1694639981117187,-8.395792,-1.315917,5.126328,0.43985,0.21705,0.30363
1694639981125000,-8.402792,-1.335917,5.140328,0.29485,0.18605,0.33563
1694639981132812,-8.403792,-1.333917,5.138328,0.25685,0.22605,0.35363
1694639981140625,-8.402792,-1.312917,5.149328,0.21485,0.21805,0.30263
1694639981148437,-8.412792,-1.288917,5.153328,0.285,0.20105,0.25563
1694639981156250,-8.412792,-1.272917,5.190328,0.1985,0.23305,0.25563
1694639981164062,-8.423792,-1.230917,5.201328,0.5815,0.23505,0.20663
1694639981171875,-8.441792,-1.200917,5.208328,0.4215,0.25105,0.11063
1694639981179687,-8.463792,-1.148917,5.205328,0.6615,0.24905,0.3263
1694639981187500,-8.481792,-1.123917,5.196328,0.1515,0.20405,0.0
1694639981195312,-8.512792,-1.136917,5.196328,0.6615,0.20405,0.11237
1694639981203125,-8.514792,-1.156917,5.196328,0.12785,0.17205,0.4737
1694639981210937,-8.502792,-1.197917,5.190328,0.21485,0.19105,0.1737
1694639981218750,-8.482792,-1.238917,5.181328,0.38885,0.25105,0.3163
1694639981226562,-8.450792,-1.261917,5.187328,0.48485,0.23505,0.7963
1694639981234375,-8.434792,-1.272917,5.192328,0.45285,0.21905,0.9563
1694639981242187,-8.416792,-1.270917,5.192328,0.46885,0.29705,0.9563
1694639981250000,-8.407792,-1.273917,5.194328,0.40585,0.37405,0.23963
1694639981257812,-8.426792,-1.268917,5.221328,0.32285,0.42005,0.23963
1694639981265625,-8.417792,-1.244917,5.228328,0.32385,0.48305,0.19163
1694639981273437,-8.410792,-1.235917,5.208328,0.40385,0.48205,0.27163
1694639981281250,-8.386792,-1.238917,5.160328,0.33485,0.41205,0.30663
1694639981289062,-8.334792,-1.241917,5.115328,0.30585,0.43305,0.22463
1694639981296875,-8.293792,-1.261917,5.76328,0.25885,0.42005,0.19163
1694639981304687,-8.259792,-1.288917,5.54328,0.37385,0.43705,0.20763
1694639981312500,-8.257792,-1.306917,5.67328,0.24185,0.37305,0.19163
1694639981320312,-8.268792,-1.317917,5.88328,0.25885,0.37505,0.3163
1694639981328125,-8.285792,-1.312917,5.99328,0.32585,0.48505,0.9463
1694639981335937,-8.308792,-1.321917,5.63328,0.46685,0.45305,0.4763
1694639981343750,-8.328792,-1.316917,5.36328,0.45085,0.46805,0.4763
1694639981351562,-8.366792,-1.315917,5.34328,0.43885,0.43905,0.3063
1694639981359375,-8.393792,-1.299917,5.29328,0.22385,0.39205,0.16037
1694639981367187,-8.447792,-1.274917,5.40328,0.19385,0.30005,0.24037
1694639981375000,-8.508792,-1.269917,5.81328,0.20585,0.26805,0.31937
1694639981382812,-8.553792,-1.271917,5.90328,0.18785,0.21905,0.30237
1694639981390625,-8.573792,-1.248917,5.90328,0.17385,0.23705,0.31937
1694639981398437,-8.564792,-1.250917,5.88328,0.27385,0.30105,0.30437
1694639981406250,-8.544792,-1.250917,5.83328,0.41685,0.47205,0.32037
1694639981414062,-8.513792,-1.258917,5.106328,0.46385,0.40905,0.30337
1694639981421875,-8.501792,-1.255917,5.133328,0.45185,0.41105,0.32037
1694639981429687,-8.510792,-1.235917,5.176328,0.53285,0.34805,0.27237
1694639981437500,-8.544792,-1.226917,5.205328,0.56385,0.30105,0.25637
1694639981445312,-8.547792,-1.222917,5.221328,0.61085,0.36205,0.22437
1694639981453125,-8.536792,-1.217917,5.221328,0.67785,0.44005,0.16037
1694639981460937,-8.520792,-1.195917,5.203328,0.48385,0.43805,0.0
1694639981468750,-8.498792,-1.173917,5.192328,0.45585,0.53305,0.7863
1694639981476562,-8.483792,-1.145917,5.174328,0.42385,0.57805,0.22263
1694639981484375,-8.490792,-1.118917,5.138328,0.45585,0.53005,0.30263
1694639981492187,-8.481792,-1.87917,5.99328,0.45785,0.59305,0.35063
1694639981500000,-8.455792,-1.59917,5.77328,0.68385,0.65405,0.47863
1694639981507812,-8.424792,-1.42917,5.38328,0.95885,0.73105,0.62263
1694639981515625,-8.377792,-1.27917,5.27328,0.112285,0.67005,0.68663
1694639981523437,-8.341792,-1.49917,5.63328,0.125585,0.62405,0.71763
1694639981531250,-8.325792,-1.96917,5.95328,0.126985,0.54405,0.78263
1694639981539062,-8.342792,-1.116917,5.153328,0.125485,0.46605,0.79763
1694639981546875,-8.385792,-1.131917,5.208328,0.123685,0.38905,0.70163
1694639981554687,-8.440792,-1.163917,5.210328,0.122185,0.31005,0.71763
1694639981562500,-8.484792,-1.209917,5.181328,0.106185,0.21805,0.66963
1694639981570312,-8.512792,-1.253917,5.129328,0.94785,0.18705,0.58963
1694639981578125,-8.517792,-1.296917,5.86328,0.90885,0.15105,0.59163
1694639981585937,-8.518792,-1.306917,5.50328,0.73685,0.10805,0.54263
1694639981593750,-8.510792,-1.302917,5.20328,0.71885,0.15505,0.52663
1694639981601562,-8.508792,-1.269917,4.989328,0.73485,0.9205,0.51063
1694639981609375,-8.519792,-1.251917,4.986328,0.71785,0.15505,0.44663
1694639981617187,-8.506792,-1.235917,5.9328,0.85085,0.29705,0.52563
1694639981625000,-8.484792,-1.202917,5.63328,0.99285,0.31105,0.52663
1694639981632812,-8.482792,-1.193917,5.113328,0.98085,0.37605,0.50963
1694639981640625,-8.487792,-1.183917,5.126328,0.100785,0.35805,0.51063
1694639981648437,-8.504792,-1.193917,5.126328,0.106085,0.32805,0.54163
1694639981656250,-8.500792,-1.198917,5.129328,0.112285,0.34305,0.55863
1694639981664062,-8.489792,-1.229917,5.122328,0.121585,0.29405,0.54363
1694639981671875,-8.459792,-1.263917,5.104328,0.121885,0.40505,0.55863
1694639981679687,-8.443792,-1.283917,5.88328,0.112185,0.38905,0.54263
1694639981687500,-8.429792,-1.301917,5.65328,0.100585,0.32505,0.55963
1694639981695312,-8.431792,-1.312917,5.43328,0.81285,0.34105,0.54263
1694639981703125,-8.437792,-1.309917,5.18328,0.72085,0.32805,0.50963
1694639981710937,-8.426792,-1.303917,5.11328,0.60785,0.34305,0.52563
1694639981718750,-8.415792,-1.278917,5.4328,0.52785,0.43705,0.50963
1694639981726562,-8.409792,-1.258917,5.20328,0.49585,0.40605,0.50963
1694639981734375,-8.394792,-1.261917,5.45328,0.49085,0.41905,0.51063
1694639981742187,-8.405792,-1.268917,5.81328,0.55385,0.34105,0.44763
1694639981750000,-8.416792,-1.263917,5.95328,0.60385,0.31205,0.41463
1694639981757812,-8.418792,-1.266917,5.92328,0.57085,0.20205,0.38263
1694639981765625,-8.432792,-1.283917,5.79328,0.59985,0.20105,0.33563
1694639981773437,-8.433792,-1.307917,5.63328,0.56985,0.20205,0.31863
1694639981781250,-8.444792,-1.327917,5.38328,0.58785,0.14105,0.27063
1694639981789062,-8.446792,-1.343917,5.22328,0.66685,0.7805,0.25463
1694639981796875,-8.462792,-1.376917,5.13328,0.66185,0.2705,0.22463
1694639981804687,-8.468792,-1.387917,5.18328,0.52085,0.1595,0.20763
1694639981812500,-8.484792,-1.395917,5.20328,0.50485,0.3095,0.19163
1694639981820312,-8.501792,-1.399917,5.38328,0.50785,0.6405,0.20663
1694639981828125,-8.537792,-1.426917,5.43328,0.40485,0.10905,0.15963
1694639981835937,-8.551792,-1.443917,5.25328,0.29085,0.9105,0.20863
1694639981843750,-8.541792,-1.448917,5.16328,0.21185,0.17105,0.14363
1694639981851562,-8.513792,-1.446917,5.45328,0.14385,0.18205,0.16163
1694639981859375,-8.479792,-1.440917,5.70328,0.4585,0.16705,0.12963
1694639981867187,-8.448792,-1.421917,5.102328,0.7115,0.24105,0.5063
1694639981875000,-8.439792,-1.380917,5.142328,0.6415,0.32805,0.0
1694639981882812,-8.442792,-1.354917,5.174328,0.10015,0.32805,0.9537
1694639981890625,-8.429792,-1.339917,5.172328,0.8615,0.37305,0.17437
1694639981898437,-8.422792,-1.337917,5.135328,0.5315,0.37505,0.22337
1694639981906250,-8.418792,-1.348917,5.95328,0.7215,0.38905,0.27037
1694639981914062,-8.415792,-1.347917,5.77328,0.5115,0.37805,0.35237
1694639981921875,-8.417792,-1.361917,5.74328,0.7115,0.28105,0.31837
1694639981929687,-8.411792,-1.364917,5.63328,0.2715,0.22905,0.33237
1694639981937500,-8.440792,-1.370917,5.81328,0.5485,0.20005,0.36537
1694639981945312,-8.462792,-1.374917,5.117328,0.3785,0.24705,0.41337
1694639981953125,-8.472792,-1.377917,5.120328,0.485,0.26005,0.36437
1694639981960937,-8.510792,-1.397917,5.102328,0.15785,0.33105,0.33537
1694639981968750,-8.510792,-1.412917,5.86328,0.1915,0.42505,0.33637
1694639981976562,-8.508792,-1.404917,5.86328,0.3715,0.34605,0.33537
1694639981984375,-8.508792,-1.404917,5.68328,0.5315,0.40805,0.31937
1694639981992187,-8.511792,-1.408917,5.54328,0.7115,0.45405,0.30337
1694639982000000,-8.507792,-1.394917,5.41328,0.14015,0.43105,0.28437
1694639982007812,-8.475792,-1.378917,5.20328,0.17015,0.54505,0.31837
1694639982015625,-8.476792,-1.340917,5.22328,0.29815,0.62505,0.31837
1694639982023437,-8.460792,-1.343917,5.50328,0.37715,0.65605,0.23937
1694639982031250,-8.440792,-1.336917,5.86328,0.39515,0.64005,0.25437
1694639982039062,-8.413792,-1.317917,5.74328,0.29715,0.65705,0.31937
1694639982046875,-8.389792,-1.308917,5.54328,0.32615,0.59505,0.27137
1694639982054687,-8.396792,-1.275917,5.70328,0.40715,0.42405,0.35137
1694639982062500,-8.401792,-1.264917,5.83328,0.34415,0.42405,0.39937
1694639982070312,-8.410792,-1.253917,5.110328,0.29915,0.31505,0.51037
1694639982078125,-8.408792,-1.282917,5.97328,0.14015,0.26505,0.55737
1694639982085937,-8.393792,-1.328917,5.70328,0.5615,0.19105,0.54337
1694639982093750,-8.381792,-1.382917,5.54328,0.8815,0.22105,0.46337
1694639982101562,-8.361792,-1.429917,5.18328,0.915,0.18605,0.42937
1694639982109375,-8.364792,-1.464917,4.975328,0.5315,0.15805,0.33537
1694639982117187,-8.373792,-1.472917,4.979328,0.6715,0.20605,0.30437
1694639982125000,-8.393792,-1.450917,5.38328,0.6715,0.20505,0.23937
1694639982132812,-8.405792,-1.419917,5.99328,0.3515,0.40805,0.22337
1694639982140625,-8.427792,-1.346917,5.144328,0.3715,0.34205,0.11037
1694639982148437,-8.453792,-1.252917,5.126328,0.7485,0.37305,0.14237
1694639982156250,-8.467792,-1.199917,5.129328,0.15685,0.40605,0.12737
1694639982164062,-8.472792,-1.159917,5.117328,0.11085,0.31405,0.15937
1694639982171875,-8.461792,-1.159917,5.131328,0.4285,0.31105,0.22237
1694639982179687,-8.471792,-1.196917,5.160328,0.12685,0.22005,0.20737
1694639982187500,-8.475792,-1.272917,5.156328,0.18785,0.8905,0.14137
1694639982195312,-8.494792,-1.341917,5.136328,0.31885,0.5705,0.3037
1694639982203125,-8.516792,-1.387917,5.135328,0.43385,0.12105,0.6563
1694639982210937,-8.522792,-1.366917,5.181328,0.58485,0.17205,0.19163
1694639982218750,-8.512792,-1.360917,5.201328,0.72485,0.33905,0.24163
1694639982226562,-8.500792,-1.382917,5.217328,0.71185,0.43605,0.25563
1694639982234375,-8.482792,-1.351917,5.219328,0.71285,0.42105,0.27163
1694639982242187,-8.467792,-1.314917,5.194328,0.66585,0.42105,0.35163
1694639982250000,-8.483792,-1.295917,5.149328,0.58785,0.43605,0.43063
1694639982257812,-8.483792,-1.302917,5.97328,0.54085,0.46705,0.52663
1694639982265625,-8.481792,-1.314917,5.97328,0.47285,0.45005,0.49563
1694639982273437,-8.487792,-1.311917,5.124328,0.53685,0.46405,0.55963
1694639982281250,-8.467792,-1.318917,5.158328,0.55685,0.44905,0.65463
1694639982289062,-8.447792,-1.325917,5.171328,0.66685,0.40205,0.57563
1694639982296875,-8.431792,-1.325917,5.169328,0.73385,0.37205,0.60663
1694639982304687,-8.409792,-1.335917,5.165328,0.77985,0.43405,0.55963
1694639982312500,-8.393792,-1.344917,5.158328,0.72985,0.43105,0.62363
1694639982320312,-8.368792,-1.346917,5.129328,0.69885,0.40205,0.57563
1694639982328125,-8.368792,-1.342917,5.104328,0.55385,0.37105,0.57563
1694639982335937,-8.369792,-1.367917,5.83328,0.46985,0.28705,0.59363
1694639982343750,-8.366792,-1.378917,5.59328,0.43985,0.21305,0.55963
1694639982351562,-8.394792,-1.403917,5.36328,0.41085,0.23105,0.62263
1694639982359375,-8.430792,-1.412917,5.27328,0.42285,0.17705,0.68863
1694639982367187,-8.446792,-1.387917,5.52328,0.41185,0.38705,0.68663
1694639982375000,-8.469792,-1.338917,5.77328,0.47285,0.32105,0.67163
1694639982382812,-8.482792,-1.315917,5.117328,0.46085,0.24805,0.55863
1694639982390625,-8.484792,-1.263917,5.158328,0.47385,0.32505,0.54263
1694639982398437,-8.502792,-1.216917,5.183328,0.45585,0.41805,0.52763
1694639982406250,-8.514792,-1.186917,5.183328,0.58985,0.32605,0.55863
1694639982414062,-8.548792,-1.220917,5.131328,0.66085,0.33305,0.52963
1694639982421875,-8.585792,-1.270917,5.79328,0.67885,0.38305,0.49663
1694639982429687,-8.573792,-1.317917,5.56328,0.92185,0.39905,0.56063
1694639982437500,-8.525792,-1.346917,5.50328,0.98885,0.45005,0.54363
1694639982445312,-8.464792,-1.389917,5.22328,0.97185,0.47805,0.63963
1694639982453125,-8.396792,-1.421917,5.54328,0.99085,0.62105,0.70263
1694639982460937,-8.336792,-1.406917,5.79328,0.97785,0.76105,0.81463
1694639982468750,-8.294792,-1.394917,5.81328,0.99285,0.69705,0.89463
1694639982476562,-8.278792,-1.383917,5.119328,0.71585,0.74305,0.83163
1694639982484375,-8.287792,-1.383917,5.135328,0.46085,0.68205,0.86263
1694639982492187,-8.309792,-1.380917,5.140328,0.36185,0.57205,0.79863
1694639982500000,-8.317792,-1.374917,5.124328,0.21285,0.45905,0.75263
1694639982507812,-8.321792,-1.345917,5.95328,0.21385,0.41505,0.63963
1694639982515625,-8.337792,-1.365917,5.95328,0.8585,0.30705,0.60763
1694639982523437,-8.352792,-1.375917,5.95328,0.4085,0.29405,0.52663
1694639982531250,-8.386792,-1.382917,5.92328,0.13285,0.26205,0.47963
1694639982539062,-8.418792,-1.360917,5.77328,0.22385,0.17805,0.33863
1694639982546875,-8.455792,-1.338917,5.79328,0.21585,0.17205,0.25463
1694639982554687,-8.481792,-1.325917,5.56328,0.33985,0.13705,0.27263
1694639982562500,-8.517792,-1.334917,5.45328,0.43185,0.8305,0.21063
1694639982570312,-8.546792,-1.347917,5.41328,0.51285,0.10105,0.14663
1694639982578125,-8.541792,-1.387917,5.41328,0.62485,0.14605,0.16263
1694639982585937,-8.551792,-1.412917,5.43328,0.64685,0.18705,0.15963
1694639982593750,-8.542792,-1.415917,5.34328,0.64485,0.29405,0.14463
1694639982601562,-8.524792,-1.429917,5.45328,0.57685,0.39905,0.17763
1694639982609375,-8.489792,-1.432917,5.63328,0.39185,0.46805,0.13363
1694639982617187,-8.437792,-1.417917,5.99328,0.31785,0.53905,0.21063
1694639982625000,-8.426792,-1.408917,5.124328,0.23885,0.55605,0.24163
1694639982632812,-8.408792,-1.381917,5.156328,0.9585,0.66805,0.30463
1694639982640625,-8.388792,-1.357917,5.180328,0.3285,0.77905,0.22363
1694639982648437,-8.382792,-1.342917,5.176328,0.4685,0.77705,0.30463
1694639982656250,-8.346792,-1.319917,5.171328,0.11685,0.76405,0.31963
1694639982664062,-8.315792,-1.298917,5.203328,0.8085,0.66905,0.27163
1694639982671875,-8.288792,-1.287917,5.201328,0.13385,0.54605,0.30263
1694639982679687,-8.289792,-1.279917,5.187328,0.14285,0.38405,0.24163
1694639982687500,-8.319792,-1.296917,5.196328,0.29685,0.26505,0.31863
1694639982695312,-8.375792,-1.333917,5.144328,0.42285,0.18705,0.23963
1694639982703125,-8.442792,-1.332917,5.110328,0.43785,0.17105,0.20763
1694639982710937,-8.494792,-1.347917,5.90328,0.42185,0.15505,0.23963
1694639982718750,-8.541792,-1.346917,5.79328,0.43485,0.16705,0.19263
1694639982726562,-8.554792,-1.359917,5.86328,0.45485,0.21805,0.20763
1694639982734375,-8.552792,-1.343917,5.104328,0.42285,0.31205,0.20763
1694639982742187,-8.540792,-1.336917,5.118328,0.46285,0.37905,0.25963
1694639982750000,-8.517792,-1.303917,5.104328,0.43285,0.44505,0.27363
1694639982757812,-8.520792,-1.297917,5.91328,0.41085,0.53105,0.24463
1694639982765625,-8.501792,-1.307917,5.108328,0.41785,0.65105,0.28863
1694639982773437,-8.467792,-1.305917,5.147328,0.37085,0.62205,0.28863
1694639982781250,-8.436792,-1.324917,5.187328,0.43285,0.68005,0.32163
1694639982789062,-8.398792,-1.335917,5.219328,0.46585,0.72705,0.38563
1694639982796875,-8.350792,-1.365917,5.232328,0.45085,0.71305,0.41663
1694639982804687,-8.314792,-1.392917,5.248328,0.46785,0.68105,0.43263
1694639982812500,-8.294792,-1.398917,5.232328,0.45385,0.68305,0.49563
1694639982820312,-8.276792,-1.385917,5.212328,0.45685,0.69905,0.54363
1694639982828125,-8.280792,-1.376917,5.171328,0.32885,0.60505,0.57563
1694639982835937,-8.283792,-1.352917,5.128328,0.21585,0.52705,0.59063
1694639982843750,-8.319792,-1.330917,5.106328,0.19685,0.44605,0.62463
1694639982851562,-8.359792,-1.274917,5.104328,0.20985,0.45805,0.59363
1694639982859375,-8.397792,-1.244917,5.101328,0.19785,0.44805,0.57563
1694639982867187,-8.429792,-1.186917,5.120328,0.27585,0.41605,0.48063
1694639982875000,-8.474792,-1.163917,5.162328,0.37385,0.32305,0.48063
1694639982882812,-8.501792,-1.162917,5.210328,0.42585,0.42005,0.44663
1694639982890625,-8.521792,-1.189917,5.239328,0.42085,0.38605,0.40063
1694639982898437,-8.546792,-1.202917,5.273328,0.43585,0.35305,0.36863
1694639982906250,-8.547792,-1.242917,5.253328,0.46785,0.43005,0.44863
1694639982914062,-8.558792,-1.277917,5.219328,0.62985,0.43005,0.46463
1694639982921875,-8.537792,-1.299917,5.201328,0.73185,0.45105,0.46263
1694639982929687,-8.514792,-1.322917,5.190328,0.71185,0.44805,0.49663
1694639982937500,-8.458792,-1.327917,5.201328,0.74485,0.52505,0.54463
1694639982945312,-8.402792,-1.333917,5.192328,0.59785,0.60105,0.56063
1694639982953125,-8.362792,-1.328917,5.174328,0.60285,0.62105,0.60663
1694639982960937,-8.330792,-1.329917,5.167328,0.53985,0.63605,0.68663
1694639982968750,-8.317792,-1.331917,5.138328,0.47485,0.69905,0.63863
1694639982976562,-8.302792,-1.312917,5.135328,0.46885,0.64505,0.70563
1694639982984375,-8.291792,-1.301917,5.129328,0.42085,0.63105,0.68863
1694639982992187,-8.262792,-1.308917,5.124328,0.43885,0.47805,0.60863
1694639983000000,-8.257792,-1.306917,5.124328,0.42285,0.46205,0.59263
1694639983007812,-8.261792,-1.310917,5.131328,0.20085,0.46505,0.63863
1694639983015625,-8.288792,-1.303917,5.140328,0.19985,0.46405,0.65563
1694639983023437,-8.329792,-1.290917,5.147328,0.22885,0.44605,0.59263
1694639983031250,-8.373792,-1.291917,5.149328,0.21385,0.49605,0.51163
1694639983039062,-8.400792,-1.275917,5.140328,0.19885,0.48105,0.44763
1694639983046875,-8.438792,-1.262917,5.133328,0.17285,0.40905,0.35463
1694639983054687,-8.456792,-1.239917,5.133328,0.20585,0.38005,0.32263
1694639983062500,-8.477792,-1.200917,5.145328,0.26685,0.43705,0.34063
1694639983070312,-8.500792,-1.183917,5.167328,0.40585,0.40405,0.30363
1694639983078125,-8.521792,-1.183917,5.199328,0.46885,0.32405,0.28863
1694639983085937,-8.521792,-1.176917,5.217328,0.44985,0.22705,0.27363
1694639983093750,-8.510792,-1.167917,5.214328,0.47085,0.34205,0.27163
1694639983101562,-8.505792,-1.198917,5.183328,0.45085,0.35605,0.17663
1694639983109375,-8.502792,-1.245917,5.131328,0.38685,0.32705,0.14363
1694639983117187,-8.473792,-1.290917,5.93328,0.43185,0.36805,0.16163
1694639983125000,-8.419792,-1.333917,5.32328,0.49285,0.34705,0.16363
1694639983132812,-8.348792,-1.378917,5.4328,0.44985,0.33805,0.19363
1694639983140625,-8.278792,-1.405917,5.20328,0.45285,0.37305,0.27163
1694639983148437,-8.228792,-1.419917,5.49328,0.40985,0.46705,0.41463
1694639983156250,-8.251792,-1.410917,5.79328,0.31085,0.49605,0.49563
1694639983164062,-8.261792,-1.368917,5.90328,0.19385,0.60005,0.56063
1694639983171875,-8.297792,-1.321917,5.113328,0.16285,0.68205,0.51163
1694639983179687,-8.338792,-1.255917,5.142328,0.5485,0.60705,0.44663
1694639983187500,-8.352792,-1.222917,5.160328,0.4315,0.56005,0.43063
1694639983195312,-8.366792,-1.183917,5.167328,0.4815,0.49605,0.30463
1694639983203125,-8.385792,-1.165917,5.185328,0.6415,0.46505,0.31963
1694639983210937,-8.405792,-1.153917,5.217328,0.4515,0.26405,0.22363
1694639983218750,-8.434792,-1.132917,5.223328,0.6115,0.25005,0.7963
1694639983226562,-8.495792,-1.114917,5.242328,0.3585,0.15705,0.6363
1694639983234375,-8.526792,-1.145917,5.237328,0.14485,0.14105,0.6437
1694639983242187,-8.541792,-1.175917,5.257328,0.27585,0.14305,0.11237
1694639983250000,-8.576792,-1.239917,5.233328,0.38485,0.10805,0.7937
1694639983257812,-8.589792,-1.277917,5.221328,0.48285,0.17205,0.1637
1694639983265625,-8.609792,-1.292917,5.201328,0.51685,0.15705,0.0
1694639983273437,-8.608792,-1.314917,5.185328,0.51585,0.26505,0.6363
1694639983281250,-8.579792,-1.314917,5.192328,0.53485,0.31305,0.7963
1694639983289062,-8.524792,-1.300917,5.196328,0.54585,0.43205,0.19363
1694639983296875,-8.464792,-1.268917,5.183328,0.44585,0.41005,0.25963
1694639983304687,-8.392792,-1.259917,5.174328,0.47085,0.60705,0.36763
1694639983312500,-8.325792,-1.249917,5.178328,0.30885,0.71605,0.38363
1694639983320312,-8.274792,-1.242917,5.167328,0.19185,0.66105,0.49763
1694639983328125,-8.254792,-1.233917,5.185328,0.21085,0.76005,0.51163
1694639983335937,-8.254792,-1.199917,5.201328,0.1115,0.66805,0.47863
1694639983343750,-8.252792,-1.169917,5.214328,0.1415,0.65105,0.51163
1694639983351562,-8.257792,-1.144917,5.271328,0.14485,0.72705,0.48063
1694639983359375,-8.269792,-1.127917,5.298328,0.20785,0.59905,0.46563
1694639983367187,-8.308792,-1.97917,5.298328,0.30585,0.57005,0.43363
1694639983375000,-8.350792,-1.95917,5.296328,0.38385,0.53805,0.33763
1694639983382812,-8.404792,-1.112917,5.278328,0.52885,0.38105,0.32263
1694639983390625,-8.461792,-1.153917,5.239328,0.69285,0.27605,0.22463
1694639983398437,-8.492792,-1.187917,5.214328,0.74385,0.21505,0.30463
1694639983406250,-8.500792,-1.238917,5.205328,0.88985,0.13805,0.27263
1694639983414062,-8.483792,-1.285917,5.192328,0.98785,0.7805,0.27163
1694639983421875,-8.457792,-1.324917,5.176328,0.96685,0.21005,0.33763
1694639983429687,-8.463792,-1.343917,5.183328,0.98585,0.32405,0.36863
1694639983437500,-8.469792,-1.354917,5.208328,0.96985,0.40005,0.46463
1694639983445312,-8.451792,-1.338917,5.203328,0.98985,0.43505,0.52763
1694639983453125,-8.414792,-1.319917,5.205328,0.95485,0.60605,0.52763
1694639983460937,-8.381792,-1.291917,5.185328,0.80785,0.71305,0.52863
1694639983468750,-8.327792,-1.267917,5.187328,0.71685,0.70005,0.60663
1694639983476562,-8.296792,-1.265917,5.198328,0.60185,0.66705,0.63963
1694639983484375,-8.316792,-1.267917,5.210328,0.45585,0.68105,0.68763
1694639983492187,-8.334792,-1.281917,5.228328,0.42085,0.66205,0.67263
1694639983500000,-8.365792,-1.276917,5.248328,0.48485,0.66305,0.62463
1694639983507812,-8.383792,-1.282917,5.241328,0.56885,0.66605,0.67163
1694639983515625,-8.404792,-1.280917,5.233328,0.59585,0.67705,0.56163
1694639983523437,-8.415792,-1.282917,5.233328,0.62585,0.72005,0.62663
1694639983531250,-8.396792,-1.273917,5.223328,0.66485,0.54305,0.51163
1694639983539062,-8.395792,-1.273917,5.196328,0.72485,0.47605,0.44963
1694639983546875,-8.374792,-1.282917,5.167328,0.69385,0.40005,0.38463
1694639983554687,-8.376792,-1.300917,5.160328,0.67785,0.33805,0.32063
1694639983562500,-8.378792,-1.309917,5.156328,0.59885,0.32605,0.30363
1694639983570312,-8.396792,-1.326917,5.138328,0.61385,0.34005,0.33663
1694639983578125,-8.413792,-1.339917,5.149328,0.72885,0.45105,0.35163
1694639983585937,-8.418792,-1.333917,5.185328,0.67685,0.52505,0.36963
1694639983593750,-8.404792,-1.328917,5.228328,0.59885,0.49705,0.35163
1694639983601562,-8.382792,-1.331917,5.228328,0.45485,0.51305,0.43163
1694639983609375,-8.369792,-1.331917,5.253328,0.45085,0.58605,0.43363
1694639983617187,-8.333792,-1.340917,5.232328,0.38885,0.48105,0.38363
1694639983625000,-8.299792,-1.345917,5.212328,0.34085,0.44905,0.43163
1694639983632812,-8.301792,-1.345917,5.189328,0.27685,0.43505,0.36763
1694639983640625,-8.300792,-1.371917,5.185328,0.21585,0.42005,0.41463
1694639983648437,-8.315792,-1.347917,5.185328,0.19485,0.35405,0.35263
1694639983656250,-8.331792,-1.343917,5.187328,0.20985,0.32405,0.30463
1694639983664062,-8.373792,-1.360917,5.190328,0.17485,0.17805,0.29063
1694639983671875,-8.398792,-1.340917,5.185328,0.14485,0.19705,0.30463
1694639983679687,-8.427792,-1.332917,5.169328,0.6785,0.27905,0.28763
1694639983687500,-8.458792,-1.323917,5.140328,0.0,0.26305,0.20763
1694639983695312,-8.456792,-1.310917,5.153328,0.0,0.27905,0.17563
1694639983703125,-8.462792,-1.299917,5.149328,0.5515,0.17705,0.8363
1694639983710937,-8.448792,-1.277917,5.165328,0.3615,0.29205,0.3363
1694639983718750,-8.449792,-1.280917,5.174328,0.9885,0.34405,0.4763
1694639983726562,-8.445792,-1.279917,5.183328,0.17685,0.28105,0.1563
1694639983734375,-8.441792,-1.268917,5.190328,0.15785,0.32505,0.1663
1694639983742187,-8.438792,-1.231917,5.217328,0.21885,0.33605,0.1863
1694639983750000,-8.409792,-1.207917,5.228328,0.25285,0.40005,0.3463
1694639983757812,-8.384792,-1.209917,5.219328,0.17385,0.38605,0.8163
1694639983765625,-8.368792,-1.211917,5.228328,0.22385,0.35605,0.14463
1694639983773437,-8.370792,-1.207917,5.232328,0.12985,0.32705,0.14363
1694639983781250,-8.373792,-1.210917,5.203328,0.6185,0.22705,0.17763
1694639983789062,-8.384792,-1.216917,5.178328,0.3515,0.19605,0.19363
1694639983796875,-8.381792,-1.258917,5.135328,0.1515,0.10805,0.12763
1694639983804687,-8.371792,-1.268917,5.86328,0.1985,0.12505,0.19163
1694639983812500,-8.346792,-1.295917,5.77328,0.7715,0.20205,0.20763
1694639983820312,-8.335792,-1.307917,5.79328,0.4515,0.13905,0.27163
1694639983828125,-8.337792,-1.309917,5.90328,0.6115,0.17005,0.30363
1694639983835937,-8.351792,-1.311917,5.104328,0.4515,0.20105,0.30363
1694639983843750,-8.378792,-1.293917,5.124328,0.4515,0.28005,0.25563
1694639983851562,-8.403792,-1.284917,5.147328,0.6215,0.38905,0.19163
1694639983859375,-8.443792,-1.268917,5.160328,0.4915,0.35705,0.12863
1694639983867187,-8.477792,-1.238917,5.181328,0.0,0.32605,0.12863
1694639983875000,-8.504792,-1.235917,5.167328,0.6685,0.29805,0.6363
1694639983882812,-8.518792,-1.234917,5.160328,0.12685,0.23205,0.1663
1694639983890625,-8.529792,-1.240917,5.162328,0.19285,0.20305,0.1663
1694639983898437,-8.536792,-1.236917,5.176328,0.18985,0.16805,0.3037
1694639983906250,-8.534792,-1.233917,5.196328,0.20585,0.18405,0.6237
1694639983914062,-8.515792,-1.247917,5.214328,0.19285,0.32805,0.0
1694639983921875,-8.515792,-1.258917,5.226328,0.22585,0.37505,0.4763
1694639983929687,-8.488792,-1.269917,5.221328,0.20885,0.43705,0.6363
1694639983937500,-8.472792,-1.282917,5.196328,0.24385,0.39005,0.11163
1694639983945312,-8.438792,-1.276917,5.176328,0.22785,0.43705,0.14363
1694639983953125,-8.387792,-1.286917,5.169328,0.9585,0.44805,0.24063
1694639983960937,-8.320792,-1.252917,5.178328,0.6485,0.52905,0.23963
1694639983968750,-8.264792,-1.232917,5.183328,0.5385,0.51405,0.35063
1694639983976562,-8.238792,-1.208917,5.187328,0.5815,0.40505,0.33463
1694639983984375,-8.238792,-1.193917,5.180328,0.4215,0.35805,0.33463
1694639983992187,-8.245792,-1.189917,5.180328,0.4715,0.40405,0.25563
1694639984000000,-8.267792,-1.177917,5.171328,0.5815,0.39105,0.22263
1694639984007812,-8.300792,-1.170917,5.183328,0.3215,0.35405,0.28863
1694639984015625,-8.327792,-1.186917,5.174328,0.3515,0.30405,0.27363
1694639984023437,-8.348792,-1.185917,5.174328,0.1885,0.23305,0.22363
1694639984031250,-8.377792,-1.191917,5.192328,0.8585,0.23405,0.20663
1694639984039062,-8.397792,-1.204917,5.203328,0.16285,0.15505,0.15963
1694639984046875,-8.428792,-1.208917,5.201328,0.24485,0.20305,0.11163
1694639984054687,-8.482792,-1.225917,5.203328,0.24085,0.12305,0.8063
1694639984062500,-8.517792,-1.264917,5.201328,0.18185,0.12705,0.3063
1694639984070312,-8.516792,-1.311917,5.203328,0.33985,0.15805,0.3237
1694639984078125,-8.511792,-1.364917,5.196328,0.35785,0.17505,0.11337
1694639984085937,-8.488792,-1.399917,5.185328,0.38785,0.29905,0.11237
1694639984093750,-8.451792,-1.426917,5.181328,0.36085,0.30005,0.1463
1694639984101562,-8.411792,-1.436917,5.156328,0.24485,0.34405,0.7963
1694639984109375,-8.394792,-1.434917,5.171328,0.19385,0.42105,0.11163
1694639984117187,-8.396792,-1.412917,5.185328,0.14285,0.48305,0.9663
1694639984125000,-8.377792,-1.364917,5.221328,0.1485,0.56005,0.19263
1694639984132812,-8.377792,-1.332917,5.239328,0.6115,0.68605,0.20763
1694639984140625,-8.362792,-1.313917,5.255328,0.5015,0.71605,0.14463
1694639984148437,-8.342792,-1.287917,5.269328,0.6615,0.66905,0.17663
1694639984156250,-8.320792,-1.254917,5.250328,0.4815,0.71805,0.12763
1694639984164062,-8.325792,-1.214917,5.250328,0.11515,0.70105,0.8063
1694639984171875,-8.325792,-1.198917,5.246328,0.16015,0.54605,0.6363
1694639984179687,-8.327792,-1.196917,5.235328,0.3115,0.40905,0.17637
1694639984187500,-8.339792,-1.229917,5.203328,0.8415,0.29805,0.22337
1694639984195312,-8.356792,-1.247917,5.180328,0.6385,0.17405,0.17637
1694639984203125,-8.393792,-1.308917,5.187328,0.14285,0.17405,0.20737
1694639984210937,-8.413792,-1.330917,5.201328,0.24385,0.20605,0.11237
1694639984218750,-8.428792,-1.367917,5.221328,0.22885,0.25205,0.4937
1694639984226562,-8.424792,-1.374917,5.221328,0.27385,0.35905,0.0
1694639984234375,-8.422792,-1.359917,5.223328,0.20785,0.37405,0.4863
1694639984242187,-8.404792,-1.341917,5.210328,0.21085,0.36005,0.3163
1694639984250000,-8.375792,-1.326917,5.194328,0.17585,0.40505,0.9663
1694639984257812,-8.340792,-1.309917,5.192328,0.14385,0.37405,0.6463
1694639984265625,-8.320792,-1.307917,5.219328,0.14285,0.29405,0.6463
1694639984273437,-8.328792,-1.316917,5.228328,0.3215,0.29605,0.7963
1694639984281250,-8.340792,-1.314917,5.262328,0.5115,0.29105,0.16163
1694639984289062,-8.366792,-1.322917,5.311328,0.6315,0.28105,0.7963
1694639984296875,-8.398792,-1.312917,5.334328,0.4715,0.34305,0.9563
1694639984304687,-8.398792,-1.297917,5.339328,0.6415,0.38905,0.12763
1694639984312500,-8.392792,-1.282917,5.307328,0.6515,0.43605,0.9563
1694639984320312,-8.385792,-1.264917,5.275328,0.4715,0.45305,0.7963
1694639984328125,-8.381792,-1.244917,5.248328,0.1415,0.48405,0.7963
1694639984335937,-8.378792,-1.230917,5.226328,0.7615,0.39205,0.9463
1694639984343750,-8.383792,-1.215917,5.223328,0.1885,0.34405,0.7963
1694639984351562,-8.397792,-1.215917,5.237328,0.16385,0.31305,0.6363
1694639984359375,-8.402792,-1.208917,5.244328,0.12885,0.35805,0.9563
1694639984367187,-8.440792,-1.208917,5.235328,0.27185,0.29405,0.8063
1694639984375000,-8.471792,-1.223917,5.223328,0.32385,0.31305,0.4763
1694639984382812,-8.493792,-1.227917,5.187328,0.40485,0.31305,0.4763
1694639984390625,-8.487792,-1.207917,5.169328,0.43585,0.29705,0.1563
1694639984398437,-8.451792,-1.217917,5.158328,0.44785,0.38605,0.3363
1694639984406250,-8.419792,-1.210917,5.153328,0.43885,0.36005,0.9563
1694639984414062,-8.394792,-1.230917,5.167328,0.34585,0.37605,0.19063
1694639984421875,-8.385792,-1.239917,5.162328,0.39485,0.36005,0.27063
1694639984429687,-8.395792,-1.226917,5.199328,0.37385,0.41905,0.36763
1694639984437500,-8.405792,-1.196917,5.205328,0.43485,0.44605,0.35363
1694639984445312,-8.414792,-1.166917,5.201328,0.38985,0.52705,0.44763
1694639984453125,-8.416792,-1.142917,5.230328,0.39085,0.51205,0.47963
1694639984460937,-8.388792,-1.125917,5.232328,0.46885,0.49405,0.44863
1694639984468750,-8.349792,-1.116917,5.210328,0.45485,0.60405,0.57563
1694639984476562,-8.320792,-1.128917,5.221328,0.43785,0.52505,0.57663
1694639984484375,-8.322792,-1.157917,5.196328,0.46985,0.42905,0.57663
1694639984492187,-8.333792,-1.186917,5.192328,0.45185,0.41205,0.56163
1694639984500000,-8.346792,-1.205917,5.165328,0.48685,0.33505,0.62463
1694639984507812,-8.346792,-1.214917,5.149328,0.52185,0.30905,0.52663
1694639984515625,-8.344792,-1.239917,5.151328,0.56185,0.18705,0.56363
1694639984523437,-8.342792,-1.262917,5.158328,0.52385,0.20105,0.49463
1694639984531250,-8.338792,-1.289917,5.156328,0.47185,0.12005,0.46363
1694639984539062,-8.350792,-1.326917,5.142328,0.45985,0.1605,0.35063
1694639984546875,-8.359792,-1.362917,5.129328,0.45585,0.7605,0.31963
1694639984554687,-8.373792,-1.384917,5.90328,0.41985,0.2605,0.25663
1694639984562500,-8.385792,-1.408917,5.86328,0.29185,0.5905,0.25663
1694639984570312,-8.390792,-1.409917,5.93328,0.16085,0.11705,0.30563
1694639984578125,-8.398792,-1.375917,5.115328,0.9285,0.17805,0.22663
1694639984585937,-8.395792,-1.333917,5.165328,0.13085,0.20205,0.15963
1694639984593750,-8.417792,-1.294917,5.201328,0.2485,0.20605,0.13163
1694639984601562,-8.442792,-1.266917,5.228328,0.9385,0.27605,0.14563
1694639984609375,-8.492792,-1.243917,5.253328,0.12385,0.35005,0.17863
1694639984617187,-8.517792,-1.214917,5.273328,0.12085,0.38005,0.8363
1694639984625000,-8.530792,-1.185917,5.289328,0.17085,0.43105,0.1863
1694639984632812,-8.515792,-1.174917,5.280328,0.20285,0.41305,0.5063
1694639984640625,-8.485792,-1.165917,5.293328,0.19185,0.43605,0.4863
1694639984648437,-8.459792,-1.161917,5.280328,0.17485,0.41805,0.14463
1694639984656250,-8.443792,-1.169917,5.271328,0.18985,0.41405,0.25763
1694639984664062,-8.427792,-1.193917,5.235328,0.28685,0.42905,0.24163
1694639984671875,-8.407792,-1.193917,5.194328,0.40085,0.41405,0.32163
1694639984679687,-8.383792,-1.214917,5.163328,0.30085,0.42305,0.35563
1694639984687500,-8.371792,-1.205917,5.147328,0.29085,0.36705,0.46463
1694639984695312,-8.344792,-1.205917,5.149328,0.26185,0.34005,0.46363
1694639984703125,-8.311792,-1.211917,5.149328,0.15885,0.41005,0.45063
1694639984710937,-8.281792,-1.195917,5.151328,0.18385,0.27905,0.47863
1694639984718750,-8.275792,-1.184917,5.142328,0.24185,0.25705,0.40163
1694639984726562,-8.272792,-1.161917,5.99328,0.20085,0.18505,0.46263
1694639984734375,-8.295792,-1.162917,5.83328,0.9985,0.4205,0.39963
1694639984742187,-8.333792,-1.167917,5.106328,0.4215,0.7895,0.28663
1694639984750000,-8.370792,-1.191917,5.128328,0.1115,0.3005,0.30363
1694639984757812,-8.420792,-1.202917,5.126328,0.6115,0.2905,0.28763
1694639984765625,-8.482792,-1.198917,5.140328,0.4215,0.4705,0.20663
1694639984773437,-8.534792,-1.200917,5.158328,0.3385,0.6105,0.20763
1694639984781250,-8.556792,-1.197917,5.185328,0.11385,0.17105,0.9563
1694639984789062,-8.563792,-1.202917,5.219328,0.20585,0.26105,0.4963
1694639984796875,-8.550792,-1.209917,5.233328,0.18885,0.33905,0.1763
1694639984804687,-8.536792,-1.202917,5.257328,0.41985,0.31305,0.3163
1694639984812500,-8.514792,-1.198917,5.228328,0.46685,0.29605,0.4863
1694639984820312,-8.497792,-1.200917,5.226328,0.45685,0.28405,0.1463
1694639984828125,-8.470792,-1.225917,5.232328,0.47085,0.33005,0.3163
1694639984835937,-8.437792,-1.257917,5.201328,0.44885,0.27705,0.11363
1694639984843750,-8.398792,-1.286917,5.196328,0.34285,0.23405,0.19163
1694639984851562,-8.373792,-1.315917,5.183328,0.25985,0.21705,0.22363
1694639984859375,-8.319792,-1.345917,5.158328,0.17985,0.21605,0.33563
1694639984867187,-8.274792,-1.379917,5.142328,0.18285,0.26405,0.33463
1694639984875000,-8.260792,-1.377917,5.124328,0.1315,0.35505,0.41563
1694639984882812,-8.263792,-1.357917,5.156328,0.9415,0.40205,0.46363
1694639984890625,-8.287792,-1.350917,5.167328,0.26915,0.41805,0.47963
1694639984898437,-8.324792,-1.325917,5.187328,0.35315,0.37005,0.43163
1694639984906250,-8.360792,-1.280917,5.201328,0.48215,0.29305,0.33563
1694639984914062,-8.396792,-1.244917,5.196328,0.56015,0.20105,0.31963
1694639984921875,-8.430792,-1.254917,5.192328,0.54615,0.21605,0.28763
1694639984929687,-8.450792,-1.263917,5.194328,0.46615,0.18505,0.20763
1694639984937500,-8.412792,-1.295917,5.169328,0.34315,0.22705,0.12963
1694639984945312,-8.465792,-1.338917,5.174328,0.47015,0.29205,0.16063
1694639984953125,-8.331792,-1.311917,5.235328,0.32415,0.38905,0.4863
1694639984960937,-8.229792,-1.348917,5.106328,0.11315,0.26505,0.3163
1694639984968750,-8.260792,-1.376917,5.97328,0.15915,0.22005,0.1563
1694639984976562,-8.253792,-1.410917,5.158328,0.27715,0.18505,0.3137
1694639984984375,-8.298792,-1.431917,5.185328,0.30815,0.15705,0.15937
1694639984992187,-8.343792,-1.409917,5.223328,0.40915,0.13905,0.25437
1694639985000000,-8.395792,-1.395917,5.251328,0.37615,0.17305,0.31937
1694639985007812,-8.444792,-1.360917,5.266328,0.43815,0.12705,0.33537
1694639985015625,-8.484792,-1.335917,5.244328,0.47015,0.19205,0.46437
1694639985023437,-8.496792,-1.322917,5.219328,0.53515,0.23905,0.49637
1694639985031250,-8.483792,-1.316917,5.181328,0.54315,0.29705,0.57437
1694639985039062,-8.483792,-1.329917,5.160328,0.43015,0.32805,0.55837
1694639985046875,-8.472792,-1.327917,5.185328,0.34815,0.26605,0.52637
1694639985054687,-8.450792,-1.328917,5.199328,0.36615,0.31105,0.50937
1694639985062500,-8.465792,-1.330917,5.203328,0.22015,0.37305,0.42937
1694639985070312,-8.482792,-1.335917,5.212328,0.14915,0.50305,0.35137
1694639985078125,-8.498792,-1.309917,5.264328,0.8515,0.72005,0.28737
1694639985085937,-8.492792,-1.269917,5.293328,0.11715,0.72005,0.25537
1694639985093750,-8.473792,-1.227917,5.287328,0.7115,0.79605,0.19137
1694639985101562,-8.454792,-1.195917,5.285328,0.14115,0.93005,0.14037
1694639985109375,-8.438792,-1.177917,5.293328,0.5615,0.85605,0.7837
1694639985117187,-8.418792,-1.157917,5.293328,0.7215,0.87305,0.12637
1694639985125000,-8.389792,-1.140917,5.291328,0.7115,0.84205,0.4637
1694639985132812,-8.374792,-1.134917,5.293328,0.4015,0.66605,0.4537
1694639985140625,-8.366792,-1.123917,5.278328,0.5715,0.64905,0.4537
1694639985148437,-8.342792,-1.132917,5.271328,0.3415,0.51405,0.4863
1694639985156250,-8.309792,-1.135917,5.282328,0.3915,0.44605,0.3463
1694639985164062,-8.293792,-1.168917,5.300328,0.5115,0.43605,0.3263
1694639985171875,-8.288792,-1.171917,5.284328,0.4485,0.41805,0.6463
