time,Acceleration X (m/s^2),Acceleration Y (m/s^2),Acceleration Z (m/s^2),Angular Velocity X (rad/s),Angular Velocity Y (rad/s),Angular Velocity Z (rad/s)
1700754235890625,-8.343154,-4.855135,-0.46689,,,
1700754235898437,-8.409154,-4.898135,0.51889,0.81338,0.16917,0.61112
1700754235906250,-8.514154,-4.957135,0.59189,0.87538,0.18517,0.59612
1700754235914062,-8.577154,-4.976135,0.65589,0.83038,0.13617,0.54712
1700754235921875,-8.560154,-4.981135,0.65789,0.61738,0.12817,0.49912
1700754235929687,-8.498154,-4.993135,0.62089,0.54138,0.14517,0.51412
1700754235945312,-8.464154,-4.984135,0.63689,0.61838,0.34317,0.48612
1700754235953125,-8.507154,-4.936135,0.66889,0.61838,0.37417,0.55012
1700754235960937,-8.495154,-4.861135,0.64189,0.35738,0.32817,0.61012
1700754235968750,-8.497154,-4.745135,0.58289,0.14238,0.37917,0.75312
1700754235992187,-8.399154,-4.544135,0.53589,0.120538,0.61317,0.104712
1700754236000000,-8.267154,-4.655135,0.61289,0.170838,0.63917,0.106912
1700754236007812,-8.202154,-4.803135,0.79289,0.204338,0.69617,0.113512
1700754236015625,-8.268154,-4.946135,-1.4689,0.208838,0.64217,0.114912
1700754236023437,-8.454154,-5.63135,-1.25689,0.176638,0.38117,0.112612
1700754236031250,-8.609154,-5.141135,-1.38189,0.143238,0.17317,0.99312
1700754236039062,-8.786154,-5.194135,-1.47689,0.86938,0.1083,0.85912
1700754236046875,-9.71154,-5.186135,-1.56189,0.20238,0.10483,0.61712
1700754236054687,-9.251154,-5.137135,-1.59589,0.29862,0.23783,0.45412
1700754236062500,-9.128154,-5.61135,-1.55989,0.82962,0.25183,0.27712
1700754236070312,-8.761154,-4.958135,-1.48689,0.108462,0.24283,0.6912
1700754236078125,-8.334154,-4.872135,-1.43189,0.125262,0.917,0.18412
1700754236085937,-8.159154,-4.752135,-1.49889,0.98262,0.37717,0.52412
1700754236093750,-8.323154,-4.538135,-1.61289,0.120462,0.56217,0.112612
1700754236101562,-8.656154,-4.222135,-1.57289,0.153362,0.51817,0.159612
1700754236109375,-8.966154,-3.846135,-1.34589,0.201162,0.51317,0.193812
1700754236117187,-9.55154,-3.449135,0.96889,0.195262,0.60717,0.208212
1700754236125000,-8.861154,-3.156135,0.58689,0.123462,0.107617,0.214312
1700754236132812,-8.561154,-3.94135,0.24989,0.21838,0.177117,0.213712
1700754236140625,-8.456154,-3.312135,0.9889,0.249338,0.256217,0.220112
1700754236148437,-8.648154,-3.724135,0.21889,0.440238,0.311217,0.217912
1700754236156250,-8.923154,-4.178135,0.44089,0.515238,0.313517,0.201012
1700754236164062,-9.85154,-4.593135,0.61989,0.483738,0.262317,0.152512
1700754236171875,-9.143154,-4.875135,0.71489,0.388238,0.193917,0.99912
1700754236179687,-9.87154,-5.25135,0.76289,0.285038,0.124317,0.47512
1700754236187500,-8.973154,-5.56135,0.80789,0.204338,0.61617,0.18912
1700754236195312,-8.860154,-5.36135,0.84689,0.141738,0.9217,0.6212
1700754236203125,-8.747154,-5.13135,0.87589,0.101838,0.25383,0.11512
1700754236210937,-8.653154,-4.988135,0.90889,0.83038,0.37283,0.31712
1700754236218750,-8.548154,-5.4135,0.99689,0.64238,0.38483,0.64512
1700754236226562,-8.513154,-5.65135,-1.7489,0.62138,0.32883,0.101012
1700754236234375,-8.510154,-5.159135,-1.12389,0.32438,0.23783,0.143512
1700754236242187,-8.520154,-5.225135,-1.10389,0.16562,0.11783,0.160712
1700754236250000,-8.496154,-5.192135,-1.8989,0.99262,0.7783,0.188512
1700754236257812,-8.466154,-5.3135,-1.4889,0.179062,0.7183,0.216312
1700754236265625,-8.441154,-4.717135,0.94789,0.264662,0.7183,0.230212
1700754236273437,-8.366154,-4.438135,0.81889,0.312162,0.10283,0.248712
1700754236281250,-8.404154,-4.207135,0.73889,0.298762,0.1483,0.264512
1700754236289062,-8.532154,-4.41135,0.72189,0.269862,0.18117,0.276412
1700754236296875,-8.608154,-3.922135,0.73989,0.254262,0.41617,0.264312
1700754236304687,-8.566154,-3.797135,0.71289,0.235862,0.59517,0.266312
1700754236312500,-8.486154,-3.705135,0.64289,0.234162,0.70017,0.257112
1700754236320312,-8.488154,-3.671135,0.50989,0.225962,0.89117,0.232312
1700754236328125,-8.540154,-3.705135,0.33489,0.187262,0.111217,0.207912
1700754236335937,-8.558154,-3.798135,0.14089,0.151662,0.148117,0.185212
1700754236343750,-8.431154,-3.899135,0.2111,0.108262,0.167417,0.151412
1700754236351562,-8.269154,-4.4135,0.11711,0.58662,0.192917,0.114412
1700754236359375,-8.188154,-4.127135,0.14211,0.12362,0.214917,0.85212
1700754236367187,-8.139154,-4.219135,0.9911,0.21538,0.213317,0.61712
1700754236375000,-8.165154,-4.272135,0.8311,0.15538,0.188517,0.48512
1700754236382812,-8.206154,-4.281135,0.12211,0.8138,0.161117,0.29112
1700754236390625,-8.244154,-4.287135,0.15811,0.20638,0.151417,0.6812
1700754236398437,-8.230154,-4.336135,0.20411,0.43838,0.143517,0.15088
1700754236406250,-8.281154,-4.429135,0.18811,0.86738,0.134917,0.35588
1700754236414062,-8.512154,-4.586135,0.11811,0.129638,0.147717,0.41288
1700754236421875,-8.775154,-4.761135,0.2011,0.158838,0.141217,0.60088
1700754236429687,-8.862154,-4.909135,0.1089,0.154438,0.135017,0.71288
1700754236437500,-8.780154,-5.35135,0.4089,0.125938,0.123217,0.103288
1700754236445312,-8.686154,-5.141135,0.7189,0.107938,0.101017,0.127488
1700754236453125,-8.671154,-5.270135,0.16089,0.92738,0.88117,0.130988
1700754236460937,-8.787154,-5.417135,0.26789,0.91138,0.74517,0.131388
1700754236468750,-8.865154,-5.528135,0.35389,0.52938,0.58717,0.133488
1700754236476562,-8.776154,-5.533135,0.40789,0.22062,0.37917,0.126588
1700754236484375,-8.641154,-5.436135,0.42889,0.96962,0.4383,0.124888
1700754236492187,-8.553154,-5.239135,0.43589,0.155362,0.35683,0.108588
1700754236500000,-8.545154,-5.14135,0.39789,0.200062,0.47483,0.85588
1700754236507812,-8.613154,-4.832135,0.32589,0.210962,0.54183,0.71488
1700754236515625,-8.715154,-4.712135,0.23689,0.179262,0.35483,0.51988
1700754236523437,-8.760154,-4.680135,0.15989,0.121062,0.6817,0.50788
1700754236531250,-8.741154,-4.750135,0.10489,0.56762,0.54217,0.50888
1700754236539062,-8.633154,-4.876135,0.8689,0.162,0.103417,0.44688
1700754236546875,-8.483154,-5.2135,0.8589,0.33438,0.124017,0.37888
1700754236554687,-8.389154,-5.106135,0.11089,0.34738,0.126717,0.23688
1700754236562500,-8.314154,-5.156135,0.8789,0.2162,0.113917,0.14588
1700754236570312,-8.315154,-5.119135,0.2689,0.34562,0.73817,0.3088
1700754236578125,-8.339154,-4.998135,0.3511,0.85162,0.44517,0.712
1700754236585937,-8.267154,-4.826135,0.9311,0.96062,0.16017,0.4812
1700754236593750,-8.200154,-4.715135,0.10911,0.62762,0.1983,0.12412
1700754236601562,-8.254154,-4.660135,0.3011,0.11162,0.3983,0.29912
1700754236609375,-8.396154,-4.655135,0.10989,0.34238,0.0,0.49512
1700754236617187,-8.540154,-4.687135,0.31489,0.55438,0.6083,0.55712
1700754236625000,-8.665154,-4.676135,0.48789,0.44538,0.19783,0.66212
1700754236632812,-8.714154,-4.602135,0.61789,0.13738,0.37783,0.73612
1700754236640625,-8.712154,-4.485135,0.67489,0.25962,0.32483,0.79612
1700754236648437,-8.689154,-4.340135,0.69989,0.39762,0.34083,0.82612
1700754236656250,-8.666154,-4.236135,0.70889,0.36562,0.22083,0.79812
1700754236664062,-8.736154,-4.120135,0.74389,0.26062,0.2583,0.96112
1700754236671875,-8.873154,-4.22135,0.73989,0.24462,0.17417,0.101312
1700754236679687,-8.949154,-3.957135,0.67389,0.22862,0.41017,0.101912
1700754236687500,-9.26154,-3.909135,0.56689,0.10362,0.49317,0.90912
1700754236695312,-9.142154,-3.915135,0.42989,0.3638,0.68317,0.80612
1700754236703125,-9.7154,-3.957135,0.27989,0.36238,0.108817,0.58012
1700754236710937,-8.602154,-4.60135,0.13389,0.79538,0.140517,0.35312
1700754236718750,-8.330154,-4.256135,0.10589,0.136138,0.149817,0.24812
1700754236726562,-8.337154,-4.472135,0.23789,0.169638,0.147617,0.25112
1700754236734375,-8.541154,-4.638135,0.39889,0.151238,0.125917,0.24412
1700754236742187,-8.771154,-4.686135,0.45789,0.68838,0.75917,0.13312
1700754236750000,-8.916154,-4.571135,0.37389,0.43862,0.32417,0.11888
1700754236757812,-8.938154,-4.372135,0.19689,0.110762,0.7683,0.33788
1700754236765625,-8.897154,-4.235135,0.2589,0.96862,0.5683,0.44588
1700754236773437,-8.860154,-4.258135,0.6711,0.6562,0.13017,0.56188
1700754236781250,-8.779154,-4.413135,0.0,0.100338,0.56117,0.52988
1700754236789062,-8.642154,-4.643135,0.21889,0.190338,0.79017,0.47288
1700754236796875,-8.585154,-4.923135,0.52589,0.213138,0.72117,0.47088
1700754236804687,-8.642154,-5.188135,0.81189,0.198938,0.32817,0.33988
1700754236812500,-8.755154,-5.380135,-1.1189,0.137438,0.21783,0.19788
1700754236820312,-8.864154,-5.381135,-1.13989,0.20938,0.62383,0.3812
1700754236828125,-8.909154,-5.197135,-1.16689,0.112362,0.102683,0.28712
1700754236835937,-8.932154,-4.890135,-1.10889,0.204562,0.130383,0.57512
1700754236843750,-9.74154,-4.610135,-1.889,0.243162,0.118983,0.92212
1700754236851562,-9.343154,-4.392135,0.92789,0.240262,0.79983,0.118112
1700754236859375,-9.592154,-4.201135,0.86689,0.219062,0.25783,0.143012
1700754236867187,-9.631154,-4.3135,0.79689,0.191262,0.22617,0.141112
1700754236875000,-9.438154,-3.784135,0.65389,0.178762,0.58317,0.132712
1700754236882812,-9.165154,-3.642135,0.43489,0.160162,0.98217,0.130412
1700754236890625,-8.982154,-3.587135,0.19589,0.112662,0.129217,0.126612
1700754236898437,-8.907154,-3.615135,0.211,0.42162,0.158517,0.115212
1700754236906250,-8.827154,-3.674135,0.11811,0.32938,0.192717,0.102212
1700754236914062,-8.688154,-3.761135,0.16911,0.82038,0.209017,0.88712
1700754236921875,-8.567154,-3.841135,0.19411,0.106538,0.202117,0.82512
1700754236929687,-8.471154,-3.911135,0.22111,0.112838,0.197317,0.71412
1700754236937500,-8.527154,-3.948135,0.24411,0.112838,0.169117,0.59712
1700754236945312,-8.608154,-3.976135,0.28311,0.83838,0.143217,0.49512
1700754236953125,-8.585154,-3.965135,0.29711,0.79438,0.123617,0.34912
1700754236960937,-8.624154,-3.959135,0.26511,0.88838,0.109317,0.14212
1700754236968750,-8.671154,-3.985135,0.23511,0.102538,0.100717,0.9412
1700754236976562,-8.646154,-4.16135,0.20311,0.114938,0.95817,0.3188
1700754236984375,-8.600154,-4.54135,0.11511,0.121138,0.80717,0.13088
1700754236992187,-8.654154,-4.75135,0.1489,0.122738,0.70917,0.17988
1700754237000000,-8.705154,-4.155135,0.8089,0.121138,0.52517,0.23088
1700754237007812,-8.686154,-4.217135,0.13589,0.117938,0.44117,0.18488
1700754237015625,-8.679154,-4.276135,0.23789,0.110338,0.41117,0.18588
1700754237023437,-8.720154,-4.357135,0.33789,0.122438,0.52017,0.10488
1700754237031250,-8.792154,-4.476135,0.49289,0.126938,0.53517,0.7288
1700754237039062,-8.971154,-4.575135,0.65389,0.108538,0.48617,0.1188
1700754237046875,-9.140154,-4.667135,0.73789,0.73538,0.39417,0.4788
1700754237054687,-9.223154,-4.703135,0.75889,0.18738,0.34117,0.13188
1700754237062500,-9.265154,-4.636135,0.75889,0.51062,0.31417,0.34088
1700754237070312,-9.337154,-4.522135,0.71589,0.105762,0.28117,0.45488
1700754237078125,-9.366154,-4.379135,0.60189,0.134562,0.45817,0.51588
1700754237085937,-9.314154,-4.243135,0.41189,0.154362,0.54717,0.49888
1700754237093750,-9.217154,-4.177135,0.15189,0.138762,0.78217,0.58788
1700754237101562,-8.990154,-4.174135,0.9211,0.98862,0.111017,0.62588
1700754237109375,-8.693154,-4.241135,0.29311,0.27262,0.140917,0.48888
1700754237117187,-8.460154,-4.362135,0.38411,0.30838,0.178417,0.46088
1700754237125000,-8.332154,-4.500135,0.38011,0.85338,0.194717,0.18588
1700754237132812,-8.313154,-4.603135,0.33011,0.92438,0.175317,0.6312
1700754237140625,-8.393154,-4.677135,0.32511,0.76638,0.152617,0.32412
1700754237148437,-8.490154,-4.699135,0.34811,0.38338,0.121617,0.30012
1700754237156250,-8.502154,-4.641135,0.39311,0.1462,0.99017,0.29312
1700754237164062,-8.461154,-4.523135,0.39611,0.12262,0.75617,0.30212
1700754237171875,-8.514154,-4.444135,0.35911,0.3162,0.57017,0.25212
1700754237179687,-8.566154,-4.403135,0.30211,0.15138,0.36617,0.18512
1700754237187500,-8.528154,-4.401135,0.22711,0.33438,0.23117,0.12112
1700754237195312,-8.416154,-4.449135,0.15911,0.56438,0.24317,0.9112
1700754237203125,-8.429154,-4.536135,0.2411,0.83838,0.33717,0.12612
1700754237210937,-8.502154,-4.628135,0.13689,0.89838,0.49817,0.25512
1700754237218750,-8.579154,-4.714135,0.29389,0.88238,0.50217,0.25712
1700754237226562,-8.612154,-4.758135,0.39589,0.52938,0.33417,0.39212
1700754237234375,-8.648154,-4.746135,0.47189,0.13238,0.24217,0.37112
1700754237242187,-8.842154,-4.652135,0.57389,0.25062,0.11317,0.41312
1700754237250000,-9.12154,-4.479135,0.63189,0.82862,0.683,0.32712
1700754237257812,-9.98154,-4.289135,0.58189,0.120762,0.2683,0.16612
1700754237265625,-9.91154,-4.123135,0.44389,0.115962,0.16317,0.9412
1700754237273437,-9.36154,-4.10135,0.33689,0.81962,0.59517,0.2612
1700754237281250,-8.973154,-3.997135,0.23889,0.17662,0.110317,0.912
1700754237289062,-8.930154,-4.132135,0.14489,0.55738,0.160817,0.4112
1700754237296875,-8.940154,-4.361135,0.7389,0.115438,0.184917,0.1388
1700754237304687,-8.996154,-4.572135,0.3289,0.140138,0.203317,0.11788
1700754237312500,-9.17154,-4.728135,0.2911,0.108338,0.211017,0.19688
1700754237320312,-8.912154,-4.775135,0.15511,0.53738,0.192817,0.40888
1700754237328125,-8.808154,-4.747135,0.32111,0.3338,0.172117,0.48088
1700754237335937,-8.734154,-4.685135,0.48711,0.22462,0.157617,0.54988
1700754237343750,-8.655154,-4.638135,0.61711,0.11662,0.151217,0.67588
1700754237351562,-8.536154,-4.600135,0.69911,0.23338,0.150617,0.64088
1700754237359375,-8.382154,-4.584135,0.71211,0.56838,0.139817,0.64088
1700754237367187,-8.237154,-4.593135,0.69911,0.80938,0.127017,0.51588
1700754237375000,-8.159154,-4.638135,0.63511,0.100538,0.109517,0.47188
1700754237382812,-8.211154,-4.648135,0.54211,0.101838,0.72417,0.46388
1700754237390625,-8.291154,-4.609135,0.46211,0.90738,0.51717,0.26488
1700754237398437,-8.315154,-4.558135,0.43711,0.79638,0.18117,0.16088
1700754237406250,-8.336154,-4.522135,0.39811,0.82438,0.3917,0.3888
1700754237414062,-8.388154,-4.485135,0.33011,0.97538,0.183,0.3912
1700754237421875,-8.485154,-4.485135,0.22711,0.129238,0.3317,0.21412
1700754237429687,-8.592154,-4.491135,0.10011,0.154938,0.917,0.35912
1700754237437500,-8.694154,-4.512135,0.1889,0.154838,0.2383,0.35912
1700754237445312,-8.720154,-4.522135,0.7089,0.133638,0.9617,0.34312
1700754237453125,-8.725154,-4.546135,0.8189,0.135138,0.11217,0.35912
1700754237460937,-8.795154,-4.586135,0.10089,0.132138,0.29817,0.41112
1700754237468750,-8.870154,-4.584135,0.12589,0.109338,0.35917,0.35012
1700754237476562,-8.927154,-4.551135,0.9889,0.77538,0.44917,0.26912
1700754237484375,-8.914154,-4.470135,0.2289,0.53438,0.49117,0.14112
1700754237492187,-8.829154,-4.370135,0.9011,0.44538,0.48417,0.3188
1700754237500000,-8.717154,-4.318135,0.19011,0.60038,0.60417,0.15388
1700754237507812,-8.641154,-4.336135,0.23611,0.97038,0.66817,0.33988
1700754237515625,-8.582154,-4.362135,0.24311,0.135438,0.78317,0.46088
1700754237523437,-8.509154,-4.414135,0.20911,0.160038,0.78417,0.58488
1700754237531250,-8.460154,-4.483135,0.17911,0.184538,0.71417,0.69588
1700754237539062,-8.440154,-4.571135,0.16611,0.211938,0.52917,0.74388
1700754237546875,-8.377154,-4.679135,0.12311,0.224138,0.47417,0.74488
1700754237554687,-8.308154,-4.780135,0.4611,0.246938,0.51917,0.69388
1700754237562500,-8.307154,-4.867135,0.5389,0.258938,0.43017,0.61688
1700754237570312,-8.374154,-4.964135,0.16389,0.260238,0.40917,0.50588
1700754237578125,-8.443154,-5.30135,0.21989,0.244738,0.52117,0.31688
1700754237585937,-8.413154,-5.50135,0.22689,0.204538,0.48317,0.488
1700754237593750,-8.405154,-5.8135,0.24989,0.185938,0.49717,0.21512
1700754237601562,-8.446154,-4.944135,0.27989,0.159638,0.45917,0.41612
1700754237609375,-8.485154,-4.872135,0.31789,0.136438,0.25517,0.53512
1700754237617187,-8.538154,-4.794135,0.38889,0.114738,0.22117,0.73912
1700754237625000,-8.610154,-4.688135,0.45289,0.96338,0.3817,0.76512
1700754237632812,-8.702154,-4.595135,0.51089,0.68638,0.9383,0.85512
1700754237640625,-8.801154,-4.464135,0.52689,0.39838,0.6783,0.77512
1700754237648437,-8.875154,-4.352135,0.51289,0.13938,0.7683,0.74212
1700754237656250,-8.908154,-4.243135,0.46389,0.9738,0.14617,0.62012
1700754237664062,-8.961154,-4.220135,0.39989,0.22238,0.55317,0.56812
1700754237671875,-9.84154,-4.245135,0.30589,0.53138,0.71617,0.39812
1700754237679687,-9.134154,-4.305135,0.21289,0.64338,0.94517,0.15312
1700754237687500,-8.931154,-4.359135,0.6689,0.67938,0.105617,0.14388
1700754237695312,-8.656154,-4.441135,0.5211,0.84938,0.99017,0.26988
1700754237703125,-8.515154,-4.530135,0.6811,0.98738,0.97317,0.31688
1700754237710937,-8.515154,-4.628135,0.2311,0.127438,0.76017,0.24088
1700754237718750,-8.524154,-4.701135,0.3389,0.113338,0.54117,0.13688
1700754237726562,-8.574154,-4.700135,0.8389,0.78038,0.19517,0.9788
1700754237734375,-8.656154,-4.660135,0.13889,0.48638,0.23783,0.1388
1700754237742187,-8.826154,-4.551135,0.20489,0.7238,0.50483,0.3812
1700754237750000,-8.963154,-4.403135,0.22389,0.9862,0.60583,0.19412
1700754237757812,-8.974154,-4.261135,0.18389,0.9962,0.60383,0.24312
1700754237765625,-8.982154,-4.174135,0.16989,0.29638,0.46783,0.32512
1700754237773437,-9.7154,-4.146135,0.19989,0.78238,0.29983,0.50512
1700754237781250,-9.38154,-4.210135,0.28389,0.134738,0.16083,0.49612
1700754237789062,-9.120154,-4.316135,0.42689,0.178938,0.3583,0.51712
1700754237796875,-9.211154,-4.444135,0.57689,0.177538,0.9983,0.45312
1700754237804687,-9.267154,-4.538135,0.70889,0.159338,0.22683,0.33912
1700754237812500,-9.305154,-4.575135,0.79789,0.132338,0.37883,0.5012
1700754237820312,-9.250154,-4.585135,0.84089,0.82038,0.53183,0.5088
1700754237828125,-9.180154,-4.572135,0.83589,0.60938,0.54183,0.14688
1700754237835937,-9.174154,-4.530135,0.84589,0.34838,0.42183,0.3588
1700754237843750,-9.215154,-4.503135,0.83189,0.14938,0.33783,0.7512
1700754237851562,-9.221154,-4.461135,0.79989,0.11638,0.14083,0.26812
1700754237859375,-9.126154,-4.409135,0.73189,0.6862,0.13917,0.49312
1700754237867187,-9.28154,-4.394135,0.64789,0.11562,0.35317,0.62312
1700754237875000,-8.983154,-4.378135,0.54289,0.5662,0.51417,0.80012
1700754237882812,-8.975154,-4.320135,0.46989,0.19462,0.63017,0.89612
1700754237890625,-8.874154,-4.218135,0.35589,0.34762,0.63017,0.94212
1700754237898437,-8.715154,-4.85135,0.21789,0.39462,0.66217,0.103712
1700754237906250,-8.672154,-3.971135,0.11789,0.32062,0.64217,0.113312
1700754237914062,-8.677154,-3.904135,0.5189,0.5962,0.67217,0.107212
1700754237921875,-8.679154,-3.872135,0.1089,0.41438,0.96317,0.109712
1700754237929687,-8.651154,-3.883135,0.1089,0.93338,0.100917,0.104012
1700754237937500,-8.556154,-3.963135,0.3589,0.142338,0.106817,0.93312
1700754237945312,-8.525154,-4.70135,0.9289,0.163738,0.106217,0.93412
1700754237953125,-8.560154,-4.215135,0.17489,0.160638,0.96617,0.88612
1700754237960937,-8.618154,-4.304135,0.28089,0.160638,0.65117,0.78512
1700754237968750,-8.690154,-4.317135,0.36589,0.112038,0.42917,0.63412
1700754237976562,-8.734154,-4.288135,0.39989,0.67938,0.24317,0.50212
1700754237984375,-8.829154,-4.244135,0.41089,0.32838,0.1617,0.43112
1700754237992187,-8.871154,-4.202135,0.41789,0.16538,0.1783,0.13012
1700754238000000,-8.825154,-4.216135,0.44089,0.29038,0.2117,0.4088
1700754238007812,-8.815154,-4.268135,0.51989,0.47638,0.26917,0.14688
1700754238015625,-8.821154,-4.346135,0.62489,0.63138,0.33817,0.25388
1700754238023437,-8.865154,-4.419135,0.69989,0.32838,0.29717,0.35188
1700754238031250,-8.896154,-4.460135,0.72889,0.6962,0.20217,0.34088
1700754238039062,-8.890154,-4.423135,0.69989,0.46562,0.11217,0.34488
1700754238046875,-8.891154,-4.370135,0.61589,0.86162,0.17317,0.36088
1700754238054687,-8.921154,-4.323135,0.50889,0.86162,0.30417,0.31188
1700754238062500,-8.885154,-4.258135,0.39989,0.72562,0.51417,0.19688
1700754238070312,-8.768154,-4.243135,0.31789,0.40462,0.72717,0.17388
1700754238078125,-8.615154,-4.278135,0.23589,0.3862,0.100017,0.5588
1700754238085937,-8.513154,-4.338135,0.17889,0.34038,0.120517,0.12512
1700754238093750,-8.487154,-4.392135,0.16489,0.47738,0.130117,0.19112
1700754238101562,-8.494154,-4.418135,0.13989,0.44438,0.129617,0.33212
1700754238109375,-8.530154,-4.403135,0.10289,0.38238,0.118017,0.34612
1700754238117187,-8.517154,-4.383135,0.4689,0.39738,0.101217,0.32612
1700754238125000,-8.463154,-4.339135,0.789,0.41238,0.94517,0.30912
1700754238132812,-8.449154,-4.337135,0.111,0.61038,0.77417,0.26012
1700754238140625,-8.506154,-4.368135,0.6889,0.79438,0.77317,0.19812
1700754238148437,-8.578154,-4.402135,0.16489,0.94638,0.63617,0.16512
1700754238156250,-8.647154,-4.450135,0.23989,0.91938,0.56117,0.5788
1700754238164062,-8.669154,-4.489135,0.29189,0.87338,0.29317,0.14388
1700754238171875,-8.707154,-4.526135,0.34189,0.84638,0.27017,0.36388
1700754238179687,-8.739154,-4.551135,0.40589,0.80138,0.15917,0.46088
1700754238187500,-8.797154,-4.594135,0.43989,0.72538,0.12417,0.46288
1700754238195312,-8.916154,-4.671135,0.50389,0.67938,0.6117,0.51088
1700754238203125,-8.960154,-4.754135,0.52589,0.57338,0.13017,0.52688
1700754238210937,-8.914154,-4.806135,0.52589,0.45338,0.16917,0.58988
1700754238218750,-8.836154,-4.847135,0.54889,0.28538,0.18817,0.59088
1700754238226562,-8.805154,-4.874135,0.55789,0.4038,0.25817,0.51188
1700754238234375,-8.870154,-4.894135,0.56689,0.9662,0.32917,0.49488
1700754238242187,-8.959154,-4.859135,0.54589,0.47962,0.33117,0.37188
1700754238250000,-8.944154,-4.761135,0.46689,0.83162,0.26917,0.29688
1700754238257812,-8.873154,-4.644135,0.34189,0.107662,0.25417,0.25188
1700754238265625,-8.775154,-4.527135,0.22989,0.97262,0.44417,0.1188
1700754238273437,-8.720154,-4.444135,0.16489,0.76362,0.63317,0.27912
1700754238281250,-8.685154,-4.356135,0.13289,0.47662,0.70317,0.48712
1700754238289062,-8.654154,-4.281135,0.8589,0.25062,0.81117,0.66512
1700754238296875,-8.648154,-4.227135,0.4889,0.11462,0.80217,0.77512
1700754238304687,-8.722154,-4.144135,0.189,0.3962,0.76617,0.83812
1700754238312500,-8.616154,-4.81135,0.5511,0.17338,0.74617,0.82412
1700754238320312,-8.439154,-4.50135,0.8711,0.52438,0.72117,0.79312
1700754238328125,-8.376154,-4.67135,0.7611,0.75438,0.78717,0.75012
1700754238335937,-8.433154,-4.152135,0.89,0.113738,0.77917,0.65612
1700754238343750,-8.581154,-4.281135,0.9889,0.150238,0.63817,0.64012
1700754238351562,-8.720154,-4.419135,0.17789,0.127438,0.57917,0.54212
1700754238359375,-8.782154,-4.508135,0.22389,0.97238,0.49017,0.39712
1700754238367187,-8.830154,-4.543135,0.26289,0.66938,0.50417,0.25412
1700754238375000,-8.924154,-4.568135,0.31289,0.45838,0.41117,0.10812
1700754238382812,-8.988154,-4.579135,0.30589,0.21638,0.42317,0.3388
1700754238390625,-9.18154,-4.598135,0.27589,0.438,0.39517,0.13188
1700754238398437,-8.998154,-4.585135,0.24389,0.14562,0.55417,0.20788
1700754238406250,-8.960154,-4.574135,0.23089,0.26562,0.67617,0.28488
1700754238414062,-8.921154,-4.572135,0.17789,0.33962,0.71417,0.37988
1700754238421875,-8.868154,-4.558135,0.12089,0.38462,0.75217,0.40988
1700754238429687,-8.773154,-4.517135,0.5989,0.61362,0.69117,0.42788
1700754238437500,-8.686154,-4.463135,0.2011,0.62862,0.74317,0.40988
1700754238445312,-8.654154,-4.410135,0.8311,0.57062,0.63517,0.30288
1700754238453125,-8.646154,-4.377135,0.12911,0.32762,0.61117,0.23888
1700754238460937,-8.634154,-4.352135,0.11511,0.538,0.54617,0.14488
1700754238468750,-8.666154,-4.365135,0.7611,0.26238,0.60517,0.112
1700754238476562,-8.718154,-4.396135,0.4211,0.48838,0.57717,0.16012
1700754238484375,-8.759154,-4.404135,0.1689,0.62338,0.45317,0.25212
1700754238492187,-8.743154,-4.378135,0.5589,0.54638,0.43817,0.29912
1700754238500000,-8.760154,-4.321135,0.8489,0.49838,0.43217,0.44012
1700754238507812,-8.799154,-4.267135,0.9189,0.46738,0.46517,0.47212
1700754238515625,-8.835154,-4.240135,0.8989,0.58838,0.47717,0.50412
1700754238523437,-8.851154,-4.238135,0.8989,0.65238,0.59817,0.39712
1700754238531250,-8.868154,-4.254135,0.9289,0.86538,0.74617,0.45112
1700754238539062,-8.810154,-4.310135,0.8989,0.103638,0.84517,0.34312
1700754238546875,-8.775154,-4.372135,0.10289,0.115938,0.101117,0.31512
1700754238554687,-8.885154,-4.411135,0.14389,0.99338,0.98517,0.18712
1700754238562500,-8.864154,-4.458135,0.10989,0.85738,0.90717,0.12112
1700754238570312,-8.785154,-4.468135,0.2789,0.65938,0.73017,0.3812
1700754238578125,-8.697154,-4.449135,0.2211,0.64338,0.74517,0.10112
1700754238585937,-8.593154,-4.438135,0.5111,0.62838,0.76617,0.5612
1700754238593750,-8.566154,-4.463135,0.3111,0.76438,0.71017,0.10212
1700754238601562,-8.592154,-4.502135,0.289,0.93038,0.60017,0.17812
1700754238609375,-8.641154,-4.546135,0.5289,0.71538,0.48517,0.23812
1700754238617187,-8.667154,-4.528135,0.9589,0.56238,0.35617,0.25112
1700754238625000,-8.679154,-4.472135,0.10989,0.31738,0.17717,0.24612
1700754238632812,-8.705154,-4.409135,0.9889,0.14838,0.16117,0.27512
1700754238640625,-8.710154,-4.347135,0.8989,0.13138,0.10717,0.38412
1700754238648437,-8.710154,-4.282135,0.11689,0.25138,0.6417,0.49312
1700754238656250,-8.710154,-4.261135,0.15589,0.41838,0.10817,0.51012
1700754238664062,-8.731154,-4.268135,0.19289,0.58638,0.12517,0.52912
1700754238671875,-8.720154,-4.277135,0.22689,0.61638,0.20617,0.57812
1700754238679687,-8.738154,-4.255135,0.26289,0.38738,0.6017,0.57412
1700754238687500,-8.735154,-4.204135,0.26989,0.29638,0.1683,0.51012
1700754238695312,-8.749154,-4.168135,0.27289,0.20438,0.13283,0.49012
1700754238703125,-8.787154,-4.131135,0.25889,0.26738,0.5083,0.41212
1700754238710937,-8.817154,-4.102135,0.29289,0.23838,0.1183,0.30312
1700754238718750,-8.846154,-4.97135,0.32689,0.43838,0.417,0.19412
1700754238726562,-8.892154,-4.99135,0.37289,0.51638,0.817,0.11712
1700754238734375,-8.926154,-4.116135,0.41389,0.62438,0.5817,0.5612
1700754238742187,-8.936154,-4.160135,0.41789,0.62638,0.14317,0.588
1700754238750000,-8.933154,-4.211135,0.42689,0.68738,0.19317,0.3688
1700754238757812,-8.975154,-4.279135,0.41989,0.65838,0.22617,0.6888
1700754238765625,-8.995154,-4.375135,0.41789,0.70438,0.24717,0.11388
1700754238773437,-8.968154,-4.426135,0.40789,0.67338,0.29117,0.5188
1700754238781250,-8.928154,-4.459135,0.39889,0.53638,0.29917,0.8288
1700754238789062,-8.932154,-4.472135,0.38589,0.38338,0.28417,0.2088
1700754238796875,-8.971154,-4.458135,0.38089,0.24538,0.23317,0.2412
1700754238804687,-8.969154,-4.411135,0.34189,0.10738,0.21617,0.5312
1700754238812500,-8.937154,-4.337135,0.31489,0.10662,0.14217,0.2112
1700754238820312,-8.899154,-4.253135,0.30389,0.3138,0.15717,0.2312
1700754238828125,-8.902154,-4.198135,0.29989,0.15338,0.8517,0.1088
1700754238835937,-8.945154,-4.169135,0.32289,0.30538,0.21617,0.2512
1700754238843750,-8.957154,-4.146135,0.36389,0.48938,0.21217,0.1012
1700754238851562,-8.938154,-4.150135,0.40889,0.76338,0.33717,0.4412
1700754238859375,-8.907154,-4.176135,0.44589,0.88538,0.38817,0.8012
1700754238867187,-8.863154,-4.189135,0.47889,0.108238,0.37917,0.11112
1700754238875000,-8.829154,-4.197135,0.51389,0.112738,0.46017,0.20812
1700754238882812,-8.860154,-4.218135,0.49289,0.111238,0.47517,0.22312
1700754238890625,-8.890154,-4.257135,0.46789,0.112738,0.49417,0.24112
1700754238898437,-8.909154,-4.285135,0.46089,0.112838,0.56017,0.21012
1700754238906250,-8.896154,-4.296135,0.46089,0.111438,0.64817,0.16512
1700754238914062,-8.871154,-4.308135,0.45389,0.113038,0.76717,0.12112
1700754238921875,-8.846154,-4.327135,0.44489,0.111638,0.74017,0.2712
1700754238929687,-8.785154,-4.350135,0.44089,0.102538,0.70717,0.2512
1700754238937500,-8.725154,-4.368135,0.44989,0.93638,0.77917,0.8488
1700754238945312,-8.670154,-4.393135,0.44689,0.89138,0.84817,0.13188
1700754238953125,-8.659154,-4.400135,0.45589,0.75338,0.83417,0.8488
1700754238960937,-8.648154,-4.405135,0.44989,0.64538,0.75217,0.2388
1700754238968750,-8.622154,-4.407135,0.43089,0.53738,0.71517,0.512
1700754238976562,-8.587154,-4.374135,0.40789,0.32438,0.68617,0.312
1700754238984375,-8.594154,-4.365135,0.40389,0.32238,0.71617,0.9812
1700754238992187,-8.635154,-4.349135,0.41789,0.33638,0.74717,0.19412
1700754239000000,-8.691154,-4.337135,0.42189,0.19938,0.76517,0.20812
1700754239007812,-8.749154,-4.285135,0.40189,0.7738,0.80017,0.24012
1700754239015625,-8.754154,-4.209135,0.33589,0.8962,0.88917,0.20912
1700754239023437,-8.714154,-4.148135,0.23789,0.10362,0.97617,0.16412
1700754239031250,-8.703154,-4.110135,0.13789,0.962,0.106117,0.5612
1700754239039062,-8.699154,-4.135135,0.6089,0.31138,0.107517,0.1112
1700754239046875,-8.686154,-4.184135,0.3989,0.61938,0.117217,0.12688
1700754239054687,-8.652154,-4.238135,0.6689,0.86338,0.120417,0.17088
1700754239062500,-8.615154,-4.314135,0.9389,0.88138,0.110917,0.31488
1700754239070312,-8.634154,-4.388135,0.13089,0.89638,0.102617,0.33188
1700754239078125,-8.759154,-4.404135,0.16289,0.69638,0.92617,0.25688
1700754239085937,-8.901154,-4.386135,0.14689,0.38938,0.81117,0.19888
1700754239093750,-8.972154,-4.347135,0.8289,0.29838,0.78017,0.26388
1700754239101562,-8.945154,-4.319135,0.611,0.34538,0.78417,0.32488
1700754239109375,-8.852154,-4.313135,0.5411,0.63738,0.83117,0.43288
1700754239117187,-8.748154,-4.348135,0.4211,0.92838,0.92817,0.49188
1700754239125000,-8.686154,-4.437135,0.111,0.127938,0.104117,0.46988
1700754239132812,-8.704154,-4.567135,0.8489,0.138538,0.91917,0.45688
1700754239140625,-8.825154,-4.676135,0.17289,0.138438,0.71617,0.49388
1700754239148437,-9.1154,-4.738135,0.22589,0.101738,0.55517,0.48388
1700754239156250,-9.80154,-4.756135,0.19589,0.54438,0.34917,0.50688
1700754239164062,-8.992154,-4.719135,0.13689,0.26938,0.35317,0.49288
1700754239171875,-8.925154,-4.667135,0.9789,0.16338,0.37517,0.50788
1700754239179687,-8.859154,-4.620135,0.7789,0.16338,0.43817,0.46088
1700754239187500,-8.794154,-4.592135,0.5989,0.41938,0.50817,0.25288
1700754239195312,-8.725154,-4.587135,0.6889,0.46238,0.53917,0.7688
1700754239203125,-8.700154,-4.554135,0.8689,0.41238,0.63117,0.16112
1700754239210937,-8.694154,-4.500135,0.7989,0.33438,0.51017,0.23512
1700754239218750,-8.673154,-4.401135,0.4189,0.17838,0.40717,0.39012
1700754239226562,-8.683154,-4.300135,0.1289,0.4038,0.37517,0.43612
1700754239234375,-8.711154,-4.215135,0.611,0.20738,0.30117,0.48212
1700754239242187,-8.739154,-4.154135,0.311,0.39038,0.34717,0.50012
1700754239250000,-8.749154,-4.128135,0.0,0.63438,0.46117,0.48912
1700754239257812,-8.771154,-4.132135,0.3589,0.81838,0.55817,0.50812
1700754239265625,-8.782154,-4.165135,0.7589,0.90938,0.62017,0.52512
1700754239273437,-8.779154,-4.187135,0.8989,0.95638,0.62017,0.47712
1700754239281250,-8.779154,-4.225135,0.9489,0.100338,0.63917,0.39912
1700754239289062,-8.769154,-4.252135,0.10589,0.91438,0.58017,0.24012
1700754239296875,-8.776154,-4.286135,0.10389,0.100638,0.55017,0.17912
1700754239304687,-8.776154,-4.335135,0.12189,0.106938,0.53517,0.8412
1700754239312500,-8.775154,-4.370135,0.16489,0.105538,0.48717,0.1188
1700754239320312,-8.792154,-4.414135,0.21689,0.102738,0.47617,0.16988
1700754239328125,-8.814154,-4.458135,0.25989,0.90438,0.42717,0.15688
1700754239335937,-8.858154,-4.471135,0.27389,0.81338,0.36517,0.17288
1700754239343750,-8.844154,-4.473135,0.29189,0.60138,0.38817,0.23788
1700754239351562,-8.833154,-4.467135,0.31289,0.49338,0.29017,0.22388
1700754239359375,-8.971154,-4.429135,0.33289,0.38538,0.37017,0.11388
1700754239367187,-9.49154,-4.370135,0.28989,0.17138,0.34017,0.11588
1700754239375000,-8.997154,-4.335135,0.21489,0.14138,0.42517,0.9888
1700754239382812,-8.882154,-4.297135,0.16289,0.32438,0.47017,0.6488
1700754239390625,-8.790154,-4.292135,0.17189,0.44538,0.60117,0.212
1700754239398437,-8.735154,-4.321135,0.21289,0.59738,0.62817,0.8312
1700754239406250,-8.712154,-4.362135,0.25389,0.65638,0.54317,0.11312
1700754239414062,-8.705154,-4.387135,0.27389,0.48838,0.46317,0.12712
1700754239421875,-8.725154,-4.375135,0.30189,0.29038,0.41517,0.10812
1700754239429687,-8.762154,-4.325135,0.28289,0.7438,0.28117,0.21312
1700754239437500,-8.817154,-4.260135,0.22889,0.9162,0.32117,0.10212
1700754239445312,-8.816154,-4.202135,0.16789,0.10662,0.29017,0.7112
1700754239453125,-8.841154,-4.166135,0.12189,0.3238,0.40517,0.2612
1700754239460937,-8.884154,-4.177135,0.10389,0.32338,0.55417,0.0
1700754239468750,-8.888154,-4.237135,0.9489,0.64538,0.65017,0.7388
1700754239476562,-8.859154,-4.315135,0.11289,0.79838,0.66517,0.11988
1700754239484375,-8.795154,-4.385135,0.13489,0.90738,0.66517,0.21388
1700754239492187,-8.737154,-4.453135,0.15089,0.87638,0.61717,0.23088
1700754239500000,-8.746154,-4.527135,0.16489,0.86038,0.50117,0.21688
1700754239507812,-8.757154,-4.571135,0.16689,0.72338,0.45517,0.24988
1700754239515625,-8.763154,-4.615135,0.18689,0.64538,0.23517,0.24088
1700754239523437,-8.796154,-4.621135,0.20289,0.49238,0.18717,0.21088
1700754239531250,-8.788154,-4.606135,0.20289,0.20138,0.4017,0.16888
1700754239539062,-8.756154,-4.566135,0.18689,0.13838,0.3617,0.5988
1700754239546875,-8.736154,-4.535135,0.17989,0.15138,0.5183,0.4912
1700754239554687,-8.746154,-4.492135,0.20589,0.10438,0.383,0.11212
1700754239562500,-8.752154,-4.426135,0.23789,0.5738,0.12817,0.25712
1700754239570312,-8.739154,-4.354135,0.23089,0.3938,0.2217,0.39612
1700754239578125,-8.737154,-4.283135,0.19189,0.5338,0.13617,0.47812
1700754239585937,-8.736154,-4.241135,0.15589,0.28138,0.16317,0.54312
1700754239593750,-8.739154,-4.221135,0.14889,0.53838,0.25417,0.70512
1700754239601562,-8.752154,-4.221135,0.19289,0.75138,0.32917,0.77012
1700754239609375,-8.761154,-4.228135,0.22689,0.87338,0.24517,0.73812
1700754239617187,-8.797154,-4.236135,0.26789,0.101138,0.32617,0.72512
1700754239625000,-8.877154,-4.217135,0.28789,0.89138,0.36617,0.61412
1700754239632812,-8.895154,-4.183135,0.26989,0.86138,0.31817,0.53412
1700754239640625,-8.868154,-4.159135,0.25389,0.80138,0.35417,0.48712
1700754239648437,-8.852154,-4.177135,0.25389,0.103238,0.46917,0.42812
1700754239656250,-8.869154,-4.219135,0.28089,0.123138,0.53517,0.36812
1700754239664062,-8.896154,-4.263135,0.35589,0.135638,0.62117,0.24412
1700754239671875,-8.861154,-4.305135,0.38389,0.122138,0.67817,0.15012
1700754239679687,-8.812154,-4.344135,0.36989,0.108538,0.67017,0.3912
1700754239687500,-8.788154,-4.371135,0.35389,0.94938,0.69017,0.712
1700754239695312,-8.802154,-4.378135,0.33289,0.81238,0.67517,0.512
1700754239703125,-8.868154,-4.397135,0.30589,0.66038,0.66617,0.4188
1700754239710937,-8.852154,-4.398135,0.23989,0.64538,0.68317,0.4188
1700754239718750,-8.802154,-4.401135,0.16489,0.63038,0.70017,0.7288
1700754239726562,-8.731154,-4.399135,0.12189,0.78438,0.76717,0.14988
1700754239734375,-8.699154,-4.427135,0.10789,0.104238,0.64217,0.10288
1700754239742187,-8.683154,-4.463135,0.11889,0.111838,0.65817,0.6988
1700754239750000,-8.642154,-4.492135,0.15289,0.111738,0.48917,0.7388
1700754239757812,-8.633154,-4.521135,0.19189,0.113138,0.43717,0.2788
1700754239765625,-8.662154,-4.536135,0.22589,0.108338,0.20017,0.188
1700754239773437,-8.664154,-4.509135,0.27189,0.100538,0.11417,0.7412
1700754239781250,-8.665154,-4.478135,0.31889,0.98738,0.783,0.19712
1700754239789062,-8.718154,-4.464135,0.38989,0.86438,0.12183,0.24312
1700754239796875,-8.795154,-4.441135,0.47189,0.93938,0.15883,0.28912
1700754239804687,-8.852154,-4.431135,0.54789,0.87638,0.14483,0.39912
1700754239812500,-8.897154,-4.407135,0.63189,0.83038,0.9883,0.46212
1700754239820312,-8.938154,-4.373135,0.72089,0.67638,0.9583,0.50912
1700754239828125,-8.945154,-4.375135,0.78889,0.61638,0.4483,0.49312
1700754239835937,-8.922154,-4.398135,0.83389,0.64838,0.23917,0.53112
1700754239843750,-8.921154,-4.424135,0.89989,0.55638,0.24017,0.53012
1700754239851562,-9.16154,-4.470135,0.94789,0.37338,0.29417,0.56212
1700754239859375,-9.151154,-4.490135,0.96389,0.16138,0.31717,0.49712
1700754239867187,-9.159154,-4.481135,0.90489,0.26562,0.36017,0.52812
1700754239875000,-9.53154,-4.423135,0.80689,0.53862,0.40417,0.44912
1700754239882812,-8.932154,-4.322135,0.70889,0.84262,0.59517,0.45112
1700754239890625,-8.899154,-4.243135,0.63189,0.69262,0.73517,0.67612
1700754239898437,-8.987154,-4.130135,0.54589,0.63462,0.76017,0.86512
1700754239906250,-9.58154,-4.20135,0.47289,0.65362,0.81917,0.105512
1700754239914062,-8.989154,-3.878135,0.36189,0.85262,0.91817,0.118112
1700754239921875,-8.853154,-3.776135,0.25289,0.53262,0.99617,0.116912
1700754239929687,-8.777154,-3.710135,0.16889,0.6062,0.108517,0.126912
1700754239937500,-8.758154,-3.722135,0.12289,0.36638,0.117617,0.125812
1700754239945312,-8.807154,-3.790135,0.14789,0.73338,0.112117,0.119712
1700754239953125,-8.835154,-3.851135,0.19089,0.93438,0.105417,0.100612
1700754239960937,-8.816154,-3.934135,0.22889,0.99838,0.90817,0.79812
1700754239968750,-8.820154,-4.3135,0.26789,0.113838,0.76417,0.59212
1700754239976562,-8.829154,-4.109135,0.32489,0.109338,0.67117,0.48112
1700754239984375,-8.862154,-4.184135,0.39789,0.115538,0.54317,0.35412
1700754239992187,-8.854154,-4.242135,0.47989,0.111138,0.52917,0.25812
1700754240000000,-8.915154,-4.288135,0.56189,0.90038,0.47317,0.11512
1700754240007812,-9.5154,-4.292135,0.59089,0.62538,0.39217,0.9312
1700754240015625,-9.45154,-4.296135,0.57989,0.39938,0.46717,0.88
1700754240023437,-9.52154,-4.274135,0.56389,0.24738,0.52017,0.1688
1700754240031250,-9.71154,-4.245135,0.53689,0.5138,0.54717,0.11088
1700754240039062,-9.112154,-4.247135,0.45189,0.6638,0.66617,0.10788
1700754240046875,-9.73154,-4.258135,0.36289,0.22038,0.84517,0.12088
1700754240054687,-8.966154,-4.320135,0.30889,0.47938,0.107217,0.288
1700754240062500,-8.870154,-4.368135,0.29689,0.63138,0.108317,0.2912
1700754240070312,-8.824154,-4.418135,0.30789,0.62938,0.116217,0.15712
1700754240078125,-8.785154,-4.472135,0.31489,0.45738,0.102417,0.34112
1700754240085937,-8.778154,-4.451135,0.32389,0.12038,0.90717,0.41412
1700754240093750,-8.813154,-4.402135,0.30589,0.8062,0.79317,0.52212
1700754240101562,-8.823154,-4.322135,0.27189,0.35562,0.74817,0.55112
1700754240109375,-8.813154,-4.217135,0.22189,0.37062,0.76317,0.53412
1700754240117187,-8.791154,-4.139135,0.16289,0.32462,0.81117,0.56712
1700754240125000,-8.783154,-4.84135,0.12889,0.12662,0.100917,0.62112
1700754240132812,-8.763154,-4.83135,0.8989,0.17938,0.108917,0.57812
1700754240140625,-8.728154,-4.105135,0.4889,0.31838,0.113817,0.50012
1700754240148437,-8.662154,-4.166135,0.111,0.57738,0.108217,0.50112
1700754240156250,-8.578154,-4.215135,0.2611,0.63838,0.114917,0.51912
1700754240164062,-8.637154,-4.214135,0.1289,0.62238,0.103317,0.53312
1700754240171875,-8.675154,-4.209135,0.1211,0.64938,0.85717,0.67112
1700754240179687,-8.653154,-4.187135,0.4411,0.63138,0.66917,0.76112
1700754240187500,-8.612154,-4.143135,0.5311,0.61638,0.65217,0.76012
1700754240195312,-8.591154,-4.122135,0.6911,0.64538,0.65217,0.80912
1700754240203125,-8.663154,-4.116135,0.1711,0.79738,0.62817,0.87212
1700754240210937,-8.805154,-4.120135,0.5589,0.85838,0.51017,0.79012
1700754240218750,-8.941154,-4.141135,0.10889,0.79838,0.48117,0.74212
1700754240226562,-9.24154,-4.152135,0.14889,0.61738,0.50517,0.61512
1700754240234375,-9.31154,-4.164135,0.21089,0.51438,0.51717,0.39512
1700754240242187,-9.31154,-4.179135,0.24989,0.39638,0.51017,0.15612
1700754240250000,-9.112154,-4.227135,0.31289,0.47638,0.48317,0.4788
1700754240257812,-9.159154,-4.275135,0.36089,0.46438,0.50817,0.23588
1700754240265625,-9.106154,-4.329135,0.37889,0.17838,0.50417,0.44388
1700754240273437,-9.92154,-4.347135,0.37689,0.1138,0.52717,0.50688
1700754240281250,-9.60154,-4.341135,0.36289,0.24662,0.55017,0.52388
1700754240289062,-9.17154,-4.332135,0.32389,0.35362,0.66917,0.50688
1700754240296875,-8.966154,-4.307135,0.28789,0.39862,0.70517,0.50488
1700754240304687,-8.973154,-4.282135,0.25389,0.38362,0.77017,0.47288
1700754240312500,-9.12154,-4.246135,0.21289,0.38562,0.76717,0.36188
1700754240320312,-8.976154,-4.223135,0.11289,0.30962,0.78317,0.34488
1700754240328125,-8.886154,-4.191135,0.589,0.34162,0.79717,0.24988
1700754240335937,-8.773154,-4.154135,0.7611,0.19262,0.75217,0.4588
1700754240343750,-8.703154,-4.124135,0.12811,0.11038,0.84117,0.8412
1700754240351562,-8.663154,-4.100135,0.13111,0.36638,0.85917,0.29012
1700754240359375,-8.663154,-4.65135,0.12611,0.53138,0.77017,0.40112
1700754240367187,-8.675154,-4.33135,0.15111,0.63538,0.77717,0.55812
1700754240375000,-8.700154,-4.15135,0.17111,0.60438,0.72617,0.60412
1700754240382812,-8.723154,-3.995135,0.18911,0.73938,0.70517,0.68412
1700754240390625,-8.726154,-3.990135,0.20111,0.101238,0.71017,0.81212
1700754240398437,-8.730154,-3.990135,0.19411,0.110338,0.74217,0.79712
1700754240406250,-8.743154,-4.16135,0.17411,0.117938,0.58717,0.79412
1700754240414062,-8.788154,-4.60135,0.14411,0.133138,0.48317,0.79212
1700754240421875,-8.796154,-4.98135,0.10811,0.127138,0.37317,0.64812
1700754240429687,-8.791154,-4.114135,0.5511,0.111938,0.25817,0.62912
1700754240437500,-8.905154,-4.121135,0.2889,0.111938,0.14517,0.56412
1700754240445312,-8.995154,-4.156135,0.9689,0.108938,0.8483,0.44912
1700754240453125,-9.28154,-4.197135,0.14889,0.89438,0.2683,0.30612
1700754240460937,-9.53154,-4.194135,0.21289,0.85038,0.5283,0.14812
1700754240468750,-9.48154,-4.192135,0.26289,0.60938,0.4483,0.2012
1700754240476562,-9.45154,-4.186135,0.29089,0.42738,0.1317,0.988
1700754240484375,-9.70154,-4.157135,0.31989,0.30538,0.117,0.4188
1700754240492187,-9.107154,-4.116135,0.31989,0.15538,0.917,0.18588
1700754240500000,-9.107154,-4.62135,0.29989,0.2862,0.2517,0.9188
1700754240507812,-9.101154,-3.984135,0.26789,0.10462,0.7717,0.9188
1700754240515625,-9.107154,-3.919135,0.21089,0.2962,0.18917,0.512
1700754240523437,-9.121154,-3.880135,0.13689,0.7738,0.40517,0.7512
1700754240531250,-9.76154,-3.885135,0.6789,0.44438,0.49817,0.3112
1700754240539062,-9.10154,-3.898135,0.1389,0.81038,0.61017,0.5312
1700754240546875,-8.961154,-3.978135,0.511,0.116138,0.66817,0.5612
1700754240554687,-8.933154,-4.60135,0.2189,0.132838,0.67817,0.12012
1700754240562500,-8.907154,-4.132135,0.6489,0.149538,0.64217,0.12012
1700754240570312,-8.908154,-4.192135,0.9489,0.149338,0.47017,0.19512
1700754240578125,-8.913154,-4.206135,0.11089,0.137038,0.38717,0.24012
1700754240585937,-8.886154,-4.217135,0.14489,0.136938,0.25217,0.25312
1700754240593750,-8.859154,-4.226135,0.18989,0.135238,0.8417,0.28112
1700754240601562,-8.833154,-4.260135,0.26489,0.147138,0.2383,0.40612
1700754240609375,-8.815154,-4.282135,0.37689,0.163838,0.6483,0.46812
1700754240617187,-8.862154,-4.324135,0.49489,0.145438,0.7783,0.49912
1700754240625000,-8.909154,-4.336135,0.61789,0.120938,0.24483,0.54012
1700754240632812,-8.964154,-4.293135,0.71189,0.87138,0.40583,0.59812
1700754240640625,-8.988154,-4.214135,0.77789,0.44338,0.41783,0.68912
1700754240648437,-9.36154,-4.122135,0.81189,0.19838,0.41683,0.76612
1700754240656250,-9.99154,-4.17135,0.82189,0.4638,0.29383,0.76912
1700754240664062,-9.114154,-3.946135,0.80789,0.6062,0.19183,0.81712
1700754240671875,-9.146154,-3.889135,0.78289,0.11962,0.6017,0.80612
1700754240679687,-9.160154,-3.849135,0.73589,0.5762,0.19617,0.74612
1700754240687500,-9.107154,-3.812135,0.68089,0.7062,0.41717,0.73612
1700754240695312,-9.39154,-3.748135,0.60389,0.17662,0.58817,0.70712
1700754240703125,-9.26154,-3.659135,0.50589,0.35962,0.65517,0.75312
1700754240710937,-9.64154,-3.570135,0.39889,0.34362,0.70717,0.75612
1700754240718750,-9.56154,-3.493135,0.24189,0.19162,0.65417,0.74012
1700754240726562,-8.961154,-3.441135,0.8989,0.9738,0.74617,0.80612
1700754240734375,-8.824154,-3.441135,0.589,0.57138,0.92417,0.79912
1700754240742187,-8.777154,-3.508135,0.1889,0.127238,0.120717,0.88712
1700754240750000,-8.885154,-3.604135,0.12089,0.176138,0.121417,0.84312
1700754240757812,-8.968154,-3.713135,0.20089,0.183938,0.105417,0.66812
1700754240765625,-9.16154,-3.814135,0.23189,0.176538,0.85717,0.50512
1700754240773437,-9.49154,-3.854135,0.24789,0.157038,0.73817,0.25012
1700754240781250,-9.19154,-3.885135,0.25489,0.143538,0.51117,0.2212
1700754240789062,-9.154,-3.932135,0.30889,0.152938,0.43217,0.15188
1700754240796875,-8.989154,-3.986135,0.38889,0.165438,0.40517,0.32388
1700754240804687,-8.955154,-4.75135,0.48389,0.173138,0.35217,0.38888
1700754240812500,-8.884154,-4.165135,0.60289,0.183738,0.25017,0.38988
1700754240820312,-8.863154,-4.245135,0.72789,0.165438,0.20417,0.37588
1700754240828125,-8.905154,-4.323135,0.84189,0.140838,0.20717,0.29788
1700754240835937,-8.975154,-4.335135,0.91689,0.97938,0.9417,0.20888
1700754240843750,-9.46154,-4.285135,0.91489,0.27538,0.3517,0.4188
1700754240851562,-9.157154,-4.186135,0.86889,0.24462,0.3783,0.112
1700754240859375,-9.233154,-4.42135,0.76689,0.60962,0.23517,0.6712
1700754240867187,-9.196154,-3.920135,0.64689,0.66962,0.47117,0.10312
1700754240875000,-9.120154,-3.837135,0.53089,0.48762,0.66517,0.25112
1700754240882812,-9.88154,-3.824135,0.42989,0.15162,0.102117,0.33812
1700754240890625,-9.63154,-3.852135,0.38289,0.7638,0.125117,0.45612
1700754240898437,-9.11154,-3.864135,0.35089,0.16738,0.133217,0.47412
1700754240906250,-8.961154,-3.837135,0.31389,0.3162,0.131617,0.51912
1700754240914062,-8.921154,-3.807135,0.27089,0.10562,0.130917,0.37812
1700754240921875,-8.917154,-3.755135,0.23689,0.9062,0.117117,0.34212
1700754240929687,-8.938154,-3.695135,0.20989,0.7162,0.118217,0.12312
1700754240937500,-8.913154,-3.657135,0.17089,0.9838,0.121217,0.2812
1700754240945312,-8.891154,-3.655135,0.12289,0.32938,0.119617,0.9588
1700754240953125,-8.879154,-3.709135,0.11889,0.69638,0.127617,0.15388
1700754240960937,-8.882154,-3.787135,0.14289,0.106538,0.135617,0.29288
1700754240968750,-8.834154,-3.891135,0.19789,0.130838,0.145217,0.22488
1700754240976562,-8.912154,-3.987135,0.30889,0.144538,0.139917,0.24088
1700754240984375,-9.17154,-4.59135,0.37489,0.135538,0.125317,0.35488
1700754240992187,-9.9154,-4.112135,0.37989,0.112538,0.112217,0.35988
1700754241000000,-8.971154,-4.115135,0.37489,0.88238,0.104617,0.42588
1700754241007812,-8.962154,-4.113135,0.36589,0.67038,0.110317,0.45788
1700754241015625,-8.964154,-4.109135,0.36589,0.70038,0.113617,0.47288
1700754241023437,-8.971154,-4.118135,0.37089,0.67038,0.125417,0.45388
1700754241031250,-8.993154,-4.122135,0.34489,0.62538,0.125617,0.48688
1700754241039062,-9.39154,-4.137135,0.32289,0.48838,0.130917,0.46988
1700754241046875,-9.51154,-4.159135,0.25889,0.42838,0.146017,0.48388
1700754241054687,-9.45154,-4.170135,0.18389,0.41338,0.152917,0.46588
1700754241062500,-8.995154,-4.173135,0.9889,0.42938,0.166217,0.47988
1700754241070312,-8.918154,-4.159135,0.2389,0.38338,0.157817,0.46588
1700754241078125,-8.843154,-4.149135,0.2811,0.41438,0.159617,0.48088
1700754241085937,-8.836154,-4.139135,0.6011,0.53538,0.154017,0.48188
1700754241093750,-8.885154,-4.129135,0.9411,0.48938,0.146217,0.46588
1700754241101562,-8.921154,-4.135135,0.12111,0.58038,0.141017,0.48288
1700754241109375,-8.925154,-4.126135,0.16211,0.65638,0.130517,0.46888
1700754241117187,-8.885154,-4.138135,0.19011,0.83938,0.132217,0.48188
1700754241125000,-8.860154,-4.202135,0.17611,0.109938,0.146117,0.46388
1700754241132812,-8.867154,-4.276135,0.14211,0.141938,0.145717,0.47688
1700754241140625,-8.884154,-4.371135,0.8111,0.161738,0.148617,0.44288
1700754241148437,-8.901154,-4.445135,0.811,0.159938,0.138117,0.31888
1700754241156250,-8.893154,-4.498135,0.4389,0.130938,0.128717,0.33888
1700754241164062,-8.882154,-4.494135,0.5089,0.110938,0.112217,0.31288
1700754241171875,-8.888154,-4.461135,0.4189,0.89438,0.116017,0.21688
1700754241179687,-8.888154,-4.425135,0.2389,0.69538,0.110917,0.14088
1700754241187500,-8.877154,-4.385135,0.989,0.69438,0.107417,0.11088
1700754241195312,-8.832154,-4.363135,0.89,0.78538,0.111917,0.4688
1700754241203125,-8.811154,-4.350135,0.1889,0.70738,0.116517,0.4712
1700754241210937,-8.831154,-4.344135,0.3589,0.67538,0.118417,0.14412
1700754241218750,-8.889154,-4.334135,0.5089,0.61238,0.106317,0.21912
1700754241226562,-8.885154,-4.287135,0.3089,0.52038,0.98217,0.20112
1700754241234375,-8.874154,-4.233135,0.1089,0.41138,0.102717,0.35812
1700754241242187,-8.872154,-4.193135,0.1911,0.38138,0.102817,0.34212
1700754241250000,-8.879154,-4.175135,0.5111,0.45638,0.103917,0.45312
1700754241257812,-8.932154,-4.190135,0.6011,0.63738,0.106617,0.53412
1700754241265625,-8.939154,-4.200135,0.7111,0.59238,0.118717,0.52212
1700754241273437,-8.938154,-4.206135,0.6011,0.53238,0.118717,0.52012
1700754241281250,-8.936154,-4.206135,0.6911,0.54638,0.115317,0.55212
1700754241289062,-8.904154,-4.200135,0.10611,0.38038,0.102417,0.43612
1700754241296875,-8.890154,-4.193135,0.11911,0.21338,0.96317,0.35512
1700754241304687,-8.880154,-4.185135,0.12411,0.12138,0.78217,0.33612
1700754241312500,-8.857154,-4.172135,0.12411,0.12038,0.73117,0.35012
1700754241320312,-8.855154,-4.167135,0.11211,0.162,0.60017,0.33112
1700754241328125,-8.910154,-4.158135,0.9411,0.9462,0.61917,0.37912
1700754241335937,-8.966154,-4.130135,0.9611,0.15562,0.56617,0.39212
1700754241343750,-8.982154,-4.67135,0.9911,0.35562,0.53217,0.46812
1700754241351562,-8.993154,-3.985135,0.12611,0.44862,0.38417,0.49612
1700754241359375,-9.17154,-3.907135,0.16211,0.46362,0.35117,0.49612
1700754241367187,-9.76154,-3.849135,0.20111,0.29562,0.37717,0.51212
1700754241375000,-9.108154,-3.841135,0.23911,0.9762,0.42517,0.49912
1700754241382812,-9.74154,-3.841135,0.26211,0.14838,0.49217,0.40812
1700754241390625,-9.15154,-3.856135,0.24111,0.30238,0.54217,0.36312
1700754241398437,-8.956154,-3.871135,0.23711,0.54638,0.53617,0.31712
1700754241406250,-8.904154,-3.902135,0.20911,0.60738,0.48917,0.28612
1700754241414062,-8.871154,-3.947135,0.19811,0.63738,0.43617,0.30012
1700754241421875,-8.869154,-3.967135,0.17311,0.63738,0.33617,0.29912
1700754241429687,-8.885154,-3.973135,0.13511,0.62138,0.6917,0.24512
1700754241437500,-8.946154,-3.963135,0.10111,0.60338,0.8783,0.31912
1700754241445312,-8.973154,-3.967135,0.6211,0.52838,0.1683,0.30512
1700754241453125,-8.978154,-3.952135,0.1811,0.58938,0.9983,0.28912
1700754241460937,-8.958154,-3.948135,0.189,0.55938,0.6183,0.25912
1700754241468750,-8.957154,-3.969135,0.4289,0.51338,0.6583,0.27312
1700754241476562,-8.971154,-3.983135,0.9489,0.60438,0.5083,0.29012
1700754241484375,-8.993154,-4.11135,0.15689,0.54338,0.6783,0.28812
1700754241492187,-9.16154,-4.20135,0.22089,0.36138,0.5983,0.22512
1700754241500000,-9.61154,-4.26135,0.24089,0.13438,0.3583,0.17712
1700754241507812,-9.71154,-4.13135,0.23689,0.6262,0.15983,0.6312
1700754241515625,-9.113154,-3.974135,0.19789,0.11062,0.14883,0.17212
1700754241523437,-9.180154,-3.913135,0.16389,0.26362,0.2983,0.25312
1700754241531250,-9.224154,-3.848135,0.14589,0.24762,0.7117,0.24012
1700754241539062,-9.188154,-3.795135,0.9989,0.8062,0.16617,0.29012
1700754241546875,-9.98154,-3.765135,0.5489,0.5938,0.30117,0.21512
1700754241554687,-8.983154,-3.760135,0.2289,0.41038,0.50917,0.26912
1700754241562500,-8.885154,-3.790135,0.3189,0.76138,0.63617,0.29012
1700754241570312,-8.828154,-3.829135,0.5889,0.94438,0.60017,0.25912
1700754241578125,-8.875154,-3.872135,0.9289,0.97538,0.64817,0.27512
1700754241585937,-8.938154,-3.909135,0.9289,0.91338,0.48217,0.27212
1700754241593750,-8.964154,-3.913135,0.8589,0.88338,0.48217,0.23912
1700754241601562,-8.977154,-3.907135,0.7689,0.85538,0.47517,0.8312
1700754241609375,-8.985154,-3.929135,0.8589,0.91738,0.49217,0.412
1700754241617187,-9.16154,-3.969135,0.10889,0.113238,0.64117,0.2188
1700754241625000,-9.43154,-4.17135,0.14089,0.111938,0.69617,0.14788
1700754241632812,-9.18154,-4.74135,0.17089,0.113538,0.71517,0.16188
1700754241640625,-9.17154,-4.106135,0.21389,0.112038,0.68217,0.22688
1700754241648437,-9.5154,-4.127135,0.21589,0.97238,0.77717,0.41388
1700754241656250,-8.994154,-4.157135,0.22089,0.75838,0.68417,0.43188
1700754241664062,-9.5154,-4.161135,0.19489,0.63638,0.65317,0.46588
1700754241671875,-9.44154,-4.154135,0.18389,0.49938,0.60817,0.48288
1700754241679687,-9.39154,-4.156135,0.18389,0.50038,0.65817,0.49788
1700754241687500,-9.30154,-4.185135,0.19089,0.46938,0.69117,0.48188
1700754241695312,-9.65154,-4.218135,0.19789,0.48538,0.67417,0.49788
1700754241703125,-9.72154,-4.253135,0.21589,0.40738,0.72117,0.38788
1700754241710937,-9.73154,-4.254135,0.22689,0.23838,0.73517,0.31188
1700754241718750,-9.54154,-4.224135,0.20689,0.562,0.69217,0.29688
1700754241726562,-9.2154,-4.167135,0.15689,0.9862,0.84117,0.19988
1700754241734375,-8.945154,-4.102135,0.8589,0.23762,0.77417,0.7488
1700754241742187,-8.923154,-4.48135,0.2289,0.23762,0.90917,0.7188
1700754241750000,-8.867154,-3.989135,0.2811,0.962,0.103317,0.5712
1700754241757812,-8.794154,-3.977135,0.7811,0.15738,0.101317,0.5812
1700754241765625,-8.721154,-3.972135,0.12811,0.31038,0.110617,0.7512
1700754241773437,-8.687154,-3.986135,0.12611,0.56838,0.104917,0.12312
1700754241781250,-8.678154,-4.14135,0.12611,0.64538,0.103517,0.7812
1700754241789062,-8.667154,-4.27135,0.11911,0.61238,0.83017,0.15112
1700754241796875,-8.765154,-4.2135,0.11911,0.56438,0.74417,0.26012
1700754241804687,-8.848154,-3.971135,0.12311,0.56438,0.72417,0.25812
1700754241812500,-8.858154,-3.920135,0.17311,0.63938,0.59017,0.27212
1700754241820312,-8.888154,-3.902135,0.19811,0.64138,0.69517,0.18112
1700754241828125,-8.897154,-3.922135,0.20011,0.90138,0.69117,0.11912
1700754241835937,-8.910154,-3.998135,0.16211,0.129938,0.78617,0.7712
1700754241843750,-8.927154,-4.105135,0.8511,0.157438,0.90017,0.6612
1700754241851562,-8.943154,-4.238135,0.389,0.162238,0.85217,0.6188
1700754241859375,-8.983154,-4.338135,0.7889,0.140938,0.74417,0.15888
1700754241867187,-9.4154,-4.392135,0.11689,0.90738,0.67217,0.24288
1700754241875000,-9.4154,-4.396135,0.10389,0.58738,0.52617,0.28088
1700754241882812,-8.977154,-4.375135,0.6989,0.23638,0.41817,0.28488
1700754241890625,-8.939154,-4.320135,0.2389,0.5462,0.27117,0.25888
1700754241898437,-8.933154,-4.244135,0.511,0.11862,0.33317,0.10088
1700754241906250,-8.950154,-4.200135,0.1711,0.19462,0.41817,0.3588
1700754241914062,-8.919154,-4.140135,0.3711,0.25762,0.39917,0.2612
1700754241921875,-8.865154,-4.93135,0.6711,0.19562,0.44817,0.2712
1700754241929687,-8.853154,-4.52135,0.9611,0.8962,0.51417,0.6212
1700754241937500,-8.860154,-4.17135,0.10711,0.1462,0.46117,0.10912
1700754241945312,-8.873154,-3.991135,0.13211,0.16938,0.47217,0.9412
1700754241953125,-8.869154,-3.976135,0.13711,0.25938,0.50117,0.17412
1700754241960937,-8.889154,-3.984135,0.15311,0.53438,0.46217,0.9512
1700754241968750,-8.946154,-3.986135,0.14411,0.66938,0.47217,0.22312
1700754241976562,-9.34154,-3.978135,0.11911,0.65338,0.48717,0.27012
1700754241984375,-9.75154,-3.944135,0.13411,0.66938,0.45517,0.25412
1700754241992187,-9.46154,-3.918135,0.16911,0.80638,0.46817,0.25512
1700754242000000,-9.37154,-3.910135,0.17811,0.97438,0.49517,0.27112
1700754242007812,-9.39154,-3.933135,0.18911,0.128038,0.56117,0.21312
1700754242015625,-9.48154,-3.973135,0.15311,0.155638,0.65817,0.16912
1700754242023437,-9.45154,-4.34135,0.10311,0.166338,0.65717,0.15512
1700754242031250,-9.8154,-4.107135,0.7311,0.174038,0.64117,0.7612
1700754242039062,-9.4154,-4.192135,0.3511,0.161838,0.51017,0.5712
1700754242046875,-9.18154,-4.259135,0.189,0.161938,0.46517,0.3788
1700754242054687,-9.21154,-4.319135,0.2889,0.148238,0.45017,0.7188
1700754242062500,-9.31154,-4.374135,0.5089,0.123738,0.26717,0.4688
1700754242070312,-9.42154,-4.403135,0.6489,0.107038,0.24117,0.7888
1700754242078125,-9.58154,-4.414135,0.6689,0.86938,0.7517,0.388
1700754242085937,-9.54154,-4.424135,0.5389,0.63838,0.4417,0.10512
1700754242093750,-8.995154,-4.397135,0.5789,0.45438,0.817,0.19612
1700754242101562,-8.934154,-4.346135,0.5589,0.39038,0.3183,0.35212
1700754242109375,-8.874154,-4.289135,0.5389,0.22038,0.1583,0.50912
1700754242117187,-8.834154,-4.225135,0.6789,0.18538,0.4183,0.74412
1700754242125000,-8.828154,-4.145135,0.11589,0.21238,0.18183,0.86712
1700754242132812,-8.816154,-4.51135,0.17289,0.8838,0.33383,0.95812
1700754242140625,-8.831154,-3.956135,0.22489,0.11362,0.38683,0.119312
1700754242148437,-8.885154,-3.846135,0.25089,0.13062,0.43783,0.125512
1700754242156250,-8.913154,-3.750135,0.26489,0.16162,0.50483,0.123812
1700754242164062,-8.937154,-3.649135,0.28789,0.17462,0.46783,0.116012
1700754242171875,-8.999154,-3.567135,0.29689,0.838,0.37283,0.114612
1700754242179687,-9.50154,-3.513135,0.30789,0.11738,0.33683,0.103712
1700754242187500,-9.67154,-3.504135,0.27889,0.21138,0.20183,0.92912
1700754242195312,-9.44154,-3.546135,0.27589,0.56438,0.8883,0.85512
1700754242203125,-9.78154,-3.645135,0.29889,0.79438,0.4617,0.81412
1700754242210937,-9.116154,-3.769135,0.35089,0.107138,0.14417,0.67512
1700754242218750,-9.115154,-3.886135,0.40089,0.105838,0.18217,0.56512
1700754242226562,-9.139154,-3.991135,0.45289,0.86138,0.20717,0.50312
1700754242234375,-9.213154,-4.19135,0.49889,0.58738,0.11317,0.46712
1700754242242187,-9.306154,-4.16135,0.50089,0.16138,0.5817,0.41712
1700754242250000,-9.339154,-3.964135,0.42589,0.14262,0.1583,0.31812
1700754242257812,-9.265154,-3.885135,0.33089,0.33962,0.5717,0.28712
1700754242265625,-9.175154,-3.839135,0.25989,0.15562,0.15417,0.24212
1700754242273437,-9.118154,-3.826135,0.25089,0.1762,0.36717,0.26312
1700754242281250,-9.77154,-3.861135,0.27289,0.28738,0.56217,0.33312
1700754242289062,-9.26154,-3.890135,0.28189,0.23938,0.54017,0.45712
1700754242296875,-9.17154,-3.888135,0.28689,0.13438,0.57717,0.39412
1700754242304687,-9.27154,-3.842135,0.27589,0.11062,0.48417,0.39212
1700754242312500,-9.56154,-3.779135,0.25589,0.29262,0.39117,0.31012
1700754242320312,-9.60154,-3.707135,0.17789,0.35262,0.32517,0.24412
1700754242328125,-9.14154,-3.644135,0.10089,0.23062,0.39217,0.26412
1700754242335937,-8.951154,-3.611135,0.5089,0.9038,0.48317,0.25012
1700754242343750,-8.928154,-3.600135,0.5489,0.45638,0.62617,0.27212
1700754242351562,-8.992154,-3.593135,0.9189,0.71638,0.70817,0.26012
1700754242359375,-9.112154,-3.573135,0.9889,0.88238,0.71617,0.34012
1700754242367187,-9.192154,-3.538135,0.9389,0.86738,0.63217,0.33812
1700754242375000,-9.159154,-3.511135,0.2789,0.102338,0.65617,0.13612
1700754242382812,-9.70154,-3.513135,0.1511,0.131438,0.65117,0.2612
1700754242390625,-8.965154,-3.586135,0.811,0.182038,0.84717,0.6088
1700754242398437,-8.918154,-3.712135,0.4789,0.235538,0.93917,0.10188
1700754242406250,-8.932154,-3.883135,0.14389,0.258438,0.100217,0.13088
1700754242414062,-8.981154,-4.51135,0.27089,0.255538,0.100517,0.20988
1700754242421875,-9.34154,-4.178135,0.36789,0.217238,0.69417,0.18688
1700754242429687,-9.25154,-4.232135,0.39289,0.164038,0.62817,0.31688
1700754242437500,-8.991154,-4.236135,0.39589,0.98538,0.45817,0.40488
1700754242445312,-8.971154,-4.170135,0.38889,0.55838,0.48417,0.37488
1700754242453125,-8.983154,-4.105135,0.36589,0.25238,0.48917,0.32988
1700754242460937,-9.49154,-4.41135,0.32289,0.8538,0.62417,0.34488
1700754242468750,-9.107154,-3.992135,0.27289,0.5162,0.74317,0.26388
1700754242476562,-9.95154,-3.933135,0.21189,0.9662,0.86617,0.30788
1700754242484375,-9.48154,-3.864135,0.13489,0.10762,0.108817,0.42988
1700754242492187,-8.998154,-3.808135,0.4589,0.7762,0.110117,0.44688
1700754242500000,-8.955154,-3.792135,0.6411,0.0,0.105317,0.49388
1700754242507812,-8.890154,-3.798135,0.14111,0.36538,0.103017,0.47488
1700754242515625,-8.828154,-3.832135,0.15711,0.71538,0.103917,0.48888
1700754242523437,-8.827154,-3.907135,0.13211,0.103638,0.111517,0.46888
1700754242531250,-8.855154,-3.994135,0.5911,0.120238,0.101017,0.43888
1700754242539062,-8.886154,-4.77135,0.1911,0.115538,0.98917,0.34588
1700754242546875,-8.921154,-4.115135,0.1989,0.104538,0.78417,0.22488
1700754242554687,-8.963154,-4.92135,0.3189,0.72438,0.77417,0.16388
1700754242562500,-8.981154,-4.54135,0.3589,0.58438,0.72017,0.7188
1700754242570312,-8.975154,-4.14135,0.2489,0.47738,0.70717,0.3988
1700754242578125,-8.996154,-3.978135,0.1989,0.47738,0.68917,0.988
1700754242585937,-9.28154,-3.964135,0.2289,0.41538,0.75517,0.3812
1700754242593750,-8.991154,-3.953135,0.2289,0.40138,0.77217,0.612
1700754242601562,-8.939154,-3.952135,0.3589,0.35638,0.84117,0.3988
1700754242609375,-8.935154,-3.950135,0.3389,0.23438,0.73017,0.8888
1700754242617187,-9.22154,-3.927135,0.6789,0.12638,0.77917,0.2112
1700754242625000,-9.85154,-3.890135,0.5689,0.11662,0.73617,0.2788
1700754242632812,-9.81154,-3.866135,0.211,0.26762,0.67517,0.14088
1700754242640625,-9.84154,-3.846135,0.5411,0.17662,0.68917,0.10788
1700754242648437,-9.72154,-3.852135,0.8011,0.5362,0.85417,0.10488
1700754242656250,-9.77154,-3.860135,0.8211,0.23538,0.80017,0.13488
1700754242664062,-9.110154,-3.883135,0.9611,0.40438,0.84617,0.16488
1700754242671875,-9.103154,-3.932135,0.12811,0.45038,0.79617,0.22888
1700754242679687,-9.44154,-3.972135,0.15711,0.69638,0.84817,0.31888
1700754242687500,-8.975154,-4.25135,0.13711,0.81938,0.72917,0.40088
1700754242695312,-8.961154,-4.88135,0.10311,0.91138,0.74617,0.43088
1700754242703125,-8.915154,-4.149135,0.4411,0.100238,0.64517,0.43188
1700754242710937,-8.887154,-4.187135,0.1989,0.104538,0.48817,0.34088
1700754242718750,-8.931154,-4.217135,0.6989,0.96638,0.46417,0.16888
1700754242726562,-8.938154,-4.221135,0.10389,0.77938,0.26017,0.3388
1700754242734375,-8.944154,-4.193135,0.11989,0.65638,0.19617,0.4412
1700754242742187,-8.949154,-4.140135,0.12889,0.63738,0.20817,0.21812
1700754242750000,-8.974154,-4.69135,0.15189,0.62038,0.21817,0.32712
1700754242757812,-9.2154,-3.998135,0.15689,0.60238,0.19317,0.51512
1700754242765625,-9.32154,-3.951135,0.14789,0.61538,0.38817,0.70912
1700754242773437,-9.49154,-3.900135,0.13489,0.69038,0.45217,0.80712
1700754242781250,-9.72154,-3.872135,0.13489,0.87338,0.61417,0.82612
1700754242789062,-9.54154,-3.881135,0.12989,0.101038,0.72517,0.89212
1700754242796875,-9.42154,-3.897135,0.12989,0.113338,0.84117,0.86312
1700754242804687,-9.38154,-3.920135,0.12789,0.108938,0.78017,0.78412
1700754242812500,-9.65154,-3.951135,0.11889,0.110538,0.86617,0.77112
1700754242820312,-9.112154,-3.991135,0.9089,0.101538,0.74117,0.61112
1700754242828125,-9.98154,-4.35135,0.5689,0.95638,0.76117,0.50012
1700754242835937,-9.45154,-4.78135,0.4989,0.97238,0.77817,0.45212
1700754242843750,-8.976154,-4.118135,0.6789,0.111238,0.74617,0.31012
1700754242851562,-8.980154,-4.204135,0.10689,0.112638,0.71317,0.35812
1700754242859375,-9.6154,-4.256135,0.14889,0.104938,0.54317,0.35212
1700754242867187,-8.997154,-4.261135,0.18789,0.69938,0.48717,0.27012
1700754242875000,-9.4154,-4.229135,0.22889,0.31638,0.19117,0.26112
1700754242882812,-9.14154,-4.151135,0.21389,0.9462,0.20117,0.27512
1700754242890625,-9.8154,-4.69135,0.17689,0.12562,0.3317,0.25512
1700754242898437,-8.982154,-3.996135,0.15489,0.25062,0.5083,0.36312
1700754242906250,-8.988154,-3.934135,0.14989,0.15862,0.1417,0.38112
1700754242914062,-9.4154,-3.888135,0.16389,0.9862,0.19217,0.49512
1700754242921875,-9.2154,-3.857135,0.17089,0.8462,0.15717,0.54212
1700754242929687,-9.9154,-3.833135,0.16889,0.6962,0.30617,0.60912
1700754242937500,-9.26154,-3.824135,0.14389,0.638,0.28917,0.62512
1700754242945312,-9.48154,-3.801135,0.13189,0.12738,0.23217,0.67112
1700754242953125,-9.60154,-3.790135,0.12289,0.19038,0.35317,0.61212
1700754242960937,-9.48154,-3.765135,0.11889,0.31238,0.28117,0.57812
1700754242968750,-9.12154,-3.746135,0.11389,0.31238,0.33217,0.59612
1700754242976562,-8.974154,-3.757135,0.9589,0.48138,0.38017,0.53412
1700754242984375,-8.982154,-3.788135,0.12089,0.63338,0.36117,0.51912
1700754242992187,-8.987154,-3.827135,0.15289,0.80038,0.37617,0.55412
1700754243000000,-9.31154,-3.875135,0.20489,0.87838,0.47417,0.50812
1700754243007812,-9.130154,-3.923135,0.25989,0.80138,0.42617,0.52212
1700754243015625,-9.189154,-3.940135,0.25289,0.62138,0.48617,0.41312
1700754243023437,-9.169154,-3.935135,0.22989,0.40738,0.40517,0.37712
1700754243031250,-9.78154,-3.896135,0.18189,0.36138,0.27217,0.34212
1700754243039062,-9.154,-3.878135,0.16389,0.22538,0.29517,0.29512
1700754243046875,-8.995154,-3.855135,0.17089,0.39138,0.28717,0.40612
1700754243054687,-9.9154,-3.853135,0.20689,0.38938,0.30017,0.50112
1700754243062500,-9.5154,-3.828135,0.23289,0.25238,0.28717,0.50012
1700754243070312,-8.979154,-3.755135,0.22389,0.938,0.17817,0.40212
1700754243078125,-8.977154,-3.675135,0.19189,0.15962,0.19617,0.46412
1700754243085937,-8.964154,-3.613135,0.13989,0.15862,0.17917,0.44712
1700754243093750,-8.963154,-3.550135,0.9189,0.3562,0.29517,0.38712
1700754243101562,-8.992154,-3.550135,0.8289,0.28738,0.47717,0.33112
1700754243109375,-9.51154,-3.582135,0.7789,0.44138,0.64317,0.27212
1700754243117187,-9.49154,-3.621135,0.7589,0.59638,0.64917,0.11712
1700754243125000,-9.4154,-3.659135,0.6189,0.64438,0.68417,0.2488
1700754243132812,-8.965154,-3.693135,0.5489,0.63138,0.63817,0.13588
1700754243140625,-8.983154,-3.730135,0.4989,0.64838,0.52517,0.29688
1700754243148437,-9.20154,-3.776135,0.2789,0.63538,0.46817,0.42188
1700754243156250,-9.14154,-3.817135,0.1189,0.61938,0.39817,0.44088
1700754243164062,-8.995154,-3.856135,0.1589,0.65138,0.43517,0.50188
1700754243171875,-9.56154,-3.897135,0.6589,0.65138,0.48517,0.48488
1700754243179687,-9.131154,-3.930135,0.10289,0.63638,0.40317,0.50188
1700754243187500,-9.189154,-3.942135,0.12089,0.58938,0.37017,0.48788
1700754243195312,-9.206154,-3.947135,0.8889,0.46738,0.30717,0.48888
1700754243203125,-9.185154,-3.954135,0.7289,0.39138,0.32617,0.50488
1700754243210937,-9.126154,-3.952135,0.7289,0.43738,0.43917,0.48688
1700754243218750,-9.39154,-3.960135,0.7489,0.57638,0.57117,0.51588
1700754243226562,-9.23154,-3.991135,0.9789,0.65138,0.43517,0.50188
1700754243234375,-9.54154,-4.24135,0.12289,0.65038,0.35017,0.48788
1700754243242187,-9.50154,-4.22135,0.14289,0.54338,0.30017,0.49088
1700754243250000,-9.32154,-4.15135,0.15489,0.33038,0.20617,0.52488
1700754243257812,-9.50154,-3.977135,0.14989,0.29938,0.14017,0.51088
1700754243265625,-9.58154,-3.953135,0.14089,0.35938,0.8717,0.49588
1700754243273437,-9.71154,-3.970135,0.13189,0.51238,0.13417,0.50988
1700754243281250,-9.89154,-3.997135,0.15189,0.69638,0.36517,0.47188
1700754243289062,-9.108154,-4.55135,0.20189,0.84738,0.47717,0.37388
1700754243296875,-9.119154,-4.116135,0.23389,0.104538,0.57117,0.33988
1700754243304687,-9.123154,-4.177135,0.23589,0.96938,0.63917,0.27488
1700754243312500,-9.65154,-4.217135,0.21989,0.77038,0.65717,0.22888
1700754243320312,-8.998154,-4.221135,0.22289,0.63238,0.67717,0.18088
1700754243328125,-8.959154,-4.199135,0.19289,0.47838,0.54217,0.13888
1700754243335937,-8.928154,-4.171135,0.16289,0.27738,0.49217,0.1488
1700754243343750,-8.940154,-4.111135,0.12689,0.17038,0.50917,0.4812
1700754243351562,-8.934154,-4.28135,0.9089,0.3062,0.45717,0.15512
1700754243359375,-8.949154,-3.957135,0.4989,0.10662,0.44617,0.12412
1700754243367187,-8.952154,-3.863135,0.1389,0.10662,0.49117,0.17112
1700754243375000,-8.941154,-3.821135,0.2911,0.3138,0.50717,0.15712
1700754243382812,-8.974154,-3.801135,0.5411,0.30538,0.57017,0.14512
1700754243390625,-9.5154,-3.809135,0.3611,0.44338,0.51917,0.11412
1700754243398437,-9.5154,-3.829135,0.189,0.55138,0.53317,0.3412
1700754243406250,-8.987154,-3.863135,0.4389,0.65938,0.52117,0.5788
1700754243414062,-8.997154,-3.898135,0.7989,0.61438,0.53717,0.7488
1700754243421875,-8.987154,-3.940135,0.9589,0.70738,0.53817,0.18488
1700754243429687,-8.991154,-3.998135,0.12489,0.64738,0.54217,0.21588
1700754243437500,-9.161154,-4.18135,0.18389,0.64538,0.55617,0.12088
1700754243445312,-9.249154,-4.16135,0.17489,0.58538,0.54017,0.18588
1700754243453125,-9.140154,-4.7135,0.11989,0.35938,0.53317,0.31388
1700754243460937,-9.102154,-3.983135,0.8189,0.34338,0.53317,0.29788
1700754243468750,-9.111154,-4.1135,0.7689,0.52838,0.63417,0.35688
1700754243476562,-9.83154,-4.53135,0.7889,0.69538,0.67917,0.30788
1700754243484375,-9.35154,-4.78135,0.8589,0.63338,0.72617,0.22888
1700754243492187,-8.987154,-4.123135,0.9489,0.64738,0.49017,0.21788
1700754243500000,-8.966154,-4.158135,0.11289,0.63038,0.50317,0.12388
1700754243507812,-8.962154,-4.150135,0.11989,0.41438,0.47217,0.1388
1700754243515625,-8.963154,-4.101135,0.12289,0.32038,0.41817,0.11012
1700754243523437,-8.965154,-4.49135,0.10389,0.13438,0.24517,0.27712
1700754243531250,-8.993154,-3.994135,0.8889,0.14638,0.19117,0.40212
1700754243539062,-9.6154,-3.931135,0.7089,0.12938,0.22117,0.52912
1700754243546875,-8.984154,-3.858135,0.6189,0.17638,0.40417,0.53312
1700754243554687,-8.975154,-3.818135,0.6389,0.37138,0.36017,0.70712
1700754243562500,-8.980154,-3.827135,0.8189,0.57038,0.42517,0.69512
1700754243570312,-9.154,-3.835135,0.11189,0.63038,0.43817,0.74212
1700754243578125,-9.154,-3.855135,0.17989,0.60138,0.39117,0.64612
1700754243585937,-8.972154,-3.851135,0.22089,0.47838,0.34017,0.70712
1700754243593750,-8.993154,-3.828135,0.23889,0.38738,0.24517,0.59412
1700754243601562,-9.41154,-3.817135,0.24189,0.31238,0.11817,0.48112
1700754243609375,-9.74154,-3.788135,0.23989,0.19138,0.20717,0.49912
1700754243617187,-9.93154,-3.777135,0.26189,0.25438,0.28717,0.40412
1700754243625000,-9.111154,-3.802135,0.28289,0.36238,0.32317,0.34312
1700754243632812,-9.111154,-3.845135,0.30489,0.40838,0.45817,0.33212
1700754243640625,-9.121154,-3.922135,0.33889,0.51438,0.40417,0.34612
1700754243648437,-9.125154,-3.980135,0.34789,0.43938,0.50617,0.36412
1700754243656250,-9.70154,-4.10135,0.35689,0.22538,0.49417,0.36212
1700754243664062,-8.987154,-3.995135,0.36389,0.6362,0.45117,0.31212
1700754243671875,-8.964154,-3.966135,0.37789,0.12562,0.39717,0.37212
1700754243679687,-9.10154,-3.903135,0.40089,0.29662,0.32917,0.51212
1700754243687500,-9.104154,-3.812135,0.39189,0.47862,0.36617,0.49512
1700754243695312,-9.151154,-3.707135,0.35789,0.64762,0.40117,0.57412
1700754243703125,-9.160154,-3.588135,0.29489,0.76962,0.40617,0.57512
1700754243710937,-9.193154,-3.492135,0.22189,0.47862,0.55417,0.53312
1700754243718750,-9.200154,-3.436135,0.14189,0.24862,0.68417,0.50512
1700754243726562,-9.155154,-3.407135,0.8989,0.11838,0.90917,0.51112
1700754243734375,-9.132154,-3.450135,0.5289,0.48738,0.104217,0.40712
1700754243742187,-9.124154,-3.528135,0.2389,0.90038,0.115117,0.38012
1700754243750000,-9.114154,-3.611135,0.2989,0.111538,0.111917,0.22412
1700754243757812,-9.88154,-3.705135,0.4089,0.130138,0.115517,0.8412
1700754243765625,-9.55154,-3.772135,0.7089,0.137838,0.112117,0.512
1700754243773437,-9.63154,-3.848135,0.9789,0.127338,0.101117,0.10788
1700754243781250,-9.73154,-3.896135,0.11389,0.125938,0.82917,0.23888
1700754243789062,-9.116154,-3.931135,0.14089,0.132138,0.83317,0.33288
1700754243796875,-9.137154,-3.945135,0.17789,0.116938,0.77217,0.36588
1700754243804687,-9.130154,-3.965135,0.20289,0.112338,0.73917,0.33488
1700754243812500,-9.100154,-3.974135,0.22989,0.112338,0.74017,0.38188
1700754243820312,-9.88154,-4.3135,0.25289,0.121538,0.86917,0.31688
1700754243828125,-9.92154,-4.43135,0.27689,0.127438,0.97817,0.17288
1700754243835937,-9.104154,-4.63135,0.26789,0.116538,0.101117,0.4588
1700754243843750,-9.122154,-4.72135,0.24289,0.101138,0.102817,0.4812
1700754243851562,-9.167154,-4.24135,0.19289,0.81138,0.97717,0.14012
1700754243859375,-9.139154,-3.965135,0.10689,0.59638,0.99517,0.23312
1700754243867187,-9.60154,-3.910135,0.189,0.56638,0.103017,0.23412
1700754243875000,-8.961154,-3.876135,0.7311,0.67238,0.114117,0.31512
1700754243882812,-8.918154,-3.865135,0.12111,0.77738,0.118517,0.42712
1700754243890625,-8.850154,-3.853135,0.12311,0.99038,0.117917,0.46012
1700754243898437,-8.794154,-3.850135,0.11811,0.105038,0.116217,0.49312
1700754243906250,-8.795154,-3.869135,0.9811,0.88338,0.109717,0.45712
1700754243914062,-8.891154,-3.866135,0.6811,0.85238,0.98517,0.40912
1700754243921875,-8.968154,-3.827135,0.7311,0.67138,0.87317,0.29412
1700754243929687,-8.967154,-3.770135,0.9811,0.62638,0.76317,0.18212
1700754243937500,-9.8154,-3.726135,0.12011,0.59738,0.74917,0.8712
1700754243945312,-9.15154,-3.695135,0.15411,0.70638,0.73517,0.5488
1700754243953125,-8.986154,-3.723135,0.16811,0.105838,0.89817,0.7988
1700754243960937,-8.976154,-3.765135,0.12011,0.125838,0.99717,0.15588
1700754243968750,-8.964154,-3.814135,0.7511,0.138338,0.103517,0.29488
1700754243976562,-8.964154,-3.888135,0.1111,0.139838,0.91917,0.32888
1700754243984375,-8.996154,-3.962135,0.4289,0.139938,0.81617,0.39588
1700754243992187,-9.39154,-4.7135,0.8889,0.133938,0.80817,0.47288
1700754244000000,-9.34154,-4.38135,0.9289,0.112538,0.76017,0.44488
1700754244007812,-9.95154,-4.44135,0.9089,0.89638,0.78317,0.42888
1700754244015625,-9.199154,-4.65135,0.9089,0.89438,0.72917,0.35188
1700754244023437,-9.243154,-4.81135,0.9289,0.78538,0.65617,0.24488
1700754244031250,-9.207154,-4.109135,0.6589,0.64838,0.74317,0.19588
1700754244039062,-9.94154,-4.144135,0.7889,0.63138,0.75617,0.10188
1700754244046875,-9.64154,-4.176135,0.11989,0.64638,0.80517,0.5288
1700754244054687,-9.124154,-4.203135,0.15389,0.55238,0.73317,0.5412
1700754244062500,-9.188154,-4.194135,0.16589,0.16838,0.58817,0.15912
1700754244070312,-9.189154,-4.125135,0.12689,0.24262,0.53317,0.10912
1700754244078125,-9.156154,-4.25135,0.4089,0.53162,0.47317,0.5812
1700754244085937,-9.108154,-3.904135,0.4311,0.63762,0.56017,0.6012
1700754244093750,-9.26154,-3.805135,0.12711,0.48562,0.63817,0.10912
1700754244101562,-8.897154,-3.744135,0.18411,0.21362,0.69317,0.25412
1700754244109375,-8.823154,-3.723135,0.20211,0.13838,0.87117,0.26012
1700754244117187,-8.791154,-3.730135,0.18611,0.56338,0.92517,0.39012
1700754244125000,-8.798154,-3.732135,0.15911,0.63738,0.86817,0.50012
1700754244132812,-8.824154,-3.740135,0.12511,0.63538,0.68117,0.51012
1700754244140625,-8.868154,-3.733135,0.12011,0.62038,0.64817,0.52612
1700754244148437,-8.897154,-3.708135,0.12711,0.66538,0.54617,0.50812
1700754244156250,-8.936154,-3.684135,0.12511,0.71038,0.52417,0.53812
1700754244164062,-8.988154,-3.686135,0.12311,0.97038,0.57017,0.52512
1700754244171875,-9.63154,-3.730135,0.10911,0.113838,0.62217,0.49712
1700754244179687,-9.123154,-3.785135,0.6311,0.127738,0.67117,0.45212
1700754244187500,-9.165154,-3.857135,0.511,0.152338,0.73517,0.31212
1700754244195312,-9.195154,-3.962135,0.4989,0.152638,0.67817,0.12312
1700754244203125,-9.238154,-4.67135,0.10489,0.132938,0.70417,0.4412
1700754244210937,-9.299154,-4.167135,0.16789,0.119438,0.65817,0.10088
1700754244218750,-9.339154,-4.229135,0.24289,0.79938,0.60217,0.16788
1700754244226562,-9.375154,-4.244135,0.26789,0.40338,0.47917,0.26788
1700754244234375,-9.334154,-4.211135,0.24989,0.8362,0.35717,0.35288
1700754244242187,-9.249154,-4.165135,0.18189,0.38862,0.29717,0.37188
1700754244250000,-9.209154,-4.84135,0.12489,0.60262,0.38417,0.29188
1700754244257812,-9.279154,-3.992135,0.9989,0.81862,0.43417,0.10188
1700754244265625,-9.261154,-3.916135,0.3889,0.81962,0.51317,0.3888
1700754244273437,-9.149154,-3.836135,0.3611,0.80562,0.52817,0.2512
1700754244281250,-9.33154,-3.755135,0.10211,0.79162,0.50817,0.13612
1700754244289062,-8.920154,-3.697135,0.15011,0.50362,0.63317,0.25112
1700754244296875,-8.844154,-3.658135,0.16311,0.18762,0.66617,0.52112
1700754244304687,-8.826154,-3.615135,0.15711,0.5262,0.60817,0.59912
1700754244312500,-8.808154,-3.584135,0.16311,0.8238,0.60117,0.72612
1700754244320312,-8.819154,-3.533135,0.15211,0.24938,0.53017,0.79012
1700754244328125,-8.860154,-3.490135,0.16311,0.30838,0.42417,0.86612
1700754244335937,-8.898154,-3.453135,0.16111,0.41438,0.40117,0.89612
1700754244343750,-8.937154,-3.433135,0.18111,0.62938,0.53517,0.82312
1700754244351562,-8.971154,-3.435135,0.17711,0.75238,0.50017,0.75912
1700754244359375,-9.27154,-3.483135,0.14711,0.102838,0.53017,0.69812
1700754244367187,-9.104154,-3.565135,0.10811,0.127338,0.58217,0.62512
1700754244375000,-9.173154,-3.656135,0.6811,0.138338,0.63717,0.43712
1700754244382812,-9.224154,-3.740135,0.2011,0.134038,0.62717,0.29512
1700754244390625,-9.193154,-3.806135,0.1189,0.111538,0.62217,0.7212
1700754244398437,-9.172154,-3.880135,0.3689,0.93238,0.47717,0.2112
1700754244406250,-9.139154,-3.947135,0.5889,0.87538,0.48517,0.18488
1700754244414062,-9.127154,-4.6135,0.8889,0.66238,0.35817,0.25088
1700754244421875,-9.107154,-4.14135,0.12089,0.29638,0.34917,0.26988
1700754244429687,-9.81154,-4.12135,0.12289,0.2362,0.20517,0.32288
1700754244437500,-9.73154,-3.988135,0.11789,0.20762,0.12517,0.32588
1700754244445312,-9.79154,-3.958135,0.11589,0.51262,0.483,0.34788
1700754244453125,-9.85154,-3.917135,0.11189,0.71262,0.1683,0.25288
1700754244460937,-9.95154,-3.843135,0.8689,0.84962,0.3617,0.23688
1700754244468750,-9.73154,-3.776135,0.7289,0.80462,0.1783,0.20688
1700754244476562,-9.38154,-3.706135,0.2989,0.83562,0.83,0.15888
1700754244484375,-9.41154,-3.652135,0.0,0.68462,0.12417,0.2988
1700754244492187,-9.44154,-3.617135,0.1111,0.45662,0.18417,0.3612
1700754244500000,-9.47154,-3.588135,0.2411,0.22962,0.31017,0.18312
1700754244507812,-9.26154,-3.552135,0.2911,0.6262,0.22117,0.19712
1700754244515625,-8.979154,-3.535135,0.5411,0.1338,0.40117,0.24812
1700754244523437,-9.4154,-3.539135,0.7411,0.28538,0.42417,0.40812
1700754244531250,-9.38154,-3.553135,0.7411,0.48338,0.49017,0.41312
1700754244539062,-9.33154,-3.597135,0.7011,0.72838,0.40117,0.36412
1700754244546875,-9.72154,-3.651135,0.2011,0.89538,0.49417,0.39712
1700754244554687,-9.137154,-3.701135,0.1889,0.104838,0.52417,0.36712
1700754244562500,-9.184154,-3.773135,0.6389,0.109538,0.39417,0.27112
1700754244570312,-9.206154,-3.833135,0.9389,0.89738,0.31617,0.23712
1700754244578125,-9.211154,-3.849135,0.11389,0.86838,0.22417,0.9412
1700754244585937,-9.190154,-3.871135,0.13189,0.73138,0.22417,0.10812
1700754244593750,-9.183154,-3.900135,0.15289,0.64038,0.17917,0.6012
1700754244601562,-9.165154,-3.959135,0.17989,0.64138,0.14917,0.1312
1700754244609375,-9.180154,-3.994135,0.21589,0.54938,0.23317,0.2912
1700754244617187,-9.171154,-3.998135,0.26589,0.38238,0.23717,0.1212
1700754244625000,-9.132154,-3.981135,0.27589,0.15338,0.19017,0.4112
1700754244632812,-9.119154,-3.940135,0.26889,0.10662,0.4317,0.1188
1700754244640625,-9.112154,-3.897135,0.25489,0.12362,0.4583,0.7912
1700754244648437,-9.120154,-3.822135,0.23889,0.30762,0.9217,0.19312
1700754244656250,-9.133154,-3.737135,0.19789,0.29162,0.24017,0.22712
1700754244664062,-9.124154,-3.668135,0.15789,0.15762,0.21517,0.35312
1700754244671875,-9.94154,-3.611135,0.11489,0.4962,0.24917,0.32412
1700754244679687,-9.78154,-3.573135,0.8889,0.11638,0.42317,0.48512
1700754244687500,-9.49154,-3.552135,0.6689,0.35938,0.48617,0.53712
1700754244695312,-8.995154,-3.521135,0.5989,0.63338,0.54317,0.57012
1700754244703125,-8.949154,-3.528135,0.3889,0.75438,0.58917,0.65112
1700754244710937,-8.967154,-3.553135,0.4589,0.101438,0.63517,0.62212
1700754244718750,-8.993154,-3.592135,0.7789,0.107538,0.56417,0.62012
1700754244726562,-8.993154,-3.618135,0.11389,0.112138,0.56217,0.60412
1700754244734375,-9.11154,-3.650135,0.16189,0.110638,0.45117,0.52412
1700754244742187,-9.42154,-3.683135,0.18489,0.101638,0.35717,0.39512
1700754244750000,-9.65154,-3.704135,0.22289,0.89638,0.36217,0.28412
1700754244757812,-9.58154,-3.745135,0.25289,0.83638,0.41817,0.25412
1700754244765625,-9.48154,-3.790135,0.30089,0.73338,0.49317,0.9812
1700754244773437,-9.111154,-3.822135,0.33689,0.62638,0.51317,0.9812
1700754244781250,-9.242154,-3.872135,0.35489,0.64338,0.49917,0.312
1700754244789062,-9.273154,-3.898135,0.32589,0.29438,0.51117,0.12488
1700754244796875,-9.182154,-3.899135,0.27089,0.11438,0.55117,0.25288
1700754244804687,-9.90154,-3.871135,0.24089,0.3762,0.60517,0.25288
1700754244812500,-9.91154,-3.834135,0.22989,0.9862,0.67717,0.23388
1700754244820312,-9.190154,-3.803135,0.20289,0.8462,0.73517,0.15588
1700754244828125,-9.261154,-3.738135,0.15989,0.32962,0.68917,0.7888
1700754244835937,-9.256154,-3.651135,0.7089,0.33062,0.68917,0.6288
1700754244843750,-9.173154,-3.579135,0.4211,0.34562,0.69117,0.6288
1700754244851562,-9.49154,-3.534135,0.13411,0.2562,0.83317,0.988
1700754244859375,-8.959154,-3.531135,0.17011,0.44738,0.97417,0.1212
1700754244867187,-8.899154,-3.565135,0.17011,0.84438,0.104917,0.1612
1700754244875000,-8.918154,-3.633135,0.11111,0.107138,0.90417,0.7612
1700754244882812,-8.984154,-3.684135,0.5911,0.125338,0.73617,0.4312
1700754244890625,-9.17154,-3.732135,0.2211,0.139338,0.78717,0.6588
1700754244898437,-9.57154,-3.788135,0.289,0.137838,0.68917,0.11488
1700754244906250,-9.141154,-3.838135,0.5289,0.150038,0.65517,0.14488
1700754244914062,-9.196154,-3.893135,0.10689,0.162338,0.63817,0.19188
1700754244921875,-9.214154,-3.932135,0.14989,0.160938,0.70817,0.28588
1700754244929687,-9.238154,-3.983135,0.17989,0.165638,0.79317,0.33088
1700754244937500,-9.230154,-4.61135,0.20889,0.170238,0.85717,0.28188
1700754244945312,-9.187154,-4.116135,0.20489,0.161038,0.99217,0.23188
1700754244953125,-9.132154,-4.157135,0.21589,0.153338,0.97617,0.15288
1700754244960937,-9.104154,-4.165135,0.21589,0.133438,0.104417,0.12288
1700754244968750,-9.59154,-4.142135,0.18189,0.111938,0.97717,0.3088
1700754244976562,-9.38154,-4.96135,0.13889,0.79838,0.100217,0.3112
1700754244984375,-9.16154,-4.25135,0.8189,0.61338,0.98217,0.13912
1700754244992187,-8.976154,-3.903135,0.2489,0.41338,0.91617,0.21512
1700754245000000,-8.968154,-3.824135,0.4311,0.36738,0.96517,0.24612
1700754245007812,-8.963154,-3.727135,0.8811,0.55038,0.97817,0.26412
1700754245015625,-8.903154,-3.661135,0.13811,0.65638,0.102517,0.31312
1700754245023437,-8.857154,-3.623135,0.19511,0.79338,0.103617,0.32912
1700754245031250,-8.830154,-3.620135,0.20011,0.123538,0.107717,0.36512
1700754245039062,-8.834154,-3.648135,0.18011,0.147938,0.115417,0.38312
1700754245046875,-8.862154,-3.677135,0.13611,0.161638,0.113717,0.38512
1700754245054687,-8.929154,-3.698135,0.8811,0.160238,0.110617,0.30512
1700754245062500,-8.963154,-3.713135,0.9311,0.161738,0.92017,0.26912
1700754245070312,-8.910154,-3.743135,0.12511,0.161938,0.86117,0.9512
1700754245078125,-8.951154,-3.767135,0.10711,0.160438,0.77917,0.4612
1700754245085937,-9.66154,-3.797135,0.7311,0.172538,0.80717,0.14312
1700754245093750,-9.93154,-3.825135,0.4111,0.174138,0.80817,0.9512
1700754245101562,-9.111154,-3.870135,0.1811,0.162038,0.80017,0.0
1700754245109375,-9.121154,-3.907135,0.389,0.160738,0.84817,0.7988
1700754245117187,-9.120154,-3.942135,0.3389,0.159338,0.80017,0.15988
1700754245125000,-9.147154,-3.964135,0.4689,0.148738,0.70517,0.24088
1700754245132812,-9.194154,-4.6135,0.6289,0.128938,0.64517,0.30688
1700754245140625,-9.223154,-4.16135,0.5889,0.112438,0.67117,0.44888
1700754245148437,-9.232154,-4.23135,0.5189,0.94238,0.65817,0.49788
1700754245156250,-9.237154,-4.35135,0.2689,0.83538,0.71317,0.48088
1700754245164062,-9.219154,-4.30135,0.311,0.68338,0.85017,0.44688
1700754245171875,-9.171154,-4.24135,0.1411,0.74338,0.82817,0.38488
1700754245179687,-9.117154,-4.14135,0.4111,0.65038,0.81017,0.30688
1700754245187500,-9.69154,-4.18135,0.5811,0.76938,0.79917,0.11788
1700754245195312,-9.65154,-4.28135,0.6911,0.71938,0.74517,0.7112
1700754245203125,-9.106154,-4.7135,0.5311,0.85338,0.74817,0.30712
1700754245210937,-9.108154,-3.969135,0.5711,0.73038,0.73217,0.36912
1700754245218750,-9.145154,-3.924135,0.8011,0.62038,0.66017,0.50812
1700754245226562,-9.171154,-3.857135,0.10711,0.63538,0.62617,0.52312
1700754245234375,-9.181154,-3.810135,0.13911,0.66438,0.62417,0.58712
1700754245242187,-9.165154,-3.764135,0.15711,0.75738,0.67417,0.54112
1700754245250000,-9.166154,-3.753135,0.15911,0.98638,0.75517,0.51312
1700754245257812,-9.163154,-3.755135,0.14311,0.112338,0.71817,0.52912
1700754245265625,-9.161154,-3.781135,0.12311,0.113938,0.83517,0.51612
1700754245273437,-9.169154,-3.810135,0.10711,0.121538,0.79917,0.53112
1700754245281250,-9.169154,-3.839135,0.8711,0.120038,0.78317,0.51412
1700754245289062,-9.157154,-3.881135,0.9611,0.112438,0.76717,0.49712
1700754245296875,-9.127154,-3.924135,0.9611,0.110838,0.73317,0.52812
1700754245304687,-9.109154,-3.967135,0.7811,0.112438,0.78617,0.51512
1700754245312500,-9.109154,-3.969135,0.3411,0.104638,0.60217,0.52612
1700754245320312,-9.83154,-3.956135,0.1611,0.86438,0.63817,0.52512
1700754245328125,-9.51154,-3.903135,0.1811,0.66438,0.60617,0.61812
1700754245335937,-9.20154,-3.848135,0.3911,0.37438,0.53017,0.59912
1700754245343750,-8.996154,-3.755135,0.6811,0.29638,0.47717,0.67612
1700754245351562,-9.14154,-3.687135,0.10011,0.17338,0.44217,0.73612
1700754245359375,-9.54154,-3.609135,0.9311,0.26538,0.46017,0.72312
1700754245367187,-9.53154,-3.547135,0.12511,0.31238,0.47717,0.64412
1700754245375000,-9.26154,-3.516135,0.14511,0.52638,0.45817,0.59812
1700754245382812,-9.53154,-3.491135,0.15011,0.60238,0.47217,0.61412
1700754245390625,-9.90154,-3.484135,0.12411,0.80138,0.48817,0.57012
1700754245398437,-9.117154,-3.473135,0.10411,0.89338,0.47217,0.50712
1700754245406250,-9.108154,-3.473135,0.10211,0.98538,0.43617,0.49112
1700754245414062,-9.97154,-3.495135,0.9911,0.115538,0.39017,0.31812
1700754245421875,-9.112154,-3.515135,0.6811,0.133938,0.40417,0.28812
1700754245429687,-9.111154,-3.561135,0.1311,0.156938,0.38417,0.20912
1700754245437500,-9.116154,-3.628135,0.5689,0.161638,0.37117,0.13212
1700754245445312,-9.112154,-3.706135,0.10489,0.160138,0.37017,0.11512
1700754245453125,-9.145154,-3.806135,0.17489,0.161638,0.25417,0.8112
1700754245460937,-9.182154,-3.885135,0.25489,0.152438,0.33917,0.9812
1700754245468750,-9.234154,-3.932135,0.32289,0.128038,0.26117,0.11112
1700754245476562,-9.331154,-3.959135,0.35489,0.95938,0.28117,0.18812
1700754245484375,-9.349154,-3.950135,0.33889,0.63838,0.13617,0.15112
1700754245492187,-9.326154,-3.927135,0.29089,0.40838,0.13617,0.24312
1700754245500000,-9.284154,-3.895135,0.25489,0.37738,0.18717,0.26012
1700754245507812,-9.232154,-3.885135,0.23689,0.31538,0.22017,0.37212
1700754245515625,-9.188154,-3.861135,0.24189,0.28338,0.20317,0.46712
1700754245523437,-9.143154,-3.824135,0.23889,0.12838,0.23417,0.60812
1700754245531250,-9.123154,-3.766135,0.23689,0.338,0.21417,0.74912
1700754245539062,-9.147154,-3.686135,0.23989,0.11962,0.17817,0.84112
1700754245546875,-9.157154,-3.589135,0.19589,0.27362,0.19317,0.93412
1700754245554687,-9.190154,-3.487135,0.16689,0.38162,0.6117,0.96212
1700754245562500,-9.204154,-3.395135,0.13089,0.17062,0.16817,0.110712
1700754245570312,-9.198154,-3.333135,0.11289,0.10762,0.20317,0.103012
1700754245578125,-9.187154,-3.304135,0.12589,0.15138,0.21417,0.103112
1700754245585937,-9.226154,-3.323135,0.13289,0.41338,0.43017,0.95912
1700754245593750,-9.207154,-3.361135,0.15589,0.58238,0.44617,0.84912
1700754245601562,-9.188154,-3.393135,0.17589,0.63038,0.48217,0.77212
1700754245609375,-9.215154,-3.433135,0.19189,0.63238,0.47217,0.64712
1700754245617187,-9.228154,-3.474135,0.20989,0.58738,0.42317,0.58112
1700754245625000,-9.205154,-3.493135,0.19189,0.52838,0.39517,0.47012
1700754245632812,-9.185154,-3.520135,0.16489,0.48138,0.31317,0.51712
1700754245640625,-9.191154,-3.519135,0.15989,0.37538,0.44617,0.48512
1700754245648437,-9.239154,-3.504135,0.12589,0.39038,0.41517,0.50212
1700754245656250,-9.233154,-3.445135,0.5789,0.20738,0.36517,0.51412
1700754245664062,-9.123154,-3.394135,0.4511,0.11538,0.40317,0.53112
1700754245671875,-9.42154,-3.354135,0.11711,0.29738,0.41517,0.59712
1700754245679687,-8.958154,-3.347135,0.14511,0.61538,0.33417,0.70612
1700754245687500,-8.901154,-3.352135,0.10811,0.95038,0.44217,0.75712
1700754245695312,-8.910154,-3.370135,0.4511,0.114638,0.28517,0.80312
1700754245703125,-8.998154,-3.398135,0.6689,0.109938,0.13317,0.86212
1700754245710937,-9.91154,-3.396135,0.10989,0.108438,0.11717,0.81412
1700754245718750,-9.152154,-3.378135,0.16289,0.71938,0.7183,0.71412
1700754245726562,-9.175154,-3.348135,0.20389,0.61338,0.28383,0.58312
1700754245734375,-9.185154,-3.337135,0.24689,0.63038,0.21383,0.48912
1700754245742187,-9.226154,-3.343135,0.32189,0.61638,0.10883,0.44512
1700754245750000,-9.284154,-3.380135,0.39989,0.63438,0.10483,0.31912
1700754245757812,-9.332154,-3.409135,0.44989,0.54738,0.683,0.5412
1700754245765625,-9.374154,-3.461135,0.48089,0.29238,0.1183,0.16888
1700754245773437,-9.430154,-3.491135,0.51089,0.8338,0.217,0.42288
1700754245781250,-9.459154,-3.500135,0.48989,0.21962,0.2917,0.51788
1700754245789062,-9.441154,-3.498135,0.43589,0.42962,0.7417,0.69188
1700754245796875,-9.414154,-3.490135,0.37689,0.42662,0.14817,0.87988
1700754245804687,-9.403154,-3.506135,0.32389,0.33362,0.28517,0.92188
1700754245812500,-9.389154,-3.535135,0.26489,0.21062,0.39917,0.91988
1700754245820312,-9.349154,-3.594135,0.23789,0.8862,0.49717,0.88488
1700754245828125,-9.290154,-3.655135,0.23089,0.6338,0.57617,0.81788
1700754245835937,-9.235154,-3.684135,0.23689,0.15238,0.63417,0.69188
1700754245843750,-9.178154,-3.728135,0.23889,0.24038,0.55917,0.50288
1700754245851562,-9.123154,-3.735135,0.23689,0.20838,0.53917,0.39288
1700754245859375,-9.110154,-3.699135,0.24189,0.12638,0.44417,0.12988
1700754245867187,-9.104154,-3.661135,0.24189,0.16938,0.47117,0.4512
1700754245875000,-9.88154,-3.601135,0.22989,0.10738,0.36817,0.10512
1700754245882812,-9.61154,-3.545135,0.21889,0.13638,0.44417,0.23112
1700754245890625,-9.37154,-3.523135,0.23289,0.33238,0.50417,0.32912
1700754245898437,-9.130154,-3.538135,0.29889,0.57438,0.59517,0.47412
1700754245906250,-9.286154,-3.538135,0.36289,0.62038,0.62717,0.52312
1700754245914062,-9.304154,-3.517135,0.34389,0.31838,0.60417,0.33012
1700754245921875,-9.241154,-3.489135,0.28989,0.13638,0.49417,0.24912
1700754245929687,-9.194154,-3.439135,0.23289,0.8962,0.57117,0.12312
1700754245937500,-9.163154,-3.438135,0.18989,0.4838,0.62217,0.9412
1700754245945312,-9.129154,-3.449135,0.16289,0.33838,0.71717,0.9912
1700754245953125,-9.113154,-3.484135,0.16689,0.40038,0.80517,0.5512
1700754245960937,-9.115154,-3.512135,0.18989,0.38538,0.83817,0.3912
1700754245968750,-9.116154,-3.529135,0.20989,0.17338,0.79317,0.7488
1700754245976562,-9.119154,-3.532135,0.20089,0.3738,0.78217,0.15488
1700754245984375,-9.115154,-3.528135,0.14889,0.14462,0.70717,0.20288
1700754245992187,-9.124154,-3.512135,0.12089,0.17562,0.65617,0.22088
1700754246000000,-9.153154,-3.503135,0.9389,0.12962,0.62217,0.23788
1700754246007812,-9.164154,-3.503135,0.7089,0.11262,0.67617,0.31488
1700754246015625,-9.121154,-3.509135,0.5489,0.9562,0.69217,0.37788
1700754246023437,-9.117154,-3.526135,0.7589,0.3462,0.71117,0.39188
1700754246031250,-9.152154,-3.540135,0.8489,0.7338,0.67717,0.50288
1700754246039062,-9.182154,-3.547135,0.6889,0.3362,0.69717,0.48688
1700754246046875,-9.185154,-3.538135,0.5989,0.3262,0.69917,0.50188
1700754246054687,-9.201154,-3.530135,0.4189,0.12138,0.65217,0.65888
1700754246062500,-9.203154,-3.500135,0.1689,0.16838,0.55217,0.75688
1700754246070312,-9.217154,-3.498135,0.811,0.29338,0.69017,0.84588
1700754246078125,-9.223154,-3.511135,0.3611,0.53838,0.76917,0.90688
1700754246085937,-9.220154,-3.565135,0.5411,0.76638,0.81317,0.87288
1700754246093750,-9.184154,-3.635135,0.7211,0.102638,0.82817,0.90188
1700754246101562,-9.132154,-3.726135,0.6111,0.122538,0.93617,0.88388
1700754246109375,-9.110154,-3.822135,0.5211,0.137638,0.88317,0.83588
1700754246117187,-9.84154,-3.898135,0.2811,0.138938,0.84517,0.74288
1700754246125000,-9.77154,-3.941135,0.2111,0.120638,0.73017,0.73088
1700754246132812,-9.77154,-3.950135,0.1811,0.111438,0.66617,0.73188
1700754246140625,-9.52154,-3.948135,0.1611,0.89938,0.56617,0.67288
1700754246148437,-9.30154,-3.932135,0.2111,0.79038,0.54917,0.57888
1700754246156250,-9.14154,-3.913135,0.2511,0.82138,0.53317,0.59488
1700754246164062,-9.40154,-3.908135,0.711,0.74338,0.59917,0.49888
1700754246171875,-9.71154,-3.896135,0.889,0.77438,0.66117,0.48388
1700754246179687,-9.90154,-3.869135,0.4289,0.66738,0.60017,0.49988
1700754246187500,-9.111154,-3.838135,0.5689,0.68238,0.56617,0.48388
1700754246195312,-9.113154,-3.827135,0.5689,0.68238,0.49817,0.50188
1700754246203125,-9.115154,-3.813135,0.5189,0.66838,0.58317,0.54788
1700754246210937,-9.115154,-3.822135,0.7089,0.74338,0.53117,0.51688
1700754246218750,-9.89154,-3.853135,0.9289,0.89638,0.59317,0.53088
1700754246226562,-9.100154,-3.904135,0.13189,0.106438,0.64017,0.49688
1700754246234375,-9.163154,-3.955135,0.17989,0.112538,0.65717,0.47988
1700754246242187,-9.194154,-4.3135,0.20689,0.91138,0.55917,0.49988
1700754246250000,-9.173154,-4.50135,0.21389,0.88038,0.59317,0.45188
1700754246257812,-9.153154,-4.51135,0.23389,0.65038,0.64817,0.38788
1700754246265625,-9.153154,-4.53135,0.24289,0.63238,0.62517,0.23088
1700754246273437,-9.180154,-4.37135,0.24289,0.55438,0.70317,0.8988
1700754246281250,-9.183154,-3.992135,0.22089,0.32538,0.83917,0.2488
1700754246289062,-9.177154,-3.925135,0.16589,0.14138,0.75717,0.312
1700754246296875,-9.182154,-3.843135,0.11389,0.7262,0.80917,0.8112
1700754246304687,-9.174154,-3.761135,0.3189,0.10362,0.82617,0.11312
1700754246312500,-9.103154,-3.695135,0.6111,0.1062,0.96117,0.7012
1700754246320312,-8.999154,-3.667135,0.13911,0.9638,0.104017,0.8712
1700754246328125,-8.938154,-3.657135,0.16611,0.29438,0.100317,0.8812
1700754246335937,-8.918154,-3.660135,0.15711,0.55238,0.89917,0.12012
1700754246343750,-8.907154,-3.679135,0.12711,0.64138,0.77617,0.21312
1700754246351562,-8.952154,-3.687135,0.8211,0.64038,0.70717,0.24312
1700754246359375,-9.8154,-3.681135,0.5911,0.59438,0.60717,0.20812
1700754246367187,-9.65154,-3.656135,0.4511,0.39738,0.49617,0.12612
1700754246375000,-9.102154,-3.626135,0.4711,0.39838,0.41717,0.3012
1700754246382812,-9.131154,-3.619135,0.4111,0.47638,0.46617,0.3188
1700754246390625,-9.168154,-3.619135,0.3411,0.61538,0.52017,0.13988
1700754246398437,-9.178154,-3.667135,0.2911,0.63338,0.70517,0.21488
1700754246406250,-9.155154,-3.697135,0.1111,0.69438,0.80717,0.22788
1700754246414062,-9.107154,-3.733135,0.211,0.71038,0.69217,0.29288
1700754246421875,-9.64154,-3.756135,0.289,0.65138,0.78117,0.36988
1700754246429687,-9.91154,-3.776135,0.1611,0.63438,0.62817,0.34188
1700754246437500,-9.117154,-3.788135,0.5911,0.60538,0.66217,0.38988
1700754246445312,-9.48154,-3.775135,0.11611,0.45238,0.51817,0.40788
1700754246453125,-8.962154,-3.755135,0.15511,0.60538,0.63017,0.38988
1700754246460937,-8.971154,-3.767135,0.16411,0.68138,0.67917,0.37188
1700754246468750,-9.52154,-3.779135,0.13711,0.83138,0.62017,0.26288
1700754246476562,-9.113154,-3.778135,0.13211,0.81638,0.68617,0.22988
1700754246484375,-9.118154,-3.749135,0.15511,0.63238,0.54017,0.24988
1700754246492187,-9.103154,-3.739135,0.19511,0.72338,0.47117,0.21788
1700754246500000,-9.36154,-3.730135,0.23911,0.82938,0.43017,0.18888
1700754246507812,-8.950154,-3.769135,0.24811,0.105938,0.49717,0.24788
1700754246515625,-8.920154,-3.827135,0.18911,0.127138,0.47217,0.16788
1700754246523437,-8.978154,-3.922135,0.8211,0.146938,0.43617,0.19888
1700754246531250,-9.79154,-4.8135,0.1289,0.142238,0.26817,0.17088
1700754246539062,-9.139154,-4.58135,0.10389,0.111838,0.22717,0.22088
1700754246546875,-9.164154,-4.85135,0.15689,0.84338,0.15117,0.23988
1700754246554687,-9.193154,-4.75135,0.19489,0.53738,0.2983,0.26288
1700754246562500,-9.234154,-4.36135,0.22989,0.29338,0.983,0.23288
1700754246570312,-9.206154,-3.984135,0.23389,0.12538,0.1217,0.16888
1700754246578125,-9.148154,-3.946135,0.20689,0.7262,0.19717,0.13488
1700754246585937,-9.146154,-3.918135,0.19089,0.10462,0.27917,0.688
1700754246593750,-9.168154,-3.908135,0.17289,0.9062,0.29217,0.4012
1700754246601562,-9.182154,-3.912135,0.15489,0.8962,0.39117,0.5712
1700754246609375,-9.137154,-3.898135,0.9789,0.13662,0.42617,0.10612
1700754246617187,-9.111154,-3.865135,0.7489,0.33562,0.46517,0.15412
1700754246625000,-9.104154,-3.820135,0.4089,0.35062,0.41317,0.12012
1700754246632812,-9.54154,-3.769135,0.1611,0.33562,0.45717,0.19812
1700754246640625,-9.19154,-3.732135,0.2911,0.35262,0.35817,0.24412
1700754246648437,-9.31154,-3.721135,0.4311,0.20062,0.43717,0.29412
1700754246656250,-9.65154,-3.692135,0.2511,0.6562,0.33117,0.37212
1700754246664062,-9.85154,-3.678135,0.1611,0.1962,0.36117,0.37212
1700754246671875,-9.115154,-3.680135,0.0,0.5738,0.33017,0.34212
1700754246679687,-9.142154,-3.679135,0.1889,0.16338,0.32417,0.37312
1700754246687500,-9.149154,-3.661135,0.1589,0.26938,0.28717,0.38812
1700754246695312,-9.156154,-3.675135,0.2989,0.22438,0.34017,0.35812
1700754246703125,-9.122154,-3.689135,0.5689,0.34638,0.28917,0.34212
1700754246710937,-9.128154,-3.701135,0.8189,0.40838,0.35417,0.29612
1700754246718750,-9.216154,-3.698135,0.9589,0.34738,0.37217,0.31112
1700754246726562,-9.201154,-3.701135,0.8689,0.31838,0.24417,0.21512
1700754246734375,-9.155154,-3.689135,0.6389,0.19738,0.29517,0.16612
1700754246742187,-9.114154,-3.699135,0.2989,0.15138,0.36417,0.20012
1700754246750000,-9.71154,-3.691135,0.1189,0.30438,0.37717,0.18512
1700754246757812,-9.53154,-3.701135,0.1389,0.39538,0.39317,0.21912
1700754246765625,-9.67154,-3.719135,0.2989,0.37938,0.39417,0.25112
1700754246773437,-9.76154,-3.730135,0.2089,0.39438,0.31017,0.23312
1700754246781250,-9.58154,-3.700135,0.3389,0.30238,0.32617,0.26412
1700754246789062,-9.65154,-3.669135,0.2789,0.22538,0.20817,0.26012
1700754246796875,-9.93154,-3.626135,0.3189,0.30038,0.7217,0.30512
1700754246804687,-9.116154,-3.602135,0.1889,0.37738,0.13817,0.27612
1700754246812500,-9.123154,-3.582135,0.4889,0.49838,0.17017,0.30912
1700754246820312,-9.123154,-3.565135,0.6889,0.60538,0.21417,0.30912
1700754246828125,-9.91154,-3.591135,0.8489,0.74338,0.26517,0.29712
1700754246835937,-9.111154,-3.622135,0.9789,0.86538,0.33017,0.29912
1700754246843750,-9.99154,-3.659135,0.11889,0.83638,0.38017,0.28412
1700754246851562,-9.65154,-3.682135,0.12989,0.83538,0.46417,0.31712
1700754246859375,-9.71154,-3.684135,0.15089,0.75938,0.33117,0.26612
1700754246867187,-9.115154,-3.688135,0.15989,0.63838,0.36917,0.26712
1700754246875000,-9.146154,-3.690135,0.16189,0.60738,0.28617,0.21712
1700754246882812,-9.183154,-3.668135,0.15089,0.51838,0.21217,0.7412
1700754246890625,-9.190154,-3.661135,0.15289,0.47438,0.23217,0.3688
1700754246898437,-9.185154,-3.665135,0.13189,0.40038,0.22117,0.14788
1700754246906250,-9.187154,-3.678135,0.15089,0.50838,0.32217,0.19188
1700754246914062,-9.189154,-3.710135,0.16889,0.64738,0.40917,0.29888
1700754246921875,-9.162154,-3.755135,0.17089,0.63438,0.49817,0.37488
1700754246929687,-9.128154,-3.794135,0.18489,0.63538,0.51717,0.40488
1700754246937500,-9.109154,-3.832135,0.18689,0.60438,0.46917,0.43788
1700754246945312,-9.95154,-3.856135,0.17789,0.64938,0.43117,0.40788
1700754246953125,-9.52154,-3.882135,0.16389,0.48238,0.60217,0.35788
1700754246960937,-9.20154,-3.860135,0.12089,0.40538,0.53417,0.32788
1700754246968750,-8.993154,-3.858135,0.8189,0.38738,0.47917,0.20388
1700754246976562,-8.948154,-3.847135,0.4289,0.47638,0.41917,0.4788
1700754246984375,-8.943154,-3.850135,0.2989,0.65838,0.46517,0.212
1700754246992187,-8.957154,-3.867135,0.3889,0.61038,0.42817,0.11112
1700754247000000,-8.977154,-3.871135,0.7989,0.74538,0.28817,0.17212
1700754247007812,-9.5154,-3.870135,0.9589,0.77438,0.18817,0.23512
1700754247015625,-9.27154,-3.850135,0.13389,0.74238,0.9617,0.29312
1700754247023437,-9.39154,-3.833135,0.16389,0.86338,0.4417,0.35712
1700754247031250,-9.43154,-3.837135,0.20689,0.78638,0.3983,0.37012
1700754247039062,-9.68154,-3.838135,0.26889,0.84538,0.4683,0.48012
1700754247046875,-9.115154,-3.873135,0.35489,0.87538,0.1283,0.49712
1700754247054687,-9.165154,-3.891135,0.44889,0.73838,0.2483,0.51312
1700754247062500,-9.180154,-3.890135,0.50789,0.61638,0.7583,0.47812
1700754247070312,-9.196154,-3.887135,0.55589,0.47938,0.2817,0.49512
1700754247078125,-9.219154,-3.892135,0.56689,0.35838,0.3217,0.47912
1700754247085937,-9.221154,-3.880135,0.56489,0.14438,0.8417,0.49312
1700754247093750,-9.250154,-3.840135,0.56289,0.6762,0.23017,0.45012
1700754247101562,-9.255154,-3.793135,0.53989,0.14362,0.33017,0.46712
1700754247109375,-9.237154,-3.742135,0.47589,0.27862,0.45217,0.43712
1700754247117187,-9.177154,-3.688135,0.41289,0.26462,0.48217,0.51712
1700754247125000,-9.147154,-3.681135,0.34889,0.14162,0.64817,0.50512
1700754247132812,-9.153154,-3.642135,0.30389,0.2062,0.77717,0.62012
1700754247140625,-9.155154,-3.597135,0.25989,0.5538,0.85717,0.63712
1700754247148437,-9.185154,-3.523135,0.18789,0.6862,0.85617,0.74612
1700754247156250,-9.175154,-3.441135,0.10789,0.738,0.82017,0.76212
1700754247164062,-9.144154,-3.381135,0.3789,0.14438,0.90017,0.79612
1700754247171875,-9.145154,-3.319135,0.1711,0.38838,0.96417,0.78412
1700754247179687,-9.146154,-3.322135,0.5311,0.71038,0.99617,0.69312
1700754247187500,-9.129154,-3.339135,0.5311,0.106438,0.105817,0.53712
1700754247195312,-9.89154,-3.408135,0.1011,0.131038,0.102217,0.42712
1700754247203125,-9.63154,-3.493135,0.6489,0.158538,0.93717,0.31712
1700754247210937,-9.71154,-3.589135,0.18489,0.161838,0.77617,0.12512
1700754247218750,-9.116154,-3.669135,0.28289,0.160538,0.71717,0.3288
1700754247226562,-9.169154,-3.725135,0.36689,0.133138,0.62117,0.10088
1700754247234375,-9.260154,-3.724135,0.40989,0.93738,0.55317,0.26188
1700754247242187,-9.293154,-3.691135,0.41089,0.64938,0.51617,0.35788
1700754247250000,-9.320154,-3.641135,0.37189,0.59038,0.60217,0.43588
1700754247257812,-9.392154,-3.613135,0.31489,0.40838,0.68917,0.46788
1700754247265625,-9.506154,-3.594135,0.28989,0.60638,0.68717,0.46588
1700754247273437,-9.438154,-3.588135,0.21489,0.63938,0.97017,0.47588
1700754247281250,-9.261154,-3.611135,0.15089,0.91438,0.111717,0.50288
1700754247289062,-9.200154,-3.648135,0.13089,0.115938,0.131617,0.47988
1700754247296875,-9.199154,-3.695135,0.12589,0.134338,0.143017,0.47588
1700754247304687,-9.179154,-3.725135,0.9889,0.120438,0.139917,0.42888
1700754247312500,-9.111154,-3.725135,0.6389,0.114138,0.137717,0.27288
1700754247320312,-9.38154,-3.704135,0.211,0.114038,0.129017,0.25988
1700754247328125,-8.936154,-3.689135,0.5911,0.115538,0.133817,0.22788
1700754247335937,-8.836154,-3.697135,0.8811,0.144338,0.129417,0.13288
1700754247343750,-8.822154,-3.719135,0.7311,0.160838,0.121717,0.788
1700754247351562,-8.906154,-3.774135,0.4111,0.174338,0.116317,0.7212
1700754247359375,-8.970154,-3.840135,0.1389,0.169538,0.109217,0.19612
1700754247367187,-9.1154,-3.863135,0.6389,0.160338,0.92217,0.14212
1700754247375000,-9.43154,-3.875135,0.9589,0.137438,0.79917,0.12512
1700754247382812,-9.61154,-3.877135,0.11889,0.117638,0.73717,0.9012
1700754247390625,-9.67154,-3.881135,0.13689,0.105438,0.70517,0.10412
1700754247398437,-9.50154,-3.857135,0.15689,0.87138,0.72617,0.8812
1700754247406250,-9.31154,-3.834135,0.16589,0.64438,0.79717,0.5512
1700754247414062,-9.13154,-3.821135,0.14789,0.58238,0.79817,0.8712
1700754247421875,-9.8154,-3.811135,0.13889,0.32438,0.76117,0.812
1700754247429687,-9.26154,-3.784135,0.12089,0.15738,0.71417,0.4188
1700754247437500,-9.67154,-3.750135,0.12589,0.6738,0.67117,0.15388
1700754247445312,-9.112154,-3.727135,0.12289,0.8462,0.68917,0.17088
1700754247453125,-9.134154,-3.698135,0.11489,0.9662,0.59917,0.36088
1700754247460937,-9.167154,-3.697135,0.10689,0.8062,0.59617,0.42588
1700754247468750,-9.212154,-3.716135,0.11389,0.6462,0.61517,0.47288
1700754247476562,-9.250154,-3.747135,0.13489,0.10438,0.73117,0.49988
1700754247484375,-9.291154,-3.767135,0.14189,0.10438,0.76517,0.48288
1700754247492187,-9.307154,-3.787135,0.13289,0.7338,0.66617,0.50088
1700754247500000,-9.274154,-3.789135,0.9789,0.262,0.71617,0.48588
1700754247507812,-9.250154,-3.781135,0.8189,0.8938,0.79917,0.49888
1700754247515625,-9.214154,-3.757135,0.3489,0.13338,0.83017,0.40188
1700754247523437,-9.151154,-3.754135,0.911,0.17838,0.82617,0.30688
1700754247531250,-9.81154,-3.732135,0.2711,0.31438,0.92017,0.24188
1700754247539062,-9.124154,-3.714135,0.3111,0.52438,0.89317,0.6788
1700754247546875,-9.140154,-3.698135,0.5211,0.61438,0.90317,0.4312
1700754247554687,-9.66154,-3.661135,0.8811,0.62938,0.96917,0.7612
1700754247562500,-9.14154,-3.622135,0.13111,0.71938,0.84617,0.13712
1700754247570312,-8.990154,-3.619135,0.13611,0.97738,0.85917,0.20412
1700754247578125,-8.960154,-3.629135,0.13811,0.119038,0.86717,0.20412
1700754247585937,-8.941154,-3.660135,0.13411,0.135938,0.96317,0.20612
1700754247593750,-8.988154,-3.684135,0.7511,0.143638,0.84817,0.12612
1700754247601562,-9.31154,-3.724135,0.2211,0.146738,0.89817,0.9512
1700754247609375,-9.51154,-3.748135,0.489,0.140738,0.73917,0.4888
1700754247617187,-9.81154,-3.748135,0.1589,0.128738,0.71117,0.14488
1700754247625000,-9.101154,-3.750135,0.2089,0.115038,0.70117,0.19288
1700754247632812,-9.141154,-3.762135,0.1789,0.116638,0.71217,0.17888
1700754247640625,-9.146154,-3.780135,0.689,0.118238,0.79917,0.20688
1700754247648437,-9.148154,-3.823135,0.2789,0.132138,0.80117,0.31588
1700754247656250,-9.152154,-3.860135,0.3689,0.135038,0.76417,0.25388
1700754247664062,-9.142154,-3.896135,0.4789,0.130638,0.81917,0.33188
1700754247671875,-9.124154,-3.914135,0.6189,0.113938,0.77417,0.38088
1700754247679687,-9.112154,-3.927135,0.6089,0.109438,0.82617,0.42788
1700754247687500,-9.96154,-3.923135,0.3389,0.86638,0.78017,0.46288
1700754247695312,-9.65154,-3.901135,0.1089,0.68238,0.76617,0.43288
1700754247703125,-9.24154,-3.875135,0.2111,0.63738,0.78417,0.44888
1700754247710937,-8.989154,-3.847135,0.5011,0.66738,0.81717,0.38388
1700754247718750,-8.970154,-3.833135,0.6811,0.77138,0.82417,0.25788
1700754247726562,-8.955154,-3.828135,0.7511,0.89338,0.89217,0.25388
1700754247734375,-8.960154,-3.801135,0.8211,0.87638,0.88617,0.11288
1700754247742187,-8.973154,-3.773135,0.10511,0.88938,0.81217,0.488
1700754247750000,-9.11154,-3.745135,0.11811,0.87538,0.87117,0.9688
1700754247757812,-9.63154,-3.720135,0.15211,0.93638,0.88517,0.6388
1700754247765625,-9.57154,-3.693135,0.19711,0.112138,0.85117,0.17388
1700754247773437,-9.24154,-3.698135,0.24111,0.121238,0.89717,0.15788
1700754247781250,-9.22154,-3.727135,0.25011,0.156338,0.85917,0.17088
1700754247789062,-9.35154,-3.778135,0.22311,0.177938,0.96017,0.29388
1700754247796875,-9.63154,-3.867135,0.17711,0.194738,0.84117,0.35788
1700754247804687,-9.73154,-3.960135,0.13911,0.197838,0.80917,0.42188
1700754247812500,-9.74154,-4.62135,0.7311,0.190338,0.82817,0.48588
1700754247820312,-9.107154,-4.126135,0.711,0.173538,0.71317,0.47388
1700754247828125,-9.107154,-4.180135,0.4689,0.161238,0.68317,0.47388
1700754247835937,-9.108154,-4.219135,0.8789,0.129238,0.58717,0.49588
1700754247843750,-9.110154,-4.237135,0.12389,0.103238,0.57517,0.46588
1700754247851562,-9.108154,-4.237135,0.15589,0.77238,0.61217,0.38788
1700754247859375,-9.128154,-4.223135,0.18589,0.52638,0.59417,0.26388
1700754247867187,-9.118154,-4.163135,0.16989,0.14338,0.64917,0.12288
1700754247875000,-9.94154,-4.70135,0.14289,0.19462,0.56817,0.3288
1700754247882812,-9.77154,-3.992135,0.7289,0.45562,0.46917,0.4112
1700754247890625,-9.85154,-3.917135,0.1411,0.44062,0.50017,0.10612
1700754247898437,-9.63154,-3.866135,0.9311,0.34862,0.66617,0.11012
1700754247906250,-9.29154,-3.837135,0.14611,0.19662,0.67817,0.15812
1700754247914062,-8.989154,-3.822135,0.16211,0.5962,0.77417,0.22412
1700754247921875,-8.958154,-3.819135,0.16411,0.13638,0.68717,0.27212
1700754247929687,-8.957154,-3.834135,0.15711,0.24338,0.70017,0.25712
1700754247937500,-8.944154,-3.844135,0.14811,0.31938,0.60017,0.27212
1700754247945312,-8.930154,-3.835135,0.14111,0.27238,0.53017,0.33312
1700754247953125,-8.924154,-3.817135,0.14111,0.22538,0.44617,0.36312
1700754247960937,-8.969154,-3.801135,0.13211,0.27038,0.41017,0.36112
1700754247968750,-8.989154,-3.793135,0.10711,0.36038,0.38517,0.47112
1700754247976562,-9.3154,-3.775135,0.9811,0.37638,0.37017,0.42312
1700754247984375,-9.19154,-3.798135,0.6311,0.42138,0.40317,0.47312
1700754247992187,-9.59154,-3.806135,0.3211,0.52738,0.43217,0.48912
1700754248000000,-9.100154,-3.821135,0.911,0.42038,0.33617,0.47112
1700754248007812,-9.111154,-3.837135,0.0,0.37638,0.27417,0.36012
1700754248015625,-9.105154,-3.842135,0.1611,0.19438,0.23017,0.31112
1700754248023437,-9.97154,-3.845135,0.2711,0.13438,0.24817,0.24612
1700754248031250,-9.101154,-3.852135,0.3211,0.16538,0.27917,0.26212
1700754248039062,-9.111154,-3.870135,0.2511,0.25738,0.26417,0.21612
1700754248046875,-9.110154,-3.897135,0.1611,0.19738,0.35117,0.18612
1700754248054687,-9.112154,-3.892135,0.411,0.13638,0.28617,0.13712
1700754248062500,-9.97154,-3.890135,0.1389,0.7538,0.18717,0.10312
1700754248070312,-9.113154,-3.881135,0.3889,0.7438,0.13517,0.14912
1700754248078125,-9.149154,-3.874135,0.5489,0.2838,0.13617,0.18112
1700754248085937,-9.203154,-3.861135,0.6789,0.1138,0.9717,0.24112
1700754248093750,-9.242154,-3.841135,0.9389,0.4862,0.20117,0.24312
1700754248101562,-9.195154,-3.808135,0.9089,0.4238,0.18017,0.25912
1700754248109375,-9.148154,-3.773135,0.9089,0.4038,0.19517,0.37012
1700754248117187,-9.201154,-3.728135,0.10789,0.11638,0.30917,0.45312
1700754248125000,-9.267154,-3.660135,0.9589,0.8538,0.35717,0.50012
1700754248132812,-9.277154,-3.591135,0.4389,0.8538,0.45717,0.53412
1700754248140625,-9.271154,-3.531135,0.3311,0.20638,0.45317,0.56612
1700754248148437,-9.219154,-3.501135,0.10811,0.48238,0.48317,0.50512
1700754248156250,-9.111154,-3.505135,0.17011,0.74138,0.59417,0.52512
1700754248164062,-8.995154,-3.549135,0.18111,0.110838,0.62217,0.51312
1700754248171875,-8.968154,-3.629135,0.12211,0.153438,0.64417,0.53112
1700754248179687,-9.15154,-3.721135,0.2211,0.161138,0.49517,0.43412
1700754248187500,-9.96154,-3.801135,0.7289,0.151938,0.43117,0.43312
1700754248195312,-9.127154,-3.835135,0.13889,0.120038,0.20417,0.31512
1700754248203125,-9.158154,-3.846135,0.16589,0.91138,0.11417,0.24812
1700754248210937,-9.204154,-3.839135,0.21389,0.72838,0.5217,0.19912
1700754248218750,-9.222154,-3.844135,0.24189,0.60638,0.1083,0.19712
1700754248226562,-9.220154,-3.841135,0.27789,0.63638,0.12217,0.24812
1700754248234375,-9.228154,-3.844135,0.31689,0.47038,0.25517,0.24712
1700754248242187,-9.220154,-3.832135,0.33289,0.39438,0.39517,0.26812
1700754248250000,-9.193154,-3.828135,0.32089,0.8838,0.43117,0.36112
1700754248257812,-9.137154,-3.780135,0.28289,0.12462,0.52217,0.31412
1700754248265625,-9.122154,-3.691135,0.24189,0.33662,0.55917,0.28112
1700754248273437,-9.130154,-3.600135,0.15789,0.52062,0.57917,0.34412
1700754248281250,-9.102154,-3.496135,0.6889,0.50562,0.54517,0.35912
1700754248289062,-9.63154,-3.399135,0.811,0.30662,0.52817,0.31412
1700754248296875,-9.56154,-3.331135,0.7211,0.4538,0.65317,0.25412
1700754248304687,-9.50154,-3.296135,0.12611,0.41238,0.64817,0.21012
1700754248312500,-9.97154,-3.324135,0.12411,0.83938,0.68917,0.21312
1700754248320312,-9.137154,-3.386135,0.12411,0.126838,0.76717,0.10712
1700754248328125,-9.147154,-3.493135,0.10111,0.155838,0.76317,0.7812
1700754248335937,-9.137154,-3.604135,0.7011,0.175738,0.74517,0.1588
1700754248343750,-9.85154,-3.734135,0.3111,0.201738,0.69217,0.6188
1700754248351562,-9.26154,-3.870135,0.2289,0.212438,0.62117,0.7988
1700754248359375,-9.48154,-3.966135,0.9789,0.210638,0.63517,0.4712
1700754248367187,-9.166154,-4.30135,0.18389,0.186038,0.63517,0.22012
1700754248375000,-9.142154,-4.58135,0.22089,0.162838,0.43217,0.30712
1700754248382812,-9.99154,-4.32135,0.22689,0.122938,0.31817,0.42812
1700754248390625,-9.66154,-3.986135,0.22989,0.96838,0.22017,0.51912
1700754248398437,-9.54154,-3.935135,0.23489,0.87238,0.28017,0.80412
1700754248406250,-9.77154,-3.854135,0.24089,0.67338,0.18017,0.83112
1700754248414062,-9.109154,-3.791135,0.25289,0.56538,0.19817,0.86212
1700754248421875,-9.144154,-3.715135,0.26189,0.39738,0.16717,0.87612
1700754248429687,-9.182154,-3.619135,0.27189,0.20138,0.19217,0.79712
1700754248437500,-9.195154,-3.527135,0.26489,0.21638,0.21017,0.78212
1700754248445312,-9.225154,-3.476135,0.23989,0.14238,0.24917,0.65612
1700754248453125,-9.225154,-3.433135,0.23789,0.28238,0.35217,0.53312
1700754248460937,-9.225154,-3.413135,0.23789,0.40638,0.40017,0.47112
1700754248468750,-9.224154,-3.430135,0.24189,0.53038,0.55017,0.39512
1700754248476562,-9.224154,-3.464135,0.24889,0.74638,0.60417,0.25712
1700754248484375,-9.222154,-3.500135,0.26989,0.88338,0.70217,0.29312
1700754248492187,-9.195154,-3.557135,0.28089,0.92938,0.72117,0.27912
1700754248500000,-9.214154,-3.616135,0.28289,0.99238,0.80517,0.21712
1700754248507812,-9.213154,-3.656135,0.25289,0.94638,0.93717,0.25012
1700754248515625,-9.172154,-3.688135,0.22589,0.90038,0.93617,0.28112
1700754248523437,-9.115154,-3.714135,0.17789,0.86938,0.88917,0.28112
1700754248531250,-9.69154,-3.718135,0.14589,0.88338,0.89917,0.37512
1700754248539062,-9.15154,-3.704135,0.11889,0.88138,0.91317,0.50212
1700754248546875,-8.975154,-3.695135,0.9589,0.86438,0.84317,0.56312
1700754248554687,-9.20154,-3.670135,0.11389,0.87638,0.75017,0.73412
1700754248562500,-9.89154,-3.632135,0.13689,0.75338,0.68717,0.78012
1700754248570312,-9.115154,-3.560135,0.11889,0.59938,0.62017,0.82412
1700754248578125,-9.125154,-3.479135,0.8989,0.61438,0.63617,0.82512
1700754248585937,-9.148154,-3.403135,0.4889,0.61438,0.58417,0.85512
1700754248593750,-9.160154,-3.365135,0.2889,0.70638,0.68417,0.82612
1700754248601562,-9.158154,-3.365135,0.1289,0.101338,0.69917,0.70212
1700754248609375,-9.162154,-3.403135,0.5289,0.128938,0.71217,0.62512
1700754248617187,-9.191154,-3.474135,0.11289,0.156538,0.73017,0.51812
1700754248625000,-9.223154,-3.576135,0.19189,0.156638,0.71317,0.50212
1700754248632812,-9.263154,-3.665135,0.25589,0.137038,0.74017,0.34412
1700754248640625,-9.294154,-3.713135,0.28989,0.116038,0.71717,0.16812
1700754248648437,-9.294154,-3.740135,0.30989,0.79538,0.57917,0.3712
1700754248656250,-9.309154,-3.733135,0.31689,0.53738,0.55217,0.1288
1700754248664062,-9.330154,-3.694135,0.28089,0.26438,0.55917,0.9388
1700754248671875,-9.331154,-3.650135,0.23989,0.15838,0.59817,0.12388
1700754248679687,-9.318154,-3.608135,0.17789,0.17238,0.67917,0.5988
1700754248687500,-9.311154,-3.579135,0.13489,0.26638,0.73017,0.13688
1700754248695312,-9.264154,-3.554135,0.7589,0.38738,0.82817,0.6988
1700754248703125,-9.146154,-3.552135,0.411,0.52538,0.100617,0.3488
1700754248710937,-9.42154,-3.563135,0.2411,0.66038,0.99917,0.4412
1700754248718750,-8.992154,-3.606135,0.2711,0.91738,0.87617,0.12312
1700754248726562,-8.998154,-3.666135,0.1389,0.113138,0.88817,0.14112
1700754248734375,-9.11154,-3.699135,0.5689,0.111338,0.79817,0.28012
1700754248742187,-9.29154,-3.721135,0.10289,0.109638,0.74617,0.32612
1700754248750000,-9.92154,-3.716135,0.11889,0.89638,0.59417,0.41512
1700754248757812,-9.146154,-3.699135,0.14189,0.80238,0.47517,0.49112
1700754248765625,-9.183154,-3.665135,0.14889,0.63438,0.56217,0.52312
1700754248773437,-9.188154,-3.641135,0.14389,0.62038,0.63017,0.52512
1700754248781250,-9.166154,-3.621135,0.12989,0.63538,0.74717,0.55912
1700754248789062,-9.121154,-3.611135,0.13289,0.63538,0.73117,0.54412
1700754248796875,-9.103154,-3.609135,0.12589,0.62038,0.69917,0.51112
1700754248804687,-9.83154,-3.584135,0.14189,0.39138,0.65217,0.52412
1700754248812500,-9.73154,-3.551135,0.13489,0.27038,0.67117,0.49112
1700754248820312,-9.81154,-3.529135,0.10289,0.13238,0.65817,0.49112
1700754248828125,-9.84154,-3.510135,0.8789,0.8738,0.54717,0.45812
1700754248835937,-9.95154,-3.504135,0.5789,0.14938,0.54517,0.37912
1700754248843750,-9.99154,-3.531135,0.9389,0.16438,0.64517,0.41212
1700754248851562,-9.112154,-3.593135,0.13989,0.40838,0.65517,0.39812
1700754248859375,-9.183154,-3.701135,0.22589,0.57738,0.63717,0.36712
1700754248867187,-9.250154,-3.793135,0.31689,0.54838,0.70917,0.25812
1700754248875000,-9.310154,-3.853135,0.38689,0.24338,0.73217,0.27312
1700754248882812,-9.376154,-3.850135,0.42789,0.15262,0.65717,0.25312
1700754248890625,-9.458154,-3.802135,0.43089,0.53462,0.56617,0.26512
1700754248898437,-9.513154,-3.710135,0.36489,0.87062,0.50317,0.26012
1700754248906250,-9.545154,-3.587135,0.28289,0.97562,0.67417,0.26412
1700754248914062,-9.514154,-3.447135,0.19189,0.93162,0.78517,0.39212
1700754248921875,-9.434154,-3.339135,0.10589,0.76362,0.100017,0.41312
1700754248929687,-9.367154,-3.289135,0.789,0.41162,0.117817,0.43612
1700754248937500,-9.342154,-3.289135,0.5811,0.0,0.130117,0.48812
1700754248945312,-9.307154,-3.316135,0.12011,0.33538,0.144317,0.49212
1700754248953125,-9.278154,-3.333135,0.12811,0.56338,0.147317,0.54312
1700754248960937,-9.305154,-3.361135,0.15811,0.67038,0.143717,0.52712
1700754248968750,-9.300154,-3.388135,0.19211,0.65538,0.140217,0.50912
1700754248976562,-9.239154,-3.405135,0.22411,0.79438,0.139017,0.36912
1700754248984375,-9.150154,-3.444135,0.26311,0.91638,0.138717,0.38612
1700754248992187,-9.79154,-3.501135,0.27911,0.111438,0.125017,0.33712
1700754249000000,-9.94154,-3.585135,0.22711,0.131338,0.123117,0.27512
1700754249007812,-9.172154,-3.696135,0.15711,0.137438,0.114617,0.29012
1700754249015625,-9.255154,-3.775135,0.8611,0.128338,0.111717,0.25812
1700754249023437,-9.332154,-3.807135,0.2711,0.102438,0.92517,0.15812
1700754249031250,-9.365154,-3.804135,0.2011,0.65738,0.74317,0.18112
1700754249039062,-9.349154,-3.753135,0.5911,0.33738,0.66717,0.13012
1700754249046875,-9.319154,-3.671135,0.11111,0.15538,0.67517,0.8212
1700754249054687,-9.263154,-3.604135,0.18611,0.13838,0.73517,0.17612
1700754249062500,-9.180154,-3.555135,0.22911,0.24438,0.84917,0.27512
1700754249070312,-9.101154,-3.524135,0.25011,0.50038,0.80217,0.46412
1700754249078125,-9.20154,-3.503135,0.27011,0.63638,0.94717,0.57912
1700754249085937,-8.984154,-3.484135,0.24911,0.63338,0.94217,0.76912
1700754249093750,-8.993154,-3.428135,0.23611,0.56838,0.78317,0.92112
1700754249101562,-9.9154,-3.353135,0.25611,0.29138,0.67017,0.101312
1700754249109375,-9.18154,-3.249135,0.29911,0.7738,0.61817,0.102312
1700754249117187,-9.85154,-3.137135,0.32411,0.7838,0.63717,0.102512
1700754249125000,-9.118154,-3.56135,0.36711,0.12538,0.63917,0.91412
1700754249132812,-9.71154,-3.3135,0.41011,0.23338,0.62317,0.83612
1700754249140625,-9.28154,-2.981135,0.42011,0.55638,0.65417,0.66412
1700754249148437,-9.52154,-3.32135,0.39911,0.86338,0.76717,0.62112
1700754249156250,-9.97154,-3.92135,0.33311,0.111038,0.70517,0.38612
1700754249164062,-9.134154,-3.180135,0.24211,0.114238,0.64217,0.25912
1700754249171875,-9.170154,-3.278135,0.18111,0.116138,0.60317,0.2412
1700754249179687,-9.176154,-3.338135,0.10811,0.107538,0.58217,0.27688
1700754249187500,-9.302154,-3.372135,0.3311,0.81838,0.47617,0.42288
1700754249195312,-9.473154,-3.366135,0.811,0.59138,0.38617,0.55188
1700754249203125,-9.461154,-3.355135,0.7611,0.27438,0.46717,0.75688
1700754249210937,-9.422154,-3.337135,0.16111,0.29238,0.60317,0.84988
1700754249218750,-9.366154,-3.352135,0.22411,0.52438,0.72317,0.100188
1700754249226562,-9.301154,-3.408135,0.25411,0.80038,0.90217,0.102888
1700754249234375,-9.249154,-3.485135,0.22911,0.110538,0.94817,0.104088
1700754249242187,-9.229154,-3.596135,0.18811,0.116738,0.92917,0.105688
1700754249250000,-9.264154,-3.678135,0.14511,0.116538,0.79417,0.104388
1700754249257812,-9.259154,-3.738135,0.11411,0.95338,0.76817,0.110888
1700754249265625,-9.215154,-3.768135,0.12311,0.64638,0.53817,0.108488
1700754249273437,-9.193154,-3.748135,0.11811,0.44638,0.44017,0.100888
1700754249281250,-9.184154,-3.735135,0.10911,0.35338,0.28617,0.93388
1700754249289062,-9.212154,-3.710135,0.9811,0.20038,0.22117,0.92088
1700754249296875,-9.223154,-3.711135,0.6611,0.34938,0.22717,0.76288
1700754249304687,-9.218154,-3.720135,0.2911,0.38038,0.36017,0.71188
1700754249312500,-9.238154,-3.717135,0.1789,0.17938,0.35517,0.54188
1700754249320312,-9.283154,-3.714135,0.4789,0.13338,0.40317,0.49488
1700754249328125,-9.324154,-3.703135,0.5489,0.6562,0.37617,0.51088
1700754249335937,-9.318154,-3.681135,0.211,0.12562,0.44517,0.50988
1700754249343750,-9.296154,-3.630135,0.6111,0.21762,0.43017,0.49488
1700754249351562,-9.215154,-3.582135,0.14711,0.27862,0.46517,0.46288
1700754249359375,-9.162154,-3.546135,0.20011,0.11162,0.53017,0.44288
1700754249367187,-9.119154,-3.542135,0.24111,0.5438,0.49017,0.33188
1700754249375000,-9.96154,-3.544135,0.26411,0.34238,0.46017,0.23788
1700754249382812,-9.96154,-3.547135,0.24311,0.56938,0.43617,0.14188
1700754249390625,-9.51154,-3.552135,0.22211,0.64438,0.33517,0.12688
1700754249398437,-9.42154,-3.536135,0.21811,0.64338,0.31517,0.6488
1700754249406250,-9.69154,-3.533135,0.20011,0.65838,0.29617,0.4988
1700754249414062,-9.94154,-3.522135,0.20011,0.62638,0.17517,0.588
1700754249421875,-9.98154,-3.522135,0.18611,0.65738,0.14317,0.5388
1700754249429687,-9.85154,-3.526135,0.14311,0.70338,0.9417,0.8588
1700754249437500,-9.80154,-3.540135,0.11311,0.71938,0.2817,0.14988
1700754249445312,-9.81154,-3.560135,0.6111,0.82738,0.8217,0.19388
1700754249453125,-9.71154,-3.580135,0.3111,0.84338,0.4817,0.27488
1700754249460937,-9.63154,-3.615135,0.911,0.69138,0.8317,0.27588
1700754249468750,-9.84154,-3.627135,0.2589,0.64638,0.517,0.33988
1700754249476562,-9.86154,-3.622135,0.3689,0.57138,0.2483,0.41988
1700754249484375,-9.77154,-3.602135,0.5289,0.40338,0.3983,0.40588
1700754249492187,-9.93154,-3.597135,0.4389,0.41938,0.2183,0.45288
1700754249500000,-9.115154,-3.608135,0.4789,0.55738,0.2717,0.51388
1700754249507812,-9.124154,-3.616135,0.5689,0.60338,0.9417,0.51288
1700754249515625,-9.156154,-3.648135,0.7989,0.57438,0.24817,0.49188
1700754249523437,-9.153154,-3.669135,0.11189,0.65138,0.24417,0.54088
1700754249531250,-9.157154,-3.692135,0.12989,0.65038,0.24617,0.52388
1700754249539062,-9.216154,-3.724135,0.14789,0.56038,0.28417,0.58688
1700754249546875,-9.277154,-3.755135,0.13889,0.39438,0.29217,0.66588
1700754249554687,-9.279154,-3.762135,0.11189,0.31838,0.32717,0.66588
1700754249562500,-9.241154,-3.758135,0.7589,0.18238,0.45017,0.67888
1700754249570312,-9.225154,-3.781135,0.2289,0.32038,0.49917,0.72388
1700754249578125,-9.192154,-3.815135,0.1111,0.39538,0.54417,0.65988
1700754249585937,-9.125154,-3.875135,0.2111,0.42738,0.64417,0.70588
1700754249593750,-9.86154,-3.952135,0.2311,0.56338,0.64217,0.64088
1700754249601562,-9.54154,-4.13135,0.911,0.44038,0.54117,0.59688
