time,Acceleration X (m/s^2),Acceleration Y (m/s^2),Acceleration Z (m/s^2),Angular Velocity X (rad/s),Angular Velocity Y (rad/s),Angular Velocity Z (rad/s)
1700754054898437,-8.47952,-5.79489,-2.032442,,,
1700754054906250,-8.67552,-5.70989,-1.998442,0.83062,0.299,0.42859
1700754054914062,-8.86452,-5.58689,-1.950442,0.67762,0.3671,0.51659
1700754054921875,-8.85452,-5.50789,-1.825442,0.46262,0.8141,0.60659
1700754054929687,-8.55752,-5.55589,-1.659442,0.32562,0.12911,0.79059
1700754054937500,-8.26052,-5.59689,-1.529442,0.18662,0.17091,0.81759
1700754054953125,-7.99252,-5.56689,-1.251442,0.14438,0.20741,0.120459
1700754054960937,-7.95052,-5.64589,-1.82442,0.12838,0.20211,0.121859
1700754054968750,-8.2652,-5.75589,0.980442,0.12738,0.18541,0.121559
1700754054976562,-8.20852,-5.74989,0.964442,0.10062,0.17301,0.114959
1700754055000000,-8.39352,-5.73089,-1.19442,0.44262,0.15041,0.55859
1700754055007812,-8.52352,-5.72089,-1.37442,0.50162,0.17101,0.49959
1700754055015625,-8.59452,-5.66689,-1.10442,0.39162,0.18491,0.39359
1700754055023437,-8.61752,-5.61689,0.932442,0.43462,0.21701,0.32059
1700754055031250,-8.52552,-5.54789,0.803442,0.46262,0.25431,0.29759
1700754055039062,-8.40452,-5.46089,0.680442,0.35662,0.25891,0.37859
1700754055046875,-8.33952,-5.36589,0.541442,0.38862,0.28661,0.55659
1700754055054687,-8.38352,-5.26489,0.409442,0.23762,0.29271,0.65259
1700754055062500,-8.42552,-5.18489,0.252442,0.7362,0.29311,0.87459
1700754055070312,-8.45152,-5.9989,0.139442,0.9438,0.29111,0.89159
1700754055078125,-8.62252,-5.2889,0.68442,0.4638,0.28931,0.98659
1700754055085937,-8.81152,-4.89189,0.23442,0.15338,0.28231,0.92059
1700754055093750,-8.80852,-4.76989,0.35558,0.18438,0.26391,0.83759
1700754055101562,-8.51952,-4.73589,0.113558,0.33638,0.24691,0.80359
1700754055109375,-8.16052,-4.81189,0.47558,0.38138,0.23181,0.83359
1700754055117187,-7.85352,-4.89189,0.100442,0.25538,0.20631,0.96859
1700754055125000,-7.72952,-4.89989,0.246442,0.35438,0.17621,0.129359
1700754055132812,-7.79652,-4.79589,0.344442,0.27238,0.13201,0.150559
1700754055140625,-8.2252,-4.68789,0.397442,0.16138,0.9971,0.163959
1700754055148437,-8.32152,-4.63689,0.490442,0.5362,0.7161,0.159959
1700754055156250,-8.54752,-4.66989,0.597442,0.15462,0.5311,0.121659
1700754055164062,-8.64952,-4.78989,0.679442,0.29962,0.5451,0.78859
1700754055171875,-8.56652,-4.95889,0.747442,0.44262,0.5901,0.27059
1700754055179687,-8.38452,-5.9289,0.797442,0.58762,0.6791,0.13641
1700754055187500,-8.23452,-5.11889,0.808442,0.65862,0.8081,0.43441
1700754055195312,-8.20352,-5.6189,0.808442,0.82362,0.9861,0.52541
1700754055203125,-8.31552,-4.97389,0.756442,0.80562,0.11231,0.63241
1700754055210937,-8.36952,-4.88389,0.656442,0.60562,0.13561,0.65841
1700754055218750,-8.26952,-4.85389,0.542442,0.44962,0.16081,0.77841
1700754055226562,-8.6752,-4.90189,0.474442,0.32562,0.18591,0.78741
1700754055234375,-7.89852,-4.95489,0.430442,0.26162,0.21601,0.87741
1700754055242187,-7.77552,-4.98989,0.364442,0.12462,0.21591,0.85941
1700754055250000,-7.77352,-5.989,0.273442,0.1762,0.20411,0.90841
1700754055257812,-7.87452,-5.5089,0.163442,0.11938,0.19861,0.94141
1700754055265625,-7.98552,-5.9089,0.84442,0.28938,0.18401,0.111541
1700754055273437,-8.5952,-5.14089,0.18442,0.37938,0.16391,0.113441
1700754055281250,-8.2452,-5.24189,0.0,0.48738,0.15891,0.122941
1700754055289062,-8.252,-5.34489,0.11442,0.55038,0.15101,0.135641
1700754055296875,-8.3152,-5.37089,0.61442,0.68738,0.12891,0.142341
1700754055304687,-8.1352,-5.35089,0.140442,0.65538,0.10061,0.146141
1700754055312500,-7.86852,-5.39389,0.172442,0.86738,0.8001,0.141641
1700754055320312,-7.69052,-5.47789,0.247442,0.87938,0.7401,0.124541
1700754055328125,-7.61052,-5.54789,0.372442,0.93538,0.5951,0.99541
1700754055335937,-7.69452,-5.53489,0.495442,0.88438,0.3521,0.78041
1700754055343750,-7.93152,-5.42689,0.591442,0.89438,0.81,0.59841
1700754055351562,-8.22952,-5.33789,0.680442,0.87538,0.1309,0.45941
1700754055359375,-8.42852,-5.32789,0.773442,0.90438,0.1209,0.36641
1700754055367187,-8.49052,-5.40289,0.864442,0.73638,0.1689,0.32041
1700754055375000,-8.51252,-5.49589,0.969442,0.62838,0.1529,0.25841
1700754055382812,-8.50552,-5.54089,-1.42442,0.61138,0.549,0.12941
1700754055390625,-8.39452,-5.55589,-1.101442,0.42738,0.679,0.5141
1700754055398437,-8.17352,-5.61589,-1.137442,0.20938,0.1371,0.29659
1700754055406250,-7.98052,-5.68789,-1.217442,0.2538,0.421,0.34259
1700754055414062,-7.91252,-5.69089,-1.296442,0.20762,0.279,0.52859
1700754055421875,-7.99052,-5.56189,-1.342442,0.37662,0.459,0.60459
1700754055429687,-8.9452,-5.40489,-1.390442,0.58962,0.249,0.58759
1700754055437500,-8.20452,-5.34089,-1.393442,0.83262,0.331,0.55559
1700754055445312,-8.34952,-5.31489,-1.434442,0.104062,0.1981,0.32259
1700754055453125,-8.45952,-5.27089,-1.386442,0.107962,0.4461,0.2759
1700754055460937,-8.39752,-5.26989,-1.309442,0.121062,0.5471,0.34941
1700754055468750,-8.25452,-5.33489,-1.240442,0.131162,0.7791,0.59641
1700754055476562,-8.11752,-5.40289,-1.165442,0.136962,0.9171,0.72141
1700754055484375,-8.7652,-5.42089,-1.124442,0.132162,0.9371,0.81441
1700754055492187,-8.13552,-5.37389,-1.49442,0.125962,0.8221,0.91141
1700754055500000,-8.26752,-5.30289,-1.1442,0.127362,0.7761,0.103841
1700754055507812,-8.34852,-5.23589,0.965442,0.107262,0.8441,0.114541
1700754055515625,-8.50952,-5.18989,0.965442,0.105662,0.8781,0.122441
1700754055523437,-8.80252,-5.12189,0.933442,0.90362,0.8441,0.127141
1700754055531250,-8.86652,-5.7489,0.815442,0.67262,0.7611,0.142941
1700754055539062,-8.56652,-5.14989,0.721442,0.36062,0.10501,0.170441
1700754055546875,-8.4052,-5.37289,0.709442,0.29662,0.12051,0.184341
1700754055554687,-7.61752,-5.68389,0.727442,0.15762,0.12411,0.191941
1700754055562500,-7.43952,-5.96089,0.701442,0.11338,0.10141,0.184341
1700754055570312,-7.43052,-6.11089,0.621442,0.17038,0.6731,0.173941
1700754055578125,-7.42552,-6.16789,0.532442,0.15438,0.6191,0.169441
1700754055585937,-7.56052,-6.18189,0.482442,0.3062,0.5511,0.160341
1700754055593750,-7.98152,-6.3389,0.453442,0.4862,0.3801,0.149641
1700754055601562,-8.25752,-5.89689,0.326442,0.12038,0.2971,0.162341
1700754055609375,-8.7652,-5.92689,0.173442,0.20138,0.5041,0.179141
1700754055617187,-7.62252,-6.10789,0.125442,0.738,0.7981,0.194441
1700754055625000,-7.16552,-6.33089,0.108442,0.6662,0.8741,0.203641
1700754055632812,-6.78252,-6.48289,0.78442,0.5262,0.8021,0.197541
1700754055640625,-6.56952,-6.53789,0.33558,0.4162,0.6991,0.180241
1700754055648437,-6.55052,-6.57189,0.167558,0.5962,0.5441,0.169541
1700754055656250,-6.68152,-6.56489,0.238558,0.21662,0.4991,0.143141
1700754055664062,-6.93952,-6.44389,0.258558,0.31162,0.4451,0.125941
1700754055671875,-7.11952,-6.32589,0.258558,0.31262,0.3421,0.121441
1700754055679687,-7.16852,-6.34489,0.246558,0.31362,0.3551,0.113541
1700754055687500,-7.21252,-6.46689,0.180558,0.34762,0.3001,0.96341
1700754055695312,-7.27452,-6.56889,0.94558,0.45562,0.2501,0.91841
1700754055703125,-7.27852,-6.70289,0.46442,0.50362,0.831,0.85841
1700754055710937,-7.29652,-6.82389,0.187442,0.61262,0.549,0.73541
1700754055718750,-7.37352,-6.88989,0.310442,0.75362,0.2439,0.58341
1700754055726562,-7.51952,-6.84989,0.390442,0.83062,0.2749,0.55241
1700754055734375,-7.81752,-6.68989,0.420442,0.84962,0.2839,0.36441
1700754055742187,-8.14452,-6.42689,0.416442,0.79162,0.1609,0.14141
1700754055750000,-8.36452,-6.21289,0.364442,0.65362,0.881,0.8741
1700754055757812,-8.46052,-6.14889,0.246442,0.54662,0.2361,0.2041
1700754055765625,-8.48952,-6.16889,0.123442,0.49662,0.5091,0.18841
1700754055773437,-8.35552,-6.19289,0.6558,0.40262,0.6431,0.27941
1700754055781250,-8.4652,-6.26589,0.132558,0.35462,0.7131,0.38841
1700754055789062,-7.64352,-6.36489,0.226558,0.37362,0.5871,0.25041
1700754055796875,-7.12952,-6.44389,0.265558,0.39462,0.5291,0.6459
1700754055804687,-6.56652,-6.48089,0.238558,0.35962,0.2851,0.62559
1700754055812500,-6.20352,-6.32789,0.162558,0.52762,0.231,0.143859
1700754055820312,-6.15552,-5.92789,0.41558,0.51562,0.3489,0.242459
1700754055828125,-6.42452,-5.42289,0.78442,0.48762,0.7209,0.333059
1700754055835937,-6.87652,-4.97289,0.141442,0.48362,0.9799,0.390759
1700754055843750,-7.47052,-4.60389,0.194442,0.44562,0.10799,0.431659
1700754055851562,-8.21752,-4.27189,0.245442,0.44362,0.8929,0.427359
1700754055859375,-8.94152,-4.2589,0.260442,0.41962,0.7249,0.383559
1700754055867187,-9.39552,-3.90789,0.173442,0.25362,0.3489,0.313559
1700754055875000,-9.49352,-4.3289,0.17558,0.2638,0.2561,0.214159
1700754055882812,-9.24952,-4.38789,0.155558,0.33538,0.8601,0.118059
1700754055890625,-8.92852,-4.81989,0.126558,0.45738,0.14021,0.51459
1700754055898437,-8.69552,-5.17289,0.65558,0.30038,0.16481,0.3141
1700754055906250,-8.58752,-5.41089,0.59558,0.17038,0.16011,0.50641
1700754055914062,-8.72452,-5.58789,0.87558,0.16138,0.15821,0.83741
1700754055921875,-8.94452,-5.69789,0.119558,0.3138,0.15691,0.129541
1700754055929687,-8.78752,-5.87789,0.147558,0.6762,0.15841,0.173841
1700754055937500,-8.38152,-6.16389,0.106558,0.4462,0.17201,0.217641
1700754055945312,-7.98052,-6.46789,0.23558,0.25662,0.16591,0.222641
1700754055953125,-7.63552,-6.69489,0.7442,0.28862,0.14901,0.224641
1700754055960937,-7.35252,-6.82089,0.8558,0.40062,0.10301,0.205241
1700754055968750,-7.10552,-6.85089,0.40558,0.54562,0.8331,0.167941
1700754055976562,-6.96052,-6.86889,0.36558,0.76962,0.5681,0.113341
1700754055984375,-6.92952,-6.85589,0.20442,0.81062,0.3151,0.61941
1700754055992187,-6.99952,-6.80089,0.80442,0.92762,0.591,0.12241
1700754056000000,-7.17952,-6.69989,0.80442,0.105862,0.1089,0.36059
1700754056007812,-7.45952,-6.51689,0.108442,0.117562,0.2579,0.91059
1700754056015625,-7.64552,-6.29789,0.120442,0.136562,0.1729,0.135059
1700754056023437,-7.65852,-6.16589,0.122442,0.132162,0.119,0.152859
1700754056031250,-7.69052,-6.11689,0.122442,0.144462,0.1031,0.165559
1700754056039062,-7.75152,-6.4289,0.89442,0.143162,0.3021,0.180359
1700754056046875,-7.75752,-5.88189,0.41442,0.139962,0.5501,0.185559
1700754056054687,-7.70252,-5.72989,0.49558,0.136962,0.6991,0.189059
1700754056062500,-7.65652,-5.62789,0.156558,0.133862,0.8981,0.197359
1700754056070312,-7.70052,-5.52489,0.301558,0.118662,0.10911,0.202459
1700754056078125,-7.70852,-5.43889,0.449558,0.100162,0.12781,0.196859
1700754056085937,-7.64152,-5.40589,0.572558,0.72562,0.14241,0.195759
1700754056093750,-7.57452,-5.46489,0.590558,0.40462,0.15201,0.191459
1700754056101562,-7.60352,-5.55389,0.545558,0.31362,0.15681,0.194859
1700754056109375,-7.59552,-5.63189,0.504558,0.8562,0.14451,0.194659
1700754056117187,-7.53152,-5.67089,0.484558,0.9538,0.13041,0.200759
1700754056125000,-7.40852,-5.67789,0.450558,0.10738,0.9781,0.207759
1700754056132812,-7.24752,-5.70889,0.370558,0.12038,0.7071,0.216759
1700754056140625,-7.21752,-5.74089,0.268558,0.7138,0.4681,0.227259
1700754056148437,-7.38752,-5.77489,0.288558,0.13038,0.2991,0.231759
1700754056156250,-7.66152,-5.70789,0.370558,0.40438,0.2891,0.234959
1700754056164062,-7.97852,-5.46389,0.367558,0.34438,0.6121,0.237259
1700754056171875,-8.6352,-5.29989,0.344558,0.43538,0.7071,0.247059
1700754056179687,-7.81052,-5.46389,0.333558,0.58738,0.6721,0.243959
1700754056187500,-7.52252,-5.79689,0.263558,0.55638,0.4051,0.236959
1700754056195312,-7.41652,-6.1189,0.141558,0.35738,0.571,0.234559
1700754056203125,-7.47852,-6.6689,0.2558,0.18738,0.3089,0.232059
1700754056210937,-7.67052,-6.10889,0.82442,0.1738,0.5749,0.237759
1700754056218750,-7.83752,-6.19389,0.54442,0.13562,0.7719,0.232459
1700754056226562,-8.352,-6.28689,0.56442,0.29062,0.6919,0.248259
1700754056234375,-8.34652,-6.21989,0.104442,0.41262,0.4099,0.262859
1700754056242187,-8.72952,-6.6989,0.98442,0.23262,0.1189,0.288959
1700754056250000,-9.5052,-5.93689,0.30442,0.3738,0.2811,0.327759
1700754056257812,-9.22652,-5.83089,0.107558,0.21838,0.6891,0.354059
1700754056265625,-9.23852,-5.87689,0.203558,0.45938,0.11411,0.386659
1700754056273437,-9.25552,-5.95289,0.219558,0.55838,0.14041,0.440859
1700754056281250,-9.38052,-6.889,0.238558,0.80838,0.14301,0.494759
1700754056289062,-9.66152,-5.93389,0.249558,0.104238,0.12671,0.547959
1700754056296875,-9.65052,-5.74789,0.380558,0.109738,0.12031,0.584259
1700754056304687,-9.1552,-5.61989,0.531558,0.138238,0.14041,0.614759
1700754056312500,-8.27652,-5.47189,0.533558,0.151138,0.17461,0.678559
1700754056320312,-7.69152,-5.22289,0.542558,0.148638,0.19741,0.745259
1700754056328125,-7.57952,-4.84689,0.541558,0.170138,0.18861,0.822159
1700754056335937,-8.1452,-4.40089,0.574558,0.164538,0.17211,0.872559
1700754056343750,-8.58352,-4.2589,0.680558,0.149138,0.15041,0.875059
1700754056351562,-8.97652,-3.76789,0.763558,0.148838,0.15311,0.807459
1700754056359375,-9.7552,-3.62989,0.841558,0.149038,0.17011,0.708359
1700754056367187,-8.86352,-3.68589,0.891558,0.154438,0.18151,0.577659
1700754056375000,-8.40952,-3.94789,0.846558,0.177738,0.18061,0.458059
1700754056382812,-8.3852,-4.31589,0.660558,0.174438,0.15051,0.375659
1700754056390625,-7.82552,-4.62389,0.511558,0.153638,0.10071,0.322359
1700754056398437,-7.61352,-4.76689,0.495558,0.122138,0.3441,0.271959
1700754056406250,-7.42052,-4.81389,0.507558,0.108638,0.1459,0.240859
1700754056414062,-7.36152,-4.84589,0.409558,0.73338,0.6239,0.238159
1700754056421875,-7.58752,-4.80889,0.206558,0.34738,0.10759,0.247759
1700754056429687,-8.2952,-4.68489,0.53558,0.10038,0.16239,0.249859
1700754056437500,-8.47752,-4.53689,0.24442,0.938,0.19039,0.238059
1700754056445312,-8.82852,-4.36889,0.74442,0.18662,0.18639,0.226859
1700754056453125,-9.2552,-4.15889,0.143442,0.38262,0.17219,0.217559
1700754056460937,-9.20552,-3.90889,0.226442,0.56262,0.16449,0.203459
1700754056468750,-9.42052,-3.63889,0.252442,0.68162,0.15019,0.189559
1700754056476562,-9.59952,-3.40189,0.241442,0.72162,0.13239,0.163059
1700754056484375,-9.67052,-3.22389,0.189442,0.68562,0.10299,0.143259
1700754056492187,-9.61452,-3.11289,0.148442,0.51162,0.7209,0.117259
1700754056500000,-9.44652,-3.10289,0.93442,0.27262,0.3399,0.69259
1700754056507812,-9.29552,-3.11989,0.64442,0.11062,0.1179,0.19659
1700754056515625,-9.14552,-3.17689,0.43442,0.3962,0.851,0.35141
1700754056523437,-8.99452,-3.28189,0.22442,0.13638,0.2331,0.77241
1700754056531250,-8.84352,-3.43589,0.13442,0.17838,0.3091,0.143141
1700754056539062,-8.68952,-3.54589,0.15442,0.19038,0.4811,0.204341
1700754056546875,-8.52552,-3.56389,0.26442,0.18438,0.5191,0.259441
1700754056554687,-8.42652,-3.58589,0.46442,0.16238,0.6411,0.307941
1700754056562500,-8.49152,-3.64389,0.89442,0.18638,0.6081,0.356941
1700754056570312,-8.63752,-3.69589,0.99442,0.14838,0.5291,0.409041
1700754056578125,-8.70952,-3.73989,0.53442,0.9538,0.6141,0.451441
1700754056585937,-8.58152,-3.80589,0.35558,0.4438,0.7691,0.506341
1700754056593750,-8.34752,-3.93489,0.104558,0.6738,0.8691,0.545441
1700754056601562,-8.13352,-4.14689,0.125558,0.5838,0.8651,0.581741
1700754056609375,-8.2352,-4.43089,0.135558,0.6338,0.6791,0.619941
1700754056617187,-8.1252,-4.72889,0.160558,0.11962,0.3481,0.630341
1700754056625000,-8.6652,-4.95489,0.199558,0.25862,0.501,0.629441
1700754056632812,-8.12752,-5.11589,0.202558,0.32562,0.1949,0.603241
1700754056640625,-8.15352,-5.24489,0.189558,0.46862,0.3689,0.576841
1700754056648437,-8.18352,-5.32689,0.159558,0.67362,0.4309,0.537741
1700754056656250,-8.21452,-5.38689,0.139558,0.75462,0.4749,0.507941
1700754056664062,-8.31252,-5.35889,0.95558,0.76062,0.5529,0.479741
1700754056671875,-8.42752,-5.26389,0.120558,0.77862,0.5079,0.459141
1700754056679687,-8.48452,-5.18289,0.168558,0.74962,0.4299,0.447941
1700754056687500,-8.42652,-5.12389,0.213558,0.73462,0.3629,0.446241
1700754056695312,-8.25352,-5.9789,0.281558,0.59762,0.1499,0.434541
1700754056703125,-8.2852,-5.9789,0.295558,0.39962,0.121,0.430941
1700754056710937,-7.83752,-5.13189,0.309558,0.13162,0.109,0.389941
1700754056718750,-7.79152,-5.17589,0.316558,0.1662,0.279,0.355241
1700754056726562,-7.82052,-5.22289,0.328558,0.28138,0.659,0.314141
1700754056734375,-7.82652,-5.28589,0.348558,0.45738,0.2349,0.276541
1700754056742187,-7.81252,-5.34989,0.346558,0.63538,0.2819,0.252841
1700754056750000,-7.79352,-5.35289,0.351558,0.67638,0.2939,0.224541
1700754056757812,-7.81952,-5.31689,0.323558,0.71838,0.4859,0.205941
1700754056765625,-7.88252,-5.27989,0.298558,0.69838,0.5129,0.184041
1700754056773437,-7.94252,-5.24589,0.296558,0.80238,0.5039,0.166541
1700754056781250,-7.96252,-5.22089,0.287558,0.86038,0.5299,0.149341
1700754056789062,-8.252,-5.17589,0.287558,0.85738,0.3539,0.125341
1700754056796875,-8.10252,-5.10089,0.245558,0.93038,0.2629,0.101441
1700754056804687,-8.21652,-5.1489,0.270558,0.91238,0.1039,0.79041
1700754056812500,-8.31752,-4.96689,0.313558,0.108138,0.961,0.83241
1700754056820312,-8.44352,-4.97589,0.361558,0.117538,0.3641,0.85741
1700754056828125,-8.69052,-5.2689,0.377558,0.133238,0.5371,0.105741
1700754056835937,-8.90652,-5.11289,0.382558,0.143038,0.7311,0.136841
1700754056843750,-8.91752,-5.21389,0.439558,0.161838,0.9531,0.163141
1700754056851562,-8.81252,-5.34589,0.462558,0.163938,0.12161,0.184541
1700754056859375,-8.68852,-5.47189,0.499558,0.173238,0.13671,0.188841
1700754056867187,-8.56952,-5.55889,0.510558,0.192938,0.14281,0.182241
1700754056875000,-8.43752,-5.59789,0.549558,0.209438,0.14171,0.163241
1700754056882812,-8.23452,-5.62389,0.615558,0.224338,0.16731,0.132641
1700754056890625,-7.96852,-5.64289,0.650558,0.245338,0.18761,0.105341
1700754056898437,-7.74452,-5.66189,0.650558,0.258438,0.20291,0.66941
1700754056906250,-7.64852,-5.68689,0.616558,0.259738,0.21541,0.46241
1700754056914062,-7.71452,-5.69689,0.600558,0.265738,0.21681,0.43041
1700754056921875,-7.78752,-5.63589,0.625558,0.273238,0.22481,0.34941
1700754056929687,-7.83152,-5.56689,0.625558,0.264338,0.23041,0.45941
1700754056937500,-7.96052,-5.55089,0.606558,0.260138,0.23791,0.63141
1700754056945312,-8.8752,-5.55889,0.604558,0.276038,0.24561,0.97541
1700754056953125,-8.3052,-5.61389,0.643558,0.285638,0.25671,0.120741
1700754056960937,-8.2352,-5.67389,0.613558,0.289038,0.28061,0.136041
1700754056968750,-8.16252,-5.70489,0.593558,0.300238,0.29151,0.162541
1700754056976562,-8.9652,-5.74789,0.645558,0.338538,0.29431,0.171741
1700754056984375,-7.93652,-5.85289,0.684558,0.370738,0.29901,0.182441
1700754056992187,-8.29752,-5.90689,0.557558,0.372238,0.31011,0.174441
1700754057000000,-9.9052,-5.73189,0.435558,0.385738,0.29481,0.171441
1700754057007812,-9.87552,-5.51089,0.419558,0.422638,0.27161,0.195241
1700754057015625,-10.9652,-5.41889,0.591558,0.444638,0.27771,0.231141
1700754057023437,-9.12052,-5.59289,0.884558,0.476438,0.34131,0.289541
1700754057031250,-7.60252,-6.3789,0.883558,0.492838,0.42791,0.322341
1700754057039062,-6.34052,-6.50189,0.677558,0.483938,0.46381,0.329441
1700754057046875,-5.52552,-6.84889,0.516558,0.495338,0.40881,0.302141
1700754057054687,-5.3552,-7.1789,0.444558,0.510838,0.31751,0.255141
1700754057062500,-4.76152,-7.3989,0.385558,0.492338,0.23301,0.187641
1700754057070312,-4.69152,-6.89989,0.230558,0.444738,0.16321,0.98141
1700754057078125,-4.81152,-6.61789,0.6558,0.408138,0.11361,0.27141
1700754057085937,-5.24352,-6.21489,0.206442,0.377538,0.5761,0.48759
1700754057093750,-5.93952,-5.82089,0.307442,0.357938,0.1721,0.112559
1700754057101562,-6.65852,-5.55989,0.303442,0.340638,0.1199,0.133759
1700754057109375,-7.32252,-5.32989,0.343442,0.303938,0.829,0.139759
1700754057117187,-7.89152,-5.12889,0.418442,0.277438,0.2591,0.97759
1700754057125000,-8.15552,-5.6289,0.450442,0.272138,0.5091,0.60459
1700754057132812,-8.11452,-5.10589,0.455442,0.262238,0.6641,0.23059
1700754057140625,-8.7452,-5.18189,0.459442,0.253938,0.9161,0.17441
1700754057148437,-8.7352,-5.27489,0.489442,0.245138,0.8591,0.44541
1700754057156250,-8.11052,-5.41089,0.536442,0.237738,0.6011,0.63941
1700754057164062,-8.18552,-5.59789,0.582442,0.216738,0.2331,0.99441
1700754057171875,-8.19752,-5.86389,0.677442,0.194138,0.2569,0.129041
1700754057179687,-8.22052,-6.17489,0.803442,0.162238,0.8949,0.162241
1700754057187500,-8.37752,-6.42389,0.983442,0.124438,0.15139,0.200141
1700754057195312,-8.68852,-6.55989,-1.158442,0.81738,0.21869,0.223941
1700754057203125,-9.352,-6.61689,-1.281442,0.51638,0.26989,0.262941
1700754057210937,-9.13152,-6.67289,-1.365442,0.33838,0.30009,0.303141
1700754057218750,-9.552,-6.74489,-1.424442,0.5138,0.30229,0.322341
1700754057226562,-8.88752,-6.76189,-1.506442,0.8662,0.28389,0.309341
1700754057234375,-8.85652,-6.68189,-1.568442,0.0,0.26029,0.274141
1700754057242187,-8.81552,-6.57089,-1.550442,0.22038,0.24109,0.216941
1700754057250000,-8.68452,-6.37889,-1.493442,0.49938,0.20569,0.143441
1700754057257812,-8.48352,-6.15289,-1.434442,0.69038,0.15459,0.83941
1700754057265625,-8.18152,-5.99789,-1.402442,0.84938,0.11569,0.16941
1700754057273437,-7.96352,-5.86489,-1.410442,0.107038,0.8299,0.42259
1700754057281250,-7.89852,-5.68089,-1.426442,0.120138,0.6469,0.85259
1700754057289062,-7.79952,-5.45289,-1.379442,0.151538,0.4669,0.123659
1700754057296875,-7.63152,-5.26389,-1.318442,0.168038,0.1929,0.151259
1700754057304687,-7.55252,-5.8089,-1.290442,0.187538,0.2081,0.183559
1700754057312500,-7.57652,-4.93989,-1.266442,0.202638,0.5661,0.203259
1700754057320312,-7.58652,-4.89189,-1.193442,0.228738,0.6651,0.197459
1700754057328125,-7.71052,-4.91489,-1.145442,0.233838,0.8921,0.174359
1700754057335937,-7.96652,-4.90289,-1.113442,0.251438,0.11551,0.137159
1700754057343750,-8.17352,-4.88889,-1.52442,0.258138,0.12351,0.101259
1700754057351562,-8.21152,-4.95189,0.945442,0.263738,0.14581,0.48259
1700754057359375,-8.12552,-5.17089,0.855442,0.266038,0.16531,0.12259
1700754057367187,-8.3252,-5.40989,0.791442,0.266638,0.17841,0.20441
1700754057375000,-7.92552,-5.59689,0.738442,0.273138,0.16401,0.46041
1700754057382812,-7.83352,-5.73189,0.699442,0.260838,0.14951,0.47841
1700754057390625,-7.73852,-5.90089,0.669442,0.260838,0.12791,0.56141
1700754057398437,-7.64652,-6.4189,0.674442,0.245138,0.8751,0.44541
1700754057406250,-7.62452,-6.9589,0.735442,0.232638,0.4861,0.39241
1700754057414062,-7.64952,-6.8389,0.792442,0.212338,0.2301,0.17841
1700754057421875,-7.73652,-6.4489,0.878442,0.199238,0.1189,0.20659
1700754057429687,-7.86952,-5.96789,0.990442,0.184838,0.3429,0.53359
1700754057437500,-7.93552,-5.92189,-1.109442,0.175238,0.4509,0.75159
1700754057445312,-8.2552,-5.94289,-1.232442,0.158038,0.5929,0.99859
1700754057453125,-8.15952,-5.92889,-1.325442,0.156238,0.5989,0.112359
1700754057460937,-8.29752,-5.88489,-1.366442,0.139238,0.6859,0.124559
1700754057468750,-8.41452,-5.82989,-1.371442,0.130138,0.5819,0.124859
1700754057476562,-8.44752,-5.78689,-1.339442,0.119438,0.4299,0.133059
1700754057484375,-8.38252,-5.71489,-1.333442,0.108638,0.1829,0.150759
1700754057492187,-8.21552,-5.66089,-1.324442,0.110138,0.0,0.157459
1700754057500000,-8.6752,-5.63489,-1.292442,0.94538,0.1821,0.184759
1700754057507812,-7.99652,-5.57989,-1.249442,0.85038,0.2891,0.206759
1700754057515625,-7.94352,-5.50689,-1.208442,0.81838,0.4361,0.224559
1700754057523437,-7.93552,-5.40889,-1.183442,0.63438,0.4561,0.227559
1700754057531250,-7.92052,-5.33789,-1.147442,0.55838,0.5561,0.232459
1700754057539062,-7.91052,-5.28089,-1.147442,0.40838,0.5981,0.219859
1700754057546875,-7.92652,-5.23589,-1.145442,0.35138,0.6581,0.197859
1700754057554687,-8.152,-5.17889,-1.163442,0.17138,0.7161,0.182059
1700754057562500,-8.12652,-5.17689,-1.152442,0.11338,0.7091,0.163059
1700754057570312,-8.22052,-5.26689,-1.108442,0.10438,0.7551,0.133259
1700754057578125,-8.28752,-5.35289,-1.78442,0.9062,0.7991,0.115859
1700754057585937,-8.29952,-5.43589,-1.30442,0.11762,0.9581,0.97359
1700754057593750,-8.27252,-5.52589,-1.5442,0.11762,0.8951,0.94159
1700754057601562,-8.24852,-5.54789,0.946442,0.16662,0.8031,0.109559
1700754057609375,-8.22952,-5.59989,0.873442,0.10862,0.7931,0.131659
1700754057617187,-8.19352,-5.59789,0.852442,0.12962,0.7321,0.158259
1700754057625000,-8.12952,-5.60089,0.848442,0.11862,0.6551,0.183359
1700754057632812,-8.20852,-5.63089,0.932442,0.17062,0.6241,0.219359
1700754057640625,-8.47252,-5.52389,0.996442,0.20862,0.3251,0.253359
1700754057648437,-8.68152,-5.35089,-1.10442,0.12162,0.2991,0.280259
1700754057656250,-8.65552,-5.21189,-1.1442,0.16962,0.2761,0.291059
1700754057664062,-8.37252,-5.11389,0.999442,0.35462,0.3121,0.305359
1700754057671875,-7.91952,-5.7489,-1.27442,0.38562,0.5591,0.318459
1700754057679687,-7.56152,-5.5289,-1.42442,0.40162,0.6081,0.324859
1700754057687500,-7.43352,-4.99689,-1.40442,0.44662,0.5941,0.320059
1700754057695312,-7.56652,-4.90389,-1.38442,0.36862,0.5311,0.304259
1700754057703125,-7.87752,-4.84389,-1.13442,0.45262,0.5001,0.256859
1700754057710937,-8.25952,-4.85689,0.970442,0.56262,0.5601,0.190659
1700754057718750,-8.67052,-4.92289,0.950442,0.60962,0.6251,0.111959
1700754057726562,-9.1852,-5.6189,0.870442,0.60662,0.6851,0.6659
1700754057734375,-9.15952,-5.29989,0.767442,0.55962,0.8021,0.84541
1700754057742187,-9.4552,-5.55789,0.630442,0.55962,0.11011,0.164241
1700754057750000,-8.80052,-5.75789,0.540442,0.54762,0.15101,0.224841
1700754057757812,-8.45752,-5.90389,0.453442,0.34262,0.18221,0.249141
1700754057765625,-8.452,-6.2989,0.341442,0.28162,0.20691,0.242241
1700754057773437,-7.58952,-6.20389,0.245442,0.12262,0.22291,0.188341
1700754057781250,-7.34352,-6.36189,0.197442,0.10738,0.21941,0.106241
1700754057789062,-7.36752,-6.35889,0.179442,0.21338,0.20061,0.19941
1700754057796875,-7.55652,-6.18489,0.154442,0.21538,0.17791,0.48959
1700754057804687,-7.73352,-5.91789,0.130442,0.29538,0.16491,0.114759
1700754057812500,-7.75452,-5.69189,0.121442,0.37938,0.15631,0.155559
1700754057820312,-7.78152,-5.53389,0.165442,0.29838,0.14391,0.178959
1700754057828125,-7.89452,-5.39389,0.210442,0.30838,0.13281,0.203959
1700754057835937,-8.2552,-5.23589,0.222442,0.39938,0.11731,0.205159
1700754057843750,-8.7752,-5.6589,0.229442,0.55238,0.11391,0.200559
1700754057851562,-8.8852,-4.92289,0.234442,0.40238,0.10811,0.184559
1700754057859375,-8.12352,-4.82489,0.257442,0.39038,0.10911,0.160959
1700754057867187,-8.14052,-4.77589,0.276442,0.50138,0.9991,0.134059
1700754057875000,-8.13652,-4.75189,0.265442,0.61238,0.8921,0.105659
1700754057882812,-8.8652,-4.74189,0.264442,0.63338,0.8671,0.69159
1700754057890625,-8.6952,-4.75989,0.298442,0.63638,0.7571,0.48459
1700754057898437,-8.14752,-4.75689,0.323442,0.63838,0.7621,0.37459
1700754057906250,-8.27952,-4.68889,0.360442,0.65338,0.6951,0.37359
1700754057914062,-8.31052,-4.60989,0.358442,0.73038,0.6951,0.34259
1700754057921875,-8.22252,-4.55789,0.374442,0.86738,0.7431,0.36159
1700754057929687,-7.99152,-4.57489,0.404442,0.88138,0.7241,0.40759
1700754057937500,-7.62352,-4.66389,0.426442,0.101638,0.6341,0.50159
1700754057945312,-7.34352,-4.74489,0.531442,0.99738,0.4571,0.70259
1700754057953125,-7.24852,-4.76189,0.647442,0.90138,0.1661,0.86759
1700754057960937,-7.24352,-4.73889,0.713442,0.85138,0.249,0.100459
1700754057968750,-7.30452,-4.80289,0.781442,0.74338,0.4239,0.96459
1700754057976562,-7.48552,-4.93589,0.856442,0.60738,0.6349,0.81659
1700754057984375,-7.81752,-5.4589,0.956442,0.34938,0.9399,0.62059
1700754057992187,-8.26552,-5.6389,-1.47442,0.17238,0.10919,0.23659
1700754058000000,-8.58752,-5.9089,-1.70442,0.10538,0.11159,0.34641
1700754058007812,-8.71752,-5.18089,-1.47442,0.9862,0.10579,0.85041
1700754058015625,-8.68652,-5.32889,-1.51442,0.19462,0.8329,0.138141
1700754058023437,-8.56152,-5.51189,-1.78442,0.33862,0.7469,0.185441
1700754058031250,-8.47352,-5.66989,-1.96442,0.48462,0.7279,0.221641
1700754058039062,-8.44652,-5.78089,-1.82442,0.61662,0.6649,0.250041
1700754058046875,-8.39952,-5.82689,-1.34442,0.58162,0.4849,0.273141
1700754058054687,-8.28852,-5.92989,0.977442,0.69962,0.2469,0.287041
1700754058062500,-8.21252,-6.2089,0.965442,0.77362,0.121,0.292741
1700754058070312,-8.26852,-6.5789,0.965442,0.69662,0.1111,0.294041
1700754058078125,-8.38652,-6.5589,0.945442,0.52862,0.2391,0.290641
1700754058085937,-8.49652,-6.5389,0.894442,0.54362,0.4531,0.282341
1700754058093750,-8.62152,-6.7289,0.838442,0.46862,0.6171,0.269241
1700754058101562,-8.65852,-6.7789,0.779442,0.28762,0.7951,0.256041
1700754058109375,-8.59452,-6.5889,0.717442,0.13862,0.10321,0.227141
1700754058117187,-8.42352,-6.4289,0.672442,0.362,0.12551,0.201341
1700754058125000,-8.25152,-6.989,0.621442,0.20138,0.12991,0.153841
1700754058132812,-8.7652,-6.589,0.583442,0.42038,0.13891,0.90541
1700754058140625,-7.90552,-6.189,0.555442,0.60838,0.13651,0.33641
1700754058148437,-7.84252,-5.95089,0.574442,0.70238,0.13001,0.40359
1700754058156250,-7.94352,-5.84089,0.617442,0.85638,0.10691,0.109259
1700754058164062,-8.3352,-5.71889,0.633442,0.93838,0.8941,0.162459
1700754058171875,-8.6852,-5.62889,0.645442,0.108538,0.7451,0.190559
1700754058179687,-8.13052,-5.50689,0.684442,0.88338,0.6911,0.207559
1700754058187500,-8.19252,-5.35289,0.744442,0.91338,0.6251,0.210759
1700754058195312,-8.10252,-5.27889,0.773442,0.88538,0.5661,0.190159
1700754058203125,-7.95052,-5.28489,0.805442,0.82638,0.6361,0.183959
1700754058210937,-7.98752,-5.25989,0.896442,0.64638,0.6801,0.168159
1700754058218750,-8.19252,-5.14589,0.958442,0.69338,0.6141,0.160159
1700754058226562,-8.20452,-5.12489,0.917442,0.71038,0.6531,0.146059
1700754058234375,-8.1652,-5.24089,0.853442,0.59238,0.7281,0.125559
1700754058242187,-7.83952,-5.35989,0.876442,0.39738,0.7591,0.109959
1700754058250000,-7.69252,-5.40589,0.909442,0.26338,0.7321,0.92259
1700754058257812,-7.54352,-5.44789,0.903442,0.18638,0.4681,0.87059
1700754058265625,-7.47452,-5.49589,0.880442,0.3338,0.2721,0.81859
1700754058273437,-7.51452,-5.56889,0.898442,0.25662,0.1751,0.81359
1700754058281250,-7.60452,-5.62289,0.930442,0.40962,0.549,0.79159
1700754058289062,-7.62452,-5.62989,0.948442,0.66862,0.1489,0.74059
1700754058296875,-7.61352,-5.62289,0.996442,0.88362,0.2799,0.75159
1700754058304687,-7.67952,-5.61589,-1.78442,0.108162,0.3079,0.73459
1700754058312500,-7.81752,-5.59089,-1.126442,0.120362,0.4549,0.68359
1700754058320312,-7.90452,-5.55889,-1.112442,0.133862,0.5639,0.55459
1700754058328125,-7.87152,-5.61089,-1.126442,0.133662,0.3929,0.47959
1700754058335937,-7.91852,-5.64789,-1.162442,0.156562,0.3899,0.49359
1700754058343750,-8.10252,-5.62089,-1.198442,0.154962,0.4229,0.46159
1700754058351562,-8.32952,-5.58689,-1.190442,0.147162,0.3509,0.33759
1700754058359375,-8.68452,-5.54489,-1.167442,0.154562,0.3439,0.25959
1700754058367187,-8.98352,-5.52989,-1.104442,0.146662,0.2709,0.10459
1700754058375000,-9.2152,-5.54889,-1.19442,0.129362,0.1989,0.19341
1700754058382812,-8.83652,-5.60889,0.948442,0.133462,0.229,0.42641
1700754058390625,-8.54152,-5.67189,0.889442,0.122462,0.1811,0.51641
1700754058398437,-8.29952,-5.78789,0.872442,0.107262,0.2241,0.46741
1700754058406250,-8.71052,-5.77689,0.946442,0.106162,0.871,0.29541
1700754058414062,-9.66252,-5.48489,0.960442,0.98862,0.2739,0.25741
1700754058421875,-10.11452,-5.22489,0.829442,0.77362,0.4579,0.40141
1700754058429687,-9.38752,-5.35289,0.539442,0.59462,0.781,0.86141
1700754058437500,-8.17552,-5.74989,0.494442,0.55362,0.8641,0.119141
1700754058445312,-7.21852,-6.8089,0.552442,0.54962,0.14181,0.122741
1700754058453125,-6.68852,-6.14589,0.502442,0.29462,0.15551,0.95441
1700754058460937,-6.59052,-5.94589,0.382442,0.12238,0.13891,0.42041
1700754058468750,-6.75652,-5.66089,0.207442,0.14338,0.14731,0.15159
1700754058476562,-7.2552,-5.47389,0.137442,0.25838,0.14691,0.57659
1700754058484375,-7.28152,-5.38689,0.135442,0.36238,0.14311,0.70359
1700754058492187,-7.54152,-5.36489,0.151442,0.37838,0.13291,0.63659
1700754058500000,-7.81552,-5.37689,0.197442,0.13738,0.12771,0.44659
1700754058507812,-8.4552,-5.42489,0.233442,0.738,0.12081,0.1659
1700754058515625,-8.13752,-5.49189,0.272442,0.6162,0.11081,0.44341
1700754058523437,-8.5952,-5.55589,0.319442,0.18162,0.12341,0.53541
1700754058531250,-7.87852,-5.61189,0.369442,0.31562,0.12781,0.69241
1700754058539062,-7.69552,-5.52789,0.415442,0.33162,0.13621,0.64241
1700754058546875,-7.53952,-5.35689,0.415442,0.45662,0.12881,0.48841
1700754058554687,-7.49952,-5.19889,0.434442,0.53562,0.12321,0.33341
1700754058562500,-7.64452,-5.10189,0.418442,0.66262,0.10911,0.8441
1700754058570312,-7.95552,-5.4689,0.368442,0.77062,0.10251,0.2341
1700754058578125,-8.26852,-4.99889,0.255442,0.79862,0.10991,0.13141
1700754058585937,-8.55452,-5.189,0.141442,0.78062,0.11221,0.31941
1700754058593750,-8.76652,-5.7089,0.29442,0.71662,0.10771,0.50941
1700754058601562,-8.60752,-5.19989,0.159558,0.57562,0.11001,0.72941
1700754058609375,-8.6552,-5.40589,0.326558,0.54262,0.12021,0.83741
1700754058617187,-7.45452,-5.57889,0.368558,0.63562,0.12021,0.72741
1700754058625000,-6.95352,-5.65489,0.384558,0.77762,0.11141,0.50841
1700754058632812,-6.63452,-5.61489,0.363558,0.77162,0.6781,0.9241
1700754058640625,-6.55352,-5.43489,0.324558,0.75462,0.2661,0.54459
1700754058648437,-6.76652,-5.19289,0.233558,0.80962,0.39,0.99459
1700754058656250,-7.24552,-4.94789,0.111558,0.86262,0.2019,0.133759
1700754058664062,-7.95352,-4.74489,0.6558,0.83462,0.3389,0.144559
1700754058671875,-8.78952,-4.54289,0.44442,0.87562,0.3269,0.116259
1700754058679687,-9.51952,-4.40489,0.1442,0.71062,0.909,0.52059
1700754058687500,-9.92852,-4.36989,0.102558,0.51162,0.3061,0.25741
1700754058695312,-9.89052,-4.45489,0.234558,0.20762,0.8821,0.93541
1700754058703125,-9.57752,-4.67389,0.321558,0.1162,0.15061,0.150341
1700754058710937,-9.29552,-4.97789,0.299558,0.17938,0.18521,0.184141
1700754058718750,-9.4152,-5.28889,0.296558,0.26138,0.19961,0.213741
1700754058726562,-8.73052,-5.51789,0.356558,0.32438,0.17991,0.231441
1700754058734375,-8.35352,-5.68389,0.442558,0.21938,0.17741,0.242541
1700754058742187,-7.96752,-5.87089,0.459558,0.1062,0.17081,0.238141
1700754058750000,-7.77052,-6.289,0.389558,0.6062,0.14481,0.219941
1700754058757812,-7.76152,-6.3589,0.341558,0.27862,0.11591,0.201841
1700754058765625,-7.77552,-5.99989,0.330558,0.25662,0.8411,0.163041
1700754058773437,-7.78252,-5.94189,0.325558,0.30862,0.8451,0.125241
1700754058781250,-7.78152,-5.85989,0.307558,0.43662,0.7861,0.93941
1700754058789062,-7.78352,-5.76689,0.309558,0.36662,0.7041,0.59341
1700754058796875,-7.67652,-5.70889,0.316558,0.35662,0.7061,0.31141
1700754058804687,-7.50752,-5.71589,0.313558,0.33162,0.6291,0.259
1700754058812500,-7.40152,-5.72089,0.281558,0.36962,0.4681,0.36359
1700754058820312,-7.42152,-5.67889,0.222558,0.52862,0.3031,0.71959
1700754058828125,-7.55952,-5.55689,0.181558,0.41162,0.401,0.90359
1700754058835937,-7.59452,-5.44289,0.185558,0.46062,0.2159,0.102359
1700754058843750,-7.55952,-5.38789,0.160558,0.67462,0.1949,0.105459
1700754058851562,-7.56152,-5.36689,0.87558,0.75062,0.2099,0.102159
1700754058859375,-7.58952,-5.37589,0.41558,0.83962,0.2679,0.89459
1700754058867187,-7.63152,-5.37289,0.37558,0.80462,0.3099,0.60959
1700754058875000,-7.68852,-5.38589,0.44558,0.87762,0.3159,0.42159
1700754058882812,-7.78952,-5.47589,0.19558,0.101062,0.3699,0.15159
1700754058890625,-7.90952,-5.58289,0.0,0.106562,0.3579,0.21241
1700754058898437,-7.97952,-5.71689,0.35442,0.105962,0.4069,0.57341
1700754058906250,-8.7752,-5.80389,0.50442,0.108562,0.4469,0.87441
1700754058914062,-8.15052,-5.86289,0.39442,0.110862,0.3319,0.128341
1700754058921875,-8.16152,-5.92789,0.7442,0.105962,0.2749,0.143841
1700754058929687,-8.9252,-5.97989,0.27558,0.97762,0.819,0.170241
1700754058937500,-7.95652,-6.7389,0.54558,0.79662,0.1611,0.152141
1700754058945312,-7.80952,-6.18689,0.68558,0.57062,0.3151,0.129641
1700754058953125,-7.77052,-6.26089,0.114558,0.34862,0.4451,0.85041
1700754058960937,-7.78752,-6.27589,0.182558,0.15562,0.5281,0.51741
1700754058968750,-7.77752,-6.22989,0.239558,0.8138,0.5921,0.12041
1700754058976562,-7.72652,-6.10289,0.273558,0.30338,0.6551,0.30759
1700754058984375,-7.65252,-6.389,0.268558,0.40538,0.6581,0.59159
1700754058992187,-7.54052,-5.96989,0.259558,0.47838,0.7481,0.83059
1700754059000000,-7.53152,-5.96289,0.259558,0.55038,0.6551,0.104959
1700754059007812,-7.58352,-5.91389,0.268558,0.60838,0.6141,0.119059
1700754059015625,-7.67152,-5.82789,0.263558,0.51538,0.6131,0.128459
1700754059023437,-7.85152,-5.73689,0.213558,0.45238,0.5621,0.136259
1700754059031250,-8.2552,-5.71589,0.224558,0.48338,0.6741,0.142759
1700754059039062,-8.16452,-5.75289,0.238558,0.55738,0.7541,0.157259
1700754059046875,-8.21852,-5.72689,0.263558,0.61638,0.9131,0.174959
1700754059054687,-8.27752,-5.70389,0.290558,0.59938,0.10251,0.189259
1700754059062500,-8.45252,-5.66589,0.274558,0.61238,0.10351,0.203459
1700754059070312,-8.70952,-5.55789,0.278558,0.59638,0.9521,0.203259
1700754059078125,-8.95052,-5.47889,0.314558,0.58238,0.9881,0.197059
1700754059085937,-8.82552,-5.40789,0.403558,0.61438,0.10761,0.191059
1700754059093750,-8.42752,-5.32589,0.462558,0.61438,0.13101,0.197959
1700754059101562,-8.5352,-5.23789,0.442558,0.59738,0.14061,0.210759
1700754059109375,-7.75552,-5.15889,0.419558,0.63638,0.14221,0.251659
1700754059117187,-7.58152,-5.5389,0.405558,0.75438,0.14421,0.278559
1700754059125000,-7.65352,-4.91489,0.377558,0.64538,0.12911,0.282859
1700754059132812,-7.95052,-4.76389,0.334558,0.61338,0.11901,0.289059
1700754059140625,-8.28052,-4.63689,0.313558,0.63638,0.12381,0.248159
1700754059148437,-8.47152,-4.60189,0.319558,0.72538,0.14181,0.174659
1700754059156250,-8.42252,-4.68889,0.354558,0.83238,0.16961,0.96359
1700754059164062,-8.25952,-4.85989,0.391558,0.86238,0.17441,0.11359
1700754059171875,-8.11752,-5.11089,0.403558,0.91938,0.18511,0.52941
1700754059179687,-8.52,-5.35589,0.410558,0.107638,0.16261,0.89641
1700754059187500,-7.83252,-5.58089,0.440558,0.117038,0.13141,0.112241
1700754059195312,-7.64752,-5.76389,0.459558,0.111138,0.11721,0.128241
1700754059203125,-7.57852,-5.85189,0.464558,0.104638,0.8331,0.116341
1700754059210937,-7.60552,-5.87589,0.445558,0.97938,0.4541,0.93641
1700754059218750,-7.70252,-5.84589,0.386558,0.109238,0.171,0.58241
1700754059226562,-7.87152,-5.76889,0.320558,0.106938,0.3659,0.27641
1700754059234375,-8.7952,-5.65789,0.251558,0.103338,0.4269,0.5359
1700754059242187,-8.29352,-5.52789,0.187558,0.110138,0.5959,0.44359
1700754059250000,-8.56752,-5.40189,0.112558,0.109938,0.5999,0.60159
1700754059257812,-8.86352,-5.27289,0.50558,0.126338,0.6259,0.79259
1700754059265625,-9.11452,-5.17389,0.29558,0.138438,0.4149,0.92359
1700754059273437,-9.22252,-5.11589,0.56558,0.149238,0.3019,0.89359
1700754059281250,-9.22752,-5.10289,0.61558,0.153838,0.2189,0.91159
1700754059289062,-9.18952,-5.12389,0.77558,0.155438,0.501,0.94959
1700754059296875,-9.5552,-5.12789,0.125558,0.161238,0.261,0.109059
1700754059304687,-8.90852,-5.11189,0.159558,0.145738,0.741,0.124859
1700754059312500,-8.80452,-5.6789,0.175558,0.133538,0.1391,0.132759
1700754059320312,-8.66752,-5.1689,0.211558,0.121138,0.1561,0.140559
1700754059328125,-8.39352,-4.98989,0.211558,0.111938,0.2561,0.148659
1700754059335937,-8.7652,-4.98189,0.195558,0.102838,0.3241,0.150259
1700754059343750,-7.76152,-4.99489,0.109558,0.98238,0.4091,0.152059
1700754059351562,-7.56252,-4.96689,0.20558,0.87538,0.3281,0.151759
1700754059359375,-7.53152,-4.92889,0.34442,0.84338,0.1431,0.152959
1700754059367187,-7.65852,-4.88189,0.79442,0.85938,0.931,0.148059
1700754059375000,-7.81352,-4.84489,0.95442,0.81538,0.19,0.133659
1700754059382812,-7.89752,-4.83689,0.112442,0.77638,0.471,0.99159
1700754059390625,-7.93752,-4.88089,0.132442,0.81238,0.951,0.64659
1700754059398437,-7.90452,-4.98389,0.159442,0.83338,0.741,0.29959
1700754059406250,-7.80952,-5.11789,0.161442,0.88538,0.1321,0.3141
1700754059414062,-7.67452,-5.26589,0.167442,0.87338,0.81,0.23741
1700754059421875,-7.59352,-5.39289,0.206442,0.64738,0.129,0.44441
1700754059429687,-7.54252,-5.47189,0.235442,0.63338,0.599,0.50841
1700754059437500,-7.56952,-5.53189,0.260442,0.43338,0.2389,0.49741
1700754059445312,-7.63252,-5.53989,0.258442,0.32938,0.2009,0.59241
1700754059453125,-7.70652,-5.53889,0.262442,0.16338,0.1449,0.70341
1700754059460937,-7.77652,-5.55789,0.276442,0.3362,0.1719,0.80041
1700754059468750,-7.82652,-5.58589,0.308442,0.18062,0.1399,0.109941
1700754059476562,-7.92652,-5.66689,0.337442,0.36062,0.1299,0.127441
1700754059484375,-8.2852,-5.79089,0.365442,0.52662,0.2029,0.138541
1700754059492187,-8.14552,-5.94289,0.382442,0.59962,0.1959,0.159241
1700754059500000,-8.23752,-6.3489,0.375442,0.79462,0.2179,0.175041
1700754059507812,-8.27752,-6.8789,0.346442,0.79462,0.1999,0.178141
1700754059515625,-8.31152,-6.10389,0.294442,0.79362,0.479,0.173041
1700754059523437,-8.34852,-6.8989,0.241442,0.81262,0.921,0.145941
1700754059531250,-8.37352,-6.5889,0.202442,0.63562,0.1241,0.111241
1700754059539062,-8.37352,-5.97989,0.130442,0.40062,0.2491,0.57241
1700754059546875,-8.26952,-5.85789,0.64442,0.25562,0.3501,0.11041
1700754059554687,-8.17152,-5.69589,0.30442,0.9662,0.6221,0.52559
1700754059562500,-8.14452,-5.52789,0.21558,0.6238,0.5671,0.104659
1700754059570312,-8.6352,-5.32789,0.64558,0.31338,0.4621,0.145559
1700754059578125,-7.92052,-5.15589,0.136558,0.55238,0.5941,0.178959
1700754059585937,-7.90152,-5.689,0.154558,0.60938,0.5981,0.205759
1700754059593750,-8.4452,-4.86689,0.136558,0.71438,0.5591,0.213559
1700754059601562,-8.21552,-4.76689,0.135558,0.82138,0.3761,0.205459
1700754059609375,-8.32852,-4.74289,0.172558,0.83938,0.3821,0.186559
1700754059617187,-8.39952,-4.76889,0.201558,0.87538,0.4611,0.160059
1700754059625000,-8.48752,-4.78589,0.174558,0.107938,0.6521,0.130559
1700754059632812,-8.66352,-4.78289,0.160558,0.112938,0.7441,0.110359
1700754059640625,-8.79552,-4.75089,0.217558,0.134738,0.10321,0.90659
1700754059648437,-8.80952,-4.71689,0.308558,0.153538,0.13701,0.70959
1700754059656250,-8.75852,-4.72189,0.379558,0.164838,0.16111,0.47759
1700754059664062,-8.69652,-4.80489,0.413558,0.187938,0.18111,0.37359
1700754059671875,-8.63052,-4.91089,0.441558,0.202038,0.20031,0.20659
1700754059679687,-8.54252,-5.3689,0.516558,0.222038,0.20351,0.14559
1700754059687500,-8.38252,-5.17089,0.569558,0.235838,0.19701,0.5059
1700754059695312,-8.25352,-5.29989,0.574558,0.252538,0.19791,0.9859
1700754059703125,-8.15752,-5.39189,0.574558,0.253938,0.19591,0.16159
1700754059710937,-8.15452,-5.44989,0.565558,0.256738,0.19871,0.30359
1700754059718750,-8.20252,-5.48889,0.568558,0.258238,0.19501,0.30159
1700754059726562,-8.22852,-5.48689,0.586558,0.267338,0.18831,0.35059
1700754059734375,-8.13952,-5.51689,0.588558,0.282538,0.19781,0.38359
1700754059742187,-7.97552,-5.55889,0.595558,0.287138,0.21281,0.40359
1700754059750000,-7.72152,-5.58989,0.607558,0.293038,0.22551,0.56359
1700754059757812,-7.67852,-5.61689,0.556558,0.309638,0.22661,0.67659
1700754059765625,-7.84952,-5.56089,0.534558,0.312238,0.20881,0.89259
1700754059773437,-7.84452,-5.54989,0.591558,0.330438,0.20641,0.92459
1700754059781250,-7.70552,-5.65489,0.643558,0.348838,0.21481,0.92859
1700754059789062,-7.81252,-5.74689,0.632558,0.345538,0.22771,0.107259
1700754059796875,-8.20952,-5.68789,0.643558,0.367838,0.21071,0.136859
1700754059804687,-8.68552,-5.51089,0.738558,0.415938,0.18841,0.171559
1700754059812500,-8.96452,-5.33989,0.888558,0.476038,0.20361,0.224259
1700754059820312,-8.82652,-5.29289,1.56558,0.562338,0.23851,0.272759
1700754059828125,-8.30952,-5.49989,1.105558,0.668738,0.27531,0.304159
1700754059835937,-7.57852,-5.96189,0.979558,0.741138,0.28201,0.350459
1700754059843750,-6.83752,-6.49889,0.748558,0.781338,0.24261,0.392459
1700754059851562,-6.30952,-6.88889,0.548558,0.787638,0.16821,0.446159
1700754059859375,-6.7252,-7.7489,0.351558,0.787638,0.6361,0.499159
1700754059867187,-6.11252,-7.4189,0.153558,0.751138,0.3209,0.551859
1700754059875000,-6.31552,-6.81189,0.52442,0.713238,0.12189,0.592259
1700754059882812,-6.58052,-6.49589,0.283442,0.662038,0.17429,0.628659
1700754059890625,-6.94752,-6.14089,0.516442,0.612938,0.20089,0.641859
1700754059898437,-7.31852,-5.83689,0.706442,0.562238,0.20869,0.657159
1700754059906250,-7.69552,-5.56689,0.891442,0.534638,0.19199,0.673059
1700754059914062,-8.10452,-5.30689,-1.33442,0.498438,0.14389,0.667559
1700754059921875,-8.39752,-5.3289,-1.138442,0.474538,0.9619,0.660359
1700754059929687,-8.51452,-4.78189,-1.210442,0.456638,0.2979,0.657159
1700754059937500,-8.55152,-4.58089,-1.242442,0.440538,0.3511,0.639459
1700754059945312,-8.44852,-4.46889,-1.219442,0.403238,0.8251,0.608659
1700754059953125,-8.30952,-4.38589,-1.208442,0.384138,0.12281,0.581159
1700754059960937,-8.23452,-4.19989,-1.179442,0.355538,0.14741,0.568859
1700754059968750,-8.16352,-3.93289,-1.127442,0.325338,0.17171,0.564459
1700754059976562,-8.21752,-3.72289,-1.84442,0.323938,0.17861,0.558259
1700754059984375,-8.42252,-3.70689,-1.98442,0.322338,0.18521,0.564659
1700754059992187,-8.76752,-3.82989,-1.198442,0.329838,0.18351,0.568059
1700754060000000,-9.15852,-3.93389,-1.246442,0.345438,0.18541,0.552359
1700754060007812,-9.55452,-3.92189,-1.239442,0.336638,0.16641,0.520259
1700754060015625,-9.94752,-3.84289,-1.242442,0.322238,0.14541,0.464659
1700754060023437,-10.29652,-3.78489,-1.267442,0.300538,0.11841,0.389859
1700754060031250,-10.59552,-3.78089,-1.324442,0.302938,0.9061,0.323059
1700754060039062,-10.66052,-3.88289,-1.347442,0.302638,0.6841,0.245359
1700754060046875,-10.47552,-4.8489,-1.346442,0.306638,0.4211,0.178559
1700754060054687,-10.24252,-4.27589,-1.428442,0.292138,0.3261,0.134259
1700754060062500,-10.23752,-4.32489,-1.553442,0.278638,0.1351,0.113259
1700754060070312,-10.43752,-4.22689,-1.598442,0.281738,0.679,0.103259
1700754060078125,-10.58652,-4.11589,-1.565442,0.284738,0.1519,0.101559
1700754060085937,-10.49752,-4.6789,-1.515442,0.289338,0.1691,0.110359
1700754060093750,-10.20952,-4.5489,-1.506442,0.281738,0.5651,0.126759
1700754060101562,-9.91152,-4.12789,-1.501442,0.290638,0.7741,0.147759
1700754060109375,-9.67452,-4.22889,-1.457442,0.283838,0.9231,0.191959
1700754060117187,-9.37052,-4.26189,-1.384442,0.278238,0.11331,0.264959
1700754060125000,-9.5552,-4.26589,-1.331442,0.269138,0.13361,0.356759
1700754060132812,-8.90152,-4.28589,-1.331442,0.252038,0.15141,0.473659
1700754060140625,-8.95652,-4.22489,-1.309442,0.248538,0.16691,0.593659
1700754060148437,-9.3352,-3.99689,-1.232442,0.248338,0.18131,0.699459
1700754060156250,-8.99852,-3.71489,-1.75442,0.235138,0.20081,0.769059
1700754060164062,-8.90952,-3.47089,0.971442,0.220838,0.23331,0.810759
1700754060171875,-8.79952,-3.27289,0.915442,0.208138,0.25901,0.853959
1700754060179687,-8.59852,-3.17689,0.833442,0.209238,0.26451,0.880659
1700754060187500,-8.43052,-3.17289,0.778442,0.214638,0.27611,0.925059
1700754060195312,-8.40652,-3.17989,0.780442,0.198738,0.28191,0.966259
1700754060203125,-8.61452,-3.14589,0.796442,0.193138,0.27931,1.27359
1700754060210937,-8.95952,-3.8789,0.785442,0.184438,0.28051,1.88859
1700754060218750,-9.19352,-3.7889,0.728442,0.183838,0.29751,1.131859
1700754060226562,-9.30552,-3.20589,0.696442,0.183238,0.32111,1.176459
1700754060234375,-9.33552,-3.30089,0.758442,0.186038,0.34361,1.197359
1700754060242187,-9.34252,-3.23589,0.812442,0.161238,0.33661,1.217459
1700754060250000,-9.35052,-3.13589,0.769442,0.142938,0.33361,1.217259
1700754060257812,-9.30352,-3.10489,0.667442,0.144338,0.31331,1.216659
1700754060265625,-9.27352,-3.12789,0.603442,0.127738,0.29391,1.200259
1700754060273437,-9.26952,-3.10589,0.594442,0.92838,0.26881,1.180859
1700754060281250,-9.30952,-3.1989,0.601442,0.53238,0.23161,1.169059
1700754060289062,-9.30452,-2.92089,0.560442,0.15338,0.20631,1.146059
1700754060296875,-9.22652,-2.78189,0.529442,0.22762,0.18861,1.140559
1700754060304687,-9.17052,-2.57089,0.525442,0.68662,0.18131,1.145059
1700754060312500,-9.22152,-2.32089,0.557442,0.100762,0.17181,1.149459
1700754060320312,-9.39252,-2.6489,0.521442,0.141962,0.14411,1.143759
1700754060328125,-9.41952,-1.91589,0.396442,0.176762,0.13741,1.121359
1700754060335937,-9.42952,-1.84189,0.296442,0.200862,0.13841,1.108659
1700754060343750,-9.45952,-1.81489,0.294442,0.185962,0.17061,1.139359
1700754060351562,-9.52252,-1.81389,0.349442,0.166762,0.19041,1.184159
1700754060359375,-9.67952,-1.73589,0.363442,0.166262,0.20631,1.247359
1700754060367187,-9.86152,-1.50289,0.311442,0.179062,0.21481,1.286559
1700754060375000,-9.93852,-1.13589,0.218442,0.211062,0.21091,1.281759
1700754060382812,-9.79952,0.71189,0.119442,0.227262,0.21731,1.253359
1700754060390625,-9.55052,0.37489,0.4442,0.198862,0.21911,1.195459
1700754060398437,-9.40752,0.15089,0.20558,0.153462,0.21881,1.129359
1700754060406250,-9.38652,0.4889,0.29558,0.111362,0.20861,1.68159
1700754060414062,-9.48952,0.14089,0.77558,0.69462,0.18771,1.15859
1700754060421875,-9.71252,0.27389,0.9558,0.12262,0.17841,0.965659
1700754060429687,-9.77252,0.33989,0.81442,0.2262,0.15671,0.910059
1700754060437500,-9.73452,0.33189,0.149442,0.36262,0.12371,0.832059
1700754060445312,-9.79852,0.22989,0.202442,0.80862,0.10041,0.758659
1700754060453125,-10.152,0.11789,0.188442,0.122662,0.5661,0.689659
1700754060460937,-10.32052,0.3089,0.146442,0.149162,0.3141,0.627759
1700754060468750,-10.55752,0.3789,0.100442,0.149962,0.3111,0.585059
1700754060476562,-10.76052,0.10389,0.120442,0.131062,0.4041,0.548959
1700754060484375,-10.79352,0.20889,0.212442,0.105962,0.6661,0.516859
1700754060492187,-10.63452,0.32789,0.264442,0.92962,0.10641,0.488059
1700754060500000,-10.38252,0.44289,0.309442,0.71562,0.11401,0.486459
1700754060507812,-10.18852,0.54789,0.313442,0.62362,0.12381,0.485059
1700754060515625,-10.19352,0.54989,0.322442,0.68962,0.11451,0.513259
1700754060523437,-10.30152,0.44489,0.320442,0.69362,0.10731,0.532159
1700754060531250,-10.27552,0.30889,0.213442,0.67762,0.11221,0.528959
1700754060539062,-10.7252,0.22689,0.81442,0.49162,0.12571,0.515059
1700754060546875,-9.83852,0.12589,0.11442,0.14962,0.14641,0.487559
1700754060554687,-9.66552,0.4489,0.2558,0.20538,0.16161,0.464459
1700754060562500,-9.52052,0.4289,0.40558,0.39038,0.16861,0.453759
1700754060570312,-9.46552,0.7489,0.106558,0.49938,0.15721,0.439459
1700754060578125,-9.43152,0.13189,0.170558,0.74338,0.14021,0.428159
1700754060585937,-9.42452,0.27889,0.196558,0.95838,0.13511,0.420359
1700754060593750,-9.52252,0.41589,0.153558,0.111038,0.12481,0.418759
1700754060601562,-9.61252,0.49489,0.64558,0.105038,0.11691,0.407459
1700754060609375,-9.59352,0.50789,0.50558,0.82438,0.9621,0.386359
1700754060617187,-9.45352,0.50289,0.114558,0.63038,0.7251,0.354159
1700754060625000,-9.28652,0.44089,0.164558,0.54438,0.6571,0.320859
1700754060632812,-9.19952,0.35289,0.162558,0.53438,0.6191,0.287659
1700754060640625,-9.25052,0.27889,0.153558,0.38538,0.4151,0.258859
1700754060648437,-9.30552,0.21289,0.157558,0.35938,0.4071,0.235159
1700754060656250,-9.39252,0.16789,0.148558,0.31638,0.2171,0.211159
1700754060664062,-9.51252,0.12989,0.152558,0.19738,0.591,0.183759
1700754060671875,-9.68252,0.8489,0.102558,0.16938,0.709,0.169259
1700754060679687,-9.84152,0.7689,0.111558,0.8038,0.1289,0.153359
1700754060687500,-9.93852,0.7889,0.97558,0.8238,0.1079,0.139159
1700754060695312,-10.1852,0.6089,0.38558,0.12838,0.2059,0.134359
1700754060703125,-10.19352,0.689,0.32442,0.8562,0.2359,0.135759
1700754060710937,-10.47752,0.4611,0.102442,0.11562,0.3359,0.132259
1700754060718750,-10.78452,0.9611,0.135442,0.13162,0.4829,0.130559
1700754060726562,-10.99852,0.20611,0.135442,0.32862,0.4619,0.124059
1700754060734375,-11.7752,0.36711,0.83442,0.38762,0.3559,0.117959
1700754060742187,-11.4352,0.53411,0.38442,0.29562,0.1729,0.118459
1700754060750000,-10.92552,0.67211,0.11442,0.3662,0.99,0.123759
1700754060757812,-10.66052,0.69111,0.91558,0.42038,0.1431,0.133759
1700754060765625,-10.34752,0.64511,0.100558,0.95138,0.2761,0.150159
1700754060773437,-10.1852,0.60211,0.9558,0.146638,0.4261,0.174559
1700754060781250,-9.66252,0.58511,0.78442,0.159938,0.2781,0.194659
1700754060789062,-9.27252,0.56211,0.147442,0.156438,0.681,0.217859
1700754060796875,-8.88352,0.55911,0.178442,0.157538,0.2219,0.231459
1700754060804687,-8.73952,0.56011,0.233442,0.155538,0.5319,0.246459
1700754060812500,-9.2852,0.60711,0.402442,0.158338,0.9379,0.250359
1700754060820312,-9.49352,0.66011,0.495442,0.139838,0.14859,0.242759
1700754060828125,-9.96052,0.69711,0.532442,0.124638,0.17979,0.229359
1700754060835937,-10.33852,0.80211,0.601442,0.111138,0.19379,0.211759
1700754060843750,-10.54352,0.89811,0.633442,0.108838,0.18199,0.171059
1700754060851562,-10.53952,0.91111,0.615442,0.123238,0.17569,0.131859
1700754060859375,-10.37652,0.81911,0.610442,0.149938,0.13989,0.94859
1700754060867187,-10.23952,0.70311,0.687442,0.160238,0.10579,0.38959
1700754060875000,-10.14952,0.61811,0.807442,0.159838,0.9359,0.20741
1700754060882812,-10.16652,0.53411,0.846442,0.128938,0.10219,0.87241
1700754060890625,-10.22352,0.48311,0.853442,0.80238,0.9889,0.181941
1700754060898437,-10.28652,0.49711,0.853442,0.40938,0.10239,0.295841
1700754060906250,-10.31552,0.60111,0.896442,0.4262,0.11629,0.420741
1700754060914062,-10.30052,0.72511,0.887442,0.65862,0.11819,0.564641
1700754060921875,-10.32052,0.79611,0.819442,0.122962,0.13149,0.708641
1700754060929687,-10.37852,0.87311,0.792442,0.157062,0.11669,0.848741
1700754060937500,-10.37352,1.1011,0.763442,0.200562,0.11599,0.976741
1700754060945312,-10.24352,1.15811,0.699442,0.240862,0.9489,-1.113641
1700754060953125,-9.96752,1.25111,0.585442,0.269162,0.7819,-1.236441
1700754060960937,-9.63752,1.31311,0.490442,0.297562,0.7789,-1.357841
1700754060968750,-9.32552,1.31211,0.421442,0.301562,0.6619,-1.478941
1700754060976562,-9.16352,1.23511,0.394442,0.307162,0.6999,-1.597241
1700754060984375,-9.5552,1.15411,0.412442,0.322062,0.8089,-1.709441
1700754060992187,-9.1352,1.7111,0.393442,0.344762,0.10299,-1.818741
1700754061000000,-8.95352,0.87211,0.314442,0.364462,0.11809,-1.921741
1700754061007812,-8.92152,0.57311,0.240442,0.367662,0.13189,-2.7141
1700754061015625,-9.5852,0.28311,0.251442,0.357562,0.12849,-2.58941
1700754061023437,-9.21552,0.1989,0.325442,0.330962,0.12899,-2.99741
1700754061031250,-9.32552,0.39189,0.359442,0.324362,0.13649,-2.132941
1700754061039062,-9.44552,0.76489,0.406442,0.313662,0.14659,-2.139341
1700754061046875,-9.53652,-1.12989,0.494442,0.315062,0.15269,-2.147441
1700754061054687,-9.53352,-1.45789,0.591442,0.310462,0.14809,-2.147241
1700754061062500,-9.43952,-1.71589,0.681442,0.316662,0.15969,-2.149141
1700754061070312,-9.31152,-1.88489,0.763442,0.351662,0.16189,-2.151041
1700754061078125,-9.10452,-2.5189,0.808442,0.366962,0.15859,-2.149441
1700754061085937,-8.85752,-2.25289,0.830442,0.360962,0.15239,-2.138241
1700754061093750,-8.74852,-2.49789,0.916442,0.354162,0.12929,-2.85741
1700754061101562,-8.79852,-2.85789,0.982442,0.318862,0.10789,-2.1541
1700754061109375,-8.90752,-3.29389,0.988442,0.269162,0.7879,-1.865041
1700754061117187,-8.92752,-3.83689,0.970442,0.227462,0.4569,-1.701741
1700754061125000,-8.81152,-4.40589,0.976442,0.178962,0.2249,-1.502441
1700754061132812,-8.67852,-4.92089,-1.80442,0.165462,0.1529,-1.302041
1700754061140625,-8.54752,-5.22289,-1.129442,0.211562,0.4009,-1.113841
1700754061148437,-8.54552,-5.18689,-1.108442,0.257262,0.7769,0.947941
1700754061156250,-8.73452,-4.93689,-1.86442,0.283962,0.11219,0.821241
1700754061164062,-9.352,-4.62189,-1.62442,0.316162,0.12699,0.725641
1700754061171875,-9.23252,-4.38489,-1.26442,0.318662,0.14239,0.675641
1700754061179687,-9.30952,-4.25089,-1.4442,0.312762,0.12769,0.661041
1700754061187500,-9.23252,-4.23989,-1.6442,0.315762,0.13099,0.662741
1700754061195312,-9.8652,-4.33789,-1.54442,0.300162,0.11719,0.678041
1700754061203125,-9.3752,-4.39789,-1.174442,0.305562,0.10749,0.714141
1700754061210937,-9.10552,-4.41689,-1.224442,0.315862,0.10829,0.737941
1700754061218750,-9.13052,-4.47089,-1.172442,0.314262,0.11429,0.747441
1700754061226562,-9.9252,-4.57589,-1.105442,0.297562,0.10839,0.740941
1700754061234375,-8.87052,-4.73689,-1.62442,0.291662,0.9389,0.724841
1700754061242187,-8.75352,-4.90189,-1.118442,0.284362,0.8799,0.700941
1700754061250000,-8.92252,-4.97489,-1.209442,0.287962,0.10579,0.676141
1700754061257812,-8.95452,-5.4789,-1.120442,0.271562,0.12359,0.662241
1700754061265625,-8.75852,-5.16889,-1.33442,0.261162,0.13259,0.649741
1700754061273437,-8.67152,-5.26189,-1.111442,0.270562,0.12299,0.630741
1700754061281250,-8.68452,-5.31489,-1.172442,0.258462,0.12189,0.624341
1700754061289062,-8.92752,-5.29789,-1.259442,0.237462,0.11959,0.603541
1700754061296875,-9.47252,-5.16789,-1.316442,0.227062,0.11889,0.584641
1700754061304687,-10.452,-5.2289,-1.317442,0.222562,0.11589,0.578241
1700754061312500,-10.13652,-4.97889,-1.273442,0.207062,0.8739,0.586941
1700754061320312,-9.53852,-5.12489,-1.127442,0.181962,0.2669,0.604441
1700754061328125,-8.67752,-5.38289,-1.74442,0.158362,0.5611,0.616641
1700754061335937,-8.4552,-5.63489,-1.39442,0.134062,0.10501,0.598141
1700754061343750,-7.70152,-5.79589,0.925442,0.93662,0.13711,0.540541
1700754061351562,-7.58052,-5.83389,0.729442,0.59662,0.15741,0.470541
1700754061359375,-7.56952,-5.86089,0.544442,0.16762,0.17361,0.389441
1700754061367187,-7.69352,-5.90189,0.446442,0.138,0.17661,0.304241
1700754061375000,-7.90852,-5.89189,0.371442,0.14238,0.16701,0.239841
1700754061382812,-8.11552,-5.80489,0.296442,0.37838,0.14481,0.199141
1700754061390625,-8.27852,-5.69889,0.235442,0.43338,0.13541,0.172441
1700754061398437,-8.32652,-5.63989,0.210442,0.38538,0.11661,0.161841
1700754061406250,-8.32252,-5.60489,0.231442,0.18338,0.8961,0.149941
1700754061414062,-8.25952,-5.54889,0.272442,0.13738,0.7121,0.153541
1700754061421875,-8.15752,-5.51589,0.342442,0.6162,0.5801,0.157241
1700754061429687,-8.5152,-5.49789,0.385442,0.9162,0.4811,0.160641
1700754061437500,-7.94852,-5.41689,0.436442,0.23062,0.4981,0.148041
1700754061445312,-7.90352,-5.33889,0.477442,0.30962,0.3761,0.137341
1700754061453125,-7.88152,-5.33989,0.491442,0.32762,0.2901,0.128041
1700754061460937,-7.80952,-5.42989,0.470442,0.29762,0.2861,0.121741
1700754061468750,-7.85952,-5.51889,0.458442,0.48262,0.2221,0.112541
1700754061476562,-8.11952,-5.52589,0.454442,0.55862,0.1721,0.112641
1700754061484375,-8.43552,-5.46289,0.391442,0.54462,0.411,0.112841
1700754061492187,-8.65752,-5.45489,0.306442,0.57462,0.81,0.117741
1700754061500000,-8.69252,-5.51489,0.236442,0.52762,0.251,0.122341
1700754061507812,-8.48152,-5.57189,0.197442,0.57162,0.1981,0.126641
1700754061515625,-8.14052,-5.61989,0.165442,0.66462,0.3121,0.117141
1700754061523437,-7.69252,-5.58989,0.119442,0.59362,0.2951,0.84141
1700754061531250,-7.19652,-5.53189,0.69442,0.61562,0.3301,0.43141
1700754061539062,-6.77352,-5.41789,0.57442,0.55062,0.2561,0.21459
1700754061546875,-6.57352,-5.24689,0.81442,0.49062,0.41,0.104459
1700754061554687,-6.58352,-5.2389,0.81442,0.50062,0.189,0.167559
1700754061562500,-6.81852,-4.76889,0.64442,0.46862,0.1159,0.242959
1700754061570312,-7.27952,-4.47589,0.55442,0.59562,0.749,0.274459
1700754061578125,-7.96452,-4.19189,0.45442,0.65762,0.769,0.277459
1700754061585937,-8.73252,-4.1489,0.13442,0.54762,0.431,0.266759
1700754061593750,-9.32252,-3.96589,0.35558,0.41662,0.2971,0.217059
1700754061601562,-9.65152,-4.1689,0.65558,0.19062,0.6341,0.154859
1700754061609375,-9.76652,-4.13989,0.43442,0.8238,0.11231,0.96259
1700754061617187,-9.75252,-4.31989,0.182442,0.16938,0.15101,0.45059
1700754061625000,-9.70452,-4.51889,0.243442,0.24038,0.16131,0.9841
1700754061632812,-9.75152,-4.71189,0.219442,0.39938,0.15601,0.53941
1700754061640625,-9.84352,-4.83889,0.165442,0.25538,0.15841,0.102741
1700754061648437,-9.76452,-4.93789,0.98442,0.32638,0.17191,0.154441
1700754061656250,-9.47952,-5.9689,0.54442,0.42638,0.17841,0.203141
1700754061664062,-9.26152,-5.28989,0.79442,0.43338,0.18191,0.245541
1700754061671875,-9.11352,-5.48489,0.63442,0.42338,0.16621,0.280641
1700754061679687,-8.95152,-5.62989,0.5442,0.45838,0.15561,0.310741
1700754061687500,-8.70352,-5.75189,0.19558,0.46038,0.14801,0.324941
1700754061695312,-8.36852,-5.87589,0.17558,0.44438,0.14421,0.322041
1700754061703125,-8.11052,-6.1289,0.50442,0.61838,0.12861,0.271741
1700754061710937,-7.93952,-6.8889,0.111442,0.65238,0.11131,0.213841
1700754061718750,-7.81652,-6.1689,0.164442,0.66838,0.8131,0.138841
1700754061726562,-7.77752,-5.86289,0.237442,0.63938,0.6481,0.60441
1700754061734375,-7.90252,-5.67589,0.342442,0.64538,0.5291,0.13441
1700754061742187,-8.12452,-5.47889,0.408442,0.60538,0.3571,0.41259
1700754061750000,-8.22352,-5.31789,0.423442,0.72038,0.3751,0.77659
1700754061757812,-8.21452,-5.20489,0.418442,0.67038,0.4671,0.107859
1700754061765625,-8.11152,-5.8489,0.437442,0.60638,0.5601,0.130059
1700754061773437,-8.152,-4.98589,0.455442,0.61938,0.6371,0.145959
1700754061781250,-7.91552,-4.87589,0.476442,0.60338,0.6701,0.153959
1700754061789062,-7.94852,-4.75789,0.476442,0.60138,0.5681,0.158459
1700754061796875,-8.11752,-4.61289,0.463442,0.37338,0.6381,0.156859
1700754061804687,-8.25752,-4.49989,0.402442,0.35938,0.6611,0.149059
1700754061812500,-8.31252,-4.44089,0.349442,0.34838,0.8341,0.135259
1700754061820312,-8.39252,-4.46089,0.299442,0.38438,0.9981,0.104159
1700754061828125,-8.47952,-4.52389,0.247442,0.37438,0.10081,0.74159
1700754061835937,-8.55352,-4.55389,0.185442,0.36338,0.10681,0.50659
1700754061843750,-8.55152,-4.59089,0.96442,0.40038,0.11981,0.19459
1700754061851562,-8.36252,-4.61989,0.3558,0.39138,0.12621,0.13441
1700754061859375,-8.7752,-4.73289,0.40558,0.47238,0.13521,0.40041
1700754061867187,-7.90152,-4.90689,0.45558,0.64038,0.12851,0.44741
1700754061875000,-7.90052,-5.5489,0.29558,0.53338,0.11001,0.46941
1700754061882812,-7.93552,-5.15089,0.57558,0.60838,0.8651,0.52141
1700754061890625,-7.93852,-5.20089,0.75558,0.57838,0.7201,0.56941
1700754061898437,-7.91952,-5.24889,0.48558,0.39338,0.7011,0.47841
1700754061906250,-7.91952,-5.30989,0.22442,0.57538,0.5971,0.43041
1700754061914062,-7.95052,-5.36289,0.65442,0.57038,0.5721,0.16241
1700754061921875,-7.99852,-5.41689,0.76442,0.64338,0.5751,0.741
1700754061929687,-8.7452,-5.47389,0.117442,0.63938,0.5831,0.24559
1700754061937500,-8.19852,-5.52989,0.156442,0.63738,0.6281,0.38759
1700754061945312,-8.36952,-5.57189,0.208442,0.63538,0.7561,0.54759
1700754061953125,-8.57852,-5.59689,0.210442,0.60338,0.8051,0.64459
1700754061960937,-8.71452,-5.59089,0.188442,0.46638,0.9411,0.70959
1700754061968750,-8.76352,-5.58689,0.178442,0.38938,0.10701,0.77259
1700754061976562,-8.80252,-5.57389,0.169442,0.34338,0.12221,0.85559
1700754061984375,-8.81152,-5.54889,0.165442,0.18938,0.12861,0.99759
1700754061992187,-8.80552,-5.51789,0.129442,0.29238,0.14101,0.125359
1700754062000000,-8.78152,-5.48789,0.101442,0.26038,0.14431,0.133359
1700754062007812,-8.82252,-5.43589,0.86442,0.13638,0.15381,0.150759
1700754062015625,-8.85752,-5.33489,0.61442,0.11938,0.15171,0.160059
1700754062023437,-8.93652,-5.24689,0.49442,0.14538,0.15241,0.185359
1700754062031250,-9.4452,-5.12789,0.0,0.16038,0.15071,0.188559
1700754062039062,-9.552,-4.97489,0.106558,0.15938,0.17041,0.201559
1700754062046875,-8.72352,-4.81789,0.201558,0.32438,0.19101,0.220959
1700754062054687,-8.20052,-4.69389,0.299558,0.53438,0.21471,0.251559
1700754062062500,-7.65752,-4.61189,0.343558,0.63738,0.23841,0.283659
1700754062070312,-7.35952,-4.55089,0.317558,0.79838,0.23351,0.318359
1700754062078125,-7.42952,-4.49389,0.304558,0.83938,0.20721,0.334959
1700754062085937,-7.81652,-4.43089,0.294558,0.79638,0.17161,0.309159
1700754062093750,-8.18952,-4.36189,0.310558,0.60838,0.16101,0.247359
1700754062101562,-8.34052,-4.37589,0.380558,0.71338,0.16401,0.163959
1700754062109375,-8.26652,-4.49889,0.383558,0.82038,0.16891,0.74359
1700754062117187,-8.13952,-4.67389,0.340558,0.85238,0.18051,0.16841
1700754062125000,-8.1352,-4.90089,0.298558,0.95338,0.17091,0.80041
1700754062132812,-7.78652,-5.13089,0.282558,0.96238,0.15471,0.138641
1700754062140625,-7.46452,-5.34589,0.258558,0.95138,0.14541,0.164141
1700754062148437,-7.14952,-5.57389,0.204558,0.94838,0.12181,0.153541
1700754062156250,-7.4852,-5.70689,0.129558,0.92438,0.7531,0.122941
1700754062164062,-7.25052,-5.63889,0.58558,0.85438,0.2861,0.86241
1700754062171875,-7.63752,-5.48689,0.16558,0.82738,0.2399,0.30641
1700754062179687,-8.5152,-5.32489,0.26442,0.87838,0.5779,0.11159
1700754062187500,-8.42952,-5.18689,0.84442,0.65938,0.6039,0.45659
1700754062195312,-8.70952,-5.5089,0.152442,0.82638,0.3599,0.58859
1700754062203125,-8.88652,-4.88189,0.187442,0.82638,0.1609,0.67159
1700754062210937,-8.96052,-4.74889,0.162442,0.99538,0.1541,0.69559
1700754062218750,-8.88552,-4.77289,0.103442,0.113238,0.4331,0.79659
1700754062226562,-8.77952,-4.91489,0.91442,0.124038,0.6181,0.77059
1700754062234375,-8.77652,-5.1089,0.68442,0.111838,0.5371,0.76859
1700754062242187,-8.84052,-4.96589,0.16442,0.112038,0.4591,0.60859
1700754062250000,-8.90252,-4.85589,0.19558,0.99938,0.4811,0.54559
1700754062257812,-8.84952,-4.82989,0.58558,0.88038,0.4761,0.37259
1700754062265625,-8.78252,-4.86189,0.15558,0.86838,0.5631,0.24659
1700754062273437,-8.82352,-4.86989,0.66442,0.63838,0.5141,0.27559
1700754062281250,-8.85752,-4.83289,0.91442,0.74538,0.4101,0.25659
1700754062289062,-8.76752,-4.78989,0.69442,0.82138,0.3281,0.20959
1700754062296875,-8.59252,-4.79689,0.89442,0.82038,0.2581,0.25459
1700754062304687,-8.45952,-4.78689,0.153442,0.75538,0.3161,0.49159
1700754062312500,-8.37452,-4.72589,0.219442,0.85838,0.2421,0.69659
1700754062320312,-8.27652,-4.61589,0.203442,0.97438,0.1751,0.105859
1700754062328125,-8.14152,-4.56389,0.181442,0.104738,0.2851,0.123459
1700754062335937,-8.8052,-4.52089,0.210442,0.104638,0.3171,0.131459
1700754062343750,-8.7852,-4.47989,0.240442,0.110538,0.3091,0.144059
1700754062351562,-8.20052,-4.46489,0.265442,0.109238,0.2461,0.129659
1700754062359375,-8.41552,-4.49689,0.269442,0.110938,0.1661,0.116859
1700754062367187,-8.64852,-4.56589,0.285442,0.111338,0.1761,0.91659
1700754062375000,-8.82152,-4.65089,0.329442,0.111838,0.3221,0.66859
1700754062382812,-8.96452,-4.77589,0.342442,0.111038,0.3531,0.27459
1700754062390625,-9.9152,-4.85489,0.342442,0.90438,0.5091,0.9941
1700754062398437,-9.8752,-4.90989,0.317442,0.91038,0.6701,0.41241
1700754062406250,-8.97352,-4.96289,0.291442,0.82138,0.6931,0.55541
1700754062414062,-8.85352,-5.5889,0.301442,0.68738,0.6891,0.74341
1700754062421875,-8.75852,-5.13489,0.307442,0.64438,0.7111,0.87041
1700754062429687,-8.65452,-5.19889,0.302442,0.61538,0.7161,0.96441
1700754062437500,-8.50852,-5.23389,0.302442,0.43138,0.6841,0.95141
1700754062445312,-8.37452,-5.24689,0.309442,0.38438,0.7341,0.85541
1700754062453125,-8.28852,-5.25989,0.332442,0.21438,0.6491,0.73141
1700754062460937,-8.26452,-5.24189,0.361442,0.16538,0.6741,0.49541
1700754062468750,-8.39452,-5.15289,0.387442,0.12938,0.5971,0.24541
1700754062476562,-8.65352,-5.489,0.398442,0.238,0.5871,0.5159
1700754062484375,-8.89152,-4.86989,0.378442,0.16738,0.6931,0.27659
1700754062492187,-8.98252,-4.80689,0.322442,0.21038,0.9191,0.51759
1700754062500000,-8.95852,-4.78089,0.269442,0.34838,0.12351,0.55759
1700754062507812,-8.87852,-4.79289,0.217442,0.51438,0.14401,0.76659
1700754062515625,-8.80552,-4.81589,0.148442,0.58738,0.14481,0.95659
1700754062523437,-8.75452,-4.79089,0.80442,0.61438,0.15251,0.117959
1700754062531250,-8.66952,-4.72089,0.1442,0.70338,0.16371,0.132559
1700754062539062,-8.59552,-4.62589,0.51558,0.73338,0.16491,0.137259
1700754062546875,-8.56352,-4.52889,0.94558,0.67238,0.16011,0.138759
1700754062554687,-8.62752,-4.45389,0.134558,0.85538,0.15811,0.137259
1700754062562500,-8.71652,-4.41089,0.187558,0.87038,0.14981,0.132359
1700754062570312,-8.80552,-4.31989,0.214558,0.85838,0.14701,0.114859
1700754062578125,-8.77952,-4.23889,0.298558,0.92438,0.15321,0.85159
1700754062585937,-8.67752,-4.22589,0.357558,0.109638,0.16181,0.64859
1700754062593750,-8.65452,-4.27089,0.355558,0.114538,0.15741,0.44259
1700754062601562,-8.63352,-4.33589,0.389558,0.125638,0.15991,0.19259
1700754062609375,-8.61052,-4.37289,0.421558,0.127338,0.15711,0.6659
1700754062617187,-8.54652,-4.40389,0.476558,0.132038,0.14551,0.1441
1700754062625000,-8.47352,-4.48389,0.487558,0.138038,0.14881,0.3559
1700754062632812,-8.47552,-4.56989,0.472558,0.144038,0.13471,0.4559
1700754062640625,-8.51852,-4.64189,0.492558,0.162038,0.12421,0.17259
1700754062648437,-8.54352,-4.64989,0.504558,0.160438,0.10891,0.16859
1700754062656250,-8.52752,-4.60489,0.534558,0.162038,0.11041,0.15259
1700754062664062,-8.40152,-4.54889,0.547558,0.160438,0.11711,0.16959
1700754062671875,-8.24352,-4.53289,0.524558,0.174138,0.12181,0.23559
1700754062679687,-8.11152,-4.54089,0.504558,0.184738,0.11631,0.24959
1700754062687500,-8.3052,-4.53189,0.463558,0.169338,0.10661,0.29559
1700754062695312,-7.97152,-4.53189,0.458558,0.181638,0.9291,0.19659
1700754062703125,-7.94952,-4.48589,0.454558,0.161938,0.8041,0.9959
1700754062710937,-7.89352,-4.43089,0.456558,0.162138,0.7281,0.7541
1700754062718750,-7.87752,-4.42789,0.426558,0.162338,0.6801,0.20341
1700754062726562,-7.98152,-4.47789,0.372558,0.158038,0.6561,0.39241
1700754062734375,-8.17252,-4.51989,0.358558,0.147738,0.6291,0.58441
1700754062742187,-8.28852,-4.55489,0.397558,0.143738,0.6641,0.94441
1700754062750000,-8.32752,-4.52789,0.426558,0.136638,0.8421,0.117741
1700754062757812,-8.34852,-4.48289,0.440558,0.140038,0.11151,0.129741
1700754062765625,-8.36852,-4.50189,0.458558,0.160238,0.12351,0.146741
1700754062773437,-8.37152,-4.58289,0.477558,0.183638,0.15401,0.166441
1700754062781250,-8.52252,-4.66089,0.468558,0.190138,0.17311,0.183241
1700754062789062,-8.75052,-4.69589,0.458558,0.195238,0.18081,0.211441
1700754062796875,-9.4052,-4.68289,0.470558,0.218538,0.18971,0.236241
1700754062804687,-9.55152,-4.60989,0.492558,0.229838,0.19241,0.269241
1700754062812500,-10.10052,-4.53789,0.587558,0.247538,0.20411,0.324041
1700754062820312,-10.38852,-4.54389,0.765558,0.273038,0.21781,0.380241
1700754062828125,-9.88252,-4.78689,1.55558,0.330838,0.25631,0.453141
1700754062835937,-8.74252,-5.26489,1.186558,0.388538,0.31081,0.505241
1700754062843750,-7.57052,-5.93789,0.969558,0.407338,0.34161,0.528041
1700754062851562,-6.61552,-6.53989,0.712558,0.361038,0.28131,0.512341
1700754062859375,-6.11552,-6.82089,0.621558,0.351838,0.16541,0.466041
1700754062867187,-5.98752,-6.82689,0.496558,0.356138,0.5521,0.397341
1700754062875000,-6.14352,-6.65289,0.338558,0.319238,0.3289,0.320741
1700754062882812,-6.42652,-6.35789,0.115558,0.303838,0.8169,0.238541
1700754062890625,-6.55452,-6.5089,0.106442,0.301038,0.8909,0.166141
1700754062898437,-6.57352,-5.78089,0.221442,0.304538,0.11329,0.109941
1700754062906250,-6.61252,-5.58189,0.255442,0.297438,0.11689,0.54841
1700754062914062,-6.75952,-5.37489,0.281442,0.309238,0.11679,0.26541
1700754062921875,-6.97352,-5.12189,0.327442,0.301138,0.9269,0.8659
1700754062929687,-7.23752,-4.90289,0.375442,0.299538,0.7269,0.18559
1700754062937500,-7.49052,-4.76189,0.367442,0.305738,0.4429,0.22359
1700754062945312,-7.62052,-4.70389,0.282442,0.307538,0.2219,0.13359
1700754062953125,-7.60452,-4.71289,0.223442,0.321638,0.811,0.3059
1700754062960937,-7.63552,-4.80289,0.276442,0.322038,0.2441,0.16941
1700754062968750,-7.73752,-4.96789,0.375442,0.309838,0.1781,0.18841
1700754062976562,-7.93852,-5.13189,0.478442,0.302238,0.2189,0.33941
1700754062984375,-8.8952,-5.28189,0.578442,0.268738,0.6409,0.50741
1700754062992187,-8.2652,-5.43789,0.734442,0.237038,0.7419,0.73141
1700754063000000,-7.88552,-5.62389,0.934442,0.194838,0.8749,0.102141
1700754063007812,-7.91252,-5.78989,-1.134442,0.164538,0.10819,0.120141
1700754063015625,-8.23152,-5.81689,-1.282442,0.139938,0.12959,0.119241
1700754063023437,-8.68952,-5.76789,-1.367442,0.118438,0.14969,0.115141
1700754063031250,-9.7752,-5.73889,-1.435442,0.98738,0.15049,0.123141
1700754063039062,-9.38252,-5.78589,-1.511442,0.68538,0.13579,0.135541
1700754063046875,-9.63352,-5.83589,-1.574442,0.53538,0.12839,0.146541
1700754063054687,-9.89652,-5.83289,-1.631442,0.37238,0.11879,0.170041
1700754063062500,-10.17152,-5.77589,-1.679442,0.19238,0.12259,0.189141
1700754063070312,-10.11252,-5.77389,-1.643442,0.18038,0.11199,0.203141
1700754063078125,-9.69352,-5.89489,-1.608442,0.13638,0.8489,0.207341
1700754063085937,-9.32752,-6.289,-1.638442,0.15138,0.6009,0.192541
1700754063093750,-9.31152,-5.88189,-1.679442,0.14538,0.4829,0.152941
1700754063101562,-9.47752,-5.62189,-1.595442,0.32238,0.3989,0.119641
1700754063109375,-9.48952,-5.36289,-1.425442,0.57538,0.2879,0.75141
1700754063117187,-9.29752,-5.20789,-1.270442,0.63438,0.1751,0.51941
1700754063125000,-9.352,-5.13389,-1.218442,0.64638,0.4311,0.23141
1700754063132812,-8.75752,-5.9289,-1.195442,0.74938,0.5221,0.4059
1700754063140625,-8.64952,-5.2089,-1.129442,0.102038,0.5761,0.26359
1700754063148437,-8.60352,-4.90189,-1.52442,0.106238,0.6661,0.50259
1700754063156250,-8.51152,-4.80289,0.957442,0.112438,0.8141,0.52159
1700754063164062,-8.43152,-4.76589,0.939442,0.110938,0.9331,0.54059
1700754063171875,-8.43552,-4.75889,0.932442,0.111138,0.11521,0.49659
1700754063179687,-8.44452,-4.76189,0.902442,0.117438,0.11901,0.38859
1700754063187500,-8.45852,-4.77689,0.854442,0.125238,0.13421,0.34459
1700754063195312,-8.50452,-4.79589,0.820442,0.119338,0.14611,0.23559
1700754063203125,-8.50052,-4.77689,0.761442,0.127338,0.17531,0.11759
1700754063210937,-8.38152,-4.74889,0.672442,0.133738,0.19731,0.5959
1700754063218750,-8.25352,-4.76889,0.617442,0.145738,0.19991,0.15459
1700754063226562,-8.15952,-4.81589,0.553442,0.147238,0.20301,0.17059
1700754063234375,-8.8552,-4.83389,0.524442,0.154738,0.20771,0.29959
1700754063242187,-7.98452,-4.79589,0.494442,0.161938,0.18861,0.45459
1700754063250000,-7.89852,-4.77789,0.456442,0.160238,0.17641,0.51359
1700754063257812,-7.88752,-4.73089,0.453442,0.161638,0.16091,0.55659
1700754063265625,-7.97152,-4.67489,0.456442,0.160038,0.15101,0.53859
1700754063273437,-8.2652,-4.64689,0.438442,0.161438,0.12571,0.53359
1700754063281250,-8.7452,-4.62789,0.442442,0.161438,0.11731,0.48359
1700754063289062,-8.12152,-4.63689,0.492442,0.167738,0.11441,0.35759
1700754063296875,-8.12752,-4.67689,0.519442,0.165038,0.10181,0.15059
1700754063304687,-8.17452,-4.75189,0.553442,0.163538,0.9381,0.5359
1700754063312500,-8.27852,-4.80589,0.567442,0.160738,0.8131,0.13741
1700754063320312,-8.40052,-4.85389,0.567442,0.162638,0.8531,0.32541
1700754063328125,-8.40752,-4.90889,0.544442,0.164238,0.7861,0.40641
1700754063335937,-8.31952,-4.99289,0.524442,0.172038,0.9251,0.46441
1700754063343750,-8.26352,-5.11689,0.557442,0.181238,0.8401,0.48141
1700754063351562,-8.22252,-5.24189,0.566442,0.165838,0.7071,0.47041
1700754063359375,-8.16552,-5.31589,0.580442,0.184138,0.6701,0.48541
1700754063367187,-8.10552,-5.34289,0.595442,0.170338,0.6211,0.47241
1700754063375000,-8.6952,-5.34189,0.605442,0.164138,0.5211,0.44241
1700754063382812,-8.6052,-5.34389,0.650442,0.177738,0.4321,0.38041
1700754063390625,-8.6052,-5.42189,0.687442,0.173138,0.4341,0.36441
1700754063398437,-8.5452,-5.50689,0.739442,0.159438,0.3541,0.41441
1700754063406250,-8.2252,-5.56089,0.798442,0.163938,0.3841,0.33441
1700754063414062,-8.5352,-5.59589,0.859442,0.148638,0.3511,0.30541
1700754063421875,-8.18452,-5.61589,0.912442,0.153138,0.3491,0.27341
1700754063429687,-8.30452,-5.63689,0.921442,0.153038,0.3831,0.24041
1700754063437500,-8.32652,-5.67689,0.934442,0.146938,0.4501,0.20841
1700754063445312,-8.26252,-5.70089,0.955442,0.137638,0.6281,0.3241
1700754063453125,-8.18152,-5.74389,0.963442,0.135738,0.7161,0.21959
1700754063460937,-8.14152,-5.79989,0.957442,0.123038,0.7301,0.52159
1700754063468750,-8.13552,-5.83189,0.925442,0.118038,0.6841,0.77059
1700754063476562,-8.18952,-5.84489,0.890442,0.111338,0.6381,0.111459
1700754063484375,-8.26952,-5.81489,0.891442,0.89638,0.6521,0.133459
1700754063492187,-8.34752,-5.76589,0.889442,0.84738,0.6821,0.152559
1700754063500000,-8.35952,-5.69989,0.877442,0.69338,0.5621,0.158359
1700754063507812,-8.32752,-5.67589,0.873442,0.55438,0.5771,0.167659
1700754063515625,-8.34752,-5.60389,0.900442,0.36938,0.4941,0.178459
1700754063523437,-8.38852,-5.52589,0.923442,0.27638,0.4271,0.184659
1700754063531250,-8.45552,-5.43989,0.921442,0.15038,0.3861,0.208059
1700754063539062,-8.43352,-5.36889,0.923442,0.7338,0.3701,0.207959
1700754063546875,-8.39552,-5.33789,0.928442,0.12862,0.2671,0.226459
1700754063554687,-8.45352,-5.23989,0.951442,0.17762,0.2441,0.248559
1700754063562500,-8.45352,-5.10589,0.926442,0.24362,0.1511,0.271859
1700754063570312,-8.43252,-4.95489,0.924442,0.36662,0.1011,0.279559
1700754063578125,-8.40252,-4.82989,0.927442,0.49162,0.1631,0.300059
1700754063585937,-8.31352,-4.74689,0.945442,0.61462,0.1981,0.304859
1700754063593750,-8.13852,-4.62489,0.941442,0.65962,0.1851,0.301759
1700754063601562,-7.94652,-4.55189,0.941442,0.65862,0.2871,0.298759
1700754063609375,-7.82052,-4.46589,0.932442,0.62662,0.4551,0.292759
1700754063617187,-7.71552,-4.40089,0.900442,0.62262,0.4971,0.270859
1700754063625000,-7.75852,-4.35389,0.891442,0.49762,0.4191,0.250259
1700754063632812,-8.5952,-4.34289,0.894442,0.43062,0.4611,0.220459
1700754063640625,-8.42952,-4.33789,0.842442,0.36362,0.4591,0.182759
1700754063648437,-8.70152,-4.38889,0.728442,0.20262,0.4941,0.131059
1700754063656250,-8.75952,-4.54389,0.627442,0.5362,0.6971,0.71559
1700754063664062,-8.66252,-4.72789,0.570442,0.1362,0.7851,0.19859
1700754063671875,-8.51952,-4.91689,0.551442,0.7038,0.8831,0.25641
1700754063679687,-8.35352,-5.9689,0.537442,0.11938,0.8051,0.46341
1700754063687500,-8.16952,-5.20689,0.498442,0.16738,0.7931,0.57241
1700754063695312,-7.93552,-5.30189,0.482442,0.15138,0.7301,0.60441
1700754063703125,-7.77752,-5.39289,0.509442,0.5838,0.7081,0.48041
1700754063710937,-7.76052,-5.42189,0.563442,0.6762,0.7031,0.27641
1700754063718750,-7.91052,-5.39889,0.627442,0.3438,0.6711,0.2259
1700754063726562,-8.11552,-5.31189,0.634442,0.9238,0.7801,0.24659
1700754063734375,-8.24552,-5.24089,0.621442,0.16538,0.9371,0.45359
1700754063742187,-8.32952,-5.20489,0.573442,0.30138,0.11821,0.61859
1700754063750000,-8.54752,-5.17989,0.516442,0.41038,0.14841,0.59459
1700754063757812,-8.84252,-5.13789,0.450442,0.51738,0.15791,0.62759
1700754063765625,-9.4652,-5.13089,0.364442,0.67238,0.18321,0.57159
1700754063773437,-8.96552,-5.20389,0.239442,0.82638,0.20301,0.56059
1700754063781250,-8.68252,-5.28589,0.170442,0.91938,0.22671,0.50359
1700754063789062,-8.55252,-5.27789,0.163442,0.87338,0.22991,0.55159
1700754063796875,-8.63552,-5.17689,0.156442,0.102138,0.20841,0.76759
1700754063804687,-8.78252,-5.4189,0.100442,0.116738,0.18531,0.106359
1700754063812500,-8.91052,-4.92789,0.50442,0.125238,0.16211,0.131059
1700754063820312,-9.6152,-4.84189,0.64442,0.138538,0.15261,0.154659
1700754063828125,-9.23752,-4.72989,0.153442,0.151738,0.14631,0.181359
1700754063835937,-9.38452,-4.57689,0.195442,0.163438,0.12831,0.206259
1700754063843750,-9.33252,-4.43089,0.211442,0.172138,0.11241,0.224959
1700754063851562,-9.952,-4.32289,0.202442,0.177738,0.9431,0.249759
1700754063859375,-8.60652,-4.30589,0.259442,0.181938,0.9511,0.271959
1700754063867187,-8.30352,-4.30289,0.391442,0.178538,0.6621,0.282359
1700754063875000,-8.22052,-4.24189,0.528442,0.170438,0.4551,0.305559
1700754063882812,-8.28652,-4.14889,0.591442,0.156338,0.821,0.313959
1700754063890625,-8.38952,-4.7189,0.637442,0.147238,0.799,0.302559
1700754063898437,-8.50852,-3.97789,0.676442,0.124738,0.869,0.283359
1700754063906250,-8.58852,-3.89689,0.726442,0.106938,0.441,0.258259
1700754063914062,-8.69652,-3.82689,0.774442,0.108838,0.1721,0.238259
1700754063921875,-8.84952,-3.77289,0.802442,0.95838,0.2731,0.198959
1700754063929687,-8.97952,-3.72789,0.761442,0.88938,0.4921,0.166459
1700754063937500,-8.92052,-3.73989,0.677442,0.86738,0.6931,0.122659
1700754063945312,-8.71552,-3.82089,0.572442,0.89238,0.9801,0.76059
1700754063953125,-8.52552,-3.95389,0.524442,0.89838,0.11081,0.44759
1700754063960937,-8.34452,-4.10889,0.500442,0.85838,0.12051,0.16659
1700754063968750,-8.20752,-4.27189,0.468442,0.77338,0.11851,0.24641
1700754063976562,-8.16052,-4.43789,0.452442,0.70138,0.10811,0.51641
1700754063984375,-8.19052,-4.52889,0.426442,0.64138,0.9001,0.63141
1700754063992187,-8.21852,-4.54489,0.402442,0.50838,0.8341,0.93141
1700754064000000,-8.20952,-4.56689,0.383442,0.45138,0.7771,0.116941
1700754064007812,-8.18252,-4.66289,0.378442,0.44038,0.7371,0.143841
1700754064015625,-8.18552,-4.83489,0.424442,0.42838,0.5441,0.167941
1700754064023437,-8.22952,-4.92789,0.474442,0.38738,0.5741,0.196241
1700754064031250,-8.32652,-4.95289,0.476442,0.28438,0.4681,0.223341
1700754064039062,-8.39852,-4.98389,0.448442,0.39638,0.3931,0.253341
1700754064046875,-8.44252,-5.8089,0.421442,0.34138,0.4741,0.286241
1700754064054687,-8.45152,-5.24589,0.405442,0.45038,0.5111,0.300341
1700754064062500,-8.48352,-5.43889,0.366442,0.62038,0.4301,0.319241
1700754064070312,-8.43852,-5.60589,0.315442,0.71338,0.3821,0.325541
1700754064078125,-8.32552,-5.74689,0.267442,0.71038,0.3581,0.308341
1700754064085937,-8.19152,-5.85289,0.251442,0.91738,0.3211,0.273641
1700754064093750,-8.5452,-5.93889,0.262442,0.93838,0.2491,0.220241
1700754064101562,-7.97952,-5.96489,0.296442,0.106338,0.129,0.157741
1700754064109375,-7.99852,-5.92889,0.344442,0.118738,0.2919,0.91941
1700754064117187,-8.12952,-5.81789,0.424442,0.117738,0.3809,0.37041
1700754064125000,-8.31452,-5.66989,0.495442,0.116838,0.5039,0.14559
1700754064132812,-8.41452,-5.49789,0.593442,0.123638,0.6349,0.58659
1700754064140625,-8.42052,-5.35889,0.675442,0.110838,0.5819,0.96359
1700754064148437,-8.39452,-5.26289,0.762442,0.110338,0.5939,0.124659
1700754064156250,-8.47552,-5.15489,0.867442,0.105438,0.6009,0.143559
1700754064164062,-8.59252,-5.3489,0.906442,0.99138,0.5869,0.152959
1700754064171875,-8.63152,-4.95689,0.911442,0.87138,0.5629,0.145059
1700754064179687,-8.65252,-4.95389,0.888442,0.81038,0.4449,0.146859
1700754064187500,-8.63652,-4.97689,0.886442,0.64538,0.3679,0.135959
1700754064195312,-8.59952,-5.2389,0.876442,0.60038,0.3859,0.134159
1700754064203125,-8.57452,-5.3989,0.863442,0.43138,0.3169,0.140559
1700754064210937,-8.55452,-5.2489,0.847442,0.32338,0.3839,0.148259
1700754064218750,-8.50452,-4.98889,0.844442,0.10938,0.3659,0.147959
1700754064226562,-8.46352,-4.96489,0.863442,0.7362,0.3969,0.150959
1700754064234375,-8.42452,-4.94489,0.879442,0.30262,0.5529,0.149259
1700754064242187,-8.38352,-4.91089,0.904442,0.39462,0.6039,0.150559
1700754064250000,-8.28852,-4.87189,0.931442,0.48462,0.6329,0.140959
1700754064257812,-8.23052,-4.85089,-1.7442,0.79062,0.7429,0.140559
1700754064265625,-8.33952,-4.81989,-1.107442,0.87962,0.7369,0.129459
1700754064273437,-8.52252,-4.71989,-1.162442,0.106262,0.9309,0.119459
1700754064281250,-8.69152,-4.60589,-1.174442,0.109062,0.9079,0.105359
1700754064289062,-8.71952,-4.53389,-1.199442,0.122262,0.8959,0.78459
1700754064296875,-8.65352,-4.52589,-1.247442,0.123362,0.8199,0.53359
1700754064304687,-8.63452,-4.49289,-1.292442,0.125962,0.7739,0.29859
1700754064312500,-8.62752,-4.42289,-1.319442,0.131662,0.8189,0.5859
1700754064320312,-8.57852,-4.37989,-1.297442,0.131162,0.7709,0.22241
1700754064328125,-8.58552,-4.41589,-1.308442,0.126262,0.6799,0.39241
1700754064335937,-8.72252,-4.44189,-1.354442,0.131862,0.6709,0.66141
1700754064343750,-8.74052,-4.46889,-1.345442,0.126962,0.7629,0.89941
1700754064351562,-8.55552,-4.54889,-1.301442,0.123462,0.7549,0.116741
1700754064359375,-8.34152,-4.64289,-1.333442,0.129262,0.6649,0.129141
1700754064367187,-8.24652,-4.69389,-1.378442,0.129362,0.7469,0.127641
1700754064375000,-8.19252,-4.69689,-1.376442,0.130962,0.8629,0.127841
1700754064382812,-8.12652,-4.69289,-1.337442,0.129462,0.9479,0.131241
1700754064390625,-8.7152,-4.67389,-1.328442,0.133962,0.9469,0.132941
1700754064398437,-7.95152,-4.68789,-1.332442,0.142962,0.9429,0.140941
1700754064406250,-7.80352,-4.74989,-1.350442,0.153462,0.8719,0.148741
1700754064414062,-7.72952,-4.82389,-1.377442,0.154962,0.8719,0.153541
1700754064421875,-7.70152,-4.85789,-1.382442,0.162362,0.9639,0.171141
1700754064429687,-7.81452,-4.92389,-1.389442,0.178962,0.10049,0.180641
1700754064437500,-8.10252,-4.94789,-1.394442,0.199962,0.9739,0.196341
1700754064445312,-8.15552,-5.889,-1.300442,0.201062,0.9499,0.221641
1700754064453125,-7.93852,-5.16289,-1.222442,0.208362,0.7589,0.237041
1700754064460937,-7.84852,-5.30089,-1.233442,0.227762,0.5599,0.252341
1700754064468750,-7.93352,-5.39089,-1.208442,0.226162,0.4599,0.255441
1700754064476562,-8.18652,-5.41389,-1.142442,0.223062,0.4439,0.258541
1700754064484375,-8.72252,-5.31589,-1.83442,0.238262,0.5239,0.260341
1700754064492187,-9.39152,-5.14989,-1.38442,0.261062,0.6309,0.266941
1700754064500000,-9.92752,-5.2289,0.989442,0.256162,0.6249,0.287441
1700754064507812,-9.96752,-5.6089,0.845442,0.249362,0.5749,0.329741
1700754064515625,-9.39052,-5.30389,0.667442,0.246762,0.3049,0.382841
1700754064523437,-8.59252,-5.58889,0.575442,0.248862,0.1321,0.422841
1700754064531250,-7.95552,-5.74889,0.535442,0.245562,0.3341,0.428741
1700754064539062,-7.53252,-5.72789,0.422442,0.219962,0.2741,0.411241
1700754064546875,-7.26752,-5.63689,0.244442,0.197862,0.1051,0.371941
1700754064554687,-7.12952,-5.57389,0.105442,0.189562,0.1499,0.330041
1700754064562500,-7.14552,-5.54489,0.48442,0.176662,0.4379,0.294341
1700754064570312,-7.28152,-5.48689,0.67442,0.165362,0.6579,0.252241
1700754064578125,-7.50852,-5.46289,0.103442,0.153662,0.9239,0.229141
1700754064585937,-7.74352,-5.51789,0.153442,0.154162,0.10669,0.205841
1700754064593750,-7.92552,-5.66289,0.221442,0.150162,0.12609,0.177741
1700754064601562,-8.852,-5.81089,0.339442,0.155062,0.11529,0.158741
1700754064609375,-8.5652,-5.80989,0.437442,0.140162,0.10979,0.134941
1700754064617187,-8.13552,-5.63489,0.490442,0.132962,0.8439,0.98041
1700754064625000,-8.30852,-5.43889,0.507442,0.121262,0.6409,0.61241
1700754064632812,-8.44652,-5.28789,0.411442,0.105062,0.3739,0.22841
1700754064640625,-8.34852,-5.19689,0.239442,0.91462,0.779,0.4641
1700754064648437,-7.96052,-5.19889,0.67442,0.63862,0.2821,0.959
1700754064656250,-7.42052,-5.28789,0.18558,0.57662,0.7011,0.11459
1700754064664062,-6.96052,-5.36089,0.80558,0.56262,0.7331,0.16359
1700754064671875,-6.69852,-5.36789,0.130558,0.44362,0.6221,0.28659
1700754064679687,-6.70652,-5.35889,0.126558,0.49262,0.3681,0.39159
1700754064687500,-6.90952,-5.36089,0.108558,0.58662,0.471,0.43059
1700754064695312,-7.21052,-5.36589,0.35558,0.66262,0.2999,0.31259
1700754064703125,-7.56652,-5.34989,0.58442,0.78062,0.4699,0.741
1700754064710937,-8.2952,-5.33689,0.136442,0.89662,0.5529,0.35441
1700754064718750,-8.53052,-5.31489,0.216442,0.107662,0.6269,0.57941
1700754064726562,-8.96352,-5.27789,0.257442,0.105462,0.5949,0.95641
1700754064734375,-9.22152,-5.30789,0.286442,0.105962,0.4559,0.148941
1700754064742187,-9.27652,-5.38589,0.327442,0.103662,0.2609,0.188041
1700754064750000,-9.27252,-5.49789,0.372442,0.104362,0.229,0.231541
1700754064757812,-9.21752,-5.59689,0.395442,0.89962,0.2201,0.260841
1700754064765625,-9.6852,-5.70789,0.329442,0.77462,0.3411,0.273141
1700754064773437,-8.86652,-5.86689,0.248442,0.77362,0.5751,0.272641
1700754064781250,-8.67752,-6.1689,0.194442,0.76062,0.8881,0.249841
1700754064789062,-8.54952,-6.11689,0.164442,0.69062,0.7731,0.216941
1700754064796875,-8.49852,-6.15289,0.157442,0.59262,0.7331,0.166641
1700754064804687,-8.46652,-6.15989,0.125442,0.55462,0.5981,0.124341
1700754064812500,-8.35752,-6.17289,0.88442,0.57862,0.5141,0.77241
1700754064820312,-8.24252,-6.17789,0.118442,0.73662,0.5361,0.39541
1700754064828125,-8.24752,-6.10889,0.184442,0.83562,0.4201,0.1059
1700754064835937,-8.28852,-5.97289,0.198442,0.84462,0.2051,0.43259
1700754064843750,-8.20952,-5.79989,0.178442,0.87962,0.2291,0.71759
1700754064851562,-8.10452,-5.60889,0.187442,0.109662,0.2221,0.93459
1700754064859375,-7.95252,-5.42589,0.219442,0.114862,0.2251,0.129659
1700754064867187,-7.69652,-5.32289,0.274442,0.107562,0.1691,0.143859
1700754064875000,-7.45652,-5.31889,0.354442,0.114062,0.29,0.162359
1700754064882812,-7.38552,-5.31289,0.420442,0.114662,0.1349,0.191959
1700754064890625,-7.46452,-5.21189,0.500442,0.113462,0.3399,0.208959
1700754064898437,-7.60252,-5.4889,0.569442,0.129062,0.5959,0.216059
1700754064906250,-7.74752,-4.89189,0.622442,0.136562,0.5389,0.211559
1700754064914062,-7.90452,-4.78389,0.654442,0.134862,0.5539,0.200359
1700754064921875,-8.352,-4.73389,0.640442,0.134262,0.3249,0.177259
1700754064929687,-8.552,-4.73589,0.604442,0.117062,0.2849,0.149059
1700754064937500,-7.96152,-4.78789,0.619442,0.118062,0.1589,0.125659
1700754064945312,-7.96552,-4.84389,0.649442,0.126662,0.279,0.95959
1700754064953125,-8.3552,-4.86689,0.647442,0.112462,0.461,0.74159
1700754064960937,-8.14352,-4.87989,0.619442,0.106062,0.1201,0.55559
1700754064968750,-8.32952,-4.86989,0.576442,0.89162,0.1511,0.49359
1700754064976562,-8.50652,-4.84989,0.558442,0.84162,0.4421,0.34259
1700754064984375,-8.60352,-4.86689,0.524442,0.77562,0.5511,0.9359
1700754064992187,-8.61652,-4.95689,0.453442,0.64862,0.6131,0.20241
1700754065000000,-8.50552,-5.8889,0.405442,0.41462,0.7341,0.43541
1700754065007812,-8.32252,-5.25189,0.364442,0.30562,0.10021,0.49241
1700754065015625,-8.13052,-5.39489,0.329442,0.24262,0.10391,0.58541
1700754065023437,-8.2252,-5.46989,0.304442,0.16762,0.9021,0.58841
1700754065031250,-8.1752,-5.49889,0.258442,0.15362,0.9151,0.49341
1700754065039062,-8.8552,-5.48889,0.210442,0.12362,0.9281,0.47841
1700754065046875,-8.12052,-5.49589,0.165442,0.4862,0.9111,0.39741
1700754065054687,-8.17452,-5.49489,0.163442,0.13038,0.8641,0.19341
1700754065062500,-8.18152,-5.48389,0.160442,0.14338,0.8911,0.5041
1700754065070312,-8.13552,-5.50489,0.151442,0.21838,0.9531,0.6159
1700754065078125,-8.14152,-5.57089,0.174442,0.29138,0.9441,0.25059
1700754065085937,-8.24152,-5.59189,0.192442,0.28838,0.9731,0.39359
1700754065093750,-8.36652,-5.54189,0.197442,0.45438,0.10001,0.53859
1700754065101562,-8.44452,-5.48289,0.190442,0.46938,0.9981,0.52159
1700754065109375,-8.47952,-5.49489,0.179442,0.45438,0.10781,0.56959
1700754065117187,-8.50852,-5.57089,0.192442,0.59038,0.11401,0.65059
1700754065125000,-8.47352,-5.62189,0.169442,0.64938,0.11851,0.76159
1700754065132812,-8.41252,-5.63689,0.151442,0.59938,0.13101,0.104859
1700754065140625,-8.29252,-5.66089,0.105442,0.68838,0.14191,0.128859
1700754065148437,-8.17452,-5.67889,0.69442,0.62338,0.14621,0.154159
1700754065156250,-8.16252,-5.67089,0.66442,0.63738,0.14561,0.157059
1700754065164062,-8.24052,-5.63789,0.76442,0.61938,0.14031,0.174559
1700754065171875,-8.28152,-5.57589,0.48442,0.63138,0.13771,0.188459
1700754065179687,-8.23052,-5.54189,0.19442,0.70838,0.13451,0.186959
1700754065187500,-8.28652,-5.52689,0.49442,0.61438,0.12901,0.197759
1700754065195312,-8.37852,-5.43189,0.67442,0.61338,0.12531,0.205559
1700754065203125,-8.32552,-5.31989,0.13442,0.61138,0.12521,0.211859
1700754065210937,-8.16152,-5.23489,0.25558,0.60938,0.13791,0.229459
1700754065218750,-7.98752,-5.20389,0.32558,0.59338,0.14271,0.235859
1700754065226562,-7.80652,-5.18589,0.45558,0.68138,0.14841,0.259659
1700754065234375,-7.62552,-5.15189,0.64558,0.61838,0.13301,0.265459
1700754065242187,-7.48752,-5.16989,0.77558,0.61738,0.12131,0.266959
1700754065250000,-7.41252,-5.19789,0.66558,0.58738,0.10511,0.257159
1700754065257812,-7.47552,-5.21889,0.9558,0.36138,0.7771,0.234259
1700754065265625,-7.68852,-5.22489,0.65442,0.25638,0.6511,0.218259
1700754065273437,-7.88452,-5.21989,0.90442,0.12538,0.5331,0.176759
1700754065281250,-8.2752,-5.26489,0.92442,0.11738,0.5991,0.137559
1700754065289062,-8.13252,-5.35889,0.90442,0.5762,0.7031,0.96759
1700754065296875,-8.20452,-5.43489,0.88442,0.4038,0.8001,0.62359
1700754065304687,-8.23952,-5.54389,0.76442,0.10638,0.8291,0.31059
1700754065312500,-8.28452,-5.68789,0.53442,0.8038,0.7871,0.5659
1700754065320312,-8.29252,-5.81689,0.16442,0.17238,0.7691,0.2559
1700754065328125,-8.25052,-5.88889,0.25442,0.29238,0.7791,0.13659
1700754065335937,-8.22752,-5.95689,0.48442,0.35038,0.7421,0.27959
1700754065343750,-8.27952,-5.98689,0.55442,0.37638,0.5821,0.49659
1700754065351562,-8.46752,-5.92389,0.41442,0.55138,0.3941,0.87159
1700754065359375,-8.76052,-5.71289,0.51442,0.62038,0.2741,0.129459
1700754065367187,-9.552,-5.47089,0.10442,0.65938,0.2751,0.164059
1700754065375000,-9.7852,-5.27389,0.20558,0.94238,0.4881,0.210459
1700754065382812,-9.6652,-5.8889,0.45558,0.107538,0.6221,0.243859
1700754065390625,-9.1852,-4.95089,0.54558,0.131238,0.7851,0.286859
1700754065398437,-8.96352,-4.81589,0.60558,0.165838,0.10151,0.325359
1700754065406250,-8.92952,-4.70189,0.89558,0.191238,0.11021,0.357459
1700754065414062,-8.82152,-4.61089,0.117558,0.212438,0.11111,0.363859
1700754065421875,-8.69152,-4.55389,0.139558,0.232038,0.11021,0.381359
1700754065429687,-8.47252,-4.53489,0.160558,0.245638,0.10661,0.383059
1700754065437500,-8.17652,-4.57289,0.165558,0.253238,0.10421,0.387559
1700754065445312,-7.92252,-4.61789,0.133558,0.247038,0.9741,0.388859
1700754065453125,-7.85052,-4.59089,0.62558,0.225238,0.7051,0.403959
1700754065460937,-7.98352,-4.48189,0.10558,0.214438,0.4571,0.403459
1700754065468750,-8.22352,-4.30689,0.10442,0.200738,0.4111,0.400159
1700754065476562,-8.41052,-4.19789,0.17442,0.184338,0.4031,0.382559
1700754065484375,-8.48152,-4.16589,0.40442,0.180338,0.4691,0.348159
1700754065492187,-8.48052,-4.21589,0.97442,0.179438,0.5461,0.316659
1700754065500000,-8.37952,-4.33089,0.160442,0.163438,0.5491,0.272359
1700754065507812,-8.29952,-4.44889,0.220442,0.156438,0.5541,0.230059
1700754065515625,-8.28652,-4.53289,0.279442,0.152338,0.5641,0.204759
1700754065523437,-8.26552,-4.56189,0.294442,0.119338,0.5161,0.169759
1700754065531250,-8.24452,-4.60689,0.306442,0.107738,0.4461,0.136359
1700754065539062,-8.23252,-4.65989,0.328442,0.91538,0.4771,0.104759
1700754065546875,-8.23352,-4.71389,0.346442,0.78238,0.4251,0.73059
1700754065554687,-8.21052,-4.78989,0.367442,0.55838,0.4741,0.47859
1700754065562500,-8.16152,-4.84989,0.364442,0.44038,0.4681,0.24059
1700754065570312,-8.20852,-4.91389,0.382442,0.30638,0.3931,0.6459
1700754065578125,-8.33552,-4.91489,0.376442,0.8038,0.2721,0.14441
1700754065585937,-8.36352,-4.87989,0.319442,0.11138,0.2431,0.20541
1700754065593750,-8.32952,-4.87289,0.303442,0.3938,0.2691,0.42641
1700754065601562,-8.36052,-4.92589,0.335442,0.9762,0.1071,0.51041
1700754065609375,-8.37552,-4.98589,0.357442,0.5162,0.381,0.52741
1700754065617187,-8.40652,-5.5089,0.382442,0.6462,0.369,0.70141
1700754065625000,-8.50552,-5.8889,0.412442,0.9362,0.1849,0.81641
1700754065632812,-8.67552,-5.8689,0.453442,0.21462,0.2959,0.92941
1700754065640625,-8.80052,-5.6289,0.469442,0.16762,0.2279,0.99041
1700754065648437,-8.86652,-5.3289,0.458442,0.12062,0.1749,0.105241
1700754065656250,-8.86652,-5.1289,0.444442,0.5962,0.51,0.96941
1700754065664062,-8.84152,-4.98789,0.442442,0.9262,0.2481,0.76041
1700754065671875,-8.83352,-4.96189,0.428442,0.5738,0.5071,0.50041
1700754065679687,-8.81252,-4.94189,0.382442,0.22138,0.6591,0.22941
1700754065687500,-8.80752,-4.91589,0.330442,0.29338,0.7671,0.7459
1700754065695312,-8.86652,-4.86189,0.276442,0.37938,0.9681,0.47259
1700754065703125,-8.90652,-4.76589,0.226442,0.37538,0.11261,0.71159
1700754065710937,-8.85052,-4.66589,0.140442,0.55838,0.13211,0.78059
1700754065718750,-8.78852,-4.58189,0.76442,0.63438,0.13851,0.82959
1700754065726562,-8.75052,-4.51389,0.30442,0.61638,0.14291,0.98759
1700754065734375,-8.71752,-4.45189,0.17442,0.70638,0.13901,0.108159
1700754065742187,-8.72652,-4.43589,0.16558,0.78438,0.12761,0.95459
1700754065750000,-8.78852,-4.39589,0.32558,0.87638,0.11921,0.90559
1700754065757812,-8.85352,-4.30989,0.54558,0.87738,0.12621,0.86059
1700754065765625,-8.88952,-4.19889,0.100558,0.92438,0.13481,0.81559
1700754065773437,-8.89652,-4.8389,0.134558,0.95538,0.13451,0.78359
1700754065781250,-8.84552,-3.99989,0.177558,0.109438,0.14461,0.70759
1700754065789062,-8.79452,-3.95689,0.199558,0.127838,0.14811,0.63159
1700754065796875,-8.75552,-3.95489,0.206558,0.146338,0.15291,0.55459
1700754065804687,-8.66952,-3.97189,0.229558,0.158738,0.16991,0.49659
1700754065812500,-8.61652,-4.2889,0.245558,0.165138,0.17371,0.34059
1700754065820312,-8.59652,-4.10989,0.273558,0.180538,0.17001,0.22859
1700754065828125,-8.63052,-4.20889,0.282558,0.185238,0.17221,0.15159
1700754065835937,-8.73552,-4.27389,0.289558,0.187138,0.17471,0.6841
1700754065843750,-8.74652,-4.32589,0.328558,0.187338,0.16351,0.21241
1700754065851562,-8.69852,-4.38689,0.362558,0.196738,0.17251,0.36641
1700754065859375,-8.66052,-4.46389,0.378558,0.209038,0.17701,0.39841
1700754065867187,-8.66452,-4.53389,0.379558,0.212238,0.18731,0.45841
1700754065875000,-8.63452,-4.60789,0.390558,0.210638,0.18391,0.37941
1700754065882812,-8.54552,-4.62689,0.422558,0.213638,0.18201,0.39641
1700754065890625,-8.43752,-4.60189,0.436558,0.219738,0.18381,0.39441
1700754065898437,-8.31052,-4.60089,0.431558,0.215038,0.18841,0.28441
1700754065906250,-8.21052,-4.63389,0.433558,0.219538,0.19151,0.23541
1700754065914062,-8.18952,-4.66489,0.431558,0.218038,0.18331,0.26941
1700754065921875,-8.16352,-4.70989,0.456558,0.225538,0.18451,0.18941
1700754065929687,-8.12152,-4.75889,0.461558,0.224138,0.18621,0.25341
1700754065937500,-8.9852,-4.82389,0.475558,0.227138,0.18291,0.25341
1700754065945312,-8.8052,-4.87189,0.489558,0.231638,0.18791,0.20341
1700754065953125,-8.11352,-4.89989,0.484558,0.236238,0.18111,0.22041
1700754065960937,-8.21352,-4.91989,0.502558,0.234838,0.18491,0.29841
1700754065968750,-8.52852,-4.90389,0.477558,0.239438,0.17461,0.34841
1700754065976562,-9.34152,-4.74789,0.379558,0.239538,0.17171,0.39541
1700754065984375,-10.20752,-4.47089,0.394558,0.233538,0.15851,0.52641
1700754065992187,-10.82452,-4.21889,0.523558,0.251038,0.14991,0.96741
1700754066000000,-10.71852,-4.18989,0.855558,0.277038,0.18801,0.179141
1700754066007812,-9.83852,-4.48289,1.177558,0.350438,0.24701,0.264141
1700754066015625,-8.75152,-5.289,1.92558,0.419138,0.29211,0.339941
1700754066023437,-7.72952,-5.78889,0.646558,0.415238,0.29001,0.381141
1700754066031250,-6.91452,-6.51989,0.324558,0.326338,0.18811,0.386941
1700754066039062,-6.43552,-6.81089,0.280558,0.291538,0.5661,0.364741
1700754066046875,-6.18452,-6.80789,0.207558,0.279438,0.5249,0.318341
1700754066054687,-6.22252,-6.64789,0.86558,0.204538,0.13639,0.243441
1700754066062500,-6.54052,-6.38989,0.160442,0.161838,0.19679,0.177241
1700754066070312,-6.91452,-6.3089,0.393442,0.149838,0.23279,0.107141
1700754066078125,-7.28452,-5.67289,0.476442,0.136638,0.24639,0.52341
1700754066085937,-7.58952,-5.38189,0.509442,0.126738,0.23289,0.6441
1700754066093750,-7.87552,-5.9889,0.537442,0.114038,0.18599,0.41559
1700754066101562,-8.19252,-4.77589,0.601442,0.109438,0.14749,0.55059
1700754066109375,-8.45552,-4.46089,0.614442,0.117338,0.8399,0.64459
1700754066117187,-8.62752,-4.24489,0.559442,0.143338,0.5279,0.68359
1700754066125000,-8.63352,-4.16489,0.464442,0.165238,0.1111,0.58859
1700754066132812,-8.49252,-4.19289,0.405442,0.187338,0.7211,0.35059
1700754066140625,-8.33552,-4.28489,0.386442,0.203438,0.11711,0.1541
1700754066148437,-8.22852,-4.43989,0.388442,0.219438,0.12991,0.40641
1700754066156250,-8.11052,-4.59489,0.328442,0.232138,0.14221,0.65641
1700754066164062,-7.94852,-4.73589,0.255442,0.237538,0.16261,0.109041
1700754066171875,-7.75452,-4.87389,0.198442,0.232138,0.17551,0.140441
1700754066179687,-7.56252,-5.1689,0.207442,0.228038,0.17861,0.171841
1700754066187500,-7.41652,-5.19689,0.233442,0.220738,0.18081,0.189341
1700754066195312,-7.30252,-5.37089,0.258442,0.213138,0.16991,0.194141
1700754066203125,-7.32252,-5.48089,0.303442,0.200538,0.15551,0.174241
1700754066210937,-7.51152,-5.45289,0.370442,0.186238,0.14681,0.145941
1700754066218750,-7.77852,-5.32889,0.411442,0.175038,0.12411,0.122941
1700754066226562,-7.98152,-5.18689,0.443442,0.166938,0.11451,0.94941
1700754066234375,-8.17952,-5.4789,0.510442,0.161738,0.9481,0.62341
1700754066242187,-8.37352,-4.95189,0.610442,0.162938,0.8431,0.49941
1700754066250000,-8.46052,-4.88889,0.692442,0.161338,0.7261,0.48541
1700754066257812,-8.45852,-4.90089,0.763442,0.162738,0.6391,0.47241
1700754066265625,-8.41952,-4.94289,0.824442,0.162738,0.6251,0.48741
1700754066273437,-8.41752,-4.98289,0.874442,0.162738,0.4921,0.50541
1700754066281250,-8.55452,-5.4989,0.945442,0.161338,0.3801,0.63441
1700754066289062,-8.80452,-5.11489,0.963442,0.162838,0.261,0.70541
1700754066296875,-9.5252,-5.17889,0.983442,0.161538,0.499,0.89641
1700754066304687,-9.28152,-5.22289,-1.11442,0.163438,0.2229,0.119841
1700754066312500,-9.59252,-5.26889,-1.83442,0.153038,0.3839,0.139341
1700754066320312,-9.84452,-5.30889,-1.141442,0.156438,0.5409,0.164741
1700754066328125,-9.85252,-5.36989,-1.161442,0.166238,0.6119,0.209041
1700754066335937,-9.63352,-5.51189,-1.192442,0.163638,0.5679,0.229341
1700754066343750,-9.40952,-5.62089,-1.251442,0.166838,0.5149,0.240241
1700754066351562,-9.27752,-5.65189,-1.288442,0.162138,0.5339,0.229241
1700754066359375,-9.24952,-5.61489,-1.317442,0.175538,0.5419,0.215041
1700754066367187,-9.20052,-5.49489,-1.290442,0.187438,0.4859,0.195941
1700754066375000,-9.12152,-5.35789,-1.259442,0.202538,0.2759,0.176441
1700754066382812,-9.8252,-5.19389,-1.250442,0.209738,0.389,0.142841
1700754066390625,-9.5052,-5.1589,-1.221442,0.208038,0.2411,0.123241
1700754066398437,-8.93752,-4.82189,-1.151442,0.224438,0.4141,0.99141
1700754066406250,-8.73152,-4.69989,-1.71442,0.239438,0.6861,0.71641
1700754066414062,-8.54752,-4.64989,-1.28442,0.242138,0.9591,0.44441
1700754066421875,-8.44152,-4.65889,-1.25442,0.250738,0.12591,0.3559
1700754066429687,-8.42352,-4.67889,-1.5442,0.260738,0.13261,0.44859
1700754066437500,-8.49152,-4.65589,0.948442,0.256838,0.12271,0.87159
1700754066445312,-8.54852,-4.57489,0.868442,0.258238,0.14191,0.106359
1700754066453125,-8.54552,-4.47989,0.803442,0.256638,0.15681,0.116259
1700754066460937,-8.49952,-4.40989,0.751442,0.258138,0.17041,0.119859
1700754066468750,-8.48152,-4.37789,0.712442,0.256838,0.18051,0.110359
1700754066476562,-8.43752,-4.35589,0.655442,0.258538,0.19061,0.105759
1700754066484375,-8.33452,-4.33489,0.602442,0.257238,0.19961,0.94959
1700754066492187,-8.18352,-4.29989,0.571442,0.249938,0.21041,0.81059
1700754066500000,-8.4952,-4.28789,0.555442,0.250138,0.21281,0.65359
1700754066507812,-7.99752,-4.32689,0.530442,0.256438,0.20981,0.54359
1700754066515625,-7.97152,-4.37389,0.516442,0.253538,0.19181,0.36559
1700754066523437,-7.98752,-4.40989,0.491442,0.258538,0.18101,0.12759
1700754066531250,-8.2052,-4.46489,0.493442,0.260438,0.17711,0.14041
1700754066539062,-8.5352,-4.56489,0.495442,0.253138,0.15951,0.38141
1700754066546875,-8.5152,-4.67889,0.511442,0.248838,0.15371,0.57241
1700754066554687,-8.9552,-4.78489,0.517442,0.241538,0.13781,0.81241
1700754066562500,-8.20052,-4.87489,0.556442,0.234238,0.12711,0.105141
1700754066570312,-8.31052,-4.98189,0.560442,0.234638,0.11961,0.128941
1700754066578125,-8.36552,-5.8189,0.535442,0.216438,0.10361,0.142041
1700754066585937,-8.34652,-5.21189,0.541442,0.212138,0.9111,0.159641
1700754066593750,-8.26152,-5.35389,0.550442,0.204438,0.7911,0.161741
1700754066601562,-8.17952,-5.48989,0.598442,0.187538,0.6621,0.158741
1700754066609375,-8.13452,-5.60389,0.645442,0.175138,0.6121,0.149441
1700754066617187,-8.9752,-5.66189,0.670442,0.165438,0.4501,0.121541
1700754066625000,-8.7452,-5.68689,0.711442,0.152838,0.3451,0.102941
1700754066632812,-8.8052,-5.69889,0.777442,0.133938,0.3461,0.63941
1700754066640625,-8.7152,-5.70889,0.834442,0.119638,0.1901,0.37441
1700754066648437,-8.7652,-5.72589,0.879442,0.109938,0.1471,0.4441
1700754066656250,-8.2652,-5.72989,0.907442,0.89738,0.2461,0.17859
1700754066664062,-7.97852,-5.73389,0.939442,0.69638,0.2421,0.34859
1700754066671875,-7.97852,-5.73389,0.995442,0.54138,0.2711,0.53759
1700754066679687,-8.4352,-5.68689,-1.30442,0.40238,0.3381,0.64859
1700754066687500,-8.13152,-5.60489,-1.37442,0.28038,0.3871,0.67859
1700754066695312,-8.15352,-5.52289,-1.7442,0.12738,0.4591,0.71259
1700754066703125,-8.12652,-5.48689,0.964442,0.9862,0.5801,0.63259
1700754066710937,-8.14052,-5.46189,0.948442,0.15862,0.6181,0.60259
1700754066718750,-8.19252,-5.45089,0.919442,0.21862,0.6901,0.54059
1700754066726562,-8.21852,-5.41489,0.841442,0.20262,0.7231,0.50959
1700754066734375,-8.20252,-5.38389,0.775442,0.15662,0.8411,0.52859
1700754066742187,-8.19152,-5.39289,0.723442,0.9562,0.9401,0.56359
1700754066750000,-8.20952,-5.43089,0.677442,0.6462,0.10061,0.58059
1700754066757812,-8.25152,-5.43489,0.664442,0.9838,0.8101,0.75059
1700754066765625,-8.25852,-5.39689,0.614442,0.20338,0.7671,0.87559
1700754066773437,-8.21752,-5.40089,0.611442,0.36838,0.7051,0.101559
1700754066781250,-8.11752,-5.44789,0.586442,0.42538,0.5491,0.118759
1700754066789062,-8.252,-5.48989,0.602442,0.46838,0.5441,0.134659
1700754066796875,-8.8352,-5.47689,0.659442,0.52538,0.4341,0.153259
1700754066804687,-8.40652,-5.36089,0.691442,0.61238,0.1891,0.170159
1700754066812500,-8.63152,-5.18289,0.680442,0.60938,0.1341,0.185859
1700754066820312,-8.57352,-5.6989,0.619442,0.59238,0.641,0.191859
1700754066828125,-8.34352,-5.5089,0.646442,0.63738,0.1131,0.198459
1700754066835937,-8.14652,-5.3789,0.731442,0.60438,0.921,0.212559
1700754066843750,-8.8852,-4.99589,0.831442,0.47838,0.1619,0.227859
1700754066851562,-8.13852,-4.89389,0.863442,0.38438,0.3029,0.238259
1700754066859375,-8.29252,-4.77389,0.879442,0.33838,0.4009,0.234959
1700754066867187,-8.56652,-4.63289,0.905442,0.25138,0.2399,0.216259
1700754066875000,-8.79252,-4.52789,0.910442,0.12038,0.559,0.185159
1700754066882812,-8.89852,-4.50989,0.873442,0.14238,0.1071,0.152459
1700754066890625,-8.93152,-4.56589,0.832442,0.13738,0.3961,0.101059
1700754066898437,-8.87152,-4.67989,0.800442,0.12938,0.5441,0.65059
1700754066906250,-8.76352,-4.82189,0.752442,0.15238,0.6461,0.22859
1700754066914062,-8.64352,-4.96289,0.704442,0.14438,0.6801,0.18041
1700754066921875,-8.52452,-5.6589,0.674442,0.16338,0.7361,0.38441
1700754066929687,-8.52352,-5.11489,0.667442,0.4138,0.7401,0.40041
1700754066937500,-8.60552,-5.10589,0.647442,0.1962,0.6921,0.40141
1700754066945312,-8.63352,-5.8789,0.606442,0.9938,0.6821,0.19541
1700754066953125,-8.58652,-5.6589,0.567442,0.12438,0.7881,0.12259
1700754066960937,-8.46652,-5.2589,0.551442,0.14938,0.8061,0.48459
1700754066968750,-8.32952,-4.99689,0.551442,0.15738,0.7431,0.87859
1700754066976562,-8.25052,-4.91889,0.588442,0.18038,0.6081,0.126959
1700754066984375,-8.28152,-4.80689,0.613442,0.31038,0.4901,0.162959
1700754066992187,-8.39252,-4.64989,0.611442,0.36338,0.2191,0.204959
1700754067000000,-8.54352,-4.47789,0.625442,0.46438,0.551,0.229759
1700754067007812,-8.66552,-4.31789,0.626442,0.57038,0.979,0.231159
1700754067015625,-8.62852,-4.24089,0.628442,0.61738,0.711,0.228459
1700754067023437,-8.45352,-4.25389,0.639442,0.78538,0.659,0.218659
1700754067031250,-8.25652,-4.32389,0.680442,0.84638,0.1799,0.213959
1700754067039062,-8.11652,-4.41389,0.755442,0.86038,0.3849,0.213359
1700754067046875,-8.5952,-4.47289,0.834442,0.84538,0.5169,0.209959
1700754067054687,-8.5152,-4.46989,0.900442,0.82738,0.8069,0.213859
1700754067062500,-8.10452,-4.42189,0.957442,0.84238,0.9579,0.210359
1700754067070312,-8.18652,-4.43489,-1.33442,0.82938,0.10349,0.197659
1700754067078125,-8.32152,-4.47889,-1.128442,0.66338,0.11779,0.179859
1700754067085937,-8.47752,-4.50989,-1.201442,0.60638,0.13019,0.155959
1700754067093750,-8.61052,-4.53989,-1.258442,0.56638,0.11859,0.124759
1700754067101562,-8.73352,-4.56589,-1.286442,0.37538,0.11459,0.83859
1700754067109375,-8.81352,-4.63089,-1.306442,0.36538,0.10379,0.55559
1700754067117187,-8.76952,-4.71689,-1.299442,0.18838,0.9179,0.25959
1700754067125000,-8.64152,-4.83889,-1.292442,0.14738,0.8419,0.759
1700754067132812,-8.51552,-4.96289,-1.291442,0.162,0.6649,0.13141
1700754067140625,-8.50052,-5.3889,-1.321442,0.15262,0.5749,0.20941
1700754067148437,-8.57452,-5.4689,-1.300442,0.33362,0.5509,0.30441
1700754067156250,-8.62952,-5.2089,-1.257442,0.34762,0.5009,0.35141
1700754067164062,-8.66552,-4.98989,-1.230442,0.33062,0.3299,0.41041
1700754067171875,-8.68152,-5.789,-1.212442,0.37462,0.2569,0.48741
1700754067179687,-8.69952,-5.5589,-1.207442,0.41762,0.19,0.52941
1700754067187500,-8.78752,-5.5689,-1.191442,0.39962,0.361,0.68641
1700754067195312,-8.83152,-5.3889,-1.152442,0.30462,0.2261,0.82341
1700754067203125,-8.79952,-5.89,-1.100442,0.34662,0.3821,0.97841
1700754067210937,-8.72552,-4.98489,-1.73442,0.15962,0.6741,0.115941
1700754067218750,-8.65452,-4.98089,-1.59442,0.6562,0.8881,0.118641
1700754067226562,-8.62552,-4.97889,-1.9442,0.11738,0.11181,0.110141
1700754067234375,-8.62952,-4.97689,0.954442,0.37338,0.11911,0.94041
1700754067242187,-8.63452,-4.94889,0.875442,0.49538,0.13041,0.87341
1700754067250000,-8.59952,-4.88489,0.815442,0.69238,0.14621,0.72741
1700754067257812,-8.50852,-4.84489,0.786442,0.87038,0.15301,0.44241
1700754067265625,-8.41352,-4.85789,0.781442,0.109638,0.16201,0.26541
1700754067273437,-8.33752,-4.87889,0.779442,0.113738,0.15601,0.1859
1700754067281250,-8.24752,-4.85689,0.781442,0.114738,0.15681,0.28759
1700754067289062,-8.16752,-4.81689,0.795442,0.113138,0.14801,0.34759
1700754067296875,-8.11852,-4.78189,0.813442,0.112938,0.14431,0.44159
1700754067304687,-8.18652,-4.78089,0.866442,0.108138,0.13721,0.54959
1700754067312500,-8.33352,-4.78289,0.900442,0.109738,0.12741,0.45359
1700754067320312,-8.50552,-4.77789,0.904442,0.106738,0.12751,0.40459
1700754067328125,-8.62552,-4.76789,0.870442,0.85738,0.13361,0.24759
1700754067335937,-8.62452,-4.80589,0.804442,0.95338,0.14421,0.4459
1700754067343750,-8.54052,-4.90289,0.783442,0.90938,0.14821,0.8041
1700754067351562,-8.48452,-4.99289,0.774442,0.94138,0.14851,0.15841
1700754067359375,-8.41452,-5.6389,0.749442,0.98838,0.14561,0.22041
1700754067367187,-8.49552,-5.8689,0.742442,0.103338,0.13861,0.20641
1700754067375000,-8.65252,-5.3789,0.742442,0.107838,0.13691,0.20541
1700754067382812,-8.66952,-4.92389,0.713442,0.113838,0.14311,0.10941
1700754067390625,-8.57352,-4.84789,0.727442,0.116938,0.14801,0.9241
1700754067398437,-8.43952,-4.83389,0.759442,0.130338,0.14711,0.8159
1700754067406250,-8.30652,-4.80889,0.800442,0.133038,0.13961,0.25359
1700754067414062,-8.18952,-4.75189,0.820442,0.137338,0.12891,0.36059
1700754067421875,-8.6052,-4.69589,0.827442,0.149138,0.12281,0.56559
1700754067429687,-7.96152,-4.67689,0.873442,0.151738,0.10341,0.76559
1700754067437500,-7.95852,-4.71689,0.934442,0.137738,0.7481,0.83759
1700754067445312,-8.3152,-4.74489,0.971442,0.132838,0.4131,0.91059
1700754067453125,-8.11552,-4.75989,0.987442,0.116138,0.2031,0.81059
1700754067460937,-8.21752,-4.72489,-1.3442,0.107238,0.69,0.58459
1700754067468750,-8.28552,-4.71689,-1.25442,0.86138,0.1139,0.40659
1700754067476562,-8.41952,-4.77689,-1.68442,0.63738,0.2649,0.5559
1700754067484375,-8.53952,-4.84889,-1.77442,0.48938,0.2859,0.19841
1700754067492187,-8.57252,-4.89789,-1.77442,0.32538,0.2749,0.43641
1700754067500000,-8.56552,-4.91789,-1.75442,0.17638,0.2979,0.61141
1700754067507812,-8.45852,-4.91289,-1.55442,0.4962,0.4019,0.83541
1700754067515625,-8.28252,-4.91289,-1.59442,0.9162,0.3759,0.102341
1700754067523437,-8.16152,-4.96489,-1.86442,0.31862,0.4529,0.115341
1700754067531250,-8.24452,-5.2189,-1.134442,0.56262,0.6129,0.118941
1700754067539062,-8.39052,-4.94689,-1.148442,0.69862,0.7399,0.130341
1700754067546875,-8.30652,-4.83489,-1.119442,0.79062,0.9519,0.138641
1700754067554687,-8.6352,-4.87589,-1.143442,0.95362,0.9719,0.163941
1700754067562500,-7.93652,-5.3289,-1.241442,0.116662,0.10659,0.172241
1700754067570312,-7.93652,-5.20189,-1.345442,0.128662,0.12589,0.190141
1700754067578125,-7.95752,-5.35589,-1.386442,0.131662,0.13879,0.196641
1700754067585937,-8.2852,-5.48189,-1.390442,0.151262,0.12789,0.205941
1700754067593750,-8.14752,-5.55589,-1.413442,0.177162,0.12419,0.204541
1700754067601562,-8.24452,-5.56989,-1.401442,0.176962,0.10569,0.212141
1700754067609375,-8.39052,-5.61389,-1.399442,0.178562,0.9109,0.200841
1700754067617187,-8.79652,-5.58989,-1.402442,0.192462,0.7939,0.183241
1700754067625000,-9.15152,-5.50489,-1.334442,0.204662,0.6429,0.176741
1700754067632812,-9.24652,-5.46389,-1.259442,0.199962,0.5229,0.184341
1700754067640625,-9.17852,-5.51389,-1.195442,0.208762,0.3289,0.196441
1700754067648437,-8.91452,-5.58889,-1.94442,0.217362,0.859,0.216541
1700754067656250,-8.50552,-5.64989,-1.12442,0.220062,0.381,0.233641
1700754067664062,-8.5152,-5.71189,0.907442,0.213862,0.2221,0.234841
1700754067671875,-7.66952,-5.82589,0.797442,0.201562,0.4351,0.231241
1700754067679687,-7.40352,-5.89689,0.722442,0.200362,0.5141,0.213641
1700754067687500,-7.22052,-5.92389,0.656442,0.202562,0.6321,0.167641
1700754067695312,-7.16552,-5.91989,0.615442,0.185162,0.5931,0.118741
1700754067703125,-7.28652,-5.90989,0.597442,0.181562,0.5551,0.60441
1700754067710937,-7.49652,-5.89289,0.581442,0.179262,0.4831,0.16641
1700754067718750,-7.66552,-5.85589,0.563442,0.178462,0.3041,0.19359
1700754067726562,-7.76252,-5.81889,0.581442,0.184962,0.3281,0.42959
1700754067734375,-7.82252,-5.78689,0.638442,0.191362,0.2581,0.58559
1700754067742187,-7.86152,-5.70589,0.704442,0.204162,0.1121,0.86459
1700754067750000,-7.94952,-5.57789,0.757442,0.207662,0.279,0.109859
1700754067757812,-8.16652,-5.41889,0.785442,0.208262,0.259,0.142859
1700754067765625,-8.53052,-5.24589,0.810442,0.211462,0.21,0.155359
1700754067773437,-8.96452,-5.3789,0.815442,0.203962,0.2661,0.168659
1700754067781250,-9.28652,-4.84689,0.709442,0.194762,0.4131,0.175359
1700754067789062,-9.47452,-4.70889,0.559442,0.188162,0.8071,0.157459
1700754067796875,-9.43652,-4.61189,0.370442,0.170762,0.11641,0.134559
1700754067804687,-8.98652,-4.58089,0.145442,0.148762,0.15921,0.108959
1700754067812500,-8.32352,-4.66089,0.17558,0.132962,0.18641,0.89159
1700754067820312,-7.68252,-4.82489,0.92558,0.117762,0.20271,0.97459
1700754067828125,-7.19352,-4.95789,0.157558,0.109162,0.18781,0.122259
1700754067835937,-6.88652,-4.89589,0.216558,0.120562,0.17171,0.161459
1700754067843750,-6.81452,-4.71189,0.252558,0.130562,0.14511,0.198559
1700754067851562,-7.2552,-4.52189,0.274558,0.137462,0.10541,0.230759
1700754067859375,-7.54852,-4.32089,0.233558,0.133062,0.8141,0.234959
1700754067867187,-8.23752,-4.8889,0.216558,0.149662,0.6711,0.221859
1700754067875000,-8.84252,-3.91489,0.320558,0.148862,0.8581,0.178259
1700754067882812,-9.23752,-3.84489,0.438558,0.132362,0.12141,0.117659
1700754067890625,-9.51852,-3.87289,0.500558,0.124762,0.16591,0.47759
1700754067898437,-9.59152,-3.97789,0.575558,0.94462,0.20311,0.22241
1700754067906250,-9.49252,-4.12489,0.598558,0.66162,0.23291,0.60741
1700754067914062,-9.29752,-4.29289,0.594558,0.38262,0.25171,0.83741
1700754067921875,-9.1452,-4.48089,0.608558,0.30162,0.24901,0.107441
1700754067929687,-8.67952,-4.68889,0.572558,0.22562,0.21091,0.122241
1700754067937500,-8.37552,-4.86889,0.479558,0.30462,0.16061,0.123441
1700754067945312,-8.11452,-4.99089,0.396558,0.30762,0.12811,0.119541
1700754067953125,-8.952,-5.8789,0.259558,0.41762,0.8271,0.114341
1700754067960937,-8.11252,-5.16289,0.154558,0.55962,0.4721,0.99341
1700754067968750,-8.36452,-5.17489,0.84558,0.57962,0.971,0.85941
1700754067976562,-8.59152,-5.12089,0.102558,0.42562,0.641,0.92241
1700754067984375,-8.65152,-5.6489,0.184558,0.33262,0.2011,0.99641
1700754067992187,-8.48452,-5.8789,0.247558,0.20762,0.4901,0.108341
1700754068000000,-8.21852,-5.20389,0.246558,0.2238,0.5491,0.109841
1700754068007812,-8.4052,-5.36489,0.180558,0.12538,0.4571,0.92541
1700754068015625,-7.95252,-5.47489,0.85558,0.10538,0.1991,0.77341
1700754068023437,-7.90252,-5.49489,0.5558,0.10038,0.479,0.52741
1700754068031250,-7.84052,-5.40889,0.49442,0.2662,0.1729,0.26341
1700754068039062,-7.80052,-5.31289,0.131442,0.11062,0.2869,0.11159
1700754068046875,-7.85152,-5.23189,0.234442,0.14862,0.4859,0.50159
1700754068054687,-8.2252,-5.17589,0.336442,0.30462,0.5059,0.70559
1700754068062500,-8.18152,-5.11889,0.389442,0.33662,0.5569,0.75159
1700754068070312,-8.27652,-5.7289,0.401442,0.38262,0.6209,0.76759
1700754068078125,-8.32152,-5.789,0.437442,0.59162,0.5099,0.56259
1700754068085937,-8.43352,-4.97689,0.462442,0.77062,0.2639,0.39259
1700754068093750,-8.60152,-4.94389,0.444442,0.62862,0.1719,0.12859
1700754068101562,-8.70352,-4.88189,0.397442,0.57862,0.1009,0.6041
1700754068109375,-8.70452,-4.86889,0.321442,0.55562,0.3161,0.36541
1700754068117187,-8.67152,-4.91789,0.267442,0.30862,0.5151,0.48641
1700754068125000,-8.69752,-4.97989,0.241442,0.9262,0.5841,0.64141
1700754068132812,-8.75152,-5.1789,0.182442,0.138,0.7051,0.73141
1700754068140625,-8.73352,-5.2489,0.105442,0.35238,0.7481,0.72841
1700754068148437,-8.64952,-5.3989,0.32442,0.58038,0.8411,0.66241
1700754068156250,-8.49752,-5.8589,0.36558,0.82238,0.8981,0.53341
1700754068164062,-8.26752,-5.15189,0.40558,0.109438,0.9711,0.33941
1700754068171875,-8.10552,-5.24789,0.11558,0.137738,0.10511,0.4159
1700754068179687,-8.4152,-5.34889,0.63442,0.153738,0.7321,0.36659
1700754068187500,-8.10052,-5.43189,0.170442,0.159338,0.5671,0.61459
1700754068195312,-8.21152,-5.44589,0.245442,0.155738,0.3551,0.89359
1700754068203125,-8.29752,-5.40189,0.304442,0.155238,0.1101,0.110759
1700754068210937,-8.32852,-5.30689,0.350442,0.156538,0.1061,0.118659
1700754068218750,-8.36852,-5.23589,0.432442,0.136538,0.1581,0.132959
1700754068226562,-8.48852,-5.21889,0.480442,0.134838,0.3031,0.152159
1700754068234375,-8.68352,-5.7589,0.519442,0.136238,0.4681,0.160459
1700754068242187,-8.80752,-4.87389,0.472442,0.134738,0.5491,0.163659
1700754068250000,-8.83252,-4.70889,0.420442,0.131938,0.8361,0.162659
1700754068257812,-8.77652,-4.72289,0.381442,0.130638,0.12101,0.158859
1700754068265625,-8.72452,-4.81989,0.353442,0.136938,0.14111,0.157659
1700754068273437,-8.67552,-4.91089,0.287442,0.129338,0.17111,0.164559
1700754068281250,-8.66352,-4.97389,0.216442,0.121538,0.17931,0.178859
1700754068289062,-8.65452,-4.99089,0.137442,0.112338,0.19121,0.182259
1700754068296875,-8.63352,-5.3989,0.64442,0.109338,0.20451,0.185659
1700754068304687,-8.57852,-5.11389,0.16442,0.92538,0.19631,0.188459
1700754068312500,-8.44852,-5.16689,0.18558,0.87738,0.20441,0.201259
1700754068320312,-8.36952,-5.22489,0.11558,0.76838,0.20271,0.213959
1700754068328125,-8.45452,-5.22089,0.0,0.62738,0.19031,0.233959
1700754068335937,-8.53452,-5.17989,0.50558,0.60638,0.18901,0.265359
1700754068343750,-8.53752,-5.11289,0.115558,0.60338,0.18021,0.279459
1700754068351562,-8.55152,-5.7989,0.165558,0.58238,0.19391,0.320759
1700754068359375,-8.55852,-5.6089,0.197558,0.72838,0.19851,0.361759
1700754068367187,-8.47452,-5.9589,0.232558,0.108638,0.20761,0.411059
1700754068375000,-8.31152,-5.13189,0.286558,0.125738,0.21821,0.484059
1700754068382812,-8.16452,-5.3789,0.323558,0.145638,0.20781,0.565859
1700754068390625,-8.8752,-4.88089,0.345558,0.159438,0.21251,0.652659
1700754068398437,-8.11352,-4.76589,0.375558,0.202238,0.19831,0.729659
1700754068406250,-8.27352,-4.71189,0.351558,0.243538,0.18131,0.807059
1700754068414062,-8.45252,-4.68289,0.367558,0.274438,0.18491,0.873559
1700754068421875,-8.62552,-4.59789,0.387558,0.318938,0.18121,0.939859
1700754068429687,-8.72152,-4.45889,0.412558,0.371238,0.18961,1.6759
1700754068437500,-8.85852,-4.30289,0.414558,0.435638,0.20211,1.79859
1700754068445312,-8.92552,-4.17489,0.416558,0.511038,0.21181,1.132459
1700754068453125,-8.87852,-4.16889,0.432558,0.582138,0.21261,1.162959
1700754068460937,-8.77552,-4.24789,0.382558,0.650638,0.21401,1.171059
1700754068468750,-8.67652,-4.35589,0.285558,0.688738,0.20321,1.167959
1700754068476562,-8.56352,-4.46789,0.173558,0.711638,0.18451,1.158259
1700754068484375,-8.49052,-4.55989,0.57558,0.717738,0.14451,1.144759
1700754068492187,-8.41652,-4.66789,0.3442,0.722338,0.10641,1.128359
1700754068500000,-8.43752,-4.79989,0.37442,0.696338,0.5541,1.116159
1700754068507812,-8.56352,-4.86289,0.117442,0.670438,0.1621,1.101059
1700754068515625,-8.70752,-4.76189,0.217442,0.623138,0.459,1.96959
1700754068523437,-8.78252,-4.57389,0.295442,0.589538,0.3379,1.89959
1700754068531250,-8.88652,-4.38689,0.393442,0.545238,0.5139,1.85959
1700754068539062,-9.2652,-4.23989,0.455442,0.522338,0.5929,1.85659
1700754068546875,-9.4652,-4.11289,0.503442,0.488738,0.6869,1.86859
1700754068554687,-8.97552,-3.99289,0.565442,0.452238,0.6149,1.88159
1700754068562500,-8.89552,-3.86889,0.629442,0.420238,0.5719,1.84959
1700754068570312,-8.84152,-3.73189,0.668442,0.385238,0.5309,1.86459
1700754068578125,-8.89552,-3.56189,0.686442,0.347138,0.5569,1.84459
1700754068585937,-9.1652,-3.33789,0.680442,0.307638,0.6099,1.73159
1700754068593750,-9.10552,-3.9389,0.676442,0.273038,0.5739,1.47959
1700754068601562,-9.17552,-2.88289,0.676442,0.238638,0.5739,1.11159
1700754068609375,-9.21052,-2.70889,0.704442,0.215238,0.4609,0.956259
1700754068617187,-9.26852,-2.58289,0.711442,0.179438,0.4199,0.911959
1700754068625000,-9.41452,-2.51689,0.723442,0.160438,0.2449,0.868359
1700754068632812,-9.55052,-2.47689,0.712442,0.145938,0.769,0.827459
1700754068640625,-9.61652,-2.45389,0.685442,0.119438,0.499,0.773759
1700754068648437,-9.65852,-2.39089,0.671442,0.92538,0.179,0.743659
1700754068656250,-9.69052,-2.32089,0.642442,0.61038,0.1829,0.708359
1700754068664062,-9.73252,-2.23689,0.594442,0.43038,0.1719,0.692659
1700754068671875,-9.84252,-2.15289,0.567442,0.40038,0.1209,0.691059
1700754068679687,-10.4352,-2.5889,0.549442,0.35638,0.319,0.681859
1700754068687500,-10.20752,-1.98989,0.540442,0.38938,0.589,0.666059
