time,Acceleration X (m/s^2),Acceleration Y (m/s^2),Acceleration Z (m/s^2),Angular Velocity X (rad/s),Angular Velocity Y (rad/s),Angular Velocity Z (rad/s)
1700754126898437,-6.977446,-0.512447,,,,
1700754126906250,-6.971446,-6.825995,0.532447,0.103555,0.38603,0.11249
1700754126914062,-6.947446,-6.799995,0.567447,0.92655,0.41903,0.12509
1700754126921875,-6.957446,-6.772995,0.606447,0.98655,0.43503,0.12849
1700754126929687,-6.984446,-6.723995,0.622447,0.98455,0.39603,0.13929
1700754126937500,-7.19446,-6.675995,0.624447,0.87855,0.39703,0.13759
1700754126953125,-7.116446,-6.631995,0.640447,0.84855,0.49803,0.13619
1700754126960937,-7.201446,-6.601995,0.617447,0.78855,0.63303,0.13959
1700754126968750,-7.257446,-6.587995,0.590447,0.78955,0.61703,0.13159
1700754126976562,-7.248446,-6.578995,0.558447,0.66855,0.65703,0.12369
1700754127000000,-7.134446,-6.536995,0.533447,0.61355,0.83903,0.9899
1700754127007812,-7.143446,-6.516995,0.529447,0.73655,0.85503,0.9439
1700754127015625,-7.168446,-6.479995,0.545447,0.79855,0.88903,0.8819
1700754127023437,-7.180446,-6.482995,0.593447,0.76655,0.90503,0.9619
1700754127031250,-7.224446,-6.523995,0.665447,0.73455,0.84903,0.10369
1700754127039062,-7.346446,-6.611995,0.718447,0.61255,0.75503,0.9889
1700754127046875,-7.493446,-6.600995,0.729447,0.58255,0.77303,0.9729
1700754127054687,-7.621446,-6.507995,0.702447,0.43155,0.84403,0.9419
1700754127062500,-7.654446,-6.411995,0.657447,0.34055,0.96503,0.9439
1700754127070312,-7.672446,-6.381995,0.607447,0.34255,0.110203,0.8519
1700754127078125,-7.654446,-6.395995,0.566447,0.35955,0.123903,0.8079
1700754127085937,-7.625446,-6.391995,0.554447,0.23755,0.135503,0.8719
1700754127093750,-7.645446,-6.364995,0.525447,0.23555,0.149803,0.10479
1700754127101562,-7.704446,-6.296995,0.463447,0.14155,0.172703,0.12399
1700754127109375,-7.715446,-6.185995,0.375447,0.24655,0.183903,0.14019
1700754127117187,-7.665446,-6.55995,0.259447,0.26055,0.201803,0.15479
1700754127125000,-7.530446,-5.949995,0.166447,0.44355,0.229503,0.16489
1700754127132812,-7.379446,-5.898995,0.90447,0.54755,0.236803,0.18399
1700754127140625,-7.318446,-5.881995,0.59447,0.75755,0.237403,0.20459
1700754127148437,-7.279446,-5.899995,0.6447,0.84855,0.232203,0.20459
1700754127156250,-7.311446,-5.919995,0.48553,0.90955,0.227203,0.19979
1700754127164062,-7.426446,-5.947995,0.57553,0.87755,0.193703,0.19749
1700754127171875,-7.583446,-5.941995,0.72553,0.84855,0.179503,0.18159
1700754127179687,-7.664446,-5.924995,0.88553,0.78855,0.164703,0.17169
1700754127187500,-7.707446,-5.862995,0.111553,0.66855,0.148403,0.15529
1700754127195312,-7.692446,-5.825995,0.143553,0.77755,0.148803,0.14449
1700754127203125,-7.641446,-5.806995,0.154553,0.85455,0.152203,0.14149
1700754127210937,-7.598446,-5.807995,0.154553,0.86955,0.149003,0.13989
1700754127218750,-7.537446,-5.813995,0.165553,0.86655,0.143703,0.15249
1700754127226562,-7.494446,-5.833995,0.177553,0.94355,0.141803,0.14929
1700754127234375,-7.476446,-5.824995,0.202553,0.89655,0.138203,0.15859
1700754127242187,-7.513446,-5.754995,0.204553,0.86355,0.127803,0.16619
1700754127250000,-7.535446,-5.618995,0.243553,0.75555,0.114203,0.17209
1700754127257812,-7.559446,-5.491995,0.270553,0.75255,0.99003,0.17979
1700754127265625,-7.524446,-5.405995,0.304553,0.93455,0.95003,0.18449
1700754127273437,-7.507446,-5.376995,0.324553,0.113155,0.95903,0.19569
1700754127281250,-7.635446,-5.401995,0.281553,0.134155,0.99803,0.21329
1700754127289062,-7.821446,-5.405995,0.219553,0.136855,0.93903,0.23529
1700754127296875,-7.951446,-5.355995,0.194553,0.130555,0.72303,0.23479
1700754127304687,-8.19446,-5.325995,0.180553,0.116855,0.46003,0.22789
1700754127312500,-8.71446,-5.335995,0.132553,0.109555,0.38403,0.20549
1700754127320312,-8.100446,-5.377995,0.39553,0.106955,0.17803,0.17189
1700754127328125,-8.126446,-5.452995,0.42447,0.87655,0.11103,0.13859
1700754127335937,-8.167446,-5.524995,0.105447,0.74255,0.1703,0.11599
1700754127343750,-8.238446,-5.562995,0.128447,0.49055,0.7703,0.7689
1700754127351562,-8.297446,-5.570995,0.124447,0.40555,0.17503,0.4229
1700754127359375,-8.257446,-5.517995,0.89447,0.33455,0.25503,0.1409
1700754127367187,-8.176446,-5.459995,0.33447,0.30655,0.36403,0.19
1700754127375000,-8.140446,-5.441995,0.39553,0.41755,0.58503,0.1351
1700754127382812,-8.81446,-5.446995,0.80553,0.58455,0.51103,0.1361
1700754127390625,-8.46446,-5.484995,0.85553,0.81455,0.64303,0.1791
1700754127398437,-8.1446,-5.519995,0.78553,0.93855,0.64503,0.2561
1700754127406250,-7.921446,-5.553995,0.76553,0.112155,0.50603,0.3061
1700754127414062,-7.816446,-5.581995,0.65553,0.127355,0.48703,0.3051
1700754127421875,-7.757446,-5.649995,0.22553,0.130155,0.31603,0.2301
1700754127429687,-7.726446,-5.709995,0.62447,0.136155,0.11303,0.2491
1700754127437500,-7.735446,-5.766995,0.193447,0.131455,0.5497,0.2381
1700754127445312,-7.812446,-5.797995,0.337447,0.114555,0.20297,0.1941
1700754127453125,-7.923446,-5.799995,0.449447,0.111155,0.27597,0.231
1700754127460937,-8.48446,-5.780995,0.515447,0.113955,0.16397,0.1379
1700754127468750,-8.158446,-5.798995,0.528447,0.112555,0.2003,0.1569
1700754127476562,-8.167446,-5.834995,0.472447,0.110855,0.13303,0.3179
1700754127484375,-8.45446,-5.856995,0.430447,0.118655,0.35203,0.2759
1700754127492187,-7.927446,-5.855995,0.435447,0.113855,0.36403,0.4009
1700754127500000,-7.899446,-5.873995,0.437447,0.113655,0.37403,0.5109
1700754127507812,-7.891446,-5.849995,0.417447,0.112055,0.31003,0.5269
1700754127515625,-7.882446,-5.802995,0.378447,0.101355,0.20903,0.5069
1700754127523437,-7.869446,-5.707995,0.342447,0.86155,0.26303,0.5229
1700754127531250,-7.834446,-5.638995,0.315447,0.84655,0.23003,0.5059
1700754127539062,-7.817446,-5.578995,0.292447,0.89155,0.14603,0.5209
1700754127546875,-7.813446,-5.545995,0.260447,0.107455,0.9103,0.5049
1700754127554687,-7.837446,-5.551995,0.269447,0.120955,0.0,0.5659
1700754127562500,-7.868446,-5.572995,0.335447,0.136155,0.7097,0.5649
1700754127570312,-7.875446,-5.639995,0.392447,0.153055,0.7903,0.5389
1700754127578125,-7.878446,-5.728995,0.449447,0.160455,0.6097,0.6299
1700754127585937,-7.890446,-5.813995,0.528447,0.155855,0.12897,0.6599
1700754127593750,-7.902446,-5.850995,0.606447,0.132855,0.12397,0.7069
1700754127601562,-7.913446,-5.848995,0.676447,0.108355,0.27297,0.7489
1700754127609375,-7.922446,-5.796995,0.724447,0.79355,0.33497,0.7449
1700754127617187,-7.922446,-5.705995,0.749447,0.60855,0.33097,0.8239
1700754127625000,-7.906446,-5.622995,0.772447,0.40855,0.33597,0.9469
1700754127632812,-7.949446,-5.551995,0.802447,0.12055,0.28997,0.9009
1700754127640625,-8.4446,-5.474995,0.800447,0.7645,0.15097,0.8539
1700754127648437,-8.35446,-5.394995,0.755447,0.27245,0.17497,0.7429
1700754127656250,-8.85446,-5.333995,0.705447,0.34545,0.8297,0.5869
1700754127664062,-8.88446,-5.304995,0.639447,0.35945,0.6197,0.4769
1700754127671875,-8.60446,-5.329995,0.559447,0.29645,0.5897,0.3669
1700754127679687,-8.30446,-5.381995,0.550447,0.15645,0.2397,0.2259
1700754127687500,-8.33446,-5.463995,0.547447,0.12445,0.2097,0.1159
1700754127695312,-8.51446,-5.519995,0.554447,0.9345,0.5297,0.999
1700754127703125,-8.57446,-5.550995,0.561447,0.10745,0.5197,0.519
1700754127710937,-8.78446,-5.556995,0.574447,0.9145,0.1603,0.229
1700754127718750,-8.98446,-5.550995,0.602447,0.10845,0.1503,0.1179
1700754127726562,-8.110446,-5.554995,0.600447,0.7745,0.11603,0.1209
1700754127734375,-8.113446,-5.571995,0.608447,0.2945,0.19903,0.259
1700754127742187,-8.132446,-5.580995,0.625447,0.7755,0.31703,0.149
1700754127750000,-8.100446,-5.580995,0.586447,0.13955,0.26503,0.181
1700754127757812,-8.30446,-5.586995,0.540447,0.17155,0.45203,0.601
1700754127765625,-7.934446,-5.614995,0.506447,0.17255,0.52103,0.1061
1700754127773437,-7.856446,-5.661995,0.490447,0.23155,0.49603,0.29
1700754127781250,-7.812446,-5.718995,0.483447,0.32255,0.51003,0.509
1700754127789062,-7.825446,-5.773995,0.489447,0.15155,0.42103,0.2209
1700754127796875,-7.864446,-5.769995,0.512447,0.11855,0.33503,0.3459
1700754127804687,-7.922446,-5.733995,0.529447,0.3645,0.30203,0.4709
1700754127812500,-8.11446,-5.694995,0.533447,0.8445,0.23503,0.5489
1700754127820312,-8.99446,-5.665995,0.533447,0.9945,0.21603,0.5469
1700754127828125,-8.144446,-5.638995,0.531447,0.11445,0.34903,0.5649
1700754127835937,-8.100446,-5.581995,0.534447,0.12745,0.53903,0.5389
1700754127843750,-8.36446,-5.552995,0.508447,0.9645,0.58503,0.5229
1700754127851562,-8.5446,-5.551995,0.445447,0.11145,0.66903,0.5399
1700754127859375,-7.980446,-5.567995,0.431447,0.2045,0.68403,0.5569
1700754127867187,-7.942446,-5.563995,0.413447,0.5455,0.84903,0.6569
1700754127875000,-7.933446,-5.541995,0.383447,0.11555,0.89403,0.7199
1700754127882812,-7.920446,-5.499995,0.326447,0.9955,0.101003,0.7699
1700754127890625,-7.892446,-5.463995,0.285447,0.8455,0.102403,0.7689
1700754127898437,-7.936446,-5.438995,0.285447,0.16055,0.104203,0.7869
1700754127906250,-7.957446,-5.430995,0.281447,0.16055,0.107603,0.8039
1700754127914062,-7.973446,-5.409995,0.274447,0.13055,0.104103,0.7859
1700754127921875,-7.966446,-5.391995,0.256447,0.19155,0.107503,0.7879
1700754127929687,-7.971446,-5.393995,0.265447,0.19355,0.106103,0.6769
1700754127937500,-8.41446,-5.392995,0.263447,0.20955,0.109603,0.6299
1700754127945312,-8.150446,-5.378995,0.245447,0.13455,0.106703,0.5509
1700754127953125,-8.268446,-5.347995,0.213447,0.15055,0.101903,0.5019
1700754127960937,-8.278446,-5.280995,0.140447,0.0,0.114403,0.3619
1700754127968750,-8.165446,-5.240995,0.47447,0.8055,0.118403,0.1749
1700754127976562,-8.15446,-5.269995,0.18553,0.29555,0.123203,0.1139
1700754127984375,-7.894446,-5.358995,0.23553,0.55655,0.120003,0.101
1700754127992187,-7.857446,-5.465995,0.19553,0.64855,0.113203,0.741
1700754128000000,-7.883446,-5.529995,0.19553,0.63255,0.91803,0.1411
1700754128007812,-7.918446,-5.584995,0.26553,0.64855,0.73303,0.2251
1700754128015625,-7.925446,-5.611995,0.37553,0.64955,0.66803,0.2901
1700754128023437,-7.897446,-5.636995,0.26553,0.63355,0.46803,0.3101
1700754128031250,-7.872446,-5.678995,0.30447,0.67855,0.38303,0.3271
1700754128039062,-7.842446,-5.728995,0.89447,0.81455,0.33003,0.2951
1700754128046875,-7.823446,-5.774995,0.141447,0.67555,0.21003,0.1891
1700754128054687,-7.789446,-5.779995,0.203447,0.64255,0.23803,0.631
1700754128062500,-7.789446,-5.763995,0.255447,0.63955,0.14803,0.1089
1700754128070312,-7.812446,-5.741995,0.296447,0.51755,0.20303,0.1099
1700754128078125,-7.847446,-5.720995,0.326447,0.43955,0.29903,0.2529
1700754128085937,-7.903446,-5.709995,0.335447,0.39255,0.24903,0.2989
1700754128093750,-7.929446,-5.679995,0.340447,0.30055,0.26503,0.3779
1700754128101562,-7.932446,-5.622995,0.340447,0.16255,0.23703,0.3619
1700754128109375,-7.919446,-5.566995,0.301447,0.14855,0.18603,0.3119
1700754128117187,-7.885446,-5.522995,0.285447,0.10355,0.23903,0.2649
1700754128125000,-7.872446,-5.468995,0.276447,0.10355,0.17103,0.2479
1700754128132812,-7.882446,-5.446995,0.265447,0.12155,0.26203,0.1409
1700754128140625,-7.915446,-5.465995,0.256447,0.16755,0.22703,0.599
1700754128148437,-7.936446,-5.485995,0.263447,0.24655,0.24903,0.801
1700754128156250,-7.935446,-5.534995,0.265447,0.26355,0.21903,0.1911
1700754128164062,-7.918446,-5.563995,0.251447,0.28155,0.22103,0.3181
1700754128171875,-7.916446,-5.597995,0.262447,0.37355,0.29103,0.3461
1700754128179687,-7.913446,-5.624995,0.246447,0.37455,0.22603,0.4271
1700754128187500,-7.902446,-5.624995,0.244447,0.38955,0.25703,0.4111
1700754128195312,-7.843446,-5.642995,0.233447,0.44955,0.25503,0.3781
1700754128203125,-7.781446,-5.683995,0.242447,0.52655,0.22103,0.3941
1700754128210937,-7.771446,-5.765995,0.282447,0.47855,0.19903,0.2701
1700754128218750,-7.821446,-5.779995,0.351447,0.41455,0.1403,0.1791
1700754128226562,-7.864446,-5.751995,0.360447,0.32255,0.6897,0.1491
1700754128234375,-7.887446,-5.688995,0.369447,0.26155,0.8797,0.1681
1700754128242187,-7.920446,-5.659995,0.392447,0.15455,0.5097,0.1351
1700754128250000,-7.941446,-5.667995,0.433447,0.16855,0.8997,0.1061
1700754128257812,-7.958446,-5.696995,0.474447,0.15555,0.1497,0.1651
1700754128265625,-7.998446,-5.740995,0.494447,0.4855,0.9497,0.2151
1700754128273437,-8.41446,-5.769995,0.497447,0.10345,0.10697,0.2311
1700754128281250,-8.74446,-5.788995,0.460447,0.8645,0.4403,0.3081
1700754128289062,-8.65446,-5.797995,0.412447,0.14545,0.3397,0.4041
1700754128296875,-8.11446,-5.834995,0.399447,0.28245,0.2203,0.4351
1700754128304687,-7.973446,-5.899995,0.403447,0.28345,0.1697,0.3581
1700754128312500,-7.973446,-5.925995,0.414447,0.32945,0.0,0.3581
1700754128320312,-7.986446,-5.916995,0.412447,0.33045,0.197,0.3111
1700754128328125,-7.990446,-5.868995,0.373447,0.34645,0.6703,0.2451
1700754128335937,-7.990446,-5.792995,0.373447,0.28645,0.11103,0.1501
1700754128343750,-7.962446,-5.739995,0.369447,0.15145,0.18603,0.61
1700754128351562,-7.913446,-5.693995,0.358447,0.4645,0.29803,0.1399
1700754128359375,-7.854446,-5.662995,0.360447,0.13555,0.38903,0.2529
1700754128367187,-7.815446,-5.660995,0.367447,0.31655,0.41403,0.3639
1700754128375000,-7.840446,-5.660995,0.371447,0.42055,0.40603,0.5059
1700754128382812,-7.854446,-5.657995,0.383447,0.55755,0.31903,0.5209
1700754128390625,-7.832446,-5.613995,0.385447,0.64755,0.29803,0.6009
1700754128398437,-7.803446,-5.564995,0.385447,0.61755,0.26403,0.5509
1700754128406250,-7.822446,-5.579995,0.405447,0.67855,0.36003,0.5839
1700754128414062,-7.886446,-5.603995,0.426447,0.70855,0.37803,0.6169
1700754128421875,-7.929446,-5.603995,0.431447,0.71055,0.36603,0.5079
1700754128429687,-7.944446,-5.560995,0.417447,0.69555,0.41803,0.5089
1700754128437500,-7.950446,-5.551995,0.415447,0.65055,0.55203,0.5109
1700754128445312,-7.952446,-5.553995,0.417447,0.72855,0.48803,0.3519
1700754128453125,-7.993446,-5.566995,0.415447,0.63955,0.56303,0.2269
1700754128460937,-8.4446,-5.566995,0.383447,0.64155,0.61803,0.1179
1700754128468750,-8.2446,-5.548995,0.374447,0.61455,0.57303,0.571
1700754128476562,-7.993446,-5.530995,0.342447,0.63155,0.55703,0.1691
1700754128484375,-7.930446,-5.522995,0.308447,0.66455,0.68303,0.3061
1700754128492187,-7.857446,-5.552995,0.310447,0.69555,0.70103,0.3371
1700754128500000,-7.829446,-5.599995,0.310447,0.63555,0.63603,0.4181
1700754128507812,-7.804446,-5.638995,0.321447,0.69555,0.58603,0.3701
1700754128515625,-7.795446,-5.658995,0.326447,0.64955,0.56903,0.3231
1700754128523437,-7.785446,-5.707995,0.339447,0.63455,0.50103,0.3571
1700754128531250,-7.787446,-5.767995,0.387447,0.66255,0.46403,0.2631
1700754128539062,-7.836446,-5.807995,0.439447,0.64555,0.27703,0.2041
1700754128546875,-7.884446,-5.842995,0.494447,0.62955,0.22903,0.2041
1700754128554687,-7.943446,-5.833995,0.553447,0.39955,0.24703,0.791
1700754128562500,-8.22446,-5.811995,0.576447,0.39755,0.22603,0.11
1700754128570312,-8.102446,-5.788995,0.613447,0.32155,0.29303,0.469
1700754128578125,-8.161446,-5.754995,0.583447,0.13955,0.49803,0.499
1700754128585937,-8.157446,-5.691995,0.542447,0.15555,0.50003,0.131
1700754128593750,-8.108446,-5.628995,0.497447,0.18755,0.68703,0.391
1700754128601562,-8.50446,-5.602995,0.445447,0.30955,0.78403,0.51
1700754128609375,-7.985446,-5.626995,0.394447,0.52355,0.79403,0.361
1700754128617187,-7.936446,-5.650995,0.367447,0.64555,0.86103,0.11
1700754128625000,-7.897446,-5.662995,0.335447,0.62955,0.87703,0.309
1700754128632812,-7.848446,-5.643995,0.315447,0.64455,0.87403,0.779
1700754128640625,-7.818446,-5.649995,0.294447,0.64255,0.85303,0.1709
1700754128648437,-7.845446,-5.682995,0.330447,0.63955,0.84803,0.3129
1700754128656250,-7.905446,-5.737995,0.371447,0.63855,0.82703,0.4069
1700754128664062,-7.946446,-5.775995,0.380447,0.62155,0.72403,0.4839
1700754128671875,-7.995446,-5.783995,0.378447,0.57655,0.76003,0.4369
1700754128679687,-7.988446,-5.754995,0.383447,0.44055,0.69803,0.3549
1700754128687500,-7.962446,-5.739995,0.380447,0.42455,0.64803,0.3539
1700754128695312,-7.933446,-5.730995,0.337447,0.33455,0.73703,0.3249
1700754128703125,-7.931446,-5.715995,0.328447,0.28855,0.73903,0.3249
1700754128710937,-7.908446,-5.672995,0.326447,0.18255,0.75403,0.3069
1700754128718750,-7.875446,-5.642995,0.312447,0.18255,0.77403,0.2929
1700754128726562,-7.863446,-5.638995,0.305447,0.24255,0.73703,0.3389
1700754128734375,-7.870446,-5.637995,0.335447,0.27255,0.75003,0.3709
1700754128742187,-7.960446,-5.634995,0.367447,0.22655,0.76703,0.3869
1700754128750000,-8.54446,-5.579995,0.372447,0.25755,0.73503,0.3549
1700754128757812,-8.89446,-5.503995,0.347447,0.30255,0.73403,0.3709
1700754128765625,-8.80446,-5.474995,0.306447,0.32055,0.82003,0.2939
1700754128773437,-8.54446,-5.488995,0.306447,0.45755,0.92003,0.2979
1700754128781250,-8.82446,-5.521995,0.326447,0.51855,0.93203,0.3449
1700754128789062,-8.141446,-5.525995,0.301447,0.56355,0.106603,0.3799
1700754128796875,-8.163446,-5.487995,0.231447,0.53455,0.108703,0.3349
1700754128804687,-8.108446,-5.454995,0.153447,0.58155,0.120403,0.2729
1700754128812500,-8.25446,-5.420995,0.90447,0.64255,0.121903,0.2899
1700754128820312,-7.909446,-5.466995,0.62447,0.65855,0.120203,0.2739
1700754128828125,-7.829446,-5.534995,0.78447,0.74855,0.121603,0.3219
1700754128835937,-7.830446,-5.579995,0.89447,0.70155,0.121403,0.4169
1700754128843750,-7.883446,-5.578995,0.101447,0.65655,0.108403,0.3189
1700754128851562,-7.937446,-5.519995,0.89447,0.56555,0.95103,0.2669
1700754128859375,-7.952446,-5.450995,0.69447,0.54955,0.83503,0.2489
1700754128867187,-7.941446,-5.412995,0.53447,0.62655,0.86903,0.2189
1700754128875000,-7.927446,-5.419995,0.76447,0.67255,0.76903,0.1379
1700754128882812,-7.911446,-5.450995,0.105447,0.67255,0.75003,0.1689
1700754128890625,-7.910446,-5.495995,0.133447,0.61155,0.70103,0.1669
1700754128898437,-7.930446,-5.530995,0.146447,0.70355,0.75003,0.1529
1700754128906250,-7.987446,-5.529995,0.164447,0.83855,0.67603,0.2469
1700754128914062,-8.46446,-5.522995,0.158447,0.73255,0.66403,0.1989
1700754128921875,-8.78446,-5.499995,0.130447,0.64255,0.70203,0.1359
1700754128929687,-8.60446,-5.493995,0.94447,0.67355,0.68603,0.889
1700754128937500,-8.28446,-5.518995,0.94447,0.76855,0.72803,0.1131
1700754128945312,-8.18446,-5.573995,0.91447,0.64655,0.71103,0.1321
1700754128953125,-8.11446,-5.628995,0.92447,0.64655,0.65003,0.1461
1700754128960937,-7.999446,-5.609995,0.82447,0.64755,0.61403,0.1971
1700754128968750,-7.980446,-5.561995,0.53447,0.63255,0.70003,0.1781
1700754128976562,-7.940446,-5.533995,0.23447,0.64755,0.63303,0.1791
1700754128984375,-7.892446,-5.553995,0.16447,0.67455,0.57503,0.391
1700754128992187,-7.871446,-5.585995,0.57447,0.70455,0.55503,0.239
1700754129000000,-7.894446,-5.589995,0.112447,0.80955,0.53503,0.719
1700754129007812,-7.894446,-5.566995,0.121447,0.77655,0.44603,0.1949
1700754129015625,-7.910446,-5.528995,0.114447,0.89655,0.38903,0.3049
1700754129023437,-7.913446,-5.508995,0.128447,0.85055,0.37203,0.3359
1700754129031250,-7.885446,-5.517995,0.146447,0.92655,0.30103,0.3019
1700754129039062,-7.892446,-5.553995,0.203447,0.94355,0.48803,0.2919
1700754129046875,-7.937446,-5.561995,0.228447,0.97355,0.30403,0.2559
1700754129054687,-7.978446,-5.556995,0.249447,0.88055,0.28903,0.2869
1700754129062500,-8.49446,-5.526995,0.272447,0.86555,0.27303,0.2709
1700754129070312,-8.115446,-5.483995,0.281447,0.88155,0.22403,0.2549
1700754129078125,-8.94446,-5.485995,0.267447,0.83755,0.31203,0.1459
1700754129085937,-8.66446,-5.494995,0.292447,0.82355,0.34303,0.1289
1700754129093750,-8.39446,-5.517995,0.331447,0.65755,0.38603,0.189
1700754129101562,-8.50446,-5.557995,0.321447,0.63055,0.44403,0.1851
1700754129109375,-8.75446,-5.561995,0.294447,0.64655,0.44603,0.2161
1700754129117187,-8.53446,-5.521995,0.246447,0.52755,0.37103,0.3921
1700754129125000,-7.983446,-5.487995,0.199447,0.60455,0.45803,0.4351
1700754129132812,-7.917446,-5.501995,0.178447,0.65155,0.42303,0.5001
1700754129140625,-7.862446,-5.580995,0.162447,0.66655,0.47403,0.4821
1700754129148437,-7.831446,-5.636995,0.187447,0.74355,0.52103,0.4981
1700754129156250,-7.819446,-5.660995,0.205447,0.64955,0.36803,0.4231
1700754129164062,-7.834446,-5.670995,0.230447,0.64755,0.25303,0.3601
1700754129171875,-7.863446,-5.660995,0.242447,0.64655,0.28103,0.2501
1700754129179687,-7.872446,-5.665995,0.271447,0.81255,0.21003,0.2181
1700754129187500,-7.904446,-5.679995,0.296447,0.85555,0.11803,0.951
1700754129195312,-7.917446,-5.688995,0.321447,0.71855,0.8803,0.1121
1700754129203125,-7.912446,-5.719995,0.337447,0.67255,0.8803,0.971
1700754129210937,-7.921446,-5.746995,0.362447,0.62755,0.12203,0.811
1700754129218750,-7.946446,-5.743995,0.378447,0.53555,0.14103,0.811
1700754129226562,-7.997446,-5.749995,0.382447,0.41455,0.12503,0.1151
1700754129234375,-8.18446,-5.746995,0.383447,0.27855,0.26503,0.1281
1700754129242187,-8.39446,-5.751995,0.374447,0.12555,0.18603,0.1621
1700754129250000,-8.41446,-5.740995,0.369447,0.18755,0.17203,0.2081
1700754129257812,-8.14446,-5.736995,0.335447,0.14355,0.22603,0.3021
1700754129265625,-7.960446,-5.725995,0.314447,0.15855,0.17403,0.2881
1700754129273437,-7.925446,-5.737995,0.307447,0.12855,0.17403,0.3201
1700754129281250,-7.902446,-5.750995,0.280447,0.17255,0.27003,0.2071
1700754129289062,-7.868446,-5.749995,0.269447,0.14055,0.20003,0.1301
1700754129296875,-7.859446,-5.735995,0.271447,0.15455,0.24703,0.501
1700754129304687,-7.855446,-5.727995,0.269447,0.16855,0.19403,0.269
1700754129312500,-7.867446,-5.702995,0.282447,0.25655,0.11903,0.1839
1700754129320312,-7.894446,-5.679995,0.301447,0.17855,0.13403,0.2949
1700754129328125,-7.904446,-5.666995,0.308447,0.22255,0.13103,0.3899
1700754129335937,-7.902446,-5.660995,0.331447,0.29755,0.9603,0.4379
1700754129343750,-7.929446,-5.642995,0.353447,0.26555,0.4203,0.5149
1700754129351562,-7.939446,-5.619995,0.363447,0.22055,0.11103,0.4999
1700754129359375,-7.987446,-5.592995,0.363447,0.28155,0.5803,0.5149
1700754129367187,-8.6446,-5.540995,0.372447,0.22155,0.11103,0.4849
1700754129375000,-7.988446,-5.487995,0.379447,0.35855,0.17603,0.5029
1700754129382812,-7.941446,-5.470995,0.397447,0.38855,0.15803,0.5019
1700754129390625,-7.932446,-5.486995,0.409447,0.43555,0.26003,0.4899
1700754129398437,-7.959446,-5.503995,0.440447,0.41955,0.22603,0.4889
1700754129406250,-8.6446,-5.489995,0.445447,0.41955,0.12603,0.4549
1700754129414062,-8.30446,-5.462995,0.427447,0.33055,0.11703,0.3129
1700754129421875,-8.21446,-5.453995,0.420447,0.45555,0.15503,0.1409
1700754129429687,-8.446,-5.501995,0.425447,0.39655,0.19503,0.479
1700754129437500,-8.19446,-5.569995,0.458447,0.41355,0.12903,0.651
1700754129445312,-8.43446,-5.638995,0.481447,0.41555,0.14903,0.1591
1700754129453125,-8.63446,-5.660995,0.504447,0.37155,0.15503,0.2691
1700754129460937,-8.58446,-5.655995,0.470447,0.23455,0.22303,0.2701
1700754129468750,-8.20446,-5.647995,0.447447,0.31255,0.24203,0.3471
1700754129476562,-8.1446,-5.658995,0.454447,0.17355,0.25803,0.2701
1700754129484375,-7.972446,-5.683995,0.442447,0.31055,0.30503,0.2041
1700754129492187,-7.936446,-5.699995,0.444447,0.32355,0.31703,0.1091
1700754129500000,-7.934446,-5.697995,0.451447,0.17155,0.32203,0.1091
1700754129507812,-7.932446,-5.655995,0.456447,0.21555,0.28303,0.161
1700754129515625,-7.932446,-5.624995,0.445447,0.18355,0.28103,0.789
1700754129523437,-7.926446,-5.600995,0.452447,0.18255,0.21403,0.1099
1700754129531250,-7.921446,-5.601995,0.454447,0.19655,0.22603,0.1719
1700754129539062,-7.940446,-5.602995,0.468447,0.33355,0.24103,0.1899
1700754129546875,-7.948446,-5.579995,0.472447,0.25755,0.22403,0.1559
1700754129554687,-7.990446,-5.554995,0.470447,0.13555,0.18103,0.1409
1700754129562500,-8.22446,-5.540995,0.479447,0.15155,0.24503,0.1409
1700754129570312,-8.12446,-5.542995,0.468447,0.21355,0.27903,0.629
1700754129578125,-7.942446,-5.563995,0.447447,0.19955,0.26603,0.0
1700754129585937,-7.916446,-5.610995,0.449447,0.23055,0.36303,0.169
1700754129593750,-7.958446,-5.624995,0.476447,0.23055,0.37803,0.159
1700754129601562,-8.446,-5.607995,0.474447,0.16955,0.33303,0.0
1700754129609375,-8.35446,-5.564995,0.447447,0.13855,0.31603,0.159
1700754129617187,-8.23446,-5.548995,0.426447,0.26255,0.38103,0.461
1700754129625000,-8.446,-5.562995,0.440447,0.33855,0.41303,0.611
1700754129632812,-8.56446,-5.560995,0.465447,0.39955,0.52403,0.189
1700754129640625,-8.146446,-5.525995,0.454447,0.38455,0.51303,0.49
1700754129648437,-8.165446,-5.462995,0.392447,0.49155,0.64303,0.239
1700754129656250,-8.98446,-5.421995,0.308447,0.53755,0.66203,0.61
1700754129664062,-7.976446,-5.444995,0.269447,0.65955,0.73903,0.109
1700754129671875,-7.845446,-5.493995,0.276447,0.82655,0.71903,0.269
1700754129679687,-7.774446,-5.577995,0.301447,0.88755,0.65303,0.279
1700754129687500,-7.791446,-5.623995,0.335447,0.87055,0.55003,0.879
1700754129695312,-7.887446,-5.620995,0.356447,0.88455,0.34603,0.1149
1700754129703125,-7.968446,-5.598995,0.369447,0.86955,0.26303,0.659
1700754129710937,-8.3446,-5.571995,0.411447,0.88555,0.25003,0.29
1700754129718750,-8.34446,-5.604995,0.465447,0.86955,0.23303,0.189
1700754129726562,-8.60446,-5.666995,0.524447,0.88555,0.28303,0.29
1700754129734375,-8.48446,-5.728995,0.560447,0.84055,0.40203,0.101
1700754129742187,-8.14446,-5.772995,0.588447,0.68855,0.49003,0.229
1700754129750000,-7.998446,-5.780995,0.601447,0.64255,0.44003,0.219
1700754129757812,-8.3446,-5.781995,0.590447,0.44555,0.54903,0.79
1700754129765625,-8.446,-5.744995,0.562447,0.41355,0.54103,0.519
1700754129773437,-8.8446,-5.673995,0.524447,0.21555,0.61503,0.699
1700754129781250,-7.986446,-5.613995,0.501447,0.20055,0.61103,0.829
1700754129789062,-8.446,-5.564995,0.485447,0.18455,0.64503,0.1159
1700754129796875,-8.15446,-5.522995,0.458447,0.30755,0.64603,0.699
1700754129804687,-8.17446,-5.445995,0.431447,0.41555,0.67603,0.229
1700754129812500,-7.978446,-5.382995,0.384447,0.55255,0.72703,0.109
1700754129820312,-7.937446,-5.355995,0.354447,0.64455,0.79003,0.119
1700754129828125,-7.935446,-5.371995,0.363447,0.81255,0.83703,0.299
1700754129835937,-7.936446,-5.427995,0.379447,0.108655,0.91303,0.799
1700754129843750,-7.926446,-5.471995,0.401447,0.131355,0.87103,0.1599
1700754129851562,-7.937446,-5.479995,0.417447,0.135855,0.80103,0.1569
1700754129859375,-7.967446,-5.477995,0.410447,0.151055,0.89803,0.2249
1700754129867187,-7.956446,-5.478995,0.417447,0.163255,0.99603,0.2589
1700754129875000,-7.969446,-5.504995,0.426447,0.163255,0.99203,0.2899
1700754129882812,-8.446,-5.562995,0.435447,0.161655,0.104503,0.3239
1700754129890625,-7.986446,-5.621995,0.449447,0.160255,0.100003,0.2449
1700754129898437,-7.954446,-5.641995,0.476447,0.160355,0.101803,0.1819
1700754129906250,-7.954446,-5.645995,0.504447,0.146655,0.100403,0.1639
1700754129914062,-8.22446,-5.646995,0.533447,0.123855,0.102803,0.1159
1700754129921875,-8.81446,-5.630995,0.531447,0.111655,0.102903,0.1309
1700754129929687,-8.123446,-5.610995,0.524447,0.96555,0.108703,0.1009
1700754129937500,-8.150446,-5.571995,0.506447,0.83155,0.119503,0.721
1700754129945312,-8.117446,-5.525995,0.474447,0.77055,0.116503,0.881
1700754129953125,-8.94446,-5.523995,0.420447,0.75755,0.133503,0.1321
1700754129960937,-8.74446,-5.535995,0.379447,0.71255,0.142103,0.1621
1700754129968750,-8.31446,-5.515995,0.342447,0.80455,0.133703,0.2101
1700754129976562,-7.964446,-5.509995,0.310447,0.89655,0.135003,0.2261
1700754129984375,-7.930446,-5.514995,0.269447,0.88155,0.136603,0.2431
1700754129992187,-7.940446,-5.546995,0.247447,0.100155,0.124903,0.2111
1700754130000000,-7.957446,-5.558995,0.260447,0.110755,0.114203,0.1661
1700754130007812,-7.939446,-5.581995,0.269447,0.113755,0.109203,0.1821
1700754130015625,-7.929446,-5.623995,0.289447,0.113655,0.107103,0.1371
1700754130023437,-7.929446,-5.632995,0.305447,0.113455,0.103403,0.49
1700754130031250,-7.936446,-5.637995,0.303447,0.111855,0.103303,0.529
1700754130039062,-7.922446,-5.641995,0.308447,0.113155,0.99303,0.1449
1700754130046875,-7.908446,-5.639995,0.310447,0.111655,0.112703,0.1959
1700754130054687,-7.932446,-5.628995,0.328447,0.114555,0.112703,0.2449
1700754130062500,-7.943446,-5.630995,0.333447,0.97755,0.104403,0.2719
1700754130070312,-7.929446,-5.616995,0.328447,0.85455,0.102703,0.2859
1700754130078125,-7.931446,-5.596995,0.312447,0.88655,0.111003,0.2399
1700754130085937,-7.929446,-5.592995,0.326447,0.87255,0.104903,0.1769
1700754130093750,-7.957446,-5.601995,0.312447,0.84255,0.101903,0.1129
1700754130101562,-7.984446,-5.582995,0.285447,0.70555,0.103803,0.1119
1700754130109375,-7.986446,-5.569995,0.260447,0.64555,0.99303,0.169
1700754130117187,-7.973446,-5.558995,0.235447,0.63255,0.99503,0.951
1700754130125000,-7.982446,-5.549995,0.226447,0.64855,0.101503,0.1251
1700754130132812,-7.964446,-5.561995,0.192447,0.67955,0.105003,0.1391
1700754130140625,-7.937446,-5.573995,0.167447,0.61855,0.96903,0.1721
1700754130148437,-7.907446,-5.590995,0.164447,0.75455,0.107903,0.911
1700754130156250,-7.881446,-5.631995,0.160447,0.72355,0.97903,0.931
1700754130164062,-7.890446,-5.659995,0.173447,0.79755,0.83803,0.181
1700754130171875,-7.928446,-5.699995,0.169447,0.64555,0.82603,0.341
1700754130179687,-7.944446,-5.742995,0.182447,0.69055,0.69103,0.211
1700754130187500,-7.956446,-5.747995,0.191447,0.67455,0.67103,0.89
1700754130195312,-7.984446,-5.745995,0.198447,0.58255,0.63903,0.239
1700754130203125,-7.977446,-5.731995,0.196447,0.56655,0.61903,0.859
1700754130210937,-7.978446,-5.705995,0.198447,0.41255,0.54003,0.1159
1700754130218750,-7.970446,-5.677995,0.201447,0.39855,0.61003,0.1019
1700754130226562,-7.953446,-5.640995,0.196447,0.36655,0.48703,0.1289
1700754130234375,-7.938446,-5.628995,0.194447,0.41055,0.53403,0.2249
1700754130242187,-7.928446,-5.575995,0.194447,0.41055,0.58403,0.2739
1700754130250000,-7.934446,-5.538995,0.194447,0.38055,0.56703,0.2569
1700754130257812,-7.953446,-5.512995,0.194447,0.48655,0.49803,0.2729
1700754130265625,-7.955446,-5.493995,0.189447,0.50055,0.37803,0.2529
1700754130273437,-7.932446,-5.487995,0.189447,0.42555,0.43003,0.2539
1700754130281250,-7.951446,-5.503995,0.215447,0.47055,0.43203,0.2549
1700754130289062,-7.987446,-5.500995,0.230447,0.51555,0.37803,0.2689
1700754130296875,-8.24446,-5.488995,0.235447,0.53155,0.44703,0.2559
1700754130304687,-8.35446,-5.463995,0.237447,0.51755,0.38103,0.1909
1700754130312500,-8.38446,-5.446995,0.256447,0.50455,0.38803,0.659
1700754130320312,-8.27446,-5.430995,0.260447,0.59555,0.40303,0.829
1700754130328125,-8.17446,-5.423995,0.283447,0.56555,0.41803,0.819
1700754130335937,-8.7446,-5.408995,0.270447,0.61155,0.40403,0.509
1700754130343750,-8.24446,-5.408995,0.285447,0.64255,0.40203,0.189
1700754130351562,-8.63446,-5.410995,0.288447,0.62755,0.37103,0.131
1700754130359375,-8.76446,-5.400995,0.290447,0.64455,0.45603,0.1061
1700754130367187,-8.59446,-5.403995,0.288447,0.63055,0.47703,0.1531
1700754130375000,-8.6446,-5.426995,0.274447,0.67655,0.41003,0.2171
1700754130382812,-7.949446,-5.469995,0.285447,0.82955,0.44303,0.2471
1700754130390625,-7.935446,-5.505995,0.335447,0.81455,0.44303,0.2311
1700754130398437,-7.928446,-5.554995,0.335447,0.88955,0.27403,0.2491
1700754130406250,-7.948446,-5.581995,0.353447,0.67555,0.21203,0.2361
1700754130414062,-7.979446,-5.613995,0.383447,0.64455,0.21003,0.2051
1700754130421875,-7.983446,-5.629995,0.403447,0.66055,0.19303,0.2221
1700754130429687,-7.940446,-5.663995,0.397447,0.61455,0.16403,0.2531
1700754130437500,-7.929446,-5.679995,0.424447,0.46255,0.16603,0.2221
1700754130445312,-7.975446,-5.707995,0.444447,0.36955,0.12903,0.1781
1700754130453125,-8.19446,-5.711995,0.456447,0.17155,0.8703,0.2261
1700754130460937,-7.996446,-5.678995,0.447447,0.12755,0.10703,0.2741
1700754130468750,-7.943446,-5.648995,0.442447,0.3945,0.6203,0.3221
1700754130476562,-7.979446,-5.620995,0.458447,0.10145,0.11003,0.2431
1700754130484375,-8.45446,-5.563995,0.438447,0.10045,0.11203,0.3391
1700754130492187,-8.82446,-5.503995,0.413447,0.11345,0.21703,0.3991
1700754130500000,-8.75446,-5.423995,0.356447,0.8245,0.27103,0.4441
1700754130507812,-8.2446,-5.413995,0.306447,0.2555,0.26903,0.5071
1700754130515625,-7.891446,-5.439995,0.272447,0.17855,0.40003,0.4871
1700754130523437,-7.794446,-5.507995,0.246447,0.34655,0.37903,0.5031
1700754130531250,-7.746446,-5.572995,0.251447,0.39155,0.34303,0.4881
1700754130539062,-7.766446,-5.628995,0.262447,0.54355,0.20803,0.5051
1700754130546875,-7.827446,-5.647995,0.274447,0.61855,0.3703,0.4921
1700754130554687,-7.867446,-5.659995,0.294447,0.60355,0.1903,0.5101
1700754130562500,-7.865446,-5.679995,0.333447,0.76955,0.397,0.4301
1700754130570312,-7.850446,-5.755995,0.382447,0.88955,0.1197,0.3361
1700754130578125,-7.877446,-5.840995,0.455447,0.97955,0.1297,0.2551
1700754130585937,-7.909446,-5.874995,0.535447,0.90255,0.3197,0.2251
1700754130593750,-7.949446,-5.859995,0.567447,0.84055,0.5103,0.811
1700754130601562,-7.990446,-5.818995,0.574447,0.73255,0.16703,0.0
1700754130609375,-7.995446,-5.798995,0.597447,0.74755,0.26503,0.479
1700754130617187,-8.8446,-5.772995,0.601447,0.73255,0.38003,0.819
1700754130625000,-8.6446,-5.768995,0.567447,0.64155,0.43303,0.979
1700754130632812,-7.990446,-5.746995,0.546447,0.65655,0.49803,0.1149
1700754130640625,-8.9446,-5.697995,0.521447,0.67255,0.48303,0.679
1700754130648437,-8.58446,-5.630995,0.508447,0.70355,0.65103,0.1039
1700754130656250,-8.82446,-5.542995,0.497447,0.79555,0.68303,0.729
1700754130664062,-8.63446,-5.443995,0.456447,0.99455,0.83103,0.779
1700754130671875,-7.994446,-5.384995,0.413447,0.123655,0.84003,0.1909
1700754130679687,-7.907446,-5.405995,0.408447,0.154155,0.99703,0.2579
1700754130687500,-7.854446,-5.504995,0.442447,0.180055,0.107603,0.2939
1700754130695312,-7.859446,-5.608995,0.469447,0.198055,0.93303,0.3859
1700754130703125,-7.888446,-5.663995,0.476447,0.194955,0.99903,0.4509
1700754130710937,-7.906446,-5.659995,0.483447,0.187155,0.81303,0.4769
1700754130718750,-7.944446,-5.635995,0.503447,0.185755,0.76503,0.3969
1700754130726562,-7.963446,-5.616995,0.522447,0.184155,0.76603,0.4449
1700754130734375,-7.936446,-5.629995,0.547447,0.182855,0.73603,0.3329
1700754130742187,-7.881446,-5.655995,0.558447,0.170655,0.74103,0.3339
1700754130750000,-7.825446,-5.680995,0.604447,0.167555,0.72403,0.3489
1700754130757812,-7.874446,-5.701995,0.667447,0.158355,0.69103,0.3629
1700754130765625,-7.937446,-5.691995,0.665447,0.138455,0.67503,0.3759
1700754130773437,-7.956446,-5.655995,0.640447,0.118755,0.66503,0.3269
1700754130781250,-7.938446,-5.624995,0.633447,0.91455,0.65803,0.2149
1700754130789062,-7.924446,-5.625995,0.633447,0.85655,0.68203,0.739
1700754130796875,-7.915446,-5.667995,0.629447,0.67555,0.67203,0.221
1700754130804687,-7.934446,-5.718995,0.640447,0.52355,0.54403,0.1371
1700754130812500,-7.942446,-5.714995,0.631447,0.32855,0.50603,0.2951
1700754130820312,-7.940446,-5.696995,0.615447,0.17855,0.51503,0.4381
1700754130828125,-7.940446,-5.662995,0.604447,0.14855,0.55103,0.5011
1700754130835937,-7.911446,-5.636995,0.556447,0.13355,0.53503,0.4851
1700754130843750,-7.882446,-5.628995,0.538447,0.10255,0.53703,0.4851
1700754130851562,-7.846446,-5.624995,0.542447,0.8555,0.51803,0.3901
1700754130859375,-7.837446,-5.627995,0.536447,0.10155,0.55203,0.3891
1700754130867187,-7.830446,-5.625995,0.520447,0.12955,0.52903,0.2631
1700754130875000,-7.821446,-5.627995,0.494447,0.15855,0.50703,0.1861
1700754130882812,-7.861446,-5.633995,0.485447,0.15855,0.55603,0.1531
1700754130890625,-7.893446,-5.633995,0.467447,0.15755,0.62003,0.571
1700754130898437,-7.879446,-5.634995,0.449447,0.17255,0.60203,0.901
1700754130906250,-7.862446,-5.658995,0.430447,0.27955,0.56403,0.1231
1700754130914062,-7.853446,-5.695995,0.442447,0.35655,0.56603,0.1211
1700754130921875,-7.823446,-5.767995,0.453447,0.32455,0.55003,0.731
1700754130929687,-7.845446,-5.797995,0.478447,0.26555,0.48403,0.1871
1700754130937500,-7.885446,-5.824995,0.480447,0.25055,0.48603,0.2031
1700754130945312,-7.924446,-5.839995,0.474447,0.37055,0.35003,0.1721
1700754130953125,-7.956446,-5.834995,0.471447,0.28055,0.38603,0.2201
1700754130960937,-7.961446,-5.823995,0.451447,0.32555,0.43403,0.1391
1700754130968750,-7.935446,-5.841995,0.453447,0.28055,0.55103,0.1541
1700754130976562,-7.898446,-5.888995,0.451447,0.41655,0.49803,0.1381
1700754130984375,-7.867446,-5.920995,0.457447,0.38655,0.48503,0.1531
1700754130992187,-7.894446,-5.940995,0.462447,0.41655,0.49903,0.1051
1700754131000000,-7.900446,-5.917995,0.453447,0.35555,0.56603,0.1051
1700754131007812,-7.869446,-5.864995,0.444447,0.37055,0.56303,0.901
1700754131015625,-7.849446,-5.833995,0.432447,0.38455,0.67603,0.229
1700754131023437,-7.832446,-5.845995,0.433447,0.50455,0.57303,0.1179
1700754131031250,-7.791446,-5.841995,0.423447,0.53255,0.63403,0.2609
1700754131039062,-7.782446,-5.815995,0.414447,0.54455,0.62603,0.4659
1700754131046875,-7.798446,-5.776995,0.421447,0.64955,0.63303,0.5759
1700754131054687,-7.844446,-5.724995,0.426447,0.61655,0.62803,0.7169
1700754131062500,-7.858446,-5.657995,0.421447,0.62955,0.53903,0.8249
1700754131070312,-7.883446,-5.616995,0.442447,0.75055,0.46803,0.8549
1700754131078125,-7.928446,-5.581995,0.456447,0.78055,0.46803,0.9039
1700754131085937,-7.986446,-5.557995,0.492447,0.85655,0.54803,0.9219
1700754131093750,-8.59446,-5.543995,0.533447,0.90155,0.54803,0.9539
1700754131101562,-8.120446,-5.548995,0.542447,0.99355,0.56203,0.9219
1700754131109375,-8.130446,-5.538995,0.540447,0.93355,0.71603,0.9099
1700754131117187,-8.137446,-5.531995,0.531447,0.88955,0.77003,0.8799
1700754131125000,-8.127446,-5.533995,0.515447,0.96755,0.73803,0.7539
1700754131132812,-8.93446,-5.556995,0.486447,0.86055,0.75803,0.7539
1700754131140625,-8.50446,-5.565995,0.456447,0.89355,0.94203,0.7089
1700754131148437,-7.998446,-5.569995,0.447447,0.83155,0.97903,0.7429
1700754131156250,-7.987446,-5.544995,0.426447,0.80055,0.86003,0.7389
1700754131164062,-8.19446,-5.510995,0.417447,0.66355,0.84603,0.7379
1700754131171875,-8.35446,-5.469995,0.415447,0.61755,0.72703,0.7179
1700754131179687,-8.61446,-5.423995,0.413447,0.63455,0.75303,0.5949
1700754131187500,-8.53446,-5.374995,0.418447,0.62055,0.73803,0.5469
1700754131195312,-8.12446,-5.337995,0.418447,0.63655,0.75503,0.4999
1700754131203125,-8.8446,-5.315995,0.416447,0.63655,0.79103,0.4849
1700754131210937,-7.992446,-5.317995,0.406447,0.63855,0.71203,0.3739
1700754131218750,-7.969446,-5.306995,0.445447,0.62255,0.64203,0.3709
1700754131226562,-7.971446,-5.319995,0.468447,0.65355,0.69103,0.3549
1700754131234375,-7.972446,-5.340995,0.493447,0.72855,0.67303,0.4519
1700754131242187,-8.30446,-5.372995,0.502447,0.72755,0.63703,0.4499
1700754131250000,-8.61446,-5.411995,0.518447,0.72855,0.67103,0.4189
1700754131257812,-8.95446,-5.431995,0.556447,0.77655,0.71003,0.3109
1700754131265625,-8.151446,-5.439995,0.570447,0.65355,0.74203,0.3729
1700754131273437,-8.190446,-5.421995,0.566447,0.53455,0.81803,0.2489
1700754131281250,-8.195446,-5.383995,0.506447,0.47355,0.85303,0.2169
1700754131289062,-8.166446,-5.370995,0.445447,0.49355,0.109503,0.649
1700754131296875,-8.134446,-5.409995,0.418447,0.47955,0.108103,0.19
1700754131304687,-8.106446,-5.454995,0.386447,0.48155,0.118603,0.911
1700754131312500,-8.32446,-5.494995,0.345447,0.48355,0.122903,0.2291
1700754131320312,-7.944446,-5.539995,0.315447,0.40755,0.116103,0.2491
1700754131328125,-7.939446,-5.561995,0.303447,0.39255,0.114303,0.2501
1700754131335937,-7.996446,-5.547995,0.303447,0.40555,0.105703,0.1881
1700754131343750,-8.60446,-5.457995,0.256447,0.38855,0.103603,0.941
1700754131351562,-8.63446,-5.370995,0.176447,0.40355,0.118203,0.131
1700754131359375,-8.5446,-5.333995,0.108447,0.58555,0.117903,0.199
1700754131367187,-7.938446,-5.334995,0.88447,0.73755,0.115803,0.679
1700754131375000,-7.844446,-5.373995,0.112447,0.85855,0.120203,0.1649
1700754131382812,-7.778446,-5.407995,0.140447,0.90355,0.100203,0.1139
1700754131390625,-7.843446,-5.440995,0.169447,0.93255,0.76503,0.929
1700754131398437,-7.945446,-5.429995,0.194447,0.90255,0.61703,0.99
1700754131406250,-8.20446,-5.421995,0.219447,0.101055,0.53303,0.701
1700754131414062,-8.58446,-5.459995,0.242447,0.104255,0.55303,0.1481
1700754131421875,-8.73446,-5.532995,0.299447,0.111955,0.58703,0.2101
1700754131429687,-8.60446,-5.643995,0.328447,0.115055,0.55303,0.2421
1700754131437500,-8.39446,-5.731995,0.374447,0.112055,0.52203,0.2421
1700754131445312,-8.20446,-5.780995,0.401447,0.89055,0.59003,0.1481
1700754131453125,-8.33446,-5.795995,0.412447,0.64555,0.61103,0.1181
1700754131460937,-8.43446,-5.784995,0.410447,0.62955,0.65903,0.61
1700754131468750,-8.61446,-5.746995,0.385447,0.39755,0.67203,0.1489
1700754131476562,-8.51446,-5.677995,0.376447,0.21455,0.67603,0.1969
1700754131484375,-8.34446,-5.602995,0.347447,0.12355,0.77903,0.1659
1700754131492187,-8.31446,-5.545995,0.317447,0.13855,0.66503,0.1499
1700754131500000,-8.26446,-5.499995,0.308447,0.18455,0.69403,0.1489
1700754131507812,-8.17446,-5.455995,0.272447,0.15555,0.71603,0.549
1700754131515625,-7.983446,-5.442995,0.247447,0.15755,0.68603,0.731
1700754131523437,-7.988446,-5.431995,0.233447,0.17255,0.58503,0.741
1700754131531250,-7.980446,-5.420995,0.224447,0.26555,0.62203,0.1511
1700754131539062,-7.961446,-5.409995,0.208447,0.37155,0.53503,0.1681
1700754131546875,-7.954446,-5.418995,0.201447,0.41655,0.48203,0.1381
1700754131554687,-7.956446,-5.478995,0.217447,0.59955,0.47803,0.1521
1700754131562500,-7.946446,-5.519995,0.231447,0.64355,0.54003,0.241
1700754131570312,-7.970446,-5.551995,0.262447,0.62655,0.53403,0.849
1700754131578125,-8.12446,-5.551995,0.276447,0.71655,0.41403,0.1619
1700754131585937,-8.21446,-5.553995,0.267447,0.91455,0.41003,0.1639
1700754131593750,-8.5446,-5.535995,0.299447,0.77655,0.37703,0.1769
1700754131601562,-8.446,-5.533995,0.331447,0.68455,0.36003,0.2389
1700754131609375,-8.58446,-5.524995,0.365447,0.63755,0.36203,0.2719
1700754131617187,-8.87446,-5.508995,0.326447,0.63755,0.31203,0.2869
1700754131625000,-8.40446,-5.462995,0.297447,0.62255,0.38103,0.2569
1700754131632812,-7.988446,-5.422995,0.308447,0.63855,0.42803,0.2719
1700754131640625,-7.953446,-5.446995,0.324447,0.57755,0.51103,0.2569
1700754131648437,-7.960446,-5.505995,0.333447,0.57755,0.44603,0.2719
1700754131656250,-8.5446,-5.546995,0.335447,0.42455,0.26403,0.2349
1700754131664062,-8.46446,-5.517995,0.344447,0.33355,0.25203,0.2039
1700754131671875,-8.52446,-5.446995,0.336447,0.16655,0.15803,0.1219
1700754131679687,-8.59446,-5.396995,0.358447,0.13655,0.903,0.229
1700754131687500,-8.50446,-5.405995,0.381447,0.13755,0.597,0.81
1700754131695312,-8.38446,-5.423995,0.418447,0.18455,0.297,0.711
1700754131703125,-8.46446,-5.440995,0.477447,0.15455,0.3697,0.1361
1700754131710937,-8.83446,-5.418995,0.488447,0.9455,0.1597,0.1671
1700754131718750,-8.102446,-5.380995,0.481447,0.3255,0.3097,0.1511
1700754131726562,-8.85446,-5.351995,0.456447,0.11055,0.503,0.2281
1700754131734375,-8.27446,-5.369995,0.452447,0.12655,0.11903,0.2431
1700754131742187,-7.982446,-5.427995,0.443447,0.20255,0.7203,0.2251
1700754131750000,-8.3446,-5.488995,0.477447,0.15755,0.5503,0.2591
1700754131757812,-8.35446,-5.496995,0.490447,0.12855,0.7403,0.3381
1700754131765625,-8.37446,-5.463995,0.483447,0.12755,0.1197,0.3251
1700754131773437,-8.11446,-5.430995,0.472447,0.9855,0.1003,0.3861
1700754131781250,-8.6446,-5.461995,0.506447,0.16055,0.4303,0.4491
1700754131789062,-7.984446,-5.510995,0.536447,0.14555,0.2703,0.4811
1700754131796875,-7.995446,-5.555995,0.549447,0.16055,0.2803,0.4971
1700754131804687,-8.5446,-5.557995,0.542447,0.11455,0.3797,0.4821
1700754131812500,-8.7446,-5.530995,0.526447,0.2455,0.4703,0.5131
1700754131820312,-7.978446,-5.522995,0.499447,0.10055,0.9703,0.4951
1700754131828125,-7.939446,-5.567995,0.465447,0.13155,0.8103,0.5111
1700754131835937,-7.918446,-5.625995,0.463447,0.16155,0.9703,0.4941
1700754131843750,-7.910446,-5.660995,0.474447,0.14755,0.21303,0.5091
1700754131851562,-7.892446,-5.686995,0.465447,0.10055,0.16503,0.4931
1700754131859375,-7.908446,-5.679995,0.460447,0.2145,0.6703,0.5121
1700754131867187,-7.931446,-5.658995,0.456447,0.2345,0.6403,0.4021
1700754131875000,-7.932446,-5.660995,0.453447,0.745,0.2803,0.4351
1700754131882812,-7.933446,-5.661995,0.465447,0.2455,0.15103,0.5101
1700754131890625,-7.962446,-5.662995,0.483447,0.545,0.14903,0.4951
1700754131898437,-7.971446,-5.666995,0.485447,0.6645,0.20203,0.5101
1700754131906250,-7.938446,-5.679995,0.469447,0.6645,0.25403,0.4921
1700754131914062,-7.926446,-5.699995,0.458447,0.4155,0.35303,0.5051
1700754131921875,-7.905446,-5.737995,0.453447,0.13255,0.35103,0.4881
1700754131929687,-7.864446,-5.748995,0.437447,0.16255,0.31403,0.5061
1700754131937500,-7.830446,-5.758995,0.437447,0.26955,0.32803,0.4891
1700754131945312,-7.812446,-5.747995,0.437447,0.16055,0.32803,0.3791
1700754131953125,-7.828446,-5.745995,0.460447,0.18755,0.23703,0.2071
1700754131960937,-7.878446,-5.744995,0.492447,0.36955,0.28203,0.1421
1700754131968750,-7.946446,-5.745995,0.540447,0.47455,0.27503,0.471
1700754131976562,-8.41446,-5.737995,0.604447,0.42755,0.34003,0.639
1700754131984375,-8.134446,-5.700995,0.645447,0.45755,0.26803,0.929
1700754131992187,-8.205446,-5.666995,0.654447,0.45855,0.35703,0.659
1700754132000000,-8.225446,-5.662995,0.629447,0.55155,0.62003,0.539
1700754132007812,-8.216446,-5.679995,0.606447,0.65955,0.69003,0.99
1700754132015625,-8.157446,-5.718995,0.579447,0.66055,0.87603,0.149
1700754132023437,-8.97446,-5.777995,0.535447,0.63055,0.99203,0.479
1700754132031250,-8.33446,-5.817995,0.508447,0.72055,0.105203,0.1599
1700754132039062,-7.983446,-5.818995,0.469447,0.64455,0.108703,0.1439
1700754132046875,-7.947446,-5.806995,0.437447,0.62655,0.103403,0.2699
1700754132054687,-7.922446,-5.792995,0.419447,0.60955,0.94503,0.3449
1700754132062500,-7.931446,-5.767995,0.405447,0.63855,0.97303,0.4559
1700754132070312,-7.944446,-5.723995,0.394447,0.60655,0.95803,0.5199
1700754132078125,-7.946446,-5.676995,0.383447,0.52955,0.90603,0.5329
1700754132085937,-7.940446,-5.636995,0.378447,0.49855,0.89003,0.5639
1700754132093750,-7.932446,-5.601995,0.360447,0.48455,0.92603,0.5499
1700754132101562,-7.929446,-5.574995,0.367447,0.55955,0.92003,0.5959
1700754132109375,-7.957446,-5.562995,0.360447,0.43655,0.87203,0.6269
1700754132117187,-7.987446,-5.528995,0.360447,0.40655,0.88803,0.6419
1700754132125000,-7.985446,-5.511995,0.340447,0.39055,0.102103,0.6759
1700754132132812,-7.958446,-5.491995,0.315447,0.37455,0.98803,0.7399
1700754132140625,-7.944446,-5.480995,0.308447,0.38955,0.98503,0.7549
1700754132148437,-7.984446,-5.453995,0.324447,0.38855,0.98503,0.8189
1700754132156250,-8.29446,-5.419995,0.297447,0.31255,0.98403,0.8009
1700754132164062,-8.41446,-5.366995,0.256447,0.32855,0.102103,0.7549
1700754132171875,-8.14446,-5.332995,0.220447,0.38955,0.103603,0.7399
1700754132179687,-8.41446,-5.341995,0.219447,0.42255,0.105703,0.6149
1700754132187500,-8.97446,-5.371995,0.201447,0.51555,0.99003,0.5339
1700754132195312,-8.116446,-5.383995,0.169447,0.48555,0.112803,0.5219
1700754132203125,-8.91446,-5.375995,0.126447,0.50155,0.116503,0.5089
1700754132210937,-8.45446,-5.383995,0.78447,0.63855,0.120603,0.5399
1700754132218750,-7.949446,-5.448995,0.35447,0.76055,0.119003,0.5259
1700754132226562,-7.821446,-5.553995,0.32447,0.98855,0.121503,0.5419
1700754132234375,-7.758446,-5.693995,0.46447,0.112455,0.109503,0.6049
1700754132242187,-7.778446,-5.766995,0.73447,0.105855,0.83703,0.7719
1700754132250000,-7.809446,-5.768995,0.89447,0.91955,0.60203,0.8129
1700754132257812,-7.875446,-5.758995,0.82447,0.94655,0.59303,0.10019
1700754132265625,-7.927446,-5.798995,0.116447,0.104955,0.50303,0.11909
1700754132273437,-7.954446,-5.910995,0.148447,0.110655,0.52203,0.14579
1700754132281250,-7.980446,-6.37995,0.204447,0.117755,0.54503,0.17439
1700754132289062,-7.958446,-6.64995,0.280447,0.111055,0.59903,0.21389
1700754132296875,-7.976446,-6.10995,0.266447,0.107355,0.50103,0.24979
1700754132304687,-7.992446,-5.988995,0.229447,0.106855,0.52203,0.27969
1700754132312500,-8.31446,-5.970995,0.261447,0.100355,0.54903,0.30339
1700754132320312,-8.84446,-5.889995,0.282447,0.87655,0.52503,0.33169
1700754132328125,-8.112446,-5.803995,0.273447,0.82755,0.56503,0.35199
1700754132335937,-8.151446,-5.785995,0.269447,0.78055,0.63203,0.36169
1700754132343750,-8.162446,-5.783995,0.266447,0.71655,0.62403,0.38209
1700754132351562,-8.125446,-5.723995,0.292447,0.76055,0.77103,0.39669
1700754132359375,-8.176446,-5.653995,0.315447,0.58955,0.81603,0.42029
1700754132367187,-8.222446,-5.597995,0.281447,0.63055,0.78903,0.44229
1700754132375000,-8.223446,-5.527995,0.231447,0.56755,0.65603,0.45329
1700754132382812,-8.215446,-5.439995,0.226447,0.62855,0.75103,0.45649
1700754132390625,-8.230446,-5.366995,0.254447,0.62755,0.81803,0.46139
1700754132398437,-8.248446,-5.325995,0.254447,0.74755,0.80903,0.47239
1700754132406250,-8.239446,-5.312995,0.240447,0.83755,0.65303,0.47999
1700754132414062,-8.200446,-5.287995,0.215447,0.89555,0.79303,0.49909
1700754132421875,-8.224446,-5.225995,0.243447,0.99655,0.79503,0.53389
1700754132429687,-8.221446,-5.113995,0.238447,0.112855,0.66503,0.56049
1700754132437500,-8.231446,-5.31995,0.234447,0.127555,0.55203,0.58559
1700754132445312,-8.249446,-5.19995,0.254447,0.147355,0.56203,0.59199
1700754132453125,-8.315446,-5.55995,0.321447,0.157555,0.47003,0.61249
1700754132460937,-8.394446,-5.65995,0.403447,0.149855,0.45403,0.61719
1700754132468750,-8.399446,-5.56995,0.439447,0.143755,0.38803,0.61549
1700754132476562,-8.417446,-5.46995,0.494447,0.128455,0.35603,0.61679
1700754132484375,-8.483446,-5.2995,0.564447,0.117755,0.33703,0.62119
1700754132492187,-8.568446,-4.955995,0.592447,0.96355,0.27503,0.62259
1700754132500000,-8.649446,-4.938995,0.596447,0.93355,0.39403,0.62119
1700754132507812,-8.679446,-4.907995,0.571447,0.76655,0.43303,0.61969
1700754132515625,-8.677446,-4.879995,0.562447,0.60055,0.57203,0.61349
1700754132523437,-8.663446,-4.883995,0.571447,0.55655,0.75503,0.61209
1700754132531250,-8.666446,-4.859995,0.599447,0.50955,0.70803,0.61369
1700754132539062,-8.649446,-4.804995,0.576447,0.32555,0.72603,0.62469
1700754132546875,-8.632446,-4.700995,0.524447,0.12555,0.64203,0.63229
1700754132554687,-8.653446,-4.628995,0.479447,0.3355,0.69203,0.63699
1700754132562500,-8.715446,-4.572995,0.447447,0.1755,0.77603,0.64199
1700754132570312,-8.738446,-4.527995,0.424447,0.0,0.78803,0.65459
1700754132578125,-8.716446,-4.539995,0.404447,0.7655,0.88703,0.66129
1700754132585937,-8.756446,-4.587995,0.431447,0.11855,0.96103,0.68189
1700754132593750,-8.814446,-4.586995,0.465447,0.9955,0.95003,0.70689
1700754132601562,-8.859446,-4.539995,0.461447,0.555,0.98203,0.72289
1700754132609375,-8.900446,-4.465995,0.452447,0.8845,0.97703,0.73519
1700754132617187,-8.922446,-4.306995,0.434447,0.16545,0.92703,0.73819
1700754132625000,-8.919446,-4.141995,0.430447,0.24145,0.89303,0.73789
1700754132632812,-8.911446,-4.4995,0.419447,0.15045,0.89303,0.74139
1700754132640625,-8.952446,-3.932995,0.380447,0.1345,0.89003,0.74139
1700754132648437,-9.10446,-3.862995,0.367447,0.18455,0.93403,0.74479
1700754132656250,-9.92446,-3.789995,0.360447,0.27555,0.91303,0.74629
1700754132664062,-9.184446,-3.684995,0.353447,0.32255,0.90103,0.73849
1700754132671875,-9.208446,-3.555995,0.312447,0.41755,0.81903,0.71449
1700754132679687,-9.149446,-3.415995,0.283447,0.39155,0.76803,0.68469
1700754132687500,-9.85446,-3.284995,0.249447,0.45855,0.74603,0.64839
1700754132695312,-9.38446,-3.175995,0.263447,0.63255,0.78903,0.61069
1700754132703125,-9.42446,-3.126995,0.291447,0.79255,0.73703,0.56829
1700754132710937,-9.98446,-3.130995,0.288447,0.95055,0.62903,0.53029
1700754132718750,-9.137446,-3.143995,0.309447,0.91255,0.61803,0.48159
1700754132726562,-9.146446,-3.170995,0.314447,0.96455,0.58003,0.44529
1700754132734375,-9.156446,-3.110995,0.368447,0.83355,0.76503,0.41259
1700754132742187,-9.184446,-3.26995,0.389447,0.64055,0.74403,0.38549
1700754132750000,-9.235446,-2.953995,0.332447,0.56755,0.63803,0.36329
1700754132757812,-9.233446,-2.890995,0.264447,0.48155,0.62003,0.32689
1700754132765625,-9.212446,-2.817995,0.244447,0.42755,0.76803,0.29409
1700754132773437,-9.177446,-2.726995,0.251447,0.49455,0.78003,0.25789
1700754132781250,-9.175446,-2.668995,0.255447,0.57855,0.69503,0.21049
1700754132789062,-9.202446,-2.661995,0.262447,0.61655,0.71003,0.16639
1700754132796875,-9.229446,-2.707995,0.246447,0.60955,0.54703,0.10929
1700754132804687,-9.237446,-2.754995,0.258447,0.63455,0.55203,0.5589
1700754132812500,-9.230446,-2.758995,0.298447,0.55255,0.47403,0.271
1700754132820312,-9.201446,-2.772995,0.312447,0.42155,0.44303,0.4221
1700754132828125,-9.226446,-2.768995,0.330447,0.33155,0.30103,0.5821
1700754132835937,-9.307446,-2.784995,0.317447,0.33455,0.27303,0.7571
1700754132843750,-9.391446,-2.787995,0.308447,0.27655,0.24603,0.9321
1700754132851562,-9.445446,-2.760995,0.314447,0.26555,0.23803,0.11681
1700754132859375,-9.493446,-2.753995,0.308447,0.19255,0.31403,0.13401
1700754132867187,-9.516446,-2.751995,0.278447,0.34755,0.33503,0.15111
1700754132875000,-9.511446,-2.754995,0.260447,0.42855,0.50503,0.16981
1700754132882812,-9.447446,-2.789995,0.219447,0.53955,0.56703,0.19791
1700754132890625,-9.384446,-2.814995,0.235447,0.69755,0.54203,0.22931
1700754132898437,-9.327446,-2.819995,0.260447,0.65755,0.55303,0.25931
1700754132906250,-9.277446,-2.827995,0.278447,0.55855,0.47403,0.30831
1700754132914062,-9.293446,-2.838995,0.271447,0.30855,0.43403,0.36531
1700754132921875,-9.293446,-2.827995,0.248447,0.19655,0.32703,0.42861
1700754132929687,-9.270446,-2.841995,0.253447,0.8455,0.10203,0.49211
1700754132937500,-9.275446,-2.839995,0.314447,0.3555,0.10003,0.56621
1700754132945312,-9.228446,-2.837995,0.376447,0.12145,0.9097,0.63291
1700754132953125,-9.198446,-2.848995,0.405447,0.40245,0.4897,0.68501
1700754132960937,-9.229446,-2.905995,0.424447,0.39545,0.8397,0.72601
1700754132968750,-9.155446,-2.980995,0.407447,0.39245,0.5997,0.74331
1700754132976562,-9.43446,-3.61995,0.384447,0.35845,0.7903,0.76041
1700754132984375,-8.994446,-3.187995,0.393447,0.31145,0.26603,0.76301
1700754132992187,-8.973446,-3.354995,0.400447,0.6945,0.50303,0.74351
1700754133000000,-8.971446,-3.508995,0.411447,0.3555,0.51203,0.73241
1700754133007812,-9.8446,-3.648995,0.422447,0.1955,0.62903,0.71951
1700754133015625,-9.14446,-3.746995,0.374447,0.0,0.73603,0.69571
1700754133023437,-8.961446,-3.794995,0.321447,0.1255,0.77903,0.67671
1700754133031250,-8.895446,-3.828995,0.271447,0.10155,0.92203,0.65581
1700754133039062,-8.867446,-3.913995,0.223447,0.41555,0.96803,0.61771
1700754133046875,-8.833446,-4.59995,0.173447,0.74555,0.109703,0.57941
1700754133054687,-8.814446,-4.225995,0.163447,0.108855,0.127003,0.53321
1700754133062500,-8.815446,-4.384995,0.167447,0.130955,0.133203,0.48251
1700754133070312,-8.768446,-4.503995,0.169447,0.140655,0.136003,0.42561
1700754133078125,-8.737446,-4.637995,0.158447,0.162655,0.123603,0.37851
1700754133085937,-8.744446,-4.748995,0.171447,0.167855,0.116503,0.32971
1700754133093750,-8.742446,-4.813995,0.185447,0.167155,0.98403,0.29071
1700754133101562,-8.767446,-4.829995,0.228447,0.155955,0.84303,0.26581
1700754133109375,-8.807446,-4.792995,0.232447,0.140255,0.66903,0.24591
1700754133117187,-8.841446,-4.785995,0.216447,0.133855,0.52903,0.23211
1700754133125000,-8.850446,-4.838995,0.189447,0.138255,0.56003,0.22251
1700754133132812,-8.790446,-4.872995,0.239447,0.142755,0.57203,0.21941
1700754133140625,-8.774446,-4.901995,0.330447,0.127255,0.60303,0.20201
1700754133148437,-8.755446,-4.921995,0.359447,0.116355,0.53203,0.19291
1700754133156250,-8.758446,-4.930995,0.387447,0.117555,0.45803,0.17251
1700754133164062,-8.749446,-4.908995,0.380447,0.92755,0.55503,0.14881
1700754133171875,-8.734446,-4.884995,0.357447,0.87855,0.59903,0.12671
1700754133179687,-8.738446,-4.904995,0.373447,0.90555,0.68903,0.9971
1700754133187500,-8.717446,-4.915995,0.382447,0.79455,0.68303,0.7931
1700754133195312,-8.673446,-4.873995,0.394447,0.65455,0.69703,0.6201
1700754133203125,-8.661446,-4.840995,0.382447,0.65255,0.69103,0.4951
1700754133210937,-8.669446,-4.820995,0.339447,0.43855,0.64503,0.4491
1700754133218750,-8.635446,-4.796995,0.278447,0.38955,0.67203,0.2761
1700754133226562,-8.554446,-4.759995,0.271447,0.28155,0.67003,0.1991
1700754133234375,-8.517446,-4.693995,0.292447,0.15855,0.62203,0.1361
1700754133242187,-8.512446,-4.664995,0.283447,0.14055,0.51603,0.131
1700754133250000,-8.504446,-4.626995,0.276447,0.6355,0.48203,0.169
1700754133257812,-8.518446,-4.550995,0.299447,0.5845,0.33503,0.181
1700754133265625,-8.560446,-4.485995,0.326447,0.13445,0.27303,0.511
1700754133273437,-8.614446,-4.466995,0.333447,0.5745,0.23603,0.1001
1700754133281250,-8.643446,-4.524995,0.353447,0.7955,0.20003,0.1311
1700754133289062,-8.652446,-4.577995,0.413447,0.17155,0.27003,0.1591
1700754133296875,-8.676446,-4.626995,0.451447,0.12655,0.28703,0.1591
1700754133304687,-8.791446,-4.651995,0.501447,0.5055,0.30603,0.1751
1700754133312500,-8.912446,-4.587995,0.504447,0.8645,0.32503,0.1761
1700754133320312,-8.915446,-4.514995,0.443447,0.10245,0.37403,0.1121
1700754133328125,-8.909446,-4.481995,0.388447,0.4045,0.54303,0.1231
1700754133335937,-8.895446,-4.521995,0.336447,0.18955,0.60603,0.2001
1700754133343750,-8.839446,-4.615995,0.274447,0.31355,0.69203,0.2921
1700754133351562,-8.742446,-4.710995,0.267447,0.49855,0.77203,0.3371
1700754133359375,-8.659446,-4.707995,0.287447,0.45255,0.81003,0.3501
1700754133367187,-8.602446,-4.692995,0.260447,0.36055,0.64203,0.3711
1700754133375000,-8.575446,-4.699995,0.233447,0.35755,0.50403,0.2481
1700754133382812,-8.568446,-4.674995,0.232447,0.43255,0.46303,0.1711
1700754133390625,-8.583446,-4.638995,0.260447,0.38555,0.38003,0.1411
1700754133398437,-8.581446,-4.600995,0.271447,0.47555,0.37203,0.151
1700754133406250,-8.559446,-4.586995,0.297447,0.62555,0.36903,0.1139
1700754133414062,-8.561446,-4.615995,0.310447,0.62255,0.42903,0.2729
1700754133421875,-8.587446,-4.627995,0.365447,0.63655,0.50503,0.3989
1700754133429687,-8.615446,-4.615995,0.408447,0.60455,0.51903,0.5099
1700754133437500,-8.638446,-4.586995,0.406447,0.49655,0.48603,0.5559
1700754133445312,-8.656446,-4.572995,0.383447,0.48055,0.40103,0.5529
1700754133453125,-8.684446,-4.604995,0.406447,0.46655,0.45703,0.5409
1700754133460937,-8.720446,-4.597995,0.467447,0.43655,0.44103,0.5079
1700754133468750,-8.743446,-4.540995,0.518447,0.29955,0.45903,0.4909
1700754133476562,-8.776446,-4.467995,0.477447,0.11855,0.37203,0.3319
1700754133484375,-8.783446,-4.422995,0.445447,0.16455,0.41903,0.3479
1700754133492187,-8.811446,-4.382995,0.422447,0.12055,0.54203,0.2559
1700754133500000,-8.822446,-4.390995,0.443447,0.33455,0.63603,0.2589
1700754133507812,-8.826446,-4.414995,0.456447,0.42955,0.77303,0.1199
1700754133515625,-8.800446,-4.448995,0.465447,0.49055,0.75503,0.1199
1700754133523437,-8.768446,-4.495995,0.458447,0.50555,0.85303,0.1529
1700754133531250,-8.781446,-4.562995,0.454447,0.62655,0.81703,0.2169
1700754133539062,-8.829446,-4.616995,0.472447,0.64055,0.81003,0.2779
1700754133546875,-8.848446,-4.614995,0.495447,0.63855,0.79203,0.4059
1700754133554687,-8.873446,-4.616995,0.495447,0.62155,0.80503,0.4679
1700754133562500,-8.850446,-4.639995,0.485447,0.66755,0.75403,0.4679
1700754133570312,-8.845446,-4.682995,0.499447,0.63655,0.83903,0.5169
1700754133578125,-8.822446,-4.693995,0.540447,0.63655,0.88803,0.5179
1700754133585937,-8.783446,-4.742995,0.558447,0.62155,0.92203,0.5339
1700754133593750,-8.732446,-4.785995,0.565447,0.63755,0.92203,0.5019
1700754133601562,-8.741446,-4.792995,0.567447,0.36255,0.92603,0.5479
1700754133609375,-8.799446,-4.780995,0.585447,0.22555,0.98203,0.5339
1700754133617187,-8.849446,-4.719995,0.565447,0.13455,0.103303,0.5489
1700754133625000,-8.855446,-4.648995,0.531447,0.6345,0.105503,0.5329
1700754133632812,-8.804446,-4.596995,0.481447,0.9345,0.124303,0.5699
1700754133640625,-8.720446,-4.626995,0.456447,0.10555,0.125703,0.5239
1700754133648437,-8.754446,-4.723995,0.529447,0.37955,0.143003,0.6069
1700754133656250,-8.823446,-4.804995,0.592447,0.34855,0.142903,0.6379
1700754133664062,-8.832446,-4.824995,0.601447,0.17955,0.129803,0.6339
1700754133671875,-8.812446,-4.771995,0.574447,0.11855,0.131603,0.6659
1700754133679687,-8.813446,-4.733995,0.540447,0.20955,0.139703,0.6999
1700754133687500,-8.846446,-4.769995,0.504447,0.43655,0.135403,0.8109
1700754133695312,-8.824446,-4.907995,0.455447,0.58755,0.139703,0.9229
1700754133703125,-8.772446,-5.68995,0.462447,0.64755,0.142603,0.10029
1700754133710937,-8.744446,-5.194995,0.500447,0.42855,0.143703,0.13169
1700754133718750,-8.760446,-5.157995,0.512447,0.13555,0.140003,0.15189
1700754133726562,-8.808446,-4.925995,0.471447,0.25145,0.129603,0.18289
1700754133734375,-8.906446,-4.584995,0.383447,0.57645,0.116103,0.20619
1700754133742187,-8.991446,-4.304995,0.268447,0.51945,0.133203,0.23639
1700754133750000,-8.986446,-4.141995,0.163447,0.30845,0.157103,0.25589
1700754133757812,-8.916446,-4.96995,0.54447,0.8855,0.186303,0.26309
1700754133765625,-8.760446,-4.209995,0.73553,0.51755,0.202303,0.25889
1700754133773437,-8.613446,-4.358995,0.126553,0.76255,0.203703,0.25129
1700754133781250,-8.495446,-4.373995,0.80553,0.50555,0.201403,0.23839
1700754133789062,-8.518446,-4.235995,0.89553,0.4245,0.163003,0.21999
1700754133796875,-8.584446,-4.43995,0.207553,0.43845,0.127703,0.20489
1700754133804687,-8.653446,-3.865995,0.347553,0.58745,0.122203,0.18429
1700754133812500,-8.663446,-3.714995,0.452553,0.52345,0.122503,0.16209
1700754133820312,-8.643446,-3.628995,0.486553,0.10945,0.143703,0.15489
1700754133828125,-8.658446,-3.690995,0.482553,0.36755,0.171803,0.13839
1700754133835937,-8.668446,-3.837995,0.450553,0.82655,0.179703,0.13109
1700754133843750,-8.643446,-3.930995,0.400553,0.78455,0.191803,0.11699
1700754133851562,-8.657446,-3.953995,0.384553,0.40555,0.181803,0.9929
1700754133859375,-8.676446,-3.937995,0.457553,0.16355,0.164403,0.8309
1700754133867187,-8.687446,-3.942995,0.555553,0.13555,0.168503,0.6739
1700754133875000,-8.786446,-3.952995,0.626553,0.10855,0.174203,0.5329
1700754133882812,-8.882446,-3.951995,0.675553,0.23055,0.190903,0.5549
1700754133890625,-8.958446,-3.974995,0.698553,0.26255,0.187503,0.4899
1700754133898437,-8.999446,-3.965995,0.744553,0.18755,0.179803,0.3459
1700754133906250,-8.976446,-3.968995,0.810553,0.14455,0.172203,0.1549
1700754133914062,-8.881446,-3.940995,0.858553,0.34455,0.178603,0.779
1700754133921875,-8.775446,-3.885995,0.883553,0.40655,0.188403,0.639
1700754133929687,-8.692446,-3.875995,0.919553,0.51355,0.173503,0.149
1700754133937500,-8.667446,-3.907995,0.922553,0.75855,0.160203,0.951
1700754133945312,-8.675446,-3.976995,0.894553,0.89555,0.148303,0.1441
1700754133953125,-8.745446,-4.45995,0.847553,0.107955,0.144903,0.2221
1700754133960937,-8.857446,-4.63995,0.792553,0.109555,0.129903,0.3201
1700754133968750,-8.842446,-4.41995,0.781553,0.97455,0.120603,0.4331
1700754133976562,-8.710446,-4.35995,0.835553,0.111355,0.122003,0.4801
1700754133984375,-8.530446,-4.111995,0.902553,0.147855,0.129203,0.4301
1700754133992187,-8.359446,-4.232995,0.840553,0.188755,0.139903,0.2501
1700754134000000,-8.245446,-4.316995,0.727553,0.207955,0.147903,0.1469
1700754134007812,-8.261446,-4.295995,0.581553,0.169255,0.147503,0.5069
1700754134015625,-8.458446,-4.100995,0.480553,0.127255,0.119703,0.9069
1700754134023437,-8.627446,-3.862995,0.550553,0.80455,0.72003,0.13349
1700754134031250,-8.813446,-3.676995,0.682553,0.69555,0.40303,0.13599
1700754134039062,-9.59446,-3.568995,0.702553,0.93955,0.24803,0.13429
1700754134046875,-9.234446,-3.532995,0.595553,0.121855,0.18803,0.10129
1700754134054687,-9.374446,-3.520995,0.372553,0.137855,0.25003,0.5889
1700754134062500,-9.547446,-3.507995,0.135553,0.143255,0.20203,0.689
1700754134070312,-9.634446,-3.580995,0.57553,0.151655,0.11503,0.4221
1700754134078125,-9.733446,-3.662995,0.58553,0.152255,0.14503,0.7521
1700754134085937,-9.700446,-3.786995,0.151553,0.169755,0.41103,0.10901
1700754134093750,-9.451446,-3.959995,0.224553,0.202255,0.74703,0.12381
1700754134101562,-9.175446,-4.202995,0.216553,0.245155,0.107203,0.12291
1700754134109375,-8.971446,-4.528995,0.169553,0.272355,0.121003,0.10841
1700754134117187,-8.814446,-4.815995,0.42553,0.278055,0.121703,0.8311
1700754134125000,-8.735446,-4.943995,0.89447,0.196855,0.89303,0.7011
1700754134132812,-8.798446,-4.891995,0.116447,0.110855,0.45003,0.4951
1700754134140625,-8.962446,-4.696995,0.91447,0.51255,0.25503,0.4741
1700754134148437,-9.61446,-4.432995,0.94447,0.14355,0.17503,0.3351
1700754134156250,-9.94446,-4.169995,0.111447,0.6945,0.36203,0.2541
1700754134164062,-9.6446,-3.995995,0.80447,0.5355,0.51503,0.2641
1700754134171875,-8.831446,-3.948995,0.61447,0.41955,0.69203,0.2421
1700754134179687,-8.666446,-4.1995,0.82447,0.78555,0.73103,0.2241
1700754134187500,-8.637446,-4.110995,0.113447,0.91055,0.71703,0.3811
1700754134195312,-8.688446,-4.137995,0.157447,0.65155,0.49403,0.4651
1700754134203125,-8.711446,-4.81995,0.139447,0.31555,0.25103,0.5511
1700754134210937,-8.706446,-3.938995,0.82447,0.5955,0.497,0.7961
1700754134218750,-8.712446,-3.801995,0.21447,0.1345,0.11097,0.10341
1700754134226562,-8.727446,-3.734995,0.40553,0.20255,0.12297,0.12211
1700754134234375,-8.758446,-3.751995,0.76553,0.55755,0.2603,0.14051
1700754134242187,-8.712446,-3.801995,0.67553,0.97255,0.7603,0.16061
1700754134250000,-8.603446,-3.890995,0.38553,0.121955,0.19603,0.17271
1700754134257812,-8.550446,-4.52995,0.20553,0.145155,0.12803,0.19651
1700754134265625,-8.527446,-4.273995,0.16553,0.166955,0.6703,0.22331
1700754134273437,-8.443446,-4.438995,0.42447,0.164155,0.7103,0.23601
1700754134281250,-8.346446,-4.578995,0.96447,0.148855,0.12497,0.24281
1700754134289062,-8.282446,-4.682995,0.114447,0.127455,0.35097,0.24961
1700754134296875,-8.303446,-4.773995,0.151447,0.115055,0.66997,0.24411
1700754134304687,-8.388446,-4.842995,0.200447,0.107255,0.85697,0.24301
1700754134312500,-8.530446,-4.905995,0.282447,0.87455,0.103297,0.24981
1700754134320312,-8.650446,-4.919995,0.319447,0.67455,0.111497,0.24221
1700754134328125,-8.811446,-4.913995,0.360447,0.49155,0.117797,0.24241
1700754134335937,-8.943446,-4.857995,0.385447,0.26555,0.108497,0.25341
1700754134343750,-8.978446,-4.768995,0.390447,0.19155,0.86097,0.26401
1700754134351562,-8.945446,-4.701995,0.401447,0.19455,0.75797,0.27331
1700754134359375,-8.873446,-4.668995,0.431447,0.25755,0.72097,0.28741
1700754134367187,-8.823446,-4.644995,0.479447,0.24455,0.71397,0.30151
1700754134375000,-8.774446,-4.639995,0.454447,0.24855,0.75597,0.32361
1700754134382812,-8.698446,-4.702995,0.422447,0.38555,0.79097,0.32361
1700754134390625,-8.602446,-4.813995,0.412447,0.58355,0.71297,0.31861
1700754134398437,-8.525446,-4.983995,0.455447,0.83755,0.61297,0.28831
1700754134406250,-8.519446,-5.114995,0.555447,0.92355,0.57697,0.25351
1700754134414062,-8.517446,-5.203995,0.562447,0.67455,0.60197,0.22381
1700754134421875,-8.508446,-5.214995,0.553447,0.66755,0.63397,0.18451
1700754134429687,-8.552446,-5.147995,0.589447,0.61655,0.60997,0.15451
1700754134437500,-8.650446,-5.79995,0.630447,0.58155,0.62097,0.12621
1700754134445312,-8.780446,-5.73995,0.619447,0.62355,0.54497,0.10071
1700754134453125,-8.829446,-5.128995,0.558447,0.66655,0.35097,0.7981
1700754134460937,-8.825446,-5.95995,0.587447,0.55855,0.8697,0.6191
1700754134468750,-8.782446,-4.995995,0.565447,0.37655,0.6403,0.5881
1700754134476562,-8.690446,-4.977995,0.453447,0.40555,0.13003,0.4901
1700754134484375,-8.579446,-4.998995,0.378447,0.43655,0.21303,0.5041
1700754134492187,-8.493446,-4.967995,0.380447,0.40355,0.32003,0.2991
1700754134500000,-8.428446,-4.895995,0.376447,0.40055,0.23403,0.1731
1700754134507812,-8.457446,-4.819995,0.346447,0.38155,0.20803,0.619
1700754134515625,-8.536446,-4.758995,0.287447,0.36355,0.1903,0.1519
1700754134523437,-8.655446,-4.723995,0.260447,0.39155,0.6603,0.2799
1700754134531250,-8.794446,-4.680995,0.281447,0.37655,0.16903,0.2999
1700754134539062,-8.866446,-4.656995,0.274447,0.40955,0.25303,0.1889
1700754134546875,-8.927446,-4.632995,0.299447,0.54955,0.41903,0.979
1700754134554687,-8.965446,-4.563995,0.256447,0.40055,0.51403,0.901
1700754134562500,-8.916446,-4.522995,0.142447,0.45055,0.50703,0.2931
1700754134570312,-8.791446,-4.512995,0.65447,0.62055,0.52503,0.4341
1700754134578125,-8.628446,-4.521995,0.24447,0.72955,0.66003,0.5251
1700754134585937,-8.505446,-4.589995,0.30447,0.104855,0.63603,0.5071
1700754134593750,-8.396446,-4.715995,0.75447,0.114055,0.63103,0.4921
1700754134601562,-8.352446,-4.812995,0.89447,0.112355,0.48303,0.4781
1700754134609375,-8.339446,-4.822995,0.103447,0.89455,0.32203,0.4981
1700754134617187,-8.393446,-4.805995,0.73447,0.77155,0.22103,0.4541
1700754134625000,-8.455446,-4.773995,0.48447,0.72255,0.6803,0.3631
1700754134632812,-8.507446,-4.739995,0.82447,0.79655,0.20803,0.1721
1700754134640625,-8.530446,-4.709995,0.173447,0.74855,0.27003,0.131
1700754134648437,-8.501446,-4.664995,0.239447,0.71655,0.34703,0.1449
1700754134656250,-8.463446,-4.611995,0.271447,0.63855,0.28003,0.1739
1700754134664062,-8.466446,-4.560995,0.315447,0.62255,0.22703,0.2519
1700754134671875,-8.525446,-4.548995,0.329447,0.48555,0.19903,0.2199
1700754134679687,-8.637446,-4.581995,0.351447,0.44055,0.17003,0.1719
1700754134687500,-8.810446,-4.589995,0.351447,0.27455,0.9203,0.99
1700754134695312,-8.913446,-4.546995,0.320447,0.1145,0.20803,0.1611
1700754134703125,-8.914446,-4.522995,0.233447,0.955,0.28903,0.4411
1700754134710937,-8.839446,-4.541995,0.154447,0.10255,0.35503,0.5031
1700754134718750,-8.758446,-4.597995,0.89447,0.19355,0.45003,0.4861
1700754134726562,-8.697446,-4.689995,0.87447,0.36255,0.53003,0.5001
1700754134734375,-8.670446,-4.759995,0.71447,0.40755,0.54703,0.4661
1700754134742187,-8.642446,-4.806995,0.75447,0.37655,0.59603,0.4351
1700754134750000,-8.612446,-4.804995,0.25447,0.25355,0.49503,0.3901
1700754134757812,-8.531446,-4.793995,0.51553,0.34455,0.49003,0.3591
1700754134765625,-8.492446,-4.805995,0.40553,0.38955,0.42303,0.3601
1700754134773437,-8.477446,-4.803995,0.1553,0.37355,0.38903,0.3131
1700754134781250,-8.490446,-4.794995,0.18447,0.34355,0.25603,0.3641
1700754134789062,-8.500446,-4.795995,0.39447,0.35955,0.26103,0.4091
1700754134796875,-8.505446,-4.804995,0.55447,0.38955,0.22903,0.3931
1700754134804687,-8.497446,-4.837995,0.75447,0.41855,0.24003,0.3141
1700754134812500,-8.438446,-4.863995,0.80447,0.50855,0.32003,0.2331
1700754134820312,-8.388446,-4.901995,0.105447,0.46255,0.38403,0.1541
1700754134828125,-8.340446,-4.922995,0.159447,0.42855,0.36303,0.199
1700754134835937,-8.335446,-4.923995,0.205447,0.38155,0.37503,0.969
1700754134843750,-8.378446,-4.860995,0.193447,0.14955,0.31903,0.2819
1700754134851562,-8.418446,-4.763995,0.146447,0.13255,0.26503,0.3589
1700754134859375,-8.411446,-4.695995,0.110447,0.14655,0.25003,0.4239
1700754134867187,-8.384446,-4.662995,0.128447,0.14855,0.38703,0.3479
1700754134875000,-8.431446,-4.652995,0.185447,0.15055,0.35603,0.2359
1700754134882812,-8.536446,-4.638995,0.164447,0.13755,0.29603,0.939
1700754134890625,-8.652446,-4.630995,0.158447,0.15455,0.23303,0.171
1700754134898437,-8.756446,-4.631995,0.128447,0.14155,0.27303,0.1741
1700754134906250,-8.785446,-4.630995,0.92447,0.23855,0.44803,0.4061
1700754134914062,-8.748446,-4.649995,0.71447,0.43955,0.63203,0.5121
1700754134921875,-8.689446,-4.714995,0.71447,0.54655,0.61503,0.5421
1700754134929687,-8.625446,-4.813995,0.73447,0.65555,0.71903,0.6331
1700754134937500,-8.558446,-4.885995,0.82447,0.64055,0.75303,0.6491
1700754134945312,-8.509446,-4.964995,0.91447,0.65355,0.68003,0.5251
1700754134953125,-8.487446,-5.6995,0.86447,0.63655,0.59103,0.4811
1700754134960937,-8.445446,-5.16995,0.57447,0.52955,0.53003,0.4971
1700754134968750,-8.366446,-4.984995,0.73447,0.51155,0.52503,0.3391
1700754134976562,-8.383446,-4.933995,0.82447,0.46355,0.50503,0.1981
1700754134984375,-8.449446,-4.876995,0.62447,0.39855,0.34703,0.29
1700754134992187,-8.425446,-4.839995,0.46447,0.38155,0.36103,0.979
1700754135000000,-8.428446,-4.753995,0.62447,0.39555,0.33703,0.1909
1700754135007812,-8.402446,-4.696995,0.67447,0.38055,0.39103,0.1939
1700754135015625,-8.357446,-4.674995,0.73447,0.51555,0.35003,0.2719
1700754135023437,-8.372446,-4.669995,0.112447,0.57655,0.31303,0.2699
1700754135031250,-8.404446,-4.679995,0.173447,0.60855,0.29903,0.1589
1700754135039062,-8.427446,-4.661995,0.201447,0.60855,0.21703,0.1269
1700754135046875,-8.498446,-4.628995,0.208447,0.51655,0.8603,0.1399
1700754135054687,-8.555446,-4.591995,0.192447,0.56255,0.5103,0.1229
1700754135062500,-8.594446,-4.539995,0.194447,0.59255,0.8303,0.1239
1700754135070312,-8.569446,-4.533995,0.226447,0.74355,0.17703,0.2689
1700754135078125,-8.525446,-4.591995,0.249447,0.107655,0.13203,0.3649
1700754135085937,-8.538446,-4.650995,0.310447,0.110655,0.16103,0.4119
1700754135093750,-8.615446,-4.663995,0.347447,0.96655,0.3997,0.5019
1700754135101562,-8.672446,-4.647995,0.345447,0.81655,0.3197,0.4069
1700754135109375,-8.731446,-4.608995,0.354447,0.75655,0.4597,0.2949
1700754135117187,-8.773446,-4.566995,0.404447,0.69855,0.5197,0.1229
1700754135125000,-8.752446,-4.559995,0.424447,0.73455,0.10803,0.1261
1700754135132812,-8.659446,-4.607995,0.438447,0.69155,0.8103,0.2851
1700754135140625,-8.585446,-4.672995,0.497447,0.81555,0.11603,0.4261
1700754135148437,-8.593446,-4.750995,0.556447,0.69455,0.403,0.5081
1700754135156250,-8.617446,-4.823995,0.560447,0.58855,0.2497,0.5721
1700754135164062,-8.660446,-4.865995,0.563447,0.40755,0.203,0.6821
1700754135171875,-8.671446,-4.865995,0.560447,0.28655,0.4397,0.7311
1700754135179687,-8.658446,-4.859995,0.563447,0.14955,0.4097,0.7481
1700754135187500,-8.604446,-4.851995,0.586447,0.18155,0.1303,0.8091
1700754135195312,-8.552446,-4.867995,0.631447,0.8955,0.297,0.7941
1700754135203125,-8.511446,-4.847995,0.667447,0.3145,0.8303,0.8251
1700754135210937,-8.488446,-4.811995,0.667447,0.6245,0.4603,0.7961
1700754135218750,-8.491446,-4.775995,0.645447,0.4845,0.2297,0.7501
1700754135226562,-8.548446,-4.762995,0.617447,0.3245,0.1303,0.7641
1700754135234375,-8.545446,-4.797995,0.583447,0.3245,0.9703,0.7461
1700754135242187,-8.500446,-4.843995,0.567447,0.7455,0.18003,0.7591
1700754135250000,-8.437446,-4.896995,0.565447,0.18155,0.22403,0.7441
1700754135257812,-8.387446,-4.944995,0.574447,0.10555,0.14403,0.7771
1700754135265625,-8.370446,-4.971995,0.569447,0.1455,0.19503,0.7611
1700754135273437,-8.387446,-4.978995,0.576447,0.3245,0.13103,0.7301
1700754135281250,-8.450446,-4.974995,0.583447,0.3345,0.14303,0.6831
1700754135289062,-8.490446,-4.974995,0.583447,0.6545,0.25703,0.5711
1700754135296875,-8.513446,-4.994995,0.567447,0.9645,0.23803,0.4921
1700754135304687,-8.518446,-4.996995,0.562447,0.1945,0.34003,0.5051
1700754135312500,-8.522446,-5.5995,0.569447,0.4155,0.43903,0.4871
1700754135320312,-8.547446,-5.20995,0.533447,0.2655,0.54103,0.5001
1700754135328125,-8.563446,-5.14995,0.487447,0.10255,0.50803,0.4991
1700754135335937,-8.541446,-4.987995,0.453447,0.16355,0.52103,0.4841
1700754135343750,-8.526446,-5.18995,0.421447,0.16455,0.53603,0.5001
1700754135351562,-8.517446,-5.63995,0.412447,0.36355,0.63503,0.5111
1700754135359375,-8.506446,-5.88995,0.385447,0.42355,0.65003,0.4791
1700754135367187,-8.451446,-5.95995,0.341447,0.40855,0.70003,0.4951
1700754135375000,-8.439446,-5.82995,0.302447,0.53055,0.69703,0.4941
1700754135382812,-8.442446,-5.73995,0.261447,0.66755,0.67503,0.4461
1700754135390625,-8.376446,-5.65995,0.202447,0.69355,0.71503,0.1931
1700754135398437,-8.249446,-5.67995,0.147447,0.87355,0.70403,0.191
1700754135406250,-8.163446,-5.81995,0.166447,0.87055,0.71403,0.1379
1700754135414062,-8.158446,-5.81995,0.195447,0.88155,0.55203,0.3539
1700754135421875,-8.202446,-5.41995,0.252447,0.86355,0.49903,0.5119
1700754135429687,-8.276446,-4.987995,0.275447,0.87655,0.23003,0.5549
1700754135437500,-8.348446,-4.950995,0.321447,0.85955,0.11003,0.5829
1700754135445312,-8.430446,-4.939995,0.401447,0.93655,0.11003,0.5199
1700754135453125,-8.536446,-4.985995,0.462447,0.90655,0.11103,0.5199
1700754135460937,-8.607446,-5.44995,0.514447,0.87755,0.8203,0.4089
1700754135468750,-8.650446,-5.83995,0.553447,0.78855,0.13703,0.3139
1700754135476562,-8.663446,-5.96995,0.560447,0.60655,0.32603,0.3169
1700754135484375,-8.630446,-5.147995,0.523447,0.63655,0.40503,0.3649
1700754135492187,-8.553446,-5.227995,0.493447,0.60655,0.54403,0.3539
1700754135500000,-8.489446,-5.237995,0.514447,0.43755,0.47603,0.4449
1700754135507812,-8.481446,-5.222995,0.539447,0.13055,0.53003,0.5559
1700754135515625,-8.517446,-5.154995,0.516447,0.14455,0.44103,0.6309
1700754135523437,-8.555446,-5.73995,0.450447,0.655,0.41103,0.6299
1700754135531250,-8.559446,-4.960995,0.412447,0.17645,0.51303,0.7259
1700754135539062,-8.588446,-4.858995,0.399447,0.17545,0.58403,0.6809
1700754135546875,-8.627446,-4.758995,0.390447,0.11445,0.66303,0.6979
1700754135554687,-8.634446,-4.684995,0.335447,0.945,0.67303,0.7769
1700754135562500,-8.586446,-4.594995,0.274447,0.14555,0.95803,0.7689
1700754135570312,-8.446446,-4.531995,0.190447,0.28255,0.103603,0.8019
1700754135578125,-8.334446,-4.539995,0.125447,0.57055,0.109003,0.9139
1700754135585937,-8.259446,-4.585995,0.98447,0.82955,0.112003,0.9169
1700754135593750,-8.238446,-4.686995,0.114447,0.107355,0.105003,0.9179
1700754135601562,-8.296446,-4.770995,0.132447,0.107255,0.83203,0.8819
1700754135609375,-8.345446,-4.776995,0.146447,0.90455,0.63603,0.8139
1700754135617187,-8.403446,-4.722995,0.155447,0.84555,0.54403,0.6709
1700754135625000,-8.451446,-4.717995,0.153447,0.99955,0.39403,0.5259
1700754135632812,-8.495446,-4.771995,0.189447,0.113955,0.39503,0.3689
1700754135640625,-8.530446,-4.842995,0.262447,0.112655,0.39903,0.2579
1700754135648437,-8.554446,-4.926995,0.335447,0.108355,0.54103,0.1359
1700754135656250,-8.558446,-4.978995,0.380447,0.100955,0.61503,0.429
1700754135664062,-8.533446,-5.16995,0.380447,0.79555,0.65203,0.419
1700754135671875,-8.508446,-5.16995,0.355447,0.79555,0.66803,0.579
1700754135679687,-8.481446,-4.984995,0.332447,0.64155,0.65203,0.1829
1700754135687500,-8.427446,-4.984995,0.296447,0.64055,0.73103,0.2629
1700754135695312,-8.397446,-5.5995,0.287447,0.54755,0.73203,0.3259
1700754135703125,-8.373446,-4.985995,0.305447,0.37955,0.66703,0.3389
1700754135710937,-8.339446,-4.925995,0.278447,0.19355,0.59803,0.4779
1700754135718750,-8.340446,-4.855995,0.262447,0.8755,0.48203,0.4259
1700754135726562,-8.377446,-4.829995,0.260447,0.11655,0.44703,0.5059
1700754135734375,-8.409446,-4.797995,0.278447,0.8555,0.48103,0.5059
1700754135742187,-8.441446,-4.734995,0.310447,0.11045,0.45603,0.3779
1700754135750000,-8.482446,-4.682995,0.337447,0.9345,0.50703,0.3149
1700754135757812,-8.540446,-4.655995,0.340447,0.7745,0.46003,0.2519
1700754135765625,-8.589446,-4.679995,0.337447,0.3145,0.44403,0.2209
1700754135773437,-8.628446,-4.691995,0.369447,0.155,0.53103,0.1129
1700754135781250,-8.671446,-4.671995,0.349447,0.10345,0.53803,0.19
1700754135789062,-8.646446,-4.689995,0.265447,0.555,0.54203,0.1551
1700754135796875,-8.606446,-4.727995,0.248447,0.15955,0.60703,0.2161
1700754135804687,-8.574446,-4.817995,0.282447,0.17555,0.69203,0.2291
1700754135812500,-8.597446,-4.921995,0.323447,0.32755,0.67103,0.2131
1700754135820312,-8.698446,-4.977995,0.339447,0.29755,0.68603,0.1981
1700754135828125,-8.782446,-4.986995,0.277447,0.17555,0.64103,0.2471
1700754135835937,-8.746446,-4.964995,0.180447,0.12955,0.60803,0.2321
1700754135843750,-8.638446,-4.948995,0.98447,0.14655,0.79503,0.2431
1700754135851562,-8.492446,-4.970995,0.111447,0.23755,0.97503,0.1921
1700754135859375,-8.378446,-4.990995,0.149447,0.25155,0.90003,0.1171
1700754135867187,-8.353446,-5.22995,0.127447,0.17155,0.76103,0.529
1700754135875000,-8.360446,-4.987995,0.95447,0.12355,0.64403,0.1149
1700754135882812,-8.355446,-4.898995,0.47447,0.3155,0.61203,0.1609
1700754135890625,-8.322446,-4.827995,0.18447,0.2955,0.54203,0.2219
1700754135898437,-8.303446,-4.781995,0.16447,0.15155,0.55703,0.2719
1700754135906250,-8.329446,-4.780995,0.18447,0.16455,0.43303,0.3629
1700754135914062,-8.370446,-4.812995,0.34447,0.27055,0.40103,0.3489
1700754135921875,-8.410446,-4.835995,0.71447,0.36155,0.24703,0.3299
1700754135929687,-8.418446,-4.800995,0.93447,0.34655,0.29703,0.3459
1700754135937500,-8.428446,-4.769995,0.87447,0.33155,0.31503,0.3629
1700754135945312,-8.439446,-4.761995,0.116447,0.34555,0.17803,0.3589
1700754135953125,-8.447446,-4.772995,0.130447,0.45255,0.27503,0.3939
1700754135960937,-8.474446,-4.765995,0.159447,0.42155,0.27403,0.3919
1700754135968750,-8.529446,-4.756995,0.189447,0.37655,0.24503,0.3769
1700754135976562,-8.584446,-4.732995,0.196447,0.39255,0.22803,0.3289
1700754135984375,-8.598446,-4.696995,0.164447,0.37755,0.16203,0.2799
1700754135992187,-8.568446,-4.670995,0.128447,0.39455,0.24703,0.2179
1700754136000000,-8.497446,-4.653995,0.130447,0.45755,0.22003,0.769
1700754136007812,-8.421446,-4.654995,0.125447,0.53455,0.20203,0.299
1700754136015625,-8.402446,-4.708995,0.153447,0.62655,0.18403,0.181
1700754136023437,-8.414446,-4.761995,0.180447,0.53755,0.19303,0.1431
1700754136031250,-8.441446,-4.770995,0.191447,0.42955,0.2803,0.1471
1700754136039062,-8.450446,-4.776995,0.212447,0.35355,0.2097,0.1811
1700754136046875,-8.461446,-4.774995,0.228447,0.36955,0.1603,0.2261
1700754136054687,-8.479446,-4.761995,0.232447,0.32255,0.3003,0.1321
1700754136062500,-8.475446,-4.774995,0.230447,0.32355,0.9903,0.1941
1700754136070312,-8.481446,-4.812995,0.287447,0.40055,0.10003,0.2401
1700754136078125,-8.508446,-4.807995,0.353447,0.40055,0.6503,0.2261
1700754136085937,-8.522446,-4.769995,0.380447,0.33955,0.3297,0.2591
1700754136093750,-8.548446,-4.731995,0.362447,0.24855,0.2797,0.3061
1700754136101562,-8.539446,-4.695995,0.353447,0.41855,0.7003,0.3671
1700754136109375,-8.517446,-4.680995,0.351447,0.41855,0.13803,0.3811
1700754136117187,-8.489446,-4.704995,0.367447,0.61755,0.18303,0.4121
1700754136125000,-8.489446,-4.729995,0.380447,0.64855,0.23303,0.3941
1700754136132812,-8.516446,-4.769995,0.381447,0.67955,0.22103,0.4401
1700754136140625,-8.520446,-4.793995,0.344447,0.69455,0.28403,0.3921
1700754136148437,-8.533446,-4.835995,0.328447,0.73955,0.28203,0.3761
1700754136156250,-8.553446,-4.878995,0.339447,0.73955,0.40003,0.3091
1700754136164062,-8.575446,-4.915995,0.357447,0.72455,0.44903,0.3091
1700754136171875,-8.583446,-4.968995,0.348447,0.75455,0.43003,0.2781
1700754136179687,-8.590446,-5.20995,0.348447,0.67855,0.40203,0.3261
1700754136187500,-8.569446,-5.45995,0.378447,0.63355,0.41903,0.3421
1700754136195312,-8.561446,-5.44995,0.382447,0.64755,0.33003,0.3141
1700754136203125,-8.546446,-5.47995,0.378447,0.60355,0.35403,0.3911
1700754136210937,-8.532446,-5.58995,0.366447,0.57255,0.28503,0.4101
1700754136218750,-8.509446,-5.85995,0.359447,0.61755,0.25003,0.3941
1700754136226562,-8.482446,-5.117995,0.368447,0.48055,0.35603,0.3601
1700754136234375,-8.458446,-5.146995,0.359447,0.43355,0.35103,0.2831
1700754136242187,-8.403446,-5.169995,0.329447,0.40255,0.26603,0.2541
1700754136250000,-8.385446,-5.164995,0.359447,0.29555,0.31703,0.2221
1700754136257812,-8.382446,-5.116995,0.377447,0.20055,0.23003,0.511
1700754136265625,-8.373446,-5.78995,0.377447,0.21255,0.23803,0.1379
1700754136273437,-8.394446,-5.59995,0.375447,0.17955,0.20003,0.2789
1700754136281250,-8.376446,-5.11995,0.409447,0.17655,0.21103,0.4369
1700754136289062,-8.399446,-4.979995,0.428447,0.14355,0.19003,0.5619
1700754136296875,-8.447446,-4.943995,0.412447,0.12755,0.15403,0.6079
1700754136304687,-8.468446,-4.887995,0.396447,0.14355,0.18803,0.6099
1700754136312500,-8.467446,-4.834995,0.380447,0.12855,0.22603,0.5639
1700754136320312,-8.434446,-4.778995,0.383447,0.14555,0.22703,0.4849
1700754136328125,-8.402446,-4.759995,0.385447,0.12955,0.26003,0.5169
1700754136335937,-8.425446,-4.761995,0.401447,0.19255,0.34603,0.4409
1700754136343750,-8.450446,-4.781995,0.419447,0.19355,0.30203,0.3619
1700754136351562,-8.452446,-4.783995,0.417447,0.17955,0.27003,0.2659
1700754136359375,-8.438446,-4.808995,0.430447,0.13655,0.26003,0.1399
1700754136367187,-8.465446,-4.813995,0.460447,0.15155,0.29003,0.1549
1700754136375000,-8.551446,-4.785995,0.458447,0.15255,0.25703,0.1069
1700754136382812,-8.611446,-4.767995,0.435447,0.21355,0.34303,0.939
1700754136390625,-8.611446,-4.731995,0.394447,0.27555,0.47303,0.959
1700754136398437,-8.552446,-4.723995,0.349447,0.38255,0.52203,0.1139
1700754136406250,-8.432446,-4.743995,0.335447,0.53555,0.65503,0.869
1700754136414062,-8.346446,-4.782995,0.326447,0.61155,0.55303,0.1019
1700754136421875,-8.340446,-4.851995,0.330447,0.64055,0.45003,0.1149
1700754136429687,-8.371446,-4.919995,0.341447,0.62655,0.26703,0.319
1700754136437500,-8.400446,-4.971995,0.369447,0.52155,0.10903,0.1451
1700754136445312,-8.451446,-4.981995,0.423447,0.40055,0.5297,0.2601
1700754136453125,-8.531446,-4.985995,0.485447,0.35555,0.6397,0.3231
1700754136460937,-8.581446,-4.975995,0.514447,0.15855,0.17497,0.4211
1700754136468750,-8.581446,-4.963995,0.546447,0.15955,0.9097,0.4681
1700754136476562,-8.588446,-4.943995,0.567447,0.16055,0.1997,0.5131
1700754136484375,-8.575446,-4.946995,0.558447,0.14555,0.18103,0.4451
1700754136492187,-8.527446,-4.971995,0.530447,0.17655,0.28203,0.4421
1700754136500000,-8.493446,-4.974995,0.496447,0.17555,0.39503,0.3451
1700754136507812,-8.432446,-4.975995,0.464447,0.20555,0.52503,0.2321
1700754136515625,-8.413446,-4.977995,0.444447,0.18855,0.52103,0.1381
1700754136523437,-8.452446,-4.979995,0.425447,0.14155,0.41903,0.1101
1700754136531250,-8.510446,-4.973995,0.416447,0.21655,0.41503,0.621
1700754136539062,-8.524446,-4.975995,0.382447,0.40055,0.46203,0.1081
1700754136546875,-8.524446,-4.984995,0.384447,0.38555,0.47903,0.1081
1700754136554687,-8.499446,-4.987995,0.398447,0.40055,0.54403,0.431
1700754136562500,-8.465446,-5.30995,0.409447,0.53655,0.49203,0.271
1700754136570312,-8.452446,-5.81995,0.421447,0.52055,0.53803,0.519
1700754136578125,-8.454446,-5.116995,0.443447,0.53455,0.53503,0.1149
1700754136585937,-8.477446,-5.103995,0.453447,0.41155,0.48803,0.1619
1700754136593750,-8.491446,-5.65995,0.425447,0.36455,0.53103,0.2869
1700754136601562,-8.473446,-5.39995,0.398447,0.48555,0.56203,0.3529
1700754136609375,-8.488446,-5.14995,0.387447,0.60455,0.63903,0.5129
1700754136617187,-8.497446,-4.980995,0.382447,0.58955,0.63803,0.5129
1700754136625000,-8.515446,-4.949995,0.380447,0.63455,0.60203,0.5589
1700754136632812,-8.508446,-4.935995,0.343447,0.61855,0.68203,0.6229
1700754136640625,-8.502446,-4.913995,0.337447,0.69355,0.67903,0.6709
1700754136648437,-8.525446,-4.870995,0.362447,0.61655,0.59403,0.6999
1700754136656250,-8.610446,-4.841995,0.355447,0.64655,0.59503,0.7329
1700754136664062,-8.666446,-4.788995,0.351447,0.72355,0.69203,0.7179
1700754136671875,-8.649446,-4.731995,0.305447,0.72355,0.72503,0.7509
1700754136679687,-8.591446,-4.706995,0.287447,0.84655,0.87703,0.7559
1700754136687500,-8.528446,-4.718995,0.308447,0.93855,0.107703,0.7609
1700754136695312,-8.521446,-4.715995,0.335447,0.89255,0.106003,0.7919
1700754136703125,-8.491446,-4.706995,0.314447,0.87555,0.107203,0.8699
1700754136710937,-8.476446,-4.681995,0.276447,0.86155,0.106103,0.8079
1700754136718750,-8.456446,-4.660995,0.237447,0.81655,0.106103,0.7749
1700754136726562,-8.422446,-4.614995,0.226447,0.87755,0.105803,0.7909
1700754136734375,-8.394446,-4.575995,0.233447,0.89255,0.99303,0.7589
1700754136742187,-8.375446,-4.563995,0.215447,0.92255,0.92403,0.7729
1700754136750000,-8.402446,-4.576995,0.219447,0.99855,0.88903,0.7729
1700754136757812,-8.470446,-4.595995,0.237447,0.111955,0.85103,0.7879
1700754136765625,-8.520446,-4.616995,0.265447,0.110555,0.79003,0.7259
1700754136773437,-8.562446,-4.625995,0.301447,0.112255,0.85803,0.6149
1700754136781250,-8.569446,-4.661995,0.335447,0.110755,0.92603,0.6169
1700754136789062,-8.548446,-4.686995,0.371447,0.109255,0.101003,0.6339
1700754136796875,-8.535446,-4.682995,0.383447,0.94155,0.101703,0.5869
1700754136804687,-8.540446,-4.666995,0.376447,0.85055,0.100303,0.5219
1700754136812500,-8.536446,-4.617995,0.342447,0.82055,0.107103,0.5079
1700754136820312,-8.500446,-4.558995,0.297447,0.74655,0.104403,0.3969
1700754136828125,-8.516446,-4.537995,0.260447,0.77555,0.100403,0.4739
1700754136835937,-8.509446,-4.546995,0.237447,0.82155,0.100603,0.4429
1700754136843750,-8.466446,-4.556995,0.242447,0.79255,0.87703,0.3459
1700754136851562,-8.453446,-4.574995,0.247447,0.71655,0.78003,0.2969
1700754136859375,-8.482446,-4.589995,0.233447,0.68755,0.76803,0.1859
1700754136867187,-8.498446,-4.609995,0.224447,0.62655,0.67103,0.1209
1700754136875000,-8.522446,-4.633995,0.244447,0.64555,0.67703,0.681
1700754136882812,-8.555446,-4.672995,0.255447,0.63155,0.57903,0.1661
1700754136890625,-8.607446,-4.707995,0.287447,0.64655,0.51303,0.1991
1700754136898437,-8.654446,-4.740995,0.310447,0.63455,0.55203,0.3401
1700754136906250,-8.654446,-4.762995,0.324447,0.60555,0.57403,0.4651
1700754136914062,-8.610446,-4.792995,0.330447,0.57555,0.59203,0.4811
1700754136921875,-8.594446,-4.836995,0.351447,0.48555,0.56303,0.5771
1700754136929687,-8.579446,-4.901995,0.369447,0.41155,0.50103,0.7221
1700754136937500,-8.569446,-4.943995,0.352447,0.40955,0.42903,0.6131
1700754136945312,-8.569446,-4.982995,0.337447,0.36355,0.43403,0.6281
1700754136953125,-8.531446,-5.16995,0.307447,0.27055,0.34903,0.5191
1700754136960937,-8.489446,-5.41995,0.309447,0.23955,0.38203,0.5041
1700754136968750,-8.437446,-5.44995,0.323447,0.17755,0.38003,0.4411
1700754136976562,-8.421446,-5.43995,0.334447,0.15755,0.28603,0.2241
1700754136984375,-8.444446,-5.28995,0.337447,0.14055,0.25103,0.1131
1700754136992187,-8.437446,-4.992995,0.316447,0.9255,0.27703,0.589
1700754137000000,-8.459446,-4.930995,0.339447,0.1845,0.22303,0.2629
1700754137007812,-8.496446,-4.869995,0.346447,0.3345,0.24003,0.2799
1700754137015625,-8.539446,-4.824995,0.353447,0.5555,0.21403,0.4049
1700754137023437,-8.617446,-4.781995,0.346447,0.8655,0.18403,0.3739
1700754137031250,-8.656446,-4.727995,0.337447,0.2655,0.26903,0.3429
1700754137039062,-8.661446,-4.697995,0.337447,0.7255,0.25303,0.2959
1700754137046875,-8.637446,-4.678995,0.335447,0.12155,0.36003,0.1579
1700754137054687,-8.589446,-4.688995,0.317447,0.33555,0.37403,0.1119
1700754137062500,-8.539446,-4.731995,0.285447,0.41355,0.47703,0.359
1700754137070312,-8.520446,-4.780995,0.296447,0.41155,0.35403,0.1109
1700754137078125,-8.520446,-4.829995,0.305447,0.41155,0.37203,0.1279
1700754137085937,-8.519446,-4.862995,0.314447,0.42655,0.35203,0.1429
1700754137093750,-8.511446,-4.905995,0.307447,0.39555,0.23503,0.1399
1700754137101562,-8.518446,-4.924995,0.346447,0.34855,0.16703,0.1529
1700754137109375,-8.540446,-4.921995,0.371447,0.15055,0.13603,0.1669
1700754137117187,-8.581446,-4.878995,0.394447,0.14855,0.16403,0.2929
1700754137125000,-8.591446,-4.839995,0.410447,0.2655,0.10303,0.2609
1700754137132812,-8.581446,-4.801995,0.405447,0.5655,0.15103,0.3089
1700754137140625,-8.558446,-4.768995,0.412447,0.5045,0.21903,0.3729
1700754137148437,-8.543446,-4.759995,0.419447,0.8245,0.16803,0.4039
1700754137156250,-8.533446,-4.761995,0.421447,0.8145,0.11803,0.3379
1700754137164062,-8.579446,-4.738995,0.451447,0.12645,0.15303,0.3229
1700754137171875,-8.608446,-4.708995,0.442447,0.18645,0.12103,0.2579
1700754137179687,-8.605446,-4.666995,0.421447,0.20145,0.14003,0.2589
1700754137187500,-8.620446,-4.648995,0.412447,0.29145,0.11103,0.1629
1700754137195312,-8.658446,-4.615995,0.429447,0.18345,0.16503,0.869
1700754137203125,-8.670446,-4.566995,0.429447,0.16845,0.9803,0.1019
1700754137210937,-8.673446,-4.530995,0.413447,0.10845,0.11103,0.1499
1700754137218750,-8.692446,-4.486995,0.388447,0.1355,0.17603,0.1839
1700754137226562,-8.662446,-4.459995,0.358447,0.18155,0.32003,0.2029
1700754137234375,-8.587446,-4.449995,0.335447,0.25755,0.33503,0.2199
1700754137242187,-8.483446,-4.455995,0.331447,0.45655,0.39903,0.1909
1700754137250000,-8.442446,-4.511995,0.358447,0.65255,0.26003,0.2529
1700754137257812,-8.473446,-4.564995,0.383447,0.65255,0.19303,0.2679
1700754137265625,-8.543446,-4.594995,0.406447,0.63655,0.10903,0.2339
1700754137273437,-8.596446,-4.600995,0.412447,0.63755,0.10703,0.2009
1700754137281250,-8.618446,-4.600995,0.431447,0.63855,0.13203,0.1249
1700754137289062,-8.610446,-4.636995,0.474447,0.64155,0.18603,0.0
1700754137296875,-8.580446,-4.709995,0.513447,0.64255,0.22203,0.791
1700754137304687,-8.552446,-4.759995,0.551447,0.61255,0.19003,0.791
1700754137312500,-8.527446,-4.764995,0.565447,0.50555,0.25803,0.631
1700754137320312,-8.511446,-4.777995,0.563447,0.35255,0.19503,0.491
1700754137328125,-8.515446,-4.766995,0.565447,0.18455,0.22803,0.191
1700754137335937,-8.574446,-4.758995,0.565447,0.13955,0.24603,0.511
1700754137343750,-8.641446,-4.717995,0.560447,0.15555,0.23303,0.821
1700754137351562,-8.669446,-4.659995,0.531447,0.4955,0.26903,0.1291
1700754137359375,-8.659446,-4.618995,0.526447,0.3755,0.37303,0.2551
1700754137367187,-8.640446,-4.571995,0.515447,0.14455,0.46003,0.2981
1700754137375000,-8.604446,-4.569995,0.486447,0.22355,0.51203,0.3911
1700754137382812,-8.567446,-4.591995,0.476447,0.39055,0.49003,0.4071
1700754137390625,-8.535446,-4.621995,0.469447,0.45255,0.47503,0.4691
1700754137398437,-8.524446,-4.654995,0.456447,0.56055,0.50803,0.4991
1700754137406250,-8.526446,-4.691995,0.454447,0.66555,0.55603,0.4181
1700754137414062,-8.548446,-4.719995,0.442447,0.68155,0.52103,0.4511
1700754137421875,-8.532446,-4.744995,0.419447,0.77255,0.53603,0.4011
1700754137429687,-8.502446,-4.786995,0.444447,0.89355,0.54803,0.3701
1700754137437500,-8.483446,-4.829995,0.467447,0.87655,0.53003,0.2911
1700754137445312,-8.506446,-4.867995,0.506447,0.89155,0.54403,0.2431
1700754137453125,-8.532446,-4.906995,0.549447,0.89155,0.50803,0.2291
1700754137460937,-8.574446,-4.925995,0.558447,0.86055,0.44103,0.2311
1700754137468750,-8.602446,-4.905995,0.578447,0.66255,0.54803,0.2451
1700754137476562,-8.634446,-4.894995,0.572447,0.64755,0.61603,0.2271
1700754137484375,-8.702446,-4.884995,0.574447,0.63355,0.70103,0.2411
1700754137492187,-8.739446,-4.864995,0.569447,0.61855,0.77103,0.2711
1700754137500000,-8.695446,-4.864995,0.517447,0.65055,0.90203,0.3011
1700754137507812,-8.623446,-4.869995,0.458447,0.65255,0.102403,0.3611
1700754137515625,-8.550446,-4.904995,0.423447,0.63655,0.102203,0.3301
1700754137523437,-8.482446,-4.923995,0.391447,0.69755,0.100403,0.3461
1700754137531250,-8.423446,-4.944995,0.375447,0.65055,0.97003,0.2521
1700754137539062,-8.387446,-4.951995,0.344447,0.66355,0.83303,0.1911
1700754137546875,-8.405446,-4.921995,0.346447,0.64755,0.84603,0.1291
1700754137554687,-8.455446,-4.903995,0.339447,0.72155,0.79103,0.191
1700754137562500,-8.494446,-4.862995,0.325447,0.79555,0.66603,0.889
1700754137570312,-8.492446,-4.829995,0.326447,0.88555,0.83003,0.2039
1700754137578125,-8.479446,-4.829995,0.364447,0.86855,0.79303,0.2979
1700754137585937,-8.463446,-4.827995,0.392447,0.88255,0.73903,0.3429
1700754137593750,-8.447446,-4.832995,0.410447,0.95755,0.75203,0.4069
1700754137601562,-8.463446,-4.832995,0.442447,0.86555,0.73703,0.4379
1700754137609375,-8.488446,-4.812995,0.456447,0.88055,0.78603,0.4869
1700754137617187,-8.518446,-4.800995,0.458447,0.82155,0.75803,0.3759
1700754137625000,-8.520446,-4.779995,0.469447,0.82155,0.90503,0.4089
1700754137632812,-8.538446,-4.775995,0.481447,0.67055,0.98003,0.3319
1700754137640625,-8.563446,-4.768995,0.476447,0.65555,0.97903,0.3469
1700754137648437,-8.597446,-4.763995,0.453447,0.62655,0.99903,0.2839
1700754137656250,-8.631446,-4.747995,0.419447,0.64255,0.108403,0.2549
1700754137664062,-8.618446,-4.731995,0.385447,0.64355,0.103503,0.1899
1700754137671875,-8.570446,-4.716995,0.353447,0.64355,0.111803,0.2229
1700754137679687,-8.530446,-4.740995,0.342447,0.64455,0.110603,0.1449
1700754137687500,-8.527446,-4.762995,0.317447,0.62955,0.99103,0.629
1700754137695312,-8.525446,-4.794995,0.308447,0.64555,0.96003,0.479
1700754137703125,-8.540446,-4.781995,0.303447,0.60055,0.92603,0.501
1700754137710937,-8.544446,-4.777995,0.301447,0.60255,0.89603,0.1291
1700754137718750,-8.535446,-4.786995,0.294447,0.64755,0.76003,0.1481
1700754137726562,-8.543446,-4.802995,0.301447,0.63255,0.86603,0.1271
1700754137734375,-8.540446,-4.820995,0.298447,0.52655,0.95003,0.1271
1700754137742187,-8.501446,-4.829995,0.289447,0.46555,0.93603,0.1591
1700754137750000,-8.472446,-4.816995,0.305447,0.49455,0.79803,0.1151
1700754137757812,-8.461446,-4.807995,0.305447,0.41855,0.80003,0.991
1700754137765625,-8.460446,-4.807995,0.305447,0.40255,0.76403,0.701
1700754137773437,-8.452446,-4.819995,0.291447,0.38755,0.86703,0.511
1700754137781250,-8.479446,-4.814995,0.282447,0.37155,0.79903,0.371
1700754137789062,-8.519446,-4.804995,0.287447,0.31055,0.79803,0.221
1700754137796875,-8.520446,-4.778995,0.255447,0.29555,0.76903,0.1011
1700754137804687,-8.513446,-4.774995,0.232447,0.37355,0.78703,0.1471
1700754137812500,-8.494446,-4.795995,0.246447,0.22155,0.73903,0.2451
1700754137820312,-8.471446,-4.832995,0.237447,0.28255,0.75603,0.2281
1700754137828125,-8.474446,-4.825995,0.246447,0.26855,0.82703,0.2411
1700754137835937,-8.468446,-4.814995,0.239447,0.29855,0.84203,0.2251
1700754137843750,-8.486446,-4.778995,0.221447,0.31255,0.80303,0.1481
1700754137851562,-8.518446,-4.749995,0.212447,0.35655,0.75203,0.841
1700754137859375,-8.523446,-4.736995,0.183447,0.38755,0.82003,0.981
1700754137867187,-8.514446,-4.729995,0.166447,0.47855,0.83303,0.821
1700754137875000,-8.496446,-4.745995,0.164447,0.66255,0.78003,0.1301
1700754137882812,-8.501446,-4.784995,0.157447,0.61655,0.77803,0.1471
1700754137890625,-8.494446,-4.832995,0.152447,0.61655,0.72903,0.1161
1700754137898437,-8.494446,-4.858995,0.157447,0.64555,0.56003,0.1351
1700754137906250,-8.493446,-4.901995,0.168447,0.63155,0.64503,0.1491
1700754137914062,-8.488446,-4.934995,0.180447,0.61555,0.54403,0.1511
1700754137921875,-8.522446,-4.960995,0.216447,0.55555,0.49603,0.2011
1700754137929687,-8.537446,-4.968995,0.252447,0.38755,0.43203,0.2191
1700754137937500,-8.562446,-4.975995,0.275447,0.24955,0.40003,0.2051
1700754137945312,-8.565446,-4.968995,0.293447,0.15855,0.40403,0.2051
1700754137953125,-8.569446,-4.961995,0.330447,0.12755,0.43603,0.1891
1700754137960937,-8.592446,-4.950995,0.337447,0.3555,0.47103,0.1091
1700754137968750,-8.624446,-4.905995,0.346447,0.3455,0.46803,0.791
1700754137976562,-8.630446,-4.859995,0.319447,0.5845,0.52103,0.339
1700754137984375,-8.585446,-4.813995,0.298447,0.1145,0.62003,0.199
1700754137992187,-8.522446,-4.789995,0.257447,0.14055,0.71703,0.549
1700754138000000,-8.518446,-4.778995,0.237447,0.16955,0.66303,0.1169
1700754138007812,-8.513446,-4.789995,0.221447,0.15455,0.67903,0.1319
1700754138015625,-8.511446,-4.772995,0.205447,0.17055,0.61603,0.689
1700754138023437,-8.514446,-4.754995,0.212447,0.15555,0.61603,0.209
1700754138031250,-8.511446,-4.742995,0.212447,0.21655,0.59703,0.49
1700754138039062,-8.538446,-4.753995,0.239447,0.21655,0.66503,0.229
1700754138046875,-8.625446,-4.714995,0.262447,0.29355,0.69903,0.81
1700754138054687,-8.700446,-4.677995,0.237447,0.33955,0.78003,0.99
1700754138062500,-8.737446,-4.648995,0.189447,0.40155,0.78203,0.371
1700754138070312,-8.696446,-4.617995,0.139447,0.40255,0.84803,0.361
1700754138078125,-8.592446,-4.644995,0.92447,0.58855,0.98503,0.1731
1700754138085937,-8.446446,-4.703995,0.89447,0.65155,0.102203,0.3141
1700754138093750,-8.334446,-4.798995,0.77447,0.82055,0.90403,0.4101
1700754138101562,-8.303446,-4.916995,0.84447,0.91055,0.76603,0.3971
1700754138109375,-8.338446,-4.990995,0.111447,0.84955,0.56903,0.4481
1700754138117187,-8.428446,-5.22995,0.157447,0.64955,0.43503,0.4061
1700754138125000,-8.515446,-4.988995,0.168447,0.64655,0.23103,0.2991
1700754138132812,-8.554446,-4.949995,0.159447,0.64655,0.32903,0.2661
1700754138140625,-8.538446,-4.934995,0.175447,0.63155,0.46503,0.2471
1700754138148437,-8.499446,-4.958995,0.214447,0.72255,0.51003,0.1831
1700754138156250,-8.450446,-4.997995,0.259447,0.64555,0.64503,0.851
1700754138164062,-8.408446,-5.13995,0.273447,0.64455,0.67303,0.221
1700754138171875,-8.393446,-4.996995,0.257447,0.55155,0.67403,0.569
1700754138179687,-8.409446,-4.939995,0.232447,0.52055,0.65403,0.1179
1700754138187500,-8.439446,-4.877995,0.203447,0.44455,0.67503,0.869
1700754138195312,-8.481446,-4.839995,0.162447,0.53655,0.70803,0.729
1700754138203125,-8.477446,-4.792995,0.134447,0.64555,0.91003,0.149
1700754138210937,-8.452446,-4.760995,0.127447,0.59955,0.83903,0.269
1700754138218750,-8.445446,-4.745995,0.112447,0.64455,0.80603,0.119
1700754138226562,-8.430446,-4.717995,0.107447,0.65955,0.79003,0.279
1700754138234375,-8.446446,-4.687995,0.98447,0.78255,0.88703,0.299
1700754138242187,-8.435446,-4.669995,0.89447,0.93355,0.83003,0.609
1700754138250000,-8.437446,-4.656995,0.91447,0.108655,0.76103,0.129
1700754138257812,-8.446446,-4.667995,0.91447,0.119355,0.75903,0.139
1700754138265625,-8.453446,-4.712995,0.89447,0.125455,0.81103,0.319
1700754138273437,-8.475446,-4.749995,0.91447,0.130055,0.76103,0.321
1700754138281250,-8.515446,-4.771995,0.82447,0.131755,0.71403,0.1111
1700754138289062,-8.522446,-4.805995,0.80447,0.124155,0.66603,0.1451
1700754138296875,-8.528446,-4.849995,0.91447,0.121155,0.62003,0.2241
1700754138304687,-8.520446,-4.909995,0.107447,0.121255,0.63703,0.2561
1700754138312500,-8.499446,-4.961995,0.143447,0.121555,0.64203,0.4131
1700754138320312,-8.476446,-4.988995,0.161447,0.110755,0.59403,0.3991
1700754138328125,-8.519446,-4.983995,0.189447,0.92455,0.49703,0.3861
1700754138335937,-8.536446,-4.956995,0.198447,0.83155,0.49903,0.3391
1700754138343750,-8.514446,-4.923995,0.175447,0.73955,0.53003,0.2451
1700754138351562,-8.489446,-4.899995,0.178447,0.75455,0.63203,0.2261
1700754138359375,-8.458446,-4.888995,0.200447,0.73855,0.68103,0.1621
1700754138367187,-8.424446,-4.885995,0.198447,0.73755,0.63003,0.1301
1700754138375000,-8.392446,-4.883995,0.214447,0.64655,0.66403,0.1311
1700754138382812,-8.386446,-4.881995,0.200447,0.64555,0.56303,0.1171
1700754138390625,-8.411446,-4.874995,0.207447,0.62855,0.54403,0.71
1700754138398437,-8.388446,-4.869995,0.221447,0.70355,0.52303,0.239
1700754138406250,-8.374446,-4.858995,0.260447,0.67355,0.45503,0.59
1700754138414062,-8.370446,-4.842995,0.276447,0.62655,0.45403,0.849
1700754138421875,-8.356446,-4.816995,0.291447,0.64055,0.56603,0.1809
1700754138429687,-8.365446,-4.820995,0.321447,0.64055,0.53303,0.1639
1700754138437500,-8.374446,-4.806995,0.346447,0.59355,0.54603,0.2579
1700754138445312,-8.380446,-4.777995,0.364447,0.56255,0.59803,0.2759
1700754138453125,-8.426446,-4.748995,0.362447,0.47155,0.61803,0.2919
1700754138460937,-8.451446,-4.705995,0.346447,0.36555,0.60503,0.2439
1700754138468750,-8.449446,-4.669995,0.346447,0.16955,0.62903,0.1319
1700754138476562,-8.479446,-4.654995,0.344447,0.20155,0.56903,0.261
1700754138484375,-8.542446,-4.693995,0.367447,0.18855,0.57403,0.1201
1700754138492187,-8.603446,-4.746995,0.385447,0.19355,0.66803,0.3861
1700754138500000,-8.631446,-4.776995,0.387447,0.16455,0.58603,0.4991
1700754138507812,-8.629446,-4.797995,0.383447,0.9155,0.52903,0.6891
1700754138515625,-8.624446,-4.832995,0.360447,0.6555,0.57503,0.9721
1700754138523437,-8.598446,-4.900995,0.344447,0.2355,0.56603,0.11781
1700754138531250,-8.568446,-4.992995,0.310447,0.14755,0.55303,0.12861
1700754138539062,-8.525446,-5.60995,0.302447,0.17955,0.56803,0.13981
1700754138546875,-8.490446,-5.109995,0.314447,0.16455,0.62503,0.14101
1700754138554687,-8.472446,-5.164995,0.302447,0.17755,0.56703,0.12871
1700754138562500,-8.483446,-5.220995,0.279447,0.16055,0.48203,0.12251
1700754138570312,-8.469446,-5.256995,0.273447,0.17255,0.59203,0.10021
1700754138578125,-8.455446,-5.274995,0.261447,0.21455,0.59703,0.7341
1700754138585937,-8.421446,-5.279995,0.238447,0.33255,0.55203,0.5291
1700754138593750,-8.394446,-5.297995,0.250447,0.37555,0.57903,0.3711
1700754138601562,-8.405446,-5.317995,0.243447,0.43155,0.55003,0.721
1700754138609375,-8.405446,-5.321995,0.231447,0.39855,0.56003,0.849
1700754138617187,-8.413446,-5.341995,0.238447,0.34955,0.43503,0.2389
1700754138625000,-8.411446,-5.352995,0.249447,0.34655,0.39903,0.3649
1700754138632812,-8.400446,-5.351995,0.288447,0.16155,0.41703,0.4919
1700754138640625,-8.405446,-5.311995,0.327447,0.6855,0.33203,0.5679
1700754138648437,-8.446446,-5.252995,0.336447,0.11545,0.38103,0.6609
1700754138656250,-8.486446,-5.168995,0.320447,0.13245,0.24303,0.6889
1700754138664062,-8.526446,-5.79995,0.291447,0.26945,0.36403,0.7379
1700754138671875,-8.525446,-5.1995,0.257447,0.29945,0.40103,0.7239
1700754138679687,-8.509446,-4.950995,0.212447,0.32945,0.46803,0.7089
1700754138687500,-8.462446,-4.920995,0.155447,0.23645,0.56703,0.6799
1700754138695312,-8.400446,-4.917995,0.104447,0.16145,0.47603,0.6919
1700754138703125,-8.341446,-4.919995,0.82447,0.9945,0.53003,0.6479
1700754138710937,-8.310446,-4.921995,0.57447,0.11545,0.49503,0.6939
1700754138718750,-8.303446,-4.915995,0.48447,0.3555,0.40503,0.7719
1700754138726562,-8.351446,-4.885995,0.39447,0.1755,0.31703,0.8649
1700754138734375,-8.379446,-4.851995,0.39447,0.10855,0.19703,0.8779
1700754138742187,-8.370446,-4.832995,0.39447,0.12155,0.22803,0.9739
1700754138750000,-8.349446,-4.841995,0.93447,0.24255,0.15503,0.10199
1700754138757812,-8.372446,-4.860995,0.173447,0.28855,0.15403,0.10199
1700754138765625,-8.447446,-4.866995,0.228447,0.25755,0.2797,0.9849
1700754138773437,-8.523446,-4.844995,0.264447,0.8955,0.6297,0.9809
1700754138781250,-8.553446,-4.815995,0.280447,0.0,0.397,0.8729
1700754138789062,-8.559446,-4.777995,0.292447,0.5845,0.1297,0.7629
1700754138796875,-8.565446,-4.761995,0.316447,0.10245,0.1197,0.6659
1700754138804687,-8.583446,-4.783995,0.332447,0.11545,0.2197,0.5089
1700754138812500,-8.583446,-4.795995,0.346447,0.11345,0.6803,0.4169
1700754138820312,-8.599446,-4.790995,0.339447,0.30945,0.11003,0.3229
1700754138828125,-8.658446,-4.749995,0.330447,0.18745,0.13903,0.3069
1700754138835937,-8.663446,-4.695995,0.296447,0.27745,0.22603,0.2449
1700754138843750,-8.601446,-4.668995,0.242447,0.21445,0.29903,0.1689
1700754138851562,-8.527446,-4.652995,0.237447,0.7545,0.47903,0.1089
1700754138859375,-8.516446,-4.684995,0.264447,0.7655,0.37803,0.939
1700754138867187,-8.527446,-4.708995,0.271447,0.16755,0.42403,0.1419
1700754138875000,-8.557446,-4.724995,0.264447,0.13855,0.39703,0.799
1700754138882812,-8.573446,-4.712995,0.221447,0.13955,0.41503,0.151
1700754138890625,-8.569446,-4.702995,0.196447,0.23055,0.48003,0.509
1700754138898437,-8.601446,-4.724995,0.175447,0.38255,0.50303,0.809
1700754138906250,-8.636446,-4.756995,0.160447,0.36855,0.59203,0.689
1700754138914062,-8.606446,-4.766995,0.116447,0.47455,0.52403,0.689
1700754138921875,-8.518446,-4.776995,0.89447,0.53555,0.63803,0.1349
1700754138929687,-8.420446,-4.779995,0.68447,0.56455,0.60103,0.1649
1700754138937500,-8.336446,-4.796995,0.50447,0.65455,0.47903,0.2259
1700754138945312,-8.302446,-4.812995,0.59447,0.62355,0.51103,0.2569
1700754138953125,-8.338446,-4.798995,0.84447,0.63855,0.44303,0.2559
1700754138960937,-8.424446,-4.779995,0.105447,0.62255,0.37503,0.3019
1700754138968750,-8.518446,-4.738995,0.139447,0.65155,0.27503,0.3009
1700754138976562,-8.568446,-4.704995,0.151447,0.74455,0.24103,0.2529
1700754138984375,-8.596446,-4.683995,0.198447,0.75955,0.25603,0.2369
1700754138992187,-8.590446,-4.716995,0.228447,0.85355,0.35903,0.1289
1700754139000000,-8.565446,-4.759995,0.287447,0.88555,0.44503,0.999
1700754139007812,-8.539446,-4.801995,0.312447,0.88655,0.44603,0.49
1700754139015625,-8.555446,-4.839995,0.326447,0.77855,0.41503,0.839
1700754139023437,-8.578446,-4.839995,0.305447,0.64255,0.55103,0.689
1700754139031250,-8.574446,-4.804995,0.289447,0.62755,0.53703,0.699
1700754139039062,-8.540446,-4.766995,0.273447,0.52055,0.58703,0.1009
1700754139046875,-8.543446,-4.708995,0.271447,0.45955,0.65603,0.859
1700754139054687,-8.603446,-4.663995,0.242447,0.38255,0.67003,0.1799
1700754139062500,-8.632446,-4.636995,0.205447,0.39755,0.65303,0.1799
1700754139070312,-8.635446,-4.582995,0.167447,0.42955,0.67003,0.1009
1700754139078125,-8.606446,-4.544995,0.157447,0.55155,0.66803,0.1019
1700754139085937,-8.577446,-4.527995,0.128447,0.65955,0.65403,0.79
1700754139093750,-8.536446,-4.542995,0.94447,0.66155,0.67703,0.1161
1700754139101562,-8.524446,-4.545995,0.103447,0.85955,0.71003,0.1131
1700754139109375,-8.528446,-4.549995,0.142447,0.90655,0.62803,0.2091
1700754139117187,-8.556446,-4.601995,0.160447,0.104455,0.65803,0.2561
1700754139125000,-8.587446,-4.665995,0.167447,0.115155,0.58903,0.3041
1700754139132812,-8.602446,-4.719995,0.185447,0.112255,0.57603,0.3681
1700754139140625,-8.602446,-4.768995,0.210447,0.113855,0.67803,0.3811
1700754139148437,-8.587446,-4.822995,0.207447,0.112455,0.61403,0.4611
1700754139156250,-8.568446,-4.871995,0.228447,0.113955,0.61403,0.4771
1700754139164062,-8.523446,-4.909995,0.246447,0.109355,0.59703,0.4461
1700754139171875,-8.531446,-4.947995,0.275447,0.89255,0.66203,0.2881
1700754139179687,-8.585446,-4.921995,0.280447,0.70955,0.67803,0.2591
1700754139187500,-8.566446,-4.874995,0.257447,0.63155,0.65903,0.1341
1700754139195312,-8.559446,-4.839995,0.232447,0.63155,0.67703,0.1651
1700754139203125,-8.533446,-4.811995,0.207447,0.55655,0.66403,0.2131
1700754139210937,-8.496446,-4.804995,0.187447,0.54055,0.71203,0.1331
1700754139218750,-8.468446,-4.794995,0.178447,0.52555,0.71803,0.1791
1700754139226562,-8.454446,-4.779995,0.164447,0.49455,0.66703,0.1651
1700754139234375,-8.468446,-4.759995,0.164447,0.38755,0.66803,0.1491
1700754139242187,-8.468446,-4.734995,0.182447,0.52355,0.54703,0.1351
1700754139250000,-8.475446,-4.725995,0.173447,0.49355,0.48203,0.1851
1700754139257812,-8.484446,-4.705995,0.182447,0.58555,0.49703,0.2161
1700754139265625,-8.435446,-4.711995,0.178447,0.61655,0.50003,0.2141
1700754139273437,-8.380446,-4.737995,0.189447,0.66255,0.53003,0.2301
1700754139281250,-8.392446,-4.810995,0.228447,0.75255,0.55803,0.1501
1700754139289062,-8.460446,-4.890995,0.234447,0.73555,0.44003,0.891
1700754139296875,-8.507446,-4.905995,0.257447,0.70355,0.42103,0.111
1700754139304687,-8.534446,-4.920995,0.271447,0.62655,0.28903,0.141
1700754139312500,-8.552446,-4.933995,0.296447,0.64255,0.18803,0.641
1700754139320312,-8.585446,-4.989995,0.337447,0.53655,0.24303,0.1101
1700754139328125,-8.619446,-5.46995,0.387447,0.44655,0.28203,0.1881
1700754139335937,-8.652446,-5.65995,0.407447,0.26555,0.27003,0.2701
1700754139343750,-8.661446,-5.61995,0.412447,0.14555,0.29603,0.4111
1700754139351562,-8.656446,-5.47995,0.380447,0.4155,0.41603,0.5051
1700754139359375,-8.623446,-5.44995,0.348447,0.1945,0.42103,0.4881
1700754139367187,-8.552446,-5.44995,0.332447,0.6545,0.50303,0.4721
1700754139375000,-8.476446,-5.46995,0.318447,0.445,0.60203,0.4061
1700754139382812,-8.423446,-5.57995,0.314447,0.3645,0.59803,0.3121
1700754139390625,-8.383446,-5.51995,0.266447,0.12955,0.62403,0.2001
1700754139398437,-8.330446,-5.47995,0.222447,0.15855,0.68603,0.1041
1700754139406250,-8.321446,-5.45995,0.204447,0.17055,0.64703,0.529
1700754139414062,-8.338446,-5.41995,0.195447,0.15255,0.57703,0.2099
1700754139421875,-8.351446,-5.32995,0.200447,0.13555,0.52303,0.2709
1700754139429687,-8.365446,-5.25995,0.223447,0.14955,0.41903,0.3319
1700754139437500,-8.381446,-5.11995,0.254447,0.13355,0.33303,0.3289
1700754139445312,-8.437446,-4.992995,0.277447,0.11755,0.24903,0.3429
1700754139453125,-8.460446,-4.983995,0.280447,0.2655,0.28503,0.3429
1700754139460937,-8.481446,-4.961995,0.298447,0.1255,0.27403,0.2489
1700754139468750,-8.500446,-4.954995,0.323447,0.7355,0.27303,0.2499
1700754139476562,-8.508446,-4.973995,0.327447,0.4555,0.37503,0.1719
1700754139484375,-8.513446,-4.974995,0.319447,0.8945,0.46903,0.639
1700754139492187,-8.488446,-4.977995,0.303447,0.5945,0.46903,0.479
1700754139500000,-8.447446,-4.975995,0.275447,0.7245,0.50503,0.461
1700754139507812,-8.402446,-4.982995,0.241447,0.10345,0.53903,0.19
1700754139515625,-8.370446,-4.996995,0.236447,0.7245,0.57103,0.29
1700754139523437,-8.374446,-4.998995,0.214447,0.8945,0.55303,0.499
1700754139531250,-8.356446,-4.992995,0.198447,0.10645,0.43103,0.1569
1700754139539062,-8.350446,-4.934995,0.195447,0.6145,0.41203,0.1729
1700754139546875,-8.353446,-4.896995,0.184447,0.9245,0.31203,0.1859
1700754139554687,-8.381446,-4.851995,0.178447,0.6245,0.36103,0.2349
1700754139562500,-8.392446,-4.828995,0.182447,0.1455,0.42703,0.1729
1700754139570312,-8.420446,-4.824995,0.219447,0.4745,0.27703,0.2019
1700754139578125,-8.453446,-4.825995,0.246447,0.10755,0.39403,0.779
1700754139585937,-8.488446,-4.823995,0.264447,0.15455,0.38203,0.0
1700754139593750,-8.512446,-4.815995,0.253447,0.15755,0.36903,0.1581
1700754139601562,-8.506446,-4.836995,0.255447,0.14255,0.43803,0.1401
1700754139609375,-8.519446,-4.865995,0.273447,0.32655,0.41903,0.2191
1700754139617187,-8.530446,-4.907995,0.284447,0.40255,0.45103,0.2011
1700754139625000,-8.536446,-4.940995,0.282447,0.41655,0.48103,0.1381
1700754139632812,-8.543446,-4.929995,0.273447,0.41855,0.46903,0.2481
1700754139640625,-8.547446,-4.917995,0.266447,0.38755,0.55003,0.2011
1700754139648437,-8.525446,-4.923995,0.253447,0.54055,0.50203,0.2621
1700754139656250,-8.518446,-4.945995,0.259447,0.63255,0.50003,0.2611
1700754139664062,-8.506446,-4.978995,0.268447,0.63255,0.63103,0.2121
1700754139671875,-8.497446,-5.2995,0.284447,0.64855,0.61903,0.2421
1700754139679687,-8.490446,-5.32995,0.273447,0.63355,0.66803,0.2421
1700754139687500,-8.464446,-5.14995,0.282447,0.64855,0.66603,0.2751
1700754139695312,-8.437446,-4.983995,0.277447,0.66355,0.71203,0.2111
1700754139703125,-8.373446,-4.951995,0.246447,0.66155,0.84403,0.651
1700754139710937,-8.319446,-4.919995,0.227447,0.70655,0.89203,0.0
1700754139718750,-8.330446,-4.885995,0.223447,0.82655,0.91603,0.1249
1700754139726562,-8.361446,-4.838995,0.203447,0.90255,0.96403,0.1749
1700754139734375,-8.339446,-4.781995,0.162447,0.83955,0.93103,0.2379
1700754139742187,-8.287446,-4.732995,0.123447,0.93255,0.96303,0.1909
1700754139750000,-8.283446,-4.696995,0.146447,0.110055,0.97503,0.1759
1700754139757812,-8.370446,-4.675995,0.187447,0.114555,0.92603,0.1759
1700754139765625,-8.498446,-4.657995,0.180447,0.126855,0.92303,0.1289
1700754139773437,-8.562446,-4.632995,0.121447,0.137555,0.89003,0.819
1700754139781250,-8.544446,-4.637995,0.66447,0.154655,0.97503,0.731
1700754139789062,-8.484446,-4.689995,0.52447,0.162655,0.106303,0.2291
1700754139796875,-8.377446,-4.786995,0.80447,0.179555,0.109603,0.2901
1700754139804687,-8.303446,-4.910995,0.118447,0.188855,0.101603,0.4161
1700754139812500,-8.317446,-5.28995,0.154447,0.182755,0.95203,0.4491
1700754139820312,-8.384446,-5.80995,0.170447,0.165855,0.77003,0.4711
1700754139828125,-8.418446,-5.73995,0.168447,0.162855,0.73603,0.4881
1700754139835937,-8.434446,-5.77995,0.197447,0.152155,0.68903,0.5051
1700754139843750,-8.447446,-5.94995,0.252447,0.138455,0.74003,0.4901
1700754139851562,-8.458446,-5.168995,0.295447,0.141655,0.77603,0.5521
1700754139859375,-8.455446,-5.212995,0.345447,0.123255,0.76203,0.4901
1700754139867187,-8.430446,-5.233995,0.368447,0.117155,0.78103,0.4731
1700754139875000,-8.412446,-5.227995,0.373447,0.95755,0.77003,0.4741
1700754139882812,-8.406446,-5.178995,0.368447,0.83555,0.88903,0.4251
1700754139890625,-8.422446,-5.140995,0.327447,0.78855,0.83403,0.3491
1700754139898437,-8.432446,-5.84995,0.286447,0.63655,0.90603,0.3481
1700754139906250,-8.411446,-5.39995,0.263447,0.63755,0.102003,0.3631
1700754139914062,-8.394446,-5.4995,0.248447,0.68355,0.108703,0.3451
1700754139921875,-8.408446,-5.1995,0.254447,0.66755,0.102103,0.3621
1700754139929687,-8.444446,-5.21995,0.236447,0.78755,0.86303,0.2701
1700754139937500,-8.471446,-5.23995,0.241447,0.90955,0.94803,0.2821
1700754139945312,-8.514446,-5.31995,0.243447,0.87855,0.91103,0.2211
1700754139953125,-8.522446,-5.55995,0.231447,0.89455,0.99203,0.2361
1700754139960937,-8.502446,-5.101995,0.211447,0.101655,0.104203,0.2171
1700754139968750,-8.451446,-5.168995,0.193447,0.104555,0.102303,0.1861
1700754139976562,-8.421446,-5.205995,0.199447,0.115255,0.107103,0.1361
1700754139984375,-8.386446,-5.233995,0.181447,0.112055,0.100003,0.1241
1700754139992187,-8.346446,-5.236995,0.156447,0.105755,0.101503,0.19
1700754140000000,-8.314446,-5.237995,0.131447,0.88955,0.100003,0.639
1700754140007812,-8.285446,-5.235995,0.124447,0.87155,0.79703,0.1229
1700754140015625,-8.247446,-5.216995,0.152447,0.88555,0.81103,0.2189
1700754140023437,-8.267446,-5.198995,0.165447,0.74655,0.75903,0.3109
1700754140031250,-8.340446,-5.145995,0.195447,0.57655,0.75703,0.4349
1700754140039062,-8.382446,-5.75995,0.190447,0.51355,0.72103,0.5279
1700754140046875,-8.365446,-5.2995,0.163447,0.45255,0.70503,0.5119
1700754140054687,-8.363446,-4.955995,0.161447,0.37655,0.70803,0.5119
1700754140062500,-8.377446,-4.929995,0.170447,0.39255,0.82603,0.5309
1700754140070312,-8.396446,-4.913995,0.180447,0.39255,0.72603,0.4969
1700754140078125,-8.382446,-4.900995,0.143447,0.37755,0.66103,0.4159
1700754140085937,-8.384446,-4.908995,0.127447,0.33355,0.66503,0.3209
1700754140093750,-8.424446,-4.946995,0.150447,0.21255,0.60403,0.2569
1700754140101562,-8.471446,-4.974995,0.175447,0.29155,0.57403,0.989
1700754140109375,-8.503446,-5.30995,0.175447,0.15455,0.53003,0.499
1700754140117187,-8.530446,-5.81995,0.193447,0.18655,0.58203,0.209
1700754140125000,-8.552446,-5.107995,0.200447,0.27755,0.53003,0.39
1700754140132812,-8.540446,-5.121995,0.211447,0.15555,0.54903,0.199
1700754140140625,-8.531446,-5.134995,0.223447,0.15455,0.54703,0.829
1700754140148437,-8.531446,-5.130995,0.213447,0.13655,0.49103,0.2069
1700754140156250,-8.525446,-5.115995,0.184447,0.12155,0.60903,0.2569
1700754140164062,-8.504446,-5.90995,0.161447,0.12055,0.63903,0.3049
1700754140171875,-8.466446,-5.57995,0.147447,0.13355,0.65003,0.4309
1700754140179687,-8.439446,-5.37995,0.159447,0.14955,0.66603,0.3829
1700754140187500,-8.424446,-5.2995,0.132447,0.14755,0.73103,0.5269
1700754140195312,-8.402446,-4.940995,0.102447,0.13355,0.68203,0.4789
1700754140203125,-8.368446,-4.904995,0.70447,0.11755,0.66303,0.5089
1700754140210937,-8.333446,-4.863995,0.54447,0.16355,0.73203,0.4959
1700754140218750,-8.313446,-4.834995,0.52447,0.23955,0.67903,0.5109
1700754140226562,-8.320446,-4.809995,0.57447,0.29955,0.65903,0.5259
1700754140234375,-8.346446,-4.781995,0.50447,0.36055,0.66003,0.5279
1700754140242187,-8.380446,-4.758995,0.43447,0.39155,0.64303,0.5119
1700754140250000,-8.396446,-4.749995,0.21447,0.56055,0.65803,0.4659
1700754140257812,-8.389446,-4.744995,0.12447,0.63655,0.64103,0.4349
1700754140265625,-8.375446,-4.760995,0.4553,0.66755,0.65603,0.4349
1700754140273437,-8.382446,-4.791995,0.14447,0.88055,0.60303,0.4359
1700754140281250,-8.413446,-4.829995,0.32447,0.86655,0.62203,0.3729
1700754140289062,-8.428446,-4.853995,0.36447,0.91355,0.60603,0.2619
1700754140296875,-8.444446,-4.852995,0.64447,0.88255,0.53803,0.2749
1700754140304687,-8.476446,-4.854995,0.54447,0.88355,0.55703,0.2599
1700754140312500,-8.478446,-4.864995,0.50447,0.86755,0.47403,0.2749
1700754140320312,-8.482446,-4.896995,0.54447,0.89855,0.52303,0.2119
1700754140328125,-8.468446,-4.935995,0.79447,0.88355,0.47403,0.2269
1700754140335937,-8.465446,-4.954995,0.91447,0.79255,0.46003,0.1789
1700754140343750,-8.452446,-4.950995,0.88447,0.71655,0.48103,0.1479
1700754140351562,-8.420446,-4.937995,0.91447,0.64055,0.44803,0.1459
1700754140359375,-8.418446,-4.919995,0.88447,0.62555,0.44903,0.1299
1700754140367187,-8.412446,-4.888995,0.88447,0.64055,0.49903,0.1309
1700754140375000,-8.401446,-4.878995,0.91447,0.47355,0.50603,0.1159
1700754140382812,-8.387446,-4.844995,0.89447,0.50455,0.45203,0.979
1700754140390625,-8.390446,-4.827995,0.86447,0.47355,0.43803,0.979
1700754140398437,-8.434446,-4.786995,0.91447,0.39655,0.47303,0.1299
1700754140406250,-8.459446,-4.765995,0.93447,0.47355,0.37003,0.799
1700754140414062,-8.491446,-4.765995,0.107447,0.52055,0.40703,0.349
1700754140421875,-8.542446,-4.780995,0.141447,0.55155,0.39003,0.451
1700754140429687,-8.585446,-4.808995,0.180447,0.62855,0.40803,0.911
1700754140437500,-8.632446,-4.847995,0.187447,0.63055,0.39403,0.2021
1700754140445312,-8.652446,-4.879995,0.168447,0.66155,0.41403,0.2321
1700754140453125,-8.629446,-4.906995,0.150447,0.67655,0.39403,0.2171
1700754140460937,-8.584446,-4.931995,0.134447,0.73855,0.54603,0.2291
1700754140468750,-8.536446,-4.943995,0.116447,0.72255,0.54403,0.1501
1700754140476562,-8.499446,-4.974995,0.111447,0.82855,0.62203,0.851
1700754140484375,-8.483446,-4.995995,0.98447,0.87155,0.60103,0.419
1700754140492187,-8.458446,-5.10995,0.102447,0.88555,0.62703,0.1669
1700754140500000,-8.437446,-5.17995,0.93447,0.86755,0.53903,0.2429
1700754140507812,-8.443446,-4.984995,0.104447,0.82155,0.55803,0.3079
1700754140515625,-8.451446,-4.975995,0.123447,0.83555,0.50403,0.3529
1700754140523437,-8.431446,-4.960995,0.111447,0.72755,0.55503,0.4169
1700754140531250,-8.423446,-4.940995,0.123447,0.77155,0.46503,0.5259
1700754140539062,-8.439446,-4.949995,0.157447,0.69555,0.40403,0.4619
1700754140546875,-8.474446,-4.941995,0.195447,0.65055,0.43603,0.4289
