time,Acceleration X (m/s^2),Acceleration Y (m/s^2),Acceleration Z (m/s^2),Angular Velocity X (rad/s),Angular Velocity Y (rad/s),Angular Velocity Z (rad/s)
1702327324929687,-9.704696,-0.463772,,,,
1702327324937500,-9.700696,0.463772,1.593,0.22511,0.36449,0.6635
1702327324945312,-9.697696,0.465772,1.6593,0.19211,0.38049,0.14735
1702327324953125,-9.679696,0.463772,0.986593,0.22511,0.36449,0.9935
1702327324960937,-9.688696,0.465772,0.988593,0.11311,0.33249,0.11635
1702327324968750,-9.689696,0.454772,1.2593,0.13511,0.42549,0.16235
1702327324984375,-9.698696,0.439772,0.982593,0.15011,0.36149,0.11435
1702327324992187,-9.698696,0.448772,0.973593,0.14011,0.37449,0.9635
1702327325000000,-9.704696,0.451772,0.968593,0.111,0.41549,0.8735
1702327325007812,-9.697696,0.461772,0.982593,0.6811,0.33149,0.10035
1702327325031250,-9.710696,0.485772,0.977593,0.12911,0.34949,0.8435
1702327325039062,-9.709696,0.478772,0.986593,0.11811,0.34549,0.14735
1702327325046875,-9.724696,0.471772,0.988593,0.3511,0.44549,0.13335
1702327325054687,-9.734696,0.465772,0.973593,0.12211,0.40849,0.11435
1702327325062500,-9.738696,0.462772,0.963593,0.21911,0.43249,0.16535
1702327325070312,-9.733696,0.469772,0.968593,0.25811,0.33049,0.9735
1702327325078125,-9.720696,0.465772,0.979593,0.27311,0.41249,0.11435
1702327325085937,-9.713696,0.467772,0.970593,0.24111,0.37949,0.17835
1702327325093750,-9.698696,0.463772,0.973593,0.16611,0.37649,0.17835
1702327325101562,-9.707696,0.461772,0.977593,0.21311,0.29649,0.12935
1702327325109375,-9.709696,0.463772,0.986593,0.16711,0.42549,0.13035
1702327325117187,-9.688696,0.472772,0.997593,0.8211,0.44549,0.14935
1702327325125000,-9.679696,0.483772,0.995593,0.13411,0.39449,0.11535
1702327325132812,-9.697696,0.481772,0.997593,0.11711,0.34649,0.9935
1702327325140625,-9.679696,0.479772,0.982593,0.11511,0.41349,0.8435
1702327325148437,-9.679696,0.465772,0.986593,0.8111,0.33249,0.11735
1702327325156250,-9.686696,0.470772,0.995593,0.21311,0.36149,0.9735
1702327325164062,-9.680696,0.459772,0.995593,0.10211,0.29749,0.8335
1702327325171875,-9.697696,0.458772,0.986593,0.10011,0.29849,0.8335
1702327325179687,-9.695696,0.452772,0.979593,0.4411,0.16349,0.9735
1702327325187500,-9.700696,0.445772,0.964593,0.13611,0.23049,0.8135
1702327325195312,-9.713696,0.456772,0.982593,0.16211,0.28249,0.13135
1702327325203125,-9.715696,0.463772,0.977593,0.8311,0.36449,0.14835
1702327325210937,-9.711696,0.465772,0.986593,0.16011,0.34949,0.11635
1702327325218750,-9.711696,0.472772,0.979593,0.13211,0.42849,0.9935
1702327325226562,-9.720696,0.465772,0.988593,0.22511,0.43049,0.5135
1702327325234375,-9.733696,0.477772,1.11593,0.24911,0.43549,0.5335
1702327325242187,-9.728696,0.480772,1.20593,0.26811,0.36749,0.9935
1702327325250000,-9.706696,0.473772,0.995593,0.24911,0.35349,0.8535
1702327325257812,-9.704696,0.463772,0.968593,0.25711,0.29949,0.8235
1702327325265625,-9.700696,0.441772,0.964593,0.27411,0.37949,0.4935
1702327325273437,-9.714696,0.430772,0.997593,0.26511,0.32649,0.3135
1702327325281250,-9.714696,0.418772,1.6593,0.27211,0.33349,0.1835
1702327325289062,-9.714696,0.409772,1.2593,0.24311,0.33049,0.4935
1702327325296875,-9.714696,0.416772,0.957593,0.26611,0.30849,0.9435
1702327325304687,-9.714696,0.434772,0.943593,0.27711,0.31249,0.6435
1702327325312500,-9.714696,0.423772,0.968593,0.25411,0.36549,0.8335
1702327325320312,-9.706696,0.444772,0.988593,0.24111,0.44049,0.5635
1702327325328125,-9.698696,0.443772,1.4593,0.27911,0.47549,0.1565
1702327325335937,-9.693696,0.439772,1.33593,0.26111,0.42749,0.1735
1702327325343750,-9.685696,0.430772,1.9593,0.24511,0.42749,0.3335
1702327325351562,-9.691696,0.427772,0.995593,0.20411,0.40149,0.3735
1702327325359375,-9.687696,0.412772,0.991593,0.22511,0.36449,0.6635
1702327325367187,-9.678696,0.401772,0.991593,0.27111,0.33349,0.5035
1702327325375000,-9.685696,0.401772,0.982593,0.18011,0.34649,0.6635
1702327325382812,-9.710696,0.400772,0.968593,0.25511,0.28449,0.8235
1702327325390625,-9.728696,0.389772,0.952593,0.27111,0.33349,0.6635
1702327325398437,-9.752696,0.402772,0.959593,0.21511,0.29449,0.9635
1702327325406250,-9.748696,0.406772,0.961593,0.26911,0.38349,0.1935
1702327325414062,-9.743696,0.411772,0.961593,0.22411,0.33349,0.5135
1702327325421875,-9.734696,0.407772,0.986593,0.26711,0.31949,0.6735
1702327325429687,-9.725696,0.393772,0.997593,0.19911,0.40349,0.11835
1702327325437500,-9.728696,0.396772,0.975593,0.16411,0.36249,0.11535
1702327325445312,-9.712696,0.387772,0.970593,0.14211,0.39949,0.11735
1702327325453125,-9.730696,0.400772,0.966593,0.13411,0.45949,0.9935
1702327325460937,-9.737696,0.396772,0.982593,0.23211,0.49049,0.4835
1702327325468750,-9.734696,0.402772,0.991593,0.14511,0.47849,0.10035
1702327325476562,-9.718696,0.402772,0.993593,0.15811,0.43249,0.8535
1702327325484375,-9.714696,0.407772,0.970593,0.12111,0.42049,0.7135
1702327325492187,-9.716696,0.411772,0.968593,0.16611,0.43749,0.10435
1702327325500000,-9.707696,0.420772,0.997593,0.8911,0.43649,0.8835
1702327325507812,-9.691696,0.430772,0.995593,0.211,0.48049,0.10335
1702327325515625,-9.680696,0.427772,0.970593,0.111,0.43249,0.8735
1702327325523437,-9.680696,0.405772,0.986593,0.4811,0.44849,0.10235
1702327325531250,-9.671696,0.403772,0.988593,0.13611,0.53449,0.8835
1702327325539062,-9.676696,0.399772,0.979593,0.19011,0.43249,0.5235
1702327325546875,-9.687696,0.392772,0.972593,0.15211,0.38749,0.10335
1702327325554687,-9.696696,0.394772,0.952593,0.17211,0.33549,0.8535
1702327325562500,-9.712696,0.391772,0.954593,0.12411,0.36649,0.21435
1702327325570312,-9.716696,0.405772,0.963593,0.9511,0.41649,0.10235
1702327325578125,-9.698696,0.409772,0.968593,0.1989,0.41849,0.16935
1702327325585937,-9.696696,0.409772,0.959593,0.1011,0.38549,0.23335
1702327325593750,-9.700696,0.411772,0.961593,0.189,0.28549,0.19935
1702327325601562,-9.704696,0.418772,0.961593,0.1911,0.40749,0.17135
1702327325609375,-9.714696,0.425772,0.975593,0.14011,0.43349,0.10235
1702327325617187,-9.713696,0.434772,0.990593,0.6211,0.41549,0.16735
1702327325625000,-9.714696,0.422772,0.988593,0.1389,0.41549,0.8735
1702327325632812,-9.714696,0.416772,0.975593,0.4411,0.38449,0.21535
1702327325640625,-9.716696,0.394772,0.957593,0.8111,0.33249,0.13335
1702327325648437,-9.721696,0.389772,0.950593,0.6511,0.31649,0.18135
1702327325656250,-9.746696,0.380772,0.959593,0.17411,0.36549,0.18035
1702327325664062,-9.748696,0.380772,0.970593,0.11311,0.41349,0.19735
1702327325671875,-9.748696,0.402772,0.979593,0.6211,0.35049,0.18235
1702327325679687,-9.734696,0.418772,0.968593,0.3689,0.45049,0.23435
1702327325687500,-9.747696,0.415772,0.954593,0.0,0.39949,0.18335
1702327325695312,-9.747696,0.426772,0.959593,0.1411,0.49749,0.21635
1702327325703125,-9.747696,0.446772,0.966593,0.589,0.50149,0.12235
1702327325710937,-9.713696,0.443772,0.973593,0.4811,0.49649,0.18335
1702327325718750,-9.682696,0.438772,1.6593,0.9111,0.46649,0.16735
1702327325726562,-9.662696,0.430772,1.9593,0.14211,0.39949,0.11735
1702327325734375,-9.666696,0.441772,0.995593,0.19011,0.34949,0.16435
1702327325742187,-9.678696,0.446772,0.982593,0.12011,0.37649,0.11435
1702327325750000,-9.698696,0.445772,0.982593,0.8411,0.41149,0.13235
1702327325757812,-9.696696,0.434772,0.991593,0.10411,0.45849,0.11535
1702327325765625,-9.696696,0.427772,0.993593,0.4811,0.39949,0.8635
1702327325773437,-9.700696,0.427772,0.972593,0.18611,0.32049,0.8535
1702327325781250,-9.713696,0.431772,0.977593,0.9311,0.40049,0.11835
1702327325789062,-9.722696,0.429772,0.995593,0.17011,0.46649,0.16635
1702327325796875,-9.714696,0.427772,0.988593,0.21611,0.41749,0.21435
1702327325804687,-9.713696,0.440772,0.961593,0.23811,0.34949,0.14735
1702327325812500,-9.734696,0.433772,0.957593,0.27311,0.42849,0.11435
1702327325820312,-9.734696,0.429772,0.966593,0.25111,0.43249,0.11635
1702327325828125,-9.732696,0.429772,0.997593,0.26711,0.41649,0.10035
1702327325835937,-9.718696,0.422772,0.999593,0.24811,0.43549,0.10135
1702327325843750,-9.709696,0.409772,0.995593,0.26011,0.43649,0.18235
1702327325851562,-9.710696,0.410772,0.997593,0.26011,0.40949,0.17735
1702327325859375,-9.696696,0.403772,0.993593,0.25611,0.43049,0.9935
1702327325867187,-9.714696,0.416772,0.990593,0.25011,0.40149,0.11735
1702327325875000,-9.707696,0.425772,0.988593,0.25111,0.41649,0.11635
1702327325882812,-9.698696,0.414772,0.973593,0.25211,0.43149,0.18035
1702327325890625,-9.709696,0.425772,0.961593,0.24711,0.43349,0.23035
1702327325898437,-9.720696,0.422772,0.984593,0.24411,0.41949,0.21535
1702327325906250,-9.718696,0.445772,1.2593,0.25011,0.51249,0.22935
1702327325914062,-9.720696,0.445772,0.984593,0.26711,0.44749,0.22835
1702327325921875,-9.702696,0.447772,0.982593,0.25611,0.41149,0.19535
1702327325929687,-9.684696,0.439772,0.986593,0.26811,0.46349,0.16435
1702327325937500,-9.671696,0.430772,0.995593,0.28111,0.40249,0.3635
1702327325945312,-9.680696,0.423772,0.982593,0.26211,0.31349,0.0
1702327325953125,-9.682696,0.418772,0.981593,0.25911,0.40549,0.11835
1702327325960937,-9.694696,0.396772,0.979593,0.25011,0.41749,0.10135
1702327325968750,-9.714696,0.391772,0.950593,0.26911,0.36549,0.14735
1702327325976562,-9.739696,0.398772,0.952593,0.25611,0.36449,0.11435
1702327325984375,-9.735696,0.389772,0.959593,0.21111,0.46149,0.8335
1702327325992187,-9.725696,0.394772,0.977593,0.27111,0.44649,0.8235
1702327326000000,-9.700696,0.407772,0.984593,0.28611,0.41549,0.5135
1702327326007812,-9.691696,0.418772,0.975593,0.24811,0.50149,0.5435
1702327326015625,-9.686696,0.427772,0.963593,0.26411,0.40249,0.8535
1702327326023437,-9.716696,0.418772,0.932593,0.25511,0.30049,0.5035
1702327326031250,-9.727696,0.416772,0.955593,0.27611,0.33049,0.1565
1702327326039062,-9.734696,0.420772,0.968593,0.28511,0.43149,0.8335
1702327326046875,-9.728696,0.393772,0.977593,0.25411,0.41549,0.8335
1702327326054687,-9.719696,0.391772,0.977593,0.26511,0.43449,0.10135
1702327326062500,-9.714696,0.394772,0.981593,0.25311,0.35049,0.8335
1702327326070312,-9.727696,0.396772,0.977593,0.26611,0.38549,0.8435
1702327326078125,-9.719696,0.389772,0.963593,0.28411,0.28549,0.9935
1702327326085937,-9.705696,0.389772,0.966593,0.25111,0.35249,0.8435
1702327326093750,-9.699696,0.378772,0.979593,0.26511,0.41749,0.11735
1702327326101562,-9.696696,0.390772,0.977593,0.25411,0.38249,0.11535
1702327326109375,-9.696696,0.387772,0.977593,0.26911,0.39849,0.13135
1702327326117187,-9.705696,0.409772,0.984593,0.25411,0.36549,0.8335
1702327326125000,-9.703696,0.412772,1.2593,0.27011,0.43149,0.8335
1702327326132812,-9.712696,0.409772,1.18593,0.22111,0.44749,0.13235
1702327326140625,-9.716696,0.407772,1.2593,0.22111,0.43249,0.8435
1702327326148437,-9.709696,0.418772,0.997593,0.26911,0.41549,0.9935
1702327326156250,-9.700696,0.411772,0.988593,0.24911,0.41949,0.5335
1702327326164062,-9.712696,0.402772,0.993593,0.26411,0.45149,0.5335
1702327326171875,-9.716696,0.394772,0.997593,0.25311,0.43249,0.3635
1702327326179687,-9.723696,0.400772,0.999593,0.26611,0.48349,0.5335
1702327326187500,-9.714696,0.387772,0.995593,0.24611,0.43649,0.10235
1702327326195312,-9.701696,0.385772,0.986593,0.25911,0.41249,0.4935
1702327326203125,-9.703696,0.383772,0.977593,0.25411,0.42949,0.16335
1702327326210937,-9.714696,0.396772,0.982593,0.25611,0.46249,0.8335
1702327326218750,-9.696696,0.394772,0.993593,0.25411,0.48249,0.1165
1702327326226562,-9.687696,0.392772,1.2593,0.25211,0.43249,0.10035
1702327326234375,-9.699696,0.394772,1.593,0.25911,0.41249,0.4935
1702327326242187,-9.712696,0.391772,0.999593,0.24711,0.43549,0.13435
1702327326250000,-9.714696,0.391772,1.17593,0.24411,0.43849,0.8735
1702327326257812,-9.716696,0.391772,0.988593,0.25011,0.41549,0.19735
1702327326265625,-9.719696,0.392772,0.991593,0.27311,0.42849,0.13035
1702327326273437,-9.696696,0.392772,0.997593,0.26311,0.44149,0.9635
1702327326281250,-9.687696,0.394772,0.993593,0.27411,0.42849,0.4935
1702327326289062,-9.692696,0.392772,0.991593,0.25511,0.46449,0.1935
1702327326296875,-9.701696,0.383772,0.995593,0.23011,0.40949,0.9735
1702327326304687,-9.710696,0.367772,0.995593,0.26611,0.43449,0.8435
1702327326312500,-9.717696,0.365772,0.993593,0.17211,0.41649,0.14935
1702327326320312,-9.715696,0.358772,0.982593,0.19011,0.34949,0.18035
1702327326328125,-9.728696,0.372772,0.975593,0.19511,0.31249,0.21035
1702327326335937,-9.739696,0.382772,0.972593,0.16811,0.33649,0.19835
1702327326343750,-9.732696,0.393772,0.991593,0.20411,0.44749,0.22935
1702327326351562,-9.719696,0.392772,1.4593,0.19211,0.42849,0.22835
1702327326359375,-9.714696,0.394772,1.11593,0.17011,0.40049,0.19835
1702327326367187,-9.698696,0.392772,1.2593,0.9511,0.38349,0.10135
1702327326375000,-9.698696,0.394772,0.982593,0.9911,0.41349,0.8435
1702327326382812,-9.712696,0.391772,1.2593,0.25011,0.43249,0.19735
1702327326390625,-9.699696,0.394772,1.9593,0.22311,0.47749,0.22835
1702327326398437,-9.689696,0.396772,1.27593,0.17111,0.43249,0.21435
1702327326406250,-9.697696,0.370772,1.15593,0.16111,0.41149,0.22835
1702327326414062,-9.712696,0.369772,1.15593,0.23811,0.42949,0.21235
1702327326421875,-9.701696,0.354772,1.6593,0.18611,0.39949,0.24635
1702327326429687,-9.710696,0.371772,0.988593,0.7511,0.41649,0.23135
1702327326437500,-9.730696,0.393772,0.979593,0.7311,0.38549,0.23235
1702327326445312,-9.735696,0.396772,0.995593,0.989,0.45949,0.21335
1702327326453125,-9.729696,0.409772,1.13593,0.911,0.41749,0.26535
1702327326460937,-9.727696,0.420772,1.26593,0.4211,0.48249,0.26535
1702327326468750,-9.707696,0.429772,1.40593,0.9611,0.46149,0.24635
1702327326476562,-9.691696,0.427772,1.22593,0.6311,0.43049,0.24735
1702327326484375,-9.680696,0.432772,1.4593,0.1311,0.41649,0.18435
1702327326492187,-9.698696,0.416772,1.593,0.7711,0.44849,0.21535
1702327326500000,-9.696696,0.389772,0.995593,0.4511,0.51349,0.23235
1702327326507812,-9.714696,0.394772,1.11593,0.11111,0.47849,0.23035
1702327326515625,-9.719696,0.383772,1.18593,0.6511,0.46249,0.21435
1702327326523437,-9.714696,0.387772,1.6593,0.7611,0.43149,0.24735
1702327326531250,-9.721696,0.396772,0.993593,0.5111,0.42749,0.21335
1702327326539062,-9.705696,0.398772,1.2593,0.15811,0.46349,0.16535
1702327326546875,-9.698696,0.410772,1.11593,0.2111,0.46049,0.13335
1702327326554687,-9.689696,0.429772,1.13593,0.1611,0.46449,0.13535
1702327326562500,-9.678696,0.430772,1.24593,0.9411,0.47949,0.23035
1702327326570312,-9.684696,0.427772,1.18593,0.1289,0.42949,0.21435
1702327326578125,-9.687696,0.408772,1.13593,0.6911,0.39349,0.21235
1702327326585937,-9.694696,0.387772,1.22593,0.11111,0.41449,0.19835
1702327326593750,-9.701696,0.380772,1.29593,0.9211,0.41549,0.23135
1702327326601562,-9.705696,0.374772,1.33593,0.12111,0.32049,0.23135
1702327326609375,-9.699696,0.376772,1.15593,0.7711,0.33349,0.24635
1702327326617187,-9.692696,0.376772,1.13593,0.7511,0.40049,0.21535
1702327326625000,-9.696696,0.374772,1.11593,0.6311,0.41449,0.21435
1702327326632812,-9.705696,0.380772,1.24593,0.1311,0.33449,0.19935
1702327326640625,-9.712696,0.394772,1.18593,0.10811,0.39949,0.21435
1702327326648437,-9.721696,0.391772,1.18593,0.9611,0.36549,0.14935
1702327326656250,-9.734696,0.389772,1.26593,0.5811,0.36949,0.18435
1702327326664062,-9.732696,0.389772,1.33593,0.4211,0.43449,0.21735
1702327326671875,-9.723696,0.413772,1.11593,0.4511,0.41549,0.23135
1702327326679687,-9.727696,0.432772,0.995593,0.10311,0.47449,0.17935
1702327326687500,-9.720696,0.431772,1.33593,0.8011,0.51149,0.21435
1702327326695312,-9.694696,0.427772,1.67593,0.21111,0.55849,0.13135
1702327326703125,-9.682696,0.428772,1.74593,0.18111,0.42549,0.21035
1702327326710937,-9.678696,0.423772,1.67593,0.19111,0.42949,0.19635
1702327326718750,-9.693696,0.434772,1.60593,0.24911,0.41549,0.21335
1702327326726562,-9.698696,0.428772,1.52593,0.16511,0.44149,0.19535
1702327326734375,-9.693696,0.432772,1.36593,0.17611,0.42949,0.18035
1702327326742187,-9.684696,0.430772,1.36593,0.16211,0.41149,0.18035
1702327326750000,-9.684696,0.443772,1.56593,0.20811,0.42949,0.14835
1702327326757812,-9.677696,0.454772,1.67593,0.22311,0.41549,0.8335
1702327326765625,-9.682696,0.459772,1.65593,0.25311,0.41349,0.21135
1702327326773437,-9.686696,0.454772,1.65593,0.27011,0.42949,0.17935
1702327326781250,-9.694696,0.434772,1.45593,0.29111,0.40949,0.17735
1702327326789062,-9.711696,0.427772,1.31593,0.27111,0.42849,0.22735
1702327326796875,-9.719696,0.421772,1.16593,0.26511,0.38849,0.20735
1702327326804687,-9.732696,0.409772,0.995593,0.32911,0.33249,0.25935
1702327326812500,-9.732696,0.400772,0.999593,0.30711,0.43449,0.26235
1702327326820312,-9.723696,0.396772,1.593,0.25911,0.40949,0.20935
1702327326828125,-9.698696,0.420772,1.13593,0.26411,0.49749,0.26235
1702327326835937,-9.691696,0.430772,1.20593,0.28911,0.44349,0.19435
1702327326843750,-9.698696,0.423772,1.31593,0.25511,0.51049,0.17935
1702327326851562,-9.716696,0.420772,1.38593,0.27011,0.51049,0.21135
1702327326859375,-9.734696,0.422772,1.31593,0.25711,0.44349,0.19435
1702327326867187,-9.729696,0.424772,1.33593,0.26511,0.46549,0.22935
1702327326875000,-9.716696,0.427772,1.24593,0.24911,0.43249,0.24535
1702327326882812,-9.712696,0.418772,1.20593,0.25511,0.41149,0.21135
1702327326890625,-9.712696,0.407772,1.11593,0.25511,0.42849,0.22735
1702327326898437,-9.698696,0.412772,1.2593,0.25911,0.40949,0.20935
1702327326906250,-9.705696,0.401772,1.13593,0.25311,0.47849,0.21235
1702327326914062,-9.694696,0.401772,1.27593,0.25011,0.51249,0.22935
1702327326921875,-9.687696,0.412772,1.51593,0.25311,0.41349,0.21135
1702327326929687,-9.691696,0.410772,1.47593,0.25311,0.46249,0.22835
1702327326937500,-9.685696,0.412772,1.29593,0.25311,0.46249,0.19635
1702327326945312,-9.687696,0.421772,1.27593,0.25211,0.43149,0.19635
1702327326953125,-9.700696,0.423772,1.27593,0.24911,0.48149,0.21335
1702327326960937,-9.700696,0.419772,1.56593,0.25711,0.54149,0.16335
1702327326968750,-9.680696,0.423772,1.67593,0.26011,0.50749,0.16235
1702327326976562,-9.678696,0.416772,1.58593,0.25311,0.49549,0.18035
1702327326984375,-9.680696,0.428772,1.51593,0.25311,0.42949,0.21135
1702327326992187,-9.696696,0.427772,1.44593,0.24711,0.38449,0.22935
1702327327000000,-9.712696,0.427772,1.20593,0.26311,0.37549,0.12835
1702327327007812,-9.720696,0.429772,1.15593,0.25611,0.42849,0.19535
1702327327015625,-9.716696,0.427772,1.22593,0.25611,0.41249,0.16235
1702327327023437,-9.716696,0.445772,1.31593,0.25911,0.42749,0.13035
1702327327031250,-9.707696,0.447772,1.38593,0.26111,0.39149,0.20935
1702327327039062,-9.691696,0.448772,1.36593,0.26111,0.40749,0.19335
1702327327046875,-9.687696,0.434772,1.36593,0.27411,0.42749,0.16235
1702327327054687,-9.700696,0.432772,1.31593,0.25411,0.44649,0.14735
1702327327062500,-9.713696,0.429772,1.38593,0.26311,0.41749,0.21335
1702327327070312,-9.734696,0.424772,1.47593,0.28311,0.41449,0.19635
1702327327078125,-9.725696,0.416772,1.51593,0.25211,0.38149,0.21235
1702327327085937,-9.709696,0.428772,1.43593,0.24711,0.45549,0.19235
1702327327093750,-9.707696,0.438772,1.51593,0.25611,0.42849,0.17935
1702327327101562,-9.693696,0.450772,1.49593,0.26911,0.41349,0.21135
1702327327109375,-9.678696,0.439772,1.49593,0.26811,0.44549,0.22835
1702327327117187,-9.678696,0.441772,1.58593,0.26511,0.45449,0.17535
1702327327125000,-9.675696,0.439772,1.54593,0.24511,0.42549,0.14535
1702327327132812,-9.675696,0.443772,1.45593,0.27311,0.42649,0.21035
1702327327140625,-9.680696,0.430772,1.29593,0.27511,0.40949,0.22535
1702327327148437,-9.687696,0.432772,1.40593,0.28711,0.39549,0.21035
1702327327156250,-9.682696,0.432772,1.49593,0.25911,0.37649,0.22535
1702327327164062,-9.691696,0.443772,1.31593,0.27411,0.32849,0.17735
1702327327171875,-9.716696,0.434772,1.34593,0.26611,0.37249,0.15935
1702327327179687,-9.738696,0.435772,1.35593,0.26611,0.35249,0.11635
1702327327187500,-9.727696,0.429772,1.45593,0.21111,0.44549,0.8335
1702327327195312,-9.709696,0.429772,1.42593,0.25511,0.41349,0.11535
1702327327203125,-9.698696,0.427772,1.38593,0.23711,0.43149,0.13235
1702327327210937,-9.694696,0.423772,1.52593,0.26111,0.40949,0.11335
1702327327218750,-9.678696,0.408772,1.31593,0.23811,0.43149,0.11635
1702327327226562,-9.680696,0.412772,1.27593,0.25811,0.42849,0.6635
1702327327234375,-9.716696,0.420772,1.24593,0.25111,0.41649,0.13235
1702327327242187,-9.743696,0.442772,1.38593,0.27111,0.43049,0.9835
1702327327250000,-9.736696,0.438772,1.60593,0.18011,0.41249,0.8335
1702327327257812,-9.714696,0.427772,1.67593,0.22811,0.42749,0.8235
1702327327265625,-9.698696,0.425772,1.72593,0.24911,0.39049,0.11135
1702327327273437,-9.696696,0.423772,1.58593,0.27311,0.34649,0.12935
1702327327281250,-9.703696,0.416772,1.33593,0.26011,0.37849,0.9735
1702327327289062,-9.705696,0.418772,1.38593,0.27611,0.41149,0.8135
1702327327296875,-9.700696,0.414772,1.65593,0.25311,0.44949,0.5235
1702327327304687,-9.703696,0.421772,1.65593,0.27211,0.34849,0.6635
1702327327312500,-9.702696,0.432772,1.49593,0.26011,0.39449,0.9735
1702327327320312,-9.714696,0.421772,1.49593,0.27511,0.39449,0.11335
1702327327328125,-9.698696,0.428772,1.70593,0.26011,0.42549,0.14535
1702327327335937,-9.696696,0.427772,1.56593,0.26911,0.41449,0.13135
1702327327343750,-9.689696,0.429772,1.40593,0.23511,0.35249,0.10035
1702327327351562,-9.696696,0.421772,1.29593,0.26011,0.32949,0.11335
1702327327359375,-9.700696,0.405772,1.35593,0.26511,0.43349,0.13335
1702327327367187,-9.702696,0.409772,1.40593,0.24711,0.38749,0.5335
1702327327375000,-9.705696,0.407772,1.65593,0.26611,0.36849,0.11635
1702327327382812,-9.701696,0.408772,1.63593,0.26211,0.40949,0.8035
1702327327390625,-9.694696,0.412772,1.56593,0.27111,0.43049,0.9835
1702327327398437,-9.692696,0.410772,1.36593,0.25911,0.39649,0.3335
1702327327406250,-9.694696,0.399772,1.31593,0.28011,0.40849,0.4735
1702327327414062,-9.696696,0.394772,1.38593,0.22811,0.42749,0.8235
1702327327421875,-9.696696,0.401772,1.20593,0.14711,0.39749,0.6735
1702327327429687,-9.703696,0.403772,1.15593,0.13111,0.38049,0.8435
1702327327437500,-9.705696,0.403772,1.18593,0.14411,0.38349,0.2035
1702327327445312,-9.714696,0.399772,1.22593,0.23511,0.42349,0.6335
1702327327453125,-9.714696,0.387772,1.34593,0.27811,0.34449,0.6435
1702327327460937,-9.714696,0.387772,1.27593,0.25611,0.36449,0.9835
1702327327468750,-9.712696,0.392772,1.20593,0.24211,0.29749,0.11335
1702327327476562,-9.712696,0.389772,1.15593,0.24811,0.32049,0.13335
1702327327484375,-9.730696,0.373772,1.31593,0.18611,0.35349,0.10235
1702327327492187,-9.730696,0.369772,1.47593,0.24111,0.33149,0.8235
1702327327500000,-9.697696,0.374772,1.42593,0.20811,0.44649,0.11535
1702327327507812,-9.697696,0.379772,1.22593,0.18111,0.39449,0.9835
1702327327515625,-9.687696,0.387772,1.11593,0.18811,0.36849,0.8535
1702327327523437,-9.703696,0.392772,1.20593,0.19211,0.28349,0.8335
1702327327531250,-9.692696,0.396772,1.29593,0.18911,0.39949,0.11735
1702327327539062,-9.699696,0.394772,1.31593,0.27311,0.34649,0.12935
1702327327546875,-9.696696,0.401772,1.42593,0.21111,0.37949,0.9835
1702327327554687,-9.712696,0.394772,1.42593,0.17611,0.33249,0.10035
1702327327562500,-9.717696,0.392772,1.58593,0.18411,0.29449,0.11335
1702327327570312,-9.721696,0.394772,1.45593,0.23911,0.33349,0.8335
1702327327578125,-9.732696,0.387772,1.33593,0.27011,0.41549,0.5135
1702327327585937,-9.733696,0.367772,1.33593,0.27411,0.34649,0.6535
1702327327593750,-9.731696,0.356772,1.67593,0.24411,0.42749,0.9735
1702327327601562,-9.708696,0.370772,1.65593,0.25811,0.37949,0.8135
1702327327609375,-9.702696,0.359772,1.54593,0.28211,0.32549,0.7835
1702327327617187,-9.697696,0.372772,1.43593,0.26311,0.42449,0.9635
1702327327625000,-9.715696,0.363772,1.51593,0.20411,0.41649,0.14935
1702327327632812,-9.730696,0.371772,1.67593,0.13311,0.44349,0.14735
1702327327640625,-9.733696,0.376772,1.74593,0.19311,0.54349,0.14835
1702327327648437,-9.733696,0.369772,1.49593,0.16411,0.59049,0.13235
1702327327656250,-9.741696,0.396772,1.16593,0.22711,0.63849,0.16335
1702327327664062,-9.748696,0.400772,1.31593,0.25811,0.57449,0.13135
1702327327671875,-9.734696,0.409772,1.67593,0.27811,0.61949,0.16135
1702327327679687,-9.701696,0.408772,1.70593,0.24611,0.48949,0.17735
1702327327687500,-9.680696,0.410772,1.58593,0.26111,0.44049,0.19335
1702327327695312,-9.678696,0.403772,1.27593,0.26711,0.49649,0.18035
1702327327703125,-9.689696,0.403772,1.31593,0.22211,0.56049,0.16435
1702327327710937,-9.698696,0.408772,1.36593,0.25811,0.58949,0.19535
1702327327718750,-9.696696,0.399772,1.45593,0.24111,0.59049,0.19535
1702327327726562,-9.696696,0.390772,1.67593,0.25411,0.54249,0.22835
1702327327734375,-9.699696,0.401772,1.70593,0.27411,0.58949,0.21035
1702327327742187,-9.692696,0.410772,1.65593,0.25611,0.50849,0.22735
1702327327750000,-9.682696,0.421772,1.67593,0.27211,0.60749,0.21135
1702327327757812,-9.698696,0.430772,1.74593,0.26411,0.45449,0.22435
1702327327765625,-9.707696,0.416772,1.67593,0.25611,0.42849,0.16235
1702327327773437,-9.703696,0.412772,1.70593,0.25711,0.41049,0.21035
1702327327781250,-9.698696,0.408772,1.49593,0.27511,0.45649,0.25735
1702327327789062,-9.692696,0.403772,1.63593,0.25311,0.49549,0.21235
1702327327796875,-9.687696,0.399772,1.85593,0.27011,0.57549,0.19635
1702327327804687,-9.698696,0.405772,1.83593,0.30011,0.49549,0.21135
1702327327812500,-9.690696,0.394772,1.78593,0.22311,0.47749,0.22835
1702327327820312,-9.685696,0.390772,1.72593,0.25911,0.49149,0.19435
1702327327828125,-9.694696,0.392772,1.83593,0.26811,0.49549,0.21235
1702327327835937,-9.696696,0.398772,1.96593,0.26611,0.46349,0.22835
1702327327843750,-9.696696,0.394772,1.92593,0.25611,0.41149,0.19535
1702327327851562,-9.689696,0.396772,1.85593,0.27111,0.42849,0.19535
1702327327859375,-9.719696,0.409772,1.76593,0.24111,0.41049,0.24235
1702327327867187,-9.721696,0.416772,1.78593,0.22211,0.42949,0.22835
1702327327875000,-9.712696,0.423772,1.99593,0.16611,0.44149,0.17835
1702327327882812,-9.703696,0.425772,1.103593,0.18211,0.45649,0.22635
1702327327890625,-9.694696,0.414772,1.103593,0.19711,0.40949,0.16235
1702327327898437,-9.694696,0.414772,1.110593,0.15511,0.49749,0.19835
1702327327906250,-9.687696,0.425772,1.141593,0.14011,0.54549,0.23035
1702327327914062,-9.678696,0.423772,1.146593,0.13011,0.49349,0.18035
1702327327921875,-9.667696,0.430772,1.144593,0.13211,0.41249,0.13235
1702327327929687,-9.678696,0.427772,1.132593,0.13811,0.44949,0.21535
1702327327937500,-9.714696,0.434772,1.119593,0.16611,0.45849,0.16235
1702327327945312,-9.716696,0.429772,1.128593,0.9311,0.44849,0.18335
1702327327953125,-9.695696,0.431772,1.117593,0.23311,0.49949,0.13435
1702327327960937,-9.689696,0.441772,1.108593,0.8111,0.46249,0.18135
1702327327968750,-9.689696,0.445772,1.119593,0.25811,0.41249,0.9835
1702327327976562,-9.660696,0.448772,1.124593,0.13411,0.44149,0.17935
1702327327984375,-9.655696,0.448772,1.117593,0.9711,0.46249,0.18135
1702327327992187,-9.669696,0.443772,1.112593,0.19211,0.42849,0.21235
1702327328000000,-9.680696,0.429772,1.123593,0.12211,0.41649,0.23135
1702327328007812,-9.707696,0.423772,1.123593,0.1811,0.44549,0.21435
1702327328015625,-9.705696,0.394772,1.132593,0.4911,0.42949,0.24635
1702327328023437,-9.701696,0.401772,1.139593,0.1111,0.40749,0.19535
1702327328031250,-9.714696,0.398772,1.159593,0.1111,0.53149,0.23335
1702327328039062,-9.716696,0.387772,1.157593,0.89,0.53049,0.16835
1702327328046875,-9.719696,0.382772,1.155593,0.1611,0.47949,0.21535
1702327328054687,-9.712696,0.398772,1.155593,0.4111,0.42549,0.16435
1702327328062500,-9.707696,0.411772,1.141593,0.0,0.51249,0.16735
1702327328070312,-9.696696,0.438772,1.148593,0.1811,0.46249,0.19835
1702327328078125,-9.662696,0.443772,1.155593,0.5589,0.52449,0.15035
1702327328085937,-9.659696,0.461772,1.137593,0.989,0.60649,0.19835
1702327328093750,-9.655696,0.452772,1.153593,0.2111,0.54249,0.11835
1702327328101562,-9.664696,0.461772,1.160593,0.1011,0.55649,0.8435
1702327328109375,-9.675696,0.463772,1.171593,0.0,0.49749,0.11935
1702327328117187,-9.677696,0.470772,1.175593,0.2889,0.52949,0.10335
1702327328125000,-9.677696,0.463772,1.164593,0.2811,0.56449,0.15335
1702327328132812,-9.677696,0.447772,1.159593,0.6211,0.46449,0.15135
1702327328140625,-9.680696,0.454772,1.173593,0.7111,0.54049,0.14835
1702327328148437,-9.682696,0.461772,1.182593,0.15911,0.51349,0.8535
1702327328156250,-9.677696,0.463772,1.162593,0.13311,0.47649,0.11535
1702327328164062,-9.691696,0.463772,1.162593,0.23511,0.51449,0.10135
1702327328171875,-9.707696,0.452772,1.175593,0.13111,0.57549,0.8435
1702327328179687,-9.709696,0.433772,1.177593,0.21511,0.51849,0.3935
1702327328187500,-9.707696,0.440772,1.173593,0.22711,0.54349,0.1935
1702327328195312,-9.700696,0.449772,1.157593,0.18411,0.56749,0.2335
1702327328203125,-9.682696,0.450772,1.144593,0.16111,0.54449,0.8435
1702327328210937,-9.691696,0.445772,1.130593,0.22911,0.55749,0.8235
1702327328218750,-9.678696,0.448772,1.157593,0.27711,0.65449,0.9735
1702327328226562,-9.680696,0.443772,1.198593,0.22511,0.69049,0.5235
1702327328234375,-9.666696,0.430772,1.193593,0.20511,0.66249,0.1065
1702327328242187,-9.678696,0.432772,1.171593,0.23811,0.61149,0.3635
1702327328250000,-9.689696,0.421772,1.155593,0.25211,0.52949,0.13235
1702327328257812,-9.707696,0.414772,1.162593,0.26711,0.51449,0.8435
1702327328265625,-9.694696,0.414772,1.173593,0.25211,0.46549,0.6835
1702327328273437,-9.678696,0.412772,1.171593,0.26711,0.54749,0.10135
1702327328281250,-9.678696,0.401772,1.180593,0.25211,0.58049,0.2135
1702327328289062,-9.685696,0.390772,1.193593,0.28011,0.58849,0.0
1702327328296875,-9.687696,0.394772,1.191593,0.28711,0.51249,0.5135
1702327328304687,-9.678696,0.394772,1.157593,0.25811,0.44549,0.6635
1702327328312500,-9.683696,0.396772,1.137593,0.20911,0.49549,0.3535
1702327328320312,-9.678696,0.406772,1.146593,0.27911,0.52349,0.6435
1702327328328125,-9.674696,0.417772,1.166593,0.24311,0.52549,0.9835
1702327328335937,-9.666696,0.434772,1.178593,0.25711,0.52749,0.8335
1702327328343750,-9.683696,0.401772,1.157593,0.27911,0.50649,0.6435
1702327328351562,-9.708696,0.394772,1.142593,0.26311,0.47549,0.1635
1702327328359375,-9.714696,0.391772,1.135593,0.27211,0.49549,0.1835
1702327328367187,-9.714696,0.396772,1.137593,0.25811,0.41249,0.8235
1702327328375000,-9.701696,0.394772,1.151593,0.25911,0.42949,0.1735
1702327328382812,-9.690696,0.392772,1.137593,0.27311,0.41449,0.1835
1702327328390625,-9.687696,0.392772,1.141593,0.25311,0.48249,0.3635
1702327328398437,-9.685696,0.374772,1.157593,0.27011,0.44749,0.6735
1702327328406250,-9.676696,0.363772,1.173593,0.25911,0.41449,0.4665
1702327328414062,-9.681696,0.363772,1.157593,0.28411,0.43349,0.3535
1702327328421875,-9.683696,0.348772,1.126593,0.30211,0.34949,0.5035
1702327328429687,-9.681696,0.354772,1.110593,0.30511,0.36449,0.1735
1702327328437500,-9.688696,0.356772,1.128593,0.25611,0.44649,0.8335
1702327328445312,-9.677696,0.361772,1.142593,0.27411,0.37949,0.6535
1702327328453125,-9.679696,0.354772,1.130593,0.24111,0.24949,0.9735
1702327328460937,-9.681696,0.361772,1.110593,0.25511,0.30049,0.8235
1702327328468750,-9.683696,0.361772,1.115593,0.27711,0.36049,0.9635
1702327328476562,-9.676696,0.349772,1.121593,0.24711,0.35449,0.8535
1702327328484375,-9.674696,0.338772,1.132593,0.26311,0.33849,0.5335
1702327328492187,-9.692696,0.354772,1.144593,0.25111,0.22149,0.13135
1702327328500000,-9.690696,0.343772,1.160593,0.27611,0.26349,0.9635
1702327328507812,-9.686696,0.330772,1.146593,0.24711,0.31149,0.8035
1702327328515625,-9.699696,0.332772,1.146593,0.25811,0.20049,0.6535
1702327328523437,-9.691696,0.334772,1.151593,0.19811,0.29649,0.8135
1702327328531250,-9.661696,0.339772,1.144593,0.22111,0.36749,0.6835
1702327328539062,-9.656696,0.348772,1.159593,0.19011,0.36749,0.8435
1702327328546875,-9.676696,0.356772,1.153593,0.19211,0.35149,0.2865
1702327328554687,-9.694696,0.374772,1.150593,0.25611,0.28449,0.3435
1702327328562500,-9.696696,0.381772,1.148593,0.17911,0.33149,0.3435
1702327328570312,-9.694696,0.374772,1.157593,0.26011,0.28149,0.3235
1702327328578125,-9.695696,0.368772,1.175593,0.26311,0.29549,0.6335
1702327328585937,-9.688696,0.374772,1.196593,0.27611,0.32749,0.17635
1702327328593750,-9.679696,0.370772,1.166593,0.24111,0.24949,0.9735
1702327328601562,-9.683696,0.354772,1.146593,0.25511,0.31649,0.6635
1702327328609375,-9.677696,0.341772,1.175593,0.26911,0.48049,0.10035
1702327328617187,-9.684696,0.332772,1.205593,0.27611,0.39449,0.8135
1702327328625000,-9.706696,0.327772,1.182593,0.23411,0.41749,0.10135
1702327328632812,-9.702696,0.318772,1.177593,0.24611,0.40349,0.10235
1702327328640625,-9.716696,0.300772,1.168593,0.26811,0.38349,0.9935
1702327328648437,-9.715696,0.307772,1.171593,0.13711,0.41849,0.15135
1702327328656250,-9.740696,0.307772,1.157593,0.22311,0.43149,0.8435
1702327328664062,-9.760696,0.333772,1.124593,0.26011,0.40949,0.17735
1702327328671875,-9.733696,0.353772,1.135593,0.20811,0.49549,0.10035
1702327328679687,-9.719696,0.358772,1.142593,0.16311,0.54349,0.8435
1702327328687500,-9.713696,0.352772,1.157593,0.18411,0.47549,0.4935
1702327328695312,-9.694696,0.351772,1.173593,0.15411,0.45149,0.10335
1702327328703125,-9.668696,0.337772,1.159593,0.15611,0.44849,0.18235
1702327328710937,-9.679696,0.321772,1.155593,0.10011,0.41149,0.13235
1702327328718750,-9.684696,0.334772,1.153593,0.8711,0.45949,0.8335
1702327328726562,-9.679696,0.334772,1.164593,0.311,0.48049,0.5435
1702327328734375,-9.679696,0.341772,1.178593,0.8511,0.46149,0.10035
1702327328742187,-9.672696,0.374772,1.193593,0.1911,0.57749,0.10235
1702327328750000,-9.656696,0.376772,1.198593,0.4311,0.43449,0.16835
1702327328757812,-9.641696,0.364772,1.180593,0.6811,0.46149,0.13335
1702327328765625,-9.645696,0.372772,1.175593,0.9311,0.39949,0.19835
1702327328773437,-9.661696,0.368772,1.175593,0.27611,0.36149,0.9735
1702327328781250,-9.681696,0.370772,1.178593,0.19111,0.41349,0.19635
1702327328789062,-9.683696,0.359772,1.178593,0.21111,0.27949,0.22635
1702327328796875,-9.697696,0.359772,1.171593,0.21011,0.37749,0.22635
1702327328804687,-9.688696,0.356772,1.182593,0.23811,0.42949,0.19635
1702327328812500,-9.666696,0.348772,1.196593,0.24311,0.41049,0.13035
1702327328820312,-9.652696,0.350772,1.193593,0.22611,0.42749,0.17835
1702327328828125,-9.675696,0.341772,1.193593,0.17911,0.37749,0.21135
1702327328835937,-9.693696,0.339772,1.175593,0.16711,0.27849,0.17735
1702327328843750,-9.690696,0.332772,1.169593,0.17711,0.29849,0.16335
1702327328851562,-9.695696,0.343772,1.160593,0.5911,0.29349,0.17835
1702327328859375,-9.695696,0.346772,1.178593,0.9111,0.35849,0.13035
1702327328867187,-9.693696,0.348772,1.182593,0.12311,0.35849,0.9735
1702327328875000,-9.666696,0.350772,1.173593,0.689,0.36149,0.11635
1702327328882812,-9.668696,0.355772,1.173593,0.16411,0.31349,0.13035
1702327328890625,-9.682696,0.330772,1.164593,0.16411,0.28149,0.9835
1702327328898437,-9.684696,0.335772,1.175593,0.18511,0.26049,0.14435
1702327328906250,-9.697696,0.339772,1.182593,0.16311,0.28049,0.14635
1702327328914062,-9.708696,0.339772,1.196593,0.24511,0.29449,0.19335
1702327328921875,-9.686696,0.339772,1.196593,0.5411,0.29549,0.22835
1702327328929687,-9.682696,0.346772,1.198593,0.12511,0.30649,0.20835
1702327328937500,-9.661696,0.348772,1.187593,0.24311,0.19749,0.22535
1702327328945312,-9.672696,0.337772,1.180593,0.25711,0.24849,0.19335
1702327328953125,-9.681696,0.346772,1.198593,0.20111,0.24449,0.11135
1702327328960937,-9.679696,0.330772,1.191593,0.15411,0.29349,0.12835
1702327328968750,-9.684696,0.323772,1.214593,0.27811,0.27849,0.11135
1702327328976562,-9.679696,0.323772,1.198593,0.11811,0.27949,0.17835
1702327328984375,-9.682696,0.330772,1.171593,0.21011,0.31349,0.17835
1702327328992187,-9.679696,0.343772,1.160593,0.22511,0.28249,0.13035
1702327329000000,-9.694696,0.363772,1.144593,0.19211,0.24949,0.17935
1702327329007812,-9.699696,0.358772,1.139593,0.5511,0.29149,0.10435
1702327329015625,-9.706696,0.354772,1.146593,0.9611,0.28349,0.18135
1702327329023437,-9.699696,0.354772,1.173593,0.22511,0.29749,0.21035
1702327329031250,-9.688696,0.370772,1.166593,0.22711,0.27949,0.19335
1702327329039062,-9.703696,0.374772,1.184593,0.26911,0.33149,0.22735
1702327329046875,-9.708696,0.361772,1.196593,0.21411,0.35849,0.20935
1702327329054687,-9.692696,0.374772,1.193593,0.21211,0.34549,0.16235
1702327329062500,-9.681696,0.359772,1.173593,0.25611,0.29749,0.19435
1702327329070312,-9.668696,0.357772,1.173593,0.27211,0.33049,0.19435
1702327329078125,-9.657696,0.357772,1.169593,0.26211,0.32649,0.17635
1702327329085937,-9.663696,0.361772,1.166593,0.27011,0.28349,0.13035
1702327329093750,-9.667696,0.359772,1.157593,0.25111,0.33449,0.14835
1702327329101562,-9.674696,0.357772,1.171593,0.23711,0.28349,0.21135
1702327329109375,-9.679696,0.361772,1.160593,0.27711,0.29449,0.12835
1702327329117187,-9.706696,0.374772,1.162593,0.25911,0.29649,0.17735
1702327329125000,-9.717696,0.365772,1.151593,0.27311,0.19949,0.19335
1702327329132812,-9.715696,0.365772,1.153593,0.25511,0.28249,0.19435
1702327329140625,-9.704696,0.359772,1.155593,0.26211,0.29349,0.22435
1702327329148437,-9.697696,0.361772,1.157593,0.27611,0.27849,0.17635
1702327329156250,-9.679696,0.363772,1.162593,0.24311,0.29649,0.16135
1702327329164062,-9.681696,0.375772,1.155593,0.23111,0.27649,0.17635
1702327329171875,-9.692696,0.356772,1.160593,0.16111,0.29849,0.17935
1702327329179687,-9.685696,0.370772,1.169593,0.28711,0.28249,0.12935
1702327329187500,-9.670696,0.359772,1.173593,0.21611,0.30949,0.14435
1702327329195312,-9.670696,0.352772,1.155593,0.25711,0.34649,0.13035
1702327329203125,-9.674696,0.368772,1.144593,0.27511,0.27949,0.16035
1702327329210937,-9.679696,0.365772,1.146593,0.25511,0.23149,0.27435
1702327329218750,-9.703696,0.374772,1.135593,0.27111,0.16749,0.17735
1702327329226562,-9.705696,0.371772,1.135593,0.24911,0.15549,0.24435
1702327329234375,-9.699696,0.376772,1.139593,0.25311,0.23449,0.21135
1702327329242187,-9.694696,0.378772,1.144593,0.25311,0.26749,0.17935
1702327329250000,-9.688696,0.377772,1.148593,0.26211,0.14749,0.17535
1702327329257812,-9.706696,0.370772,1.133593,0.25811,0.16649,0.14435
1702327329265625,-9.715696,0.361772,1.139593,0.25911,0.24649,0.17735
1702327329273437,-9.708696,0.352772,1.144593,0.26011,0.24549,0.22435
1702327329281250,-9.697696,0.352772,1.139593,0.25611,0.21549,0.24135
1702327329289062,-9.681696,0.356772,1.137593,0.25211,0.29949,0.22735
1702327329296875,-9.692696,0.350772,1.126593,0.25411,0.26549,0.21035
1702327329304687,-9.684696,0.352772,1.142593,0.26011,0.24549,0.22435
1702327329312500,-9.685696,0.365772,1.123593,0.25311,0.28149,0.27535
1702327329320312,-9.690696,0.357772,1.119593,0.26311,0.24249,0.27135
1702327329328125,-9.679696,0.355772,1.117593,0.25811,0.19749,0.24135
1702327329335937,-9.713696,0.356772,1.117593,0.25711,0.28049,0.19435
1702327329343750,-9.704696,0.359772,1.126593,0.25811,0.23049,0.22535
1702327329351562,-9.703696,0.367772,1.126593,0.25711,0.19949,0.20935
1702327329359375,-9.692696,0.361772,1.126593,0.26611,0.26849,0.22835
1702327329367187,-9.697696,0.354772,1.121593,0.26011,0.27849,0.19235
1702327329375000,-9.704696,0.345772,1.126593,0.27711,0.22949,0.14335
1702327329382812,-9.697696,0.339772,1.115593,0.26011,0.22949,0.22435
1702327329390625,-9.702696,0.350772,1.119593,0.23311,0.25949,0.17535
1702327329398437,-9.688696,0.359772,1.119593,0.29511,0.30849,0.20735
1702327329406250,-9.679696,0.357772,1.133593,0.21211,0.36149,0.13035
1702327329414062,-9.690696,0.357772,1.133593,0.26011,0.24549,0.20835
1702327329421875,-9.692696,0.359772,1.121593,0.27011,0.29849,0.22635
1702327329429687,-9.679696,0.357772,1.101593,0.21111,0.26349,0.22635
1702327329437500,-9.688696,0.368772,1.74593,0.24411,0.14849,0.19235
1702327329445312,-9.679696,0.352772,1.78593,0.16011,0.24949,0.21135
1702327329453125,-9.679696,0.352772,1.87593,0.25311,0.16849,0.22635
1702327329460937,-9.681696,0.357772,1.90593,0.27611,0.16549,0.14435
1702327329468750,-9.684696,0.352772,1.97593,0.26111,0.19649,0.19235
1702327329476562,-9.692696,0.349772,1.92593,0.26511,0.18849,0.17935
1702327329484375,-9.704696,0.356772,1.81593,0.23011,0.19649,0.17635
1702327329492187,-9.706696,0.359772,1.76593,0.16611,0.17949,0.22535
1702327329500000,-9.695696,0.359772,1.72593,0.21511,0.16249,0.22335
1702327329507812,-9.699696,0.357772,1.85593,0.26611,0.25749,0.19035
1702327329515625,-9.697696,0.359772,1.97593,0.27611,0.24549,0.20835
1702327329523437,-9.701696,0.365772,1.97593,0.25611,0.21549,0.22535
1702327329531250,-9.694696,0.376772,1.83593,0.19611,0.16449,0.22535
1702327329539062,-9.712696,0.374772,1.67593,0.19811,0.16349,0.19235
1702327329546875,-9.701696,0.372772,1.79593,0.26411,0.25949,0.20735
1702327329554687,-9.695696,0.361772,1.94593,0.28111,0.17749,0.15835
1702327329562500,-9.679696,0.374772,1.101593,0.25611,0.15149,0.16135
1702327329570312,-9.676696,0.377772,1.87593,0.27311,0.16649,0.20935
1702327329578125,-9.687696,0.376772,1.81593,0.25411,0.15249,0.19435
1702327329585937,-9.703696,0.376772,1.51593,0.25311,0.15249,0.21035
1702327329593750,-9.712696,0.374772,1.51593,0.25811,0.10049,0.16035
1702327329601562,-9.724696,0.365772,1.49593,0.25811,0.16649,0.17735
1702327329609375,-9.726696,0.356772,1.54593,0.20911,0.14949,0.24235
1702327329617187,-9.715696,0.363772,1.70593,0.26511,0.20849,0.25435
1702327329625000,-9.699696,0.352772,1.61593,0.26411,0.21049,0.22335
1702327329632812,-9.679696,0.346772,1.52593,0.28011,0.14449,0.25435
1702327329640625,-9.695696,0.341772,1.45593,0.24011,0.18249,0.27435
1702327329648437,-9.697696,0.338772,1.51593,0.21911,0.17049,0.26035
1702327329656250,-9.717696,0.343772,1.54593,0.25911,0.13049,0.28835
1702327329664062,-9.724696,0.347772,1.38593,0.25611,0.13349,0.28935
1702327329671875,-9.754696,0.336772,1.43593,0.12611,0.25649,0.25535
1702327329679687,-9.764696,0.347772,1.56593,0.9911,0.39349,0.27635
1702327329687500,-9.733696,0.358772,1.47593,0.9911,0.26249,0.32435
1702327329695312,-9.726696,0.372772,0.993593,0.6911,0.37749,0.24435
1702327329703125,-9.705696,0.396772,0.995593,0.10311,0.34149,0.29135
1702327329710937,-9.710696,0.401772,1.36593,0.8211,0.34549,0.26035
1702327329718750,-9.698696,0.403772,1.45593,0.17411,0.29949,0.21235
1702327329726562,-9.678696,0.406772,1.34593,0.19611,0.31049,0.25835
1702327329734375,-9.665696,0.406772,1.22593,0.11411,0.28049,0.24435
1702327329742187,-9.678696,0.399772,1.36593,0.10011,0.29549,0.25935
1702327329750000,-9.699696,0.394772,1.29593,0.1111,0.22749,0.21035
1702327329757812,-9.698696,0.396772,1.18593,0.5211,0.28049,0.21235
1702327329765625,-9.694696,0.392772,1.33593,0.8111,0.34749,0.24535
1702327329773437,-9.683696,0.412772,1.56593,0.5211,0.24749,0.24435
1702327329781250,-9.673696,0.430772,1.36593,0.5811,0.22749,0.24235
1702327329789062,-9.678696,0.435772,1.25593,0.15511,0.17749,0.22435
1702327329796875,-9.680696,0.426772,1.18593,0.22711,0.16449,0.25735
1702327329804687,-9.676696,0.412772,1.18593,0.20411,0.18449,0.30835
1702327329812500,-9.671696,0.408772,1.15593,0.25711,0.16649,0.22535
1702327329820312,-9.671696,0.394772,1.4593,0.23811,0.15049,0.25835
1702327329828125,-9.687696,0.399772,0.995593,0.16011,0.16749,0.27535
1702327329835937,-9.705696,0.394772,0.977593,0.12311,0.14449,0.25635
1702327329843750,-9.719696,0.394772,0.964593,0.9811,0.16749,0.24435
1702327329851562,-9.719696,0.383772,0.995593,0.12311,0.14449,0.24035
1702327329859375,-9.715696,0.381772,1.11593,0.8811,0.24549,0.21035
1702327329867187,-9.712696,0.392772,1.29593,0.9011,0.16149,0.22535
1702327329875000,-9.706696,0.379772,1.9593,0.10611,0.12949,0.22435
1702327329882812,-9.712696,0.391772,0.990593,0.9211,0.10549,0.26135
1702327329890625,-9.714696,0.385772,0.979593,0.3811,0.9849,0.30735
1702327329898437,-9.715696,0.379772,0.993593,0.11811,0.19549,0.29035
1702327329906250,-9.714696,0.385772,0.997593,0.5311,0.26249,0.26035
1702327329914062,-9.716696,0.405772,1.593,0.9911,0.28049,0.21135
1702327329921875,-9.710696,0.410772,0.984593,0.7411,0.14549,0.22535
1702327329929687,-9.714696,0.414772,0.964593,0.211,0.20149,0.22935
1702327329937500,-9.716696,0.410772,0.984593,0.12111,0.19449,0.22535
1702327329945312,-9.709696,0.412772,1.2593,0.9811,0.15049,0.24335
1702327329953125,-9.703696,0.408772,1.27593,0.8911,0.19449,0.25735
1702327329960937,-9.712696,0.394772,1.9593,0.6911,0.14749,0.29135
1702327329968750,-9.710696,0.392772,0.991593,0.4311,0.16149,0.20935
1702327329976562,-9.708696,0.399772,0.979593,0.7711,0.17749,0.19235
1702327329984375,-9.712696,0.392772,0.988593,0.4111,0.22849,0.22735
1702327329992187,-9.717696,0.401772,1.27593,0.4511,0.20949,0.20935
1702327330000000,-9.718696,0.402772,1.26593,0.7711,0.20449,0.21435
1702327330007812,-9.714696,0.398772,1.24593,0.3211,0.31549,0.23035
1702327330015625,-9.716696,0.414772,1.11593,0.12011,0.37449,0.21035
1702327330023437,-9.714696,0.429772,0.993593,0.11611,0.21549,0.19535
1702327330031250,-9.725696,0.427772,1.4593,0.14511,0.16749,0.22735
1702327330039062,-9.725696,0.429772,0.986593,0.14011,0.21949,0.24535
1702327330046875,-9.705696,0.427772,0.995593,0.0,0.25149,0.24735
1702327330054687,-9.696696,0.429772,0.993593,0.12811,0.28349,0.18035
1702327330062500,-9.698696,0.429772,0.995593,0.11911,0.30549,0.21535
1702327330070312,-9.709696,0.418772,0.984593,0.25211,0.34949,0.22835
1702327330078125,-9.716696,0.416772,0.984593,0.21511,0.30349,0.21435
1702327330085937,-9.719696,0.407772,0.979593,0.21211,0.31249,0.16135
1702327330093750,-9.714696,0.407772,0.981593,0.23411,0.28449,0.24435
1702327330101562,-9.707696,0.405772,0.995593,0.27411,0.29649,0.19335
1702327330109375,-9.705696,0.389772,0.997593,0.23411,0.28449,0.24435
1702327330117187,-9.698696,0.403772,1.2593,0.19011,0.33149,0.26035
1702327330125000,-9.696696,0.407772,1.2593,0.14011,0.36649,0.21435
1702327330132812,-9.692696,0.405772,0.986593,0.16311,0.26449,0.19535
1702327330140625,-9.705696,0.394772,0.984593,0.22611,0.31249,0.22635
1702327330148437,-9.705696,0.409772,0.988593,0.23811,0.24949,0.24335
1702327330156250,-9.703696,0.416772,0.988593,0.19211,0.24949,0.21135
1702327330164062,-9.710696,0.398772,0.972593,0.26711,0.30149,0.16335
1702327330171875,-9.734696,0.404772,0.959593,0.20011,0.28549,0.27735
1702327330179687,-9.732696,0.398772,0.954593,0.19811,0.23849,0.27835
1702327330187500,-9.734696,0.387772,0.952593,0.25011,0.25149,0.26035
1702327330195312,-9.730696,0.380772,0.963593,0.17011,0.31849,0.21435
1702327330203125,-9.719696,0.392772,0.964593,0.14911,0.27749,0.25835
1702327330210937,-9.719696,0.392772,0.937593,0.14711,0.34449,0.25935
1702327330218750,-9.716696,0.407772,0.946593,0.23011,0.44049,0.20935
1702327330226562,-9.716696,0.414772,0.970593,0.23211,0.34049,0.22435
1702327330234375,-9.696696,0.428772,0.977593,0.15111,0.32549,0.25835
1702327330242187,-9.698696,0.443772,0.973593,0.13311,0.40749,0.32335
1702327330250000,-9.693696,0.448772,0.957593,0.14611,0.27849,0.33935
1702327330257812,-9.716696,0.452772,0.939593,0.9011,0.25849,0.30635
1702327330265625,-9.741696,0.440772,0.952593,0.7111,0.31049,0.22735
1702327330273437,-9.732696,0.440772,0.984593,0.11611,0.42449,0.32435
1702327330281250,-9.730696,0.438772,0.997593,0.19811,0.38949,0.32135
1702327330289062,-9.714696,0.430772,0.986593,0.8711,0.32549,0.33935
1702327330296875,-9.702696,0.427772,0.959593,0.6511,0.36149,0.35835
1702327330304687,-9.696696,0.434772,0.946593,0.11011,0.37949,0.35835
1702327330312500,-9.696696,0.423772,0.959593,0.11211,0.39449,0.34135
1702327330320312,-9.703696,0.410772,0.948593,0.11711,0.39049,0.35535
1702327330328125,-9.710696,0.421772,0.952593,0.4011,0.42349,0.27635
1702327330335937,-9.716696,0.439772,0.943593,0.5811,0.40549,0.27535
1702327330343750,-9.718696,0.450772,0.923593,0.1011,0.42249,0.30835
1702327330351562,-9.702696,0.447772,0.923593,0.2011,0.41149,0.22935
1702327330359375,-9.693696,0.457772,0.930593,0.911,0.42349,0.26035
1702327330367187,-9.680696,0.452772,0.955593,0.711,0.37749,0.21335
1702327330375000,-9.695696,0.452772,0.941593,0.1411,0.26749,0.29535
1702327330382812,-9.702696,0.439772,0.923593,0.12011,0.29249,0.25835
1702327330390625,-9.722696,0.433772,0.930593,0.2911,0.28449,0.32735
1702327330398437,-9.713696,0.445772,0.923593,0.89,0.26649,0.35935
1702327330406250,-9.715696,0.463772,0.930593,0.511,0.26249,0.34135
1702327330414062,-9.709696,0.458772,0.932593,0.1211,0.28349,0.35935
1702327330421875,-9.714696,0.447772,0.939593,0.2289,0.30849,0.32435
1702327330429687,-9.702696,0.456772,0.923593,0.9389,0.31549,0.29635
1702327330437500,-9.702696,0.450772,0.925593,0.2011,0.32749,0.34135
1702327330445312,-9.704696,0.452772,0.930593,0.711,0.39249,0.27735
1702327330453125,-9.702696,0.465772,0.946593,0.1611,0.39549,0.34335
1702327330460937,-9.702696,0.467772,0.943593,0.311,0.37849,0.31035
1702327330468750,-9.702696,0.465772,0.941593,0.6689,0.30349,0.21735
1702327330476562,-9.711696,0.462772,0.934593,0.8489,0.35249,0.31435
1702327330484375,-9.709696,0.467772,0.932593,0.1911,0.32949,0.27735
1702327330492187,-9.715696,0.480772,0.923593,0.5689,0.31149,0.26135
1702327330500000,-9.713696,0.492772,0.925593,0.4289,0.28049,0.29435
1702327330507812,-9.733696,0.491772,0.932593,0.4789,0.33349,0.23235
1702327330515625,-9.733696,0.497772,0.934593,0.3989,0.41949,0.29935
1702327330523437,-9.719696,0.500772,0.936593,0.389,0.34949,0.34435
1702327330531250,-9.710696,0.498772,0.934593,0.389,0.28549,0.31235
1702327330539062,-9.694696,0.500772,0.963593,0.1211,0.36549,0.36035
1702327330546875,-9.684696,0.497772,0.959593,0.789,0.42549,0.22935
1702327330554687,-9.681696,0.483772,0.930593,0.0,0.38149,0.26335
1702327330562500,-9.690696,0.501772,0.923593,0.1811,0.36249,0.31035
1702327330570312,-9.708696,0.498772,0.934593,0.189,0.31749,0.26335
1702327330578125,-9.715696,0.502772,0.950593,0.1411,0.38249,0.26335
1702327330585937,-9.710696,0.516772,0.925593,0.6011,0.26949,0.24735
1702327330593750,-9.719696,0.522772,0.930593,0.12311,0.34949,0.27835
1702327330601562,-9.717696,0.525772,0.957593,0.9711,0.39649,0.19735
1702327330609375,-9.701696,0.529772,0.955593,0.11311,0.37849,0.26035
1702327330617187,-9.695696,0.521772,0.948593,0.12311,0.32449,0.19335
1702327330625000,-9.712696,0.513772,0.923593,0.3111,0.33349,0.21535
1702327330632812,-9.739696,0.500772,0.927593,0.24711,0.44949,0.23035
1702327330640625,-9.751696,0.493772,0.957593,0.27511,0.45849,0.21035
1702327330648437,-9.731696,0.500772,0.966593,0.21111,0.49249,0.16335
1702327330656250,-9.713696,0.483772,0.943593,0.25911,0.40949,0.20935
1702327330664062,-9.697696,0.461772,0.909593,0.23611,0.38149,0.22835
1702327330671875,-9.698696,0.434772,0.919593,0.22511,0.39549,0.17935
1702327330679687,-9.713696,0.447772,0.930593,0.28211,0.41449,0.22835
1702327330687500,-9.713696,0.449772,0.966593,0.22611,0.45949,0.17835
1702327330695312,-9.725696,0.451772,0.970593,0.25711,0.39449,0.24235
1702327330703125,-9.724696,0.465772,0.963593,0.11011,0.43049,0.23035
1702327330710937,-9.715696,0.471772,0.954593,0.6011,0.44849,0.24735
1702327330718750,-9.728696,0.500772,0.954593,0.10911,0.46349,0.24635
1702327330726562,-9.731696,0.498772,0.963593,0.6211,0.62749,0.18435
1702327330734375,-9.726696,0.500772,0.959593,0.1011,0.69549,0.21835
1702327330742187,-9.695696,0.503772,0.955593,0.22111,0.54449,0.19735
1702327330750000,-9.685696,0.516772,0.945593,0.24711,0.43549,0.15035
1702327330757812,-9.672696,0.517772,0.937593,0.27111,0.41149,0.22735
1702327330765625,-9.692696,0.505772,0.930593,0.24911,0.43249,0.24535
1702327330773437,-9.706696,0.498772,0.925593,0.27311,0.41049,0.21035
1702327330781250,-9.724696,0.498772,0.919593,0.24111,0.42649,0.22635
1702327330789062,-9.731696,0.494772,0.928593,0.16611,0.40749,0.27435
1702327330796875,-9.713696,0.505772,0.957593,0.19711,0.50649,0.22635
1702327330804687,-9.699696,0.498772,0.966593,0.23811,0.54249,0.22835
1702327330812500,-9.699696,0.507772,0.970593,0.14911,0.47449,0.21135
1702327330820312,-9.683696,0.519772,0.961593,0.24011,0.46149,0.19535
1702327330828125,-9.676696,0.514772,0.968593,0.26111,0.43449,0.23035
1702327330835937,-9.688696,0.510772,0.973593,0.25711,0.41049,0.21035
1702327330843750,-9.701696,0.507772,0.961593,0.26811,0.44549,0.22835
1702327330851562,-9.719696,0.507772,0.964593,0.25411,0.49349,0.22735
1702327330859375,-9.724696,0.500772,0.959593,0.24711,0.49949,0.21435
1702327330867187,-9.695696,0.492772,0.970593,0.24911,0.48149,0.22935
1702327330875000,-9.699696,0.492772,0.966593,0.27211,0.41049,0.24235
1702327330882812,-9.697696,0.474772,0.959593,0.24611,0.40049,0.27835
1702327330890625,-9.695696,0.470772,0.943593,0.25411,0.42849,0.25935
1702327330898437,-9.686696,0.472772,0.950593,0.25311,0.42949,0.21135
1702327330906250,-9.682696,0.463772,0.955593,0.27111,0.41149,0.22735
1702327330914062,-9.686696,0.481772,0.957593,0.24511,0.39149,0.22535
1702327330921875,-9.697696,0.467772,0.954593,0.18911,0.41449,0.21335
1702327330929687,-9.693696,0.463772,0.930593,0.15611,0.33249,0.29335
1702327330937500,-9.708696,0.480772,0.907593,0.11111,0.42949,0.24535
1702327330945312,-9.710696,0.480772,0.909593,0.2911,0.41549,0.26435
1702327330953125,-9.711696,0.485772,0.932593,0.5411,0.44149,0.26035
1702327330960937,-9.717696,0.498772,0.961593,0.9511,0.42949,0.27835
1702327330968750,-9.724696,0.516772,0.952593,0.1911,0.41149,0.24635
1702327330976562,-9.732696,0.531772,0.934593,0.511,0.44449,0.16535
1702327330984375,-9.726696,0.525772,0.939593,0.11511,0.42849,0.18035
1702327330992187,-9.715696,0.500772,0.968593,0.21111,0.40949,0.24235
1702327331000000,-9.708696,0.498772,0.946593,0.9911,0.42649,0.26035
1702327331007812,-9.713696,0.500772,0.936593,0.3411,0.39649,0.21435
1702327331015625,-9.715696,0.493772,0.927593,0.1211,0.36549,0.32835
1702327331023437,-9.717696,0.502772,0.939593,0.6111,0.49549,0.29535
1702327331031250,-9.713696,0.500772,0.932593,0.1489,0.46149,0.27935
1702327331039062,-9.713696,0.507772,0.952593,0.2311,0.40849,0.26035
1702327331046875,-9.712696,0.514772,0.964593,0.3411,0.49149,0.35835
1702327331054687,-9.712696,0.516772,0.963593,0.189,0.47949,0.34435
1702327331062500,-9.712696,0.518772,0.952593,0.1311,0.49749,0.24835
1702327331070312,-9.721696,0.513772,0.941593,0.489,0.51649,0.18535
1702327331078125,-9.724696,0.498772,0.961593,0.1011,0.45649,0.21235
1702327331085937,-9.717696,0.496772,0.975593,0.1411,0.44849,0.23235
1702327331093750,-9.712696,0.500772,0.975593,0.4511,0.53049,0.21635
1702327331101562,-9.710696,0.500772,0.977593,0.3111,0.52749,0.29535
1702327331109375,-9.694696,0.503772,0.995593,0.3011,0.57749,0.28035
1702327331117187,-9.685696,0.507772,0.995593,0.0,0.49649,0.21535
1702327331125000,-9.692696,0.503772,0.986593,0.1711,0.54349,0.21535
1702327331132812,-9.701696,0.503772,0.979593,0.0,0.49549,0.26435
1702327331140625,-9.690696,0.498772,0.993593,0.1811,0.46049,0.27835
1702327331148437,-9.683696,0.501772,1.593,0.211,0.59149,0.26335
1702327331156250,-9.683696,0.496772,1.4593,0.1289,0.49349,0.29535
1702327331164062,-9.676696,0.512772,1.593,0.1911,0.47649,0.24635
1702327331171875,-9.681696,0.509772,1.6593,0.1211,0.57949,0.28135
1702327331179687,-9.687696,0.514772,0.999593,0.2089,0.45049,0.20135
1702327331187500,-9.708696,0.518772,0.979593,0.511,0.44449,0.19835
1702327331195312,-9.724696,0.518772,0.993593,0.1811,0.54349,0.19935
1702327331203125,-9.733696,0.518772,1.2593,0.1811,0.49449,0.19935
1702327331210937,-9.723696,0.524772,0.997593,0.3411,0.49449,0.19835
1702327331218750,-9.707696,0.531772,0.977593,0.0,0.43149,0.18335
1702327331226562,-9.706696,0.514772,0.961593,0.0,0.41449,0.21535
1702327331234375,-9.694696,0.507772,0.963593,0.1611,0.44649,0.23135
1702327331242187,-9.695696,0.500772,0.997593,0.1589,0.51249,0.21635
1702327331250000,-9.679696,0.507772,1.20593,0.311,0.46249,0.16635
1702327331257812,-9.679696,0.503772,1.27593,0.1611,0.43049,0.19935
1702327331265625,-9.694696,0.516772,1.18593,0.211,0.51149,0.21535
1702327331273437,-9.694696,0.518772,1.13593,0.1711,0.49449,0.23135
1702327331281250,-9.695696,0.512772,1.22593,0.5411,0.47549,0.16435
1702327331289062,-9.705696,0.516772,1.15593,0.389,0.51549,0.20135
1702327331296875,-9.710696,0.514772,1.13593,0.5011,0.49449,0.16635
1702327331304687,-9.712696,0.505772,1.22593,0.6111,0.48149,0.19935
1702327331312500,-9.699696,0.498772,1.29593,0.5011,0.47849,0.18235
1702327331320312,-9.688696,0.505772,1.31593,0.7611,0.43349,0.18335
1702327331328125,-9.674696,0.505772,1.9593,0.11211,0.41249,0.24535
1702327331335937,-9.679696,0.499772,0.993593,0.9711,0.42749,0.27735
1702327331343750,-9.706696,0.502772,1.593,0.10811,0.44649,0.31135
1702327331351562,-9.728696,0.506772,1.17593,0.7511,0.49849,0.21635
1702327331359375,-9.735696,0.513772,1.31593,0.9111,0.49749,0.26335
1702327331367187,-9.717696,0.529772,1.36593,0.1489,0.47849,0.27935
1702327331375000,-9.710696,0.536772,1.31593,0.1711,0.44549,0.26335
1702327331382812,-9.710696,0.529772,1.33593,0.1011,0.45049,0.21735
1702327331390625,-9.694696,0.520772,1.42593,0.3911,0.46849,0.23435
1702327331398437,-9.685696,0.521772,1.51593,0.5011,0.55849,0.23035
1702327331406250,-9.687696,0.516772,1.42593,0.6911,0.53549,0.20235
1702327331414062,-9.699696,0.502772,1.29593,0.13611,0.46749,0.21635
1702327331421875,-9.694696,0.507772,1.15593,0.20811,0.43849,0.23335
1702327331429687,-9.690696,0.511772,1.17593,0.16711,0.41849,0.21535
1702327331437500,-9.696696,0.516772,1.15593,0.13911,0.54649,0.23135
1702327331445312,-9.694696,0.518772,1.13593,0.12311,0.53049,0.21535
1702327331453125,-9.685696,0.522772,1.17593,0.3711,0.42049,0.25035
1702327331460937,-9.676696,0.534772,1.13593,0.6611,0.45349,0.34735
1702327331468750,-9.678696,0.536772,1.29593,0.4111,0.49849,0.31335
1702327331476562,-9.698696,0.534772,1.29593,0.9311,0.47949,0.26335
1702327331484375,-9.705696,0.522772,1.29593,0.13111,0.45349,0.23335
1702327331492187,-9.703696,0.520772,1.38593,0.1911,0.55349,0.22035
1702327331500000,-9.710696,0.524772,1.22593,0.1011,0.53249,0.21835
1702327331507812,-9.714696,0.522772,1.2593,0.2511,0.48349,0.24935
1702327331515625,-9.717696,0.518772,1.22593,0.5911,0.46449,0.29635
1702327331523437,-9.696696,0.522772,1.29593,0.3611,0.43649,0.31535
1702327331531250,-9.692696,0.529772,1.17593,0.989,0.45349,0.23535
1702327331539062,-9.687696,0.540772,1.29593,0.911,0.54849,0.26635
1702327331546875,-9.684696,0.551772,1.22593,0.889,0.56649,0.25135
1702327331554687,-9.676696,0.554772,1.31593,0.911,0.54949,0.25035
1702327331562500,-9.693696,0.558772,1.42593,0.711,0.56649,0.21935
1702327331570312,-9.698696,0.546772,1.51593,0.11311,0.53649,0.23535
1702327331578125,-9.693696,0.551772,1.58593,0.8511,0.50149,0.28235
1702327331585937,-9.698696,0.542772,1.42593,0.789,0.53249,0.29835
1702327331593750,-9.698696,0.533772,1.26593,0.811,0.53249,0.31435
1702327331601562,-9.698696,0.533772,1.40593,0.589,0.54949,0.20235
1702327331609375,-9.696696,0.538772,1.22593,0.489,0.46549,0.26535
1702327331617187,-9.685696,0.534772,1.15593,0.7311,0.46549,0.29635
1702327331625000,-9.685696,0.538772,1.15593,0.12211,0.43349,0.21535
1702327331632812,-9.707696,0.553772,1.31593,0.6211,0.41449,0.26335
1702327331640625,-9.711696,0.584772,1.33593,0.10811,0.41549,0.21435
1702327331648437,-9.702696,0.596772,1.17593,0.7711,0.43149,0.23135
1702327331656250,-9.709696,0.602772,1.33593,0.6711,0.41149,0.21335
1702327331664062,-9.698696,0.589772,1.38593,0.1289,0.54249,0.26335
1702327331671875,-9.689696,0.594772,1.65593,0.6511,0.52549,0.27835
1702327331679687,-9.687696,0.576772,1.78593,0.5911,0.51349,0.29635
1702327331687500,-9.705696,0.569772,1.74593,0.6011,0.53049,0.26435
1702327331695312,-9.711696,0.571772,1.83593,0.14011,0.44649,0.27835
1702327331703125,-9.698696,0.558772,1.83593,0.9211,0.44649,0.34335
1702327331710937,-9.689696,0.554772,1.45593,0.15811,0.49449,0.26135
1702327331718750,-9.683696,0.543772,1.40593,0.9811,0.44249,0.34135
1702327331726562,-9.676696,0.548772,1.40593,0.9811,0.49149,0.29335
1702327331734375,-9.687696,0.565772,1.49593,0.6411,0.54249,0.32735
1702327331742187,-9.693696,0.582772,1.72593,0.6111,0.56149,0.28035
1702327331750000,-9.700696,0.583772,1.83593,0.5011,0.62249,0.32735
1702327331757812,-9.711696,0.596772,1.65593,0.0,0.64349,0.20035
1702327331765625,-9.720696,0.608772,1.40593,0.511,0.60049,0.23635
1702327331773437,-9.720696,0.607772,1.20593,0.6111,0.69249,0.21635
1702327331781250,-9.727696,0.604772,1.51593,0.14211,0.69149,0.19935
1702327331789062,-9.700696,0.609772,1.119593,0.25111,0.65849,0.24535
1702327331796875,-9.684696,0.605772,1.123593,0.23811,0.65749,0.21335
1702327331804687,-9.666696,0.601772,1.85593,0.21811,0.62749,0.23035
1702327331812500,-9.675696,0.590772,1.67593,0.22211,0.65749,0.21335
1702327331820312,-9.668696,0.603772,1.71593,0.16711,0.66249,0.23235
1702327331828125,-9.657696,0.596772,1.81593,0.21811,0.70949,0.21535
1702327331835937,-9.666696,0.588772,1.87593,0.27011,0.54249,0.22835
1702327331843750,-9.678696,0.592772,1.78593,0.21011,0.55649,0.25935
1702327331851562,-9.689696,0.589772,1.81593,0.23511,0.54349,0.30935
1702327331859375,-9.689696,0.594772,1.99593,0.18811,0.56049,0.29435
1702327331867187,-9.680696,0.603772,1.101593,0.22411,0.54149,0.26035
1702327331875000,-9.664696,0.581772,1.94593,0.10811,0.56149,0.26335
1702327331882812,-9.659696,0.590772,1.83593,0.7411,0.59549,0.31335
1702327331890625,-9.673696,0.588772,1.92593,0.13311,0.53949,0.22835
1702327331898437,-9.678696,0.590772,1.103593,0.11311,0.63949,0.27835
1702327331906250,-9.659696,0.599772,1.112593,0.14411,0.65749,0.23035
1702327331914062,-9.661696,0.612772,1.90593,0.19311,0.55749,0.22835
1702327331921875,-9.659696,0.605772,1.92593,0.20111,0.56349,0.21435
1702327331929687,-9.652696,0.601772,1.105593,0.12611,0.46349,0.21435
1702327331937500,-9.652696,0.603772,1.90593,0.23511,0.48049,0.22935
1702327331945312,-9.659696,0.607772,1.74593,0.18511,0.43349,0.21435
1702327331953125,-9.657696,0.605772,1.72593,0.17311,0.41449,0.19735
1702327331960937,-9.671696,0.596772,1.94593,0.14511,0.44449,0.22835
1702327331968750,-9.671696,0.592772,1.85593,0.21011,0.42649,0.21135
1702327331976562,-9.673696,0.590772,1.83593,0.14811,0.34449,0.22735
1702327331984375,-9.678696,0.597772,1.60593,0.16911,0.40649,0.20935
1702327331992187,-9.693696,0.594772,1.67593,0.20811,0.36249,0.22735
1702327332000000,-9.693696,0.611772,1.69593,0.11211,0.46249,0.19735
1702327332007812,-9.688696,0.609772,1.69593,0.16211,0.39549,0.17935
1702327332015625,-9.677696,0.628772,1.67593,0.9011,0.32549,0.16235
1702327332023437,-9.683696,0.627772,1.74593,0.20311,0.28649,0.14935
1702327332031250,-9.686696,0.612772,1.81593,0.20911,0.28049,0.21035
1702327332039062,-9.675696,0.605772,1.76593,0.18111,0.31049,0.22635
1702327332046875,-9.682696,0.607772,1.63593,0.14211,0.36549,0.22935
1702327332054687,-9.698696,0.601772,1.63593,0.18411,0.39149,0.12935
1702327332062500,-9.695696,0.596772,1.71593,0.14011,0.41549,0.21435
1702327332070312,-9.693696,0.596772,1.85593,0.12111,0.44049,0.16235
1702327332078125,-9.696696,0.592772,1.101593,0.8511,0.42649,0.21235
1702327332085937,-9.693696,0.598772,1.108593,0.14711,0.41049,0.21135
1702327332093750,-9.700696,0.602772,1.94593,0.3211,0.43049,0.21535
1702327332101562,-9.711696,0.598772,1.94593,0.26111,0.40949,0.11335
1702327332109375,-9.711696,0.600772,1.114593,0.14311,0.47849,0.19735
1702327332117187,-9.713696,0.624772,1.130593,0.23911,0.46249,0.13135
1702327332125000,-9.695696,0.632772,1.117593,0.23011,0.39349,0.12935
1702327332132812,-9.690696,0.627772,1.90593,0.23811,0.42949,0.17935
1702327332140625,-9.680696,0.603772,1.85593,0.15111,0.40749,0.22635
1702327332148437,-9.666696,0.592772,1.94593,0.16811,0.39149,0.16135
1702327332156250,-9.682696,0.583772,1.101593,0.22711,0.44349,0.14635
1702327332164062,-9.696696,0.563772,1.108593,0.18111,0.45849,0.16235
1702327332171875,-9.691696,0.576772,1.112593,0.23811,0.52849,0.16435
1702327332179687,-9.689696,0.578772,1.130593,0.22711,0.50949,0.13035
1702327332187500,-9.687696,0.574772,1.121593,0.14511,0.46249,0.14835
1702327332195312,-9.684696,0.576772,1.105593,0.19111,0.47849,0.19635
1702327332203125,-9.687696,0.587772,1.112593,0.14611,0.51049,0.14835
1702327332210937,-9.698696,0.607772,1.92593,0.16711,0.45849,0.11435
1702327332218750,-9.709696,0.603772,1.76593,0.23111,0.50649,0.12935
1702327332226562,-9.706696,0.604772,1.94593,0.17511,0.44749,0.11635
1702327332234375,-9.691696,0.603772,1.126593,0.16111,0.46249,0.13235
1702327332242187,-9.673696,0.592772,1.117593,0.25611,0.44449,0.17935
1702327332250000,-9.675696,0.585772,1.92593,0.16111,0.41349,0.13235
1702327332257812,-9.675696,0.594772,1.78593,0.13311,0.42649,0.14735
1702327332265625,-9.675696,0.572772,1.85593,0.14611,0.41349,0.11635
1702327332273437,-9.671696,0.587772,1.92593,0.16011,0.52849,0.11735
1702327332281250,-9.653696,0.594772,1.105593,0.9611,0.46249,0.21435
1702327332289062,-9.655696,0.585772,1.92593,0.10911,0.41549,0.16635
1702327332296875,-9.680696,0.592772,1.74593,0.6911,0.42849,0.11635
1702327332304687,-9.686696,0.594772,1.72593,0.19311,0.41149,0.19535
1702327332312500,-9.677696,0.594772,1.101593,0.22211,0.42949,0.19635
1702327332320312,-9.671696,0.610772,1.101593,0.14811,0.41049,0.16335
1702327332328125,-9.666696,0.605772,1.96593,0.25511,0.31649,0.8235
1702327332335937,-9.677696,0.607772,1.81593,0.27811,0.29549,0.11235
1702327332343750,-9.695696,0.614772,1.67593,0.23811,0.33249,0.13135
1702327332351562,-9.684696,0.607772,1.58593,0.22211,0.28349,0.16335
1702327332359375,-9.679696,0.605772,1.65593,0.25511,0.38049,0.14735
1702327332367187,-9.668696,0.608772,1.69593,0.27411,0.39449,0.17735
1702327332375000,-9.678696,0.583772,1.51593,0.24411,0.39249,0.19335
1702327332382812,-9.678696,0.574772,1.63593,0.25611,0.42649,0.25835
1702327332390625,-9.689696,0.587772,1.67593,0.25111,0.38149,0.26035
1702327332398437,-9.684696,0.601772,1.69593,0.27111,0.39549,0.22735
1702327332406250,-9.691696,0.594772,1.60593,0.20611,0.38049,0.24435
1702327332414062,-9.702696,0.595772,1.62593,0.21611,0.43349,0.23035
1702327332421875,-9.693696,0.605772,1.63593,0.20311,0.38149,0.27735
1702327332429687,-9.695696,0.607772,1.67593,0.16011,0.26549,0.24435
1702327332437500,-9.686696,0.614772,1.65593,0.14011,0.29049,0.24035
1702327332445312,-9.673696,0.605772,1.67593,0.16511,0.26349,0.17835
1702327332453125,-9.677696,0.607772,1.78593,0.8311,0.39549,0.22935
1702327332460937,-9.671696,0.605772,1.90593,0.17811,0.28049,0.21135
1702327332468750,-9.675696,0.616772,1.74593,0.14811,0.27949,0.22635
1702327332476562,-9.675696,0.621772,1.67593,0.18011,0.27949,0.21035
1702327332484375,-9.675696,0.625772,1.76593,0.17711,0.32949,0.22735
1702327332492187,-9.675696,0.616772,1.96593,0.19611,0.44149,0.21035
1702327332500000,-9.666696,0.618772,1.114593,0.11211,0.38049,0.22935
1702327332507812,-9.670696,0.607772,1.114593,0.16011,0.31449,0.21235
1702327332515625,-9.675696,0.592772,1.94593,0.19611,0.26349,0.19335
1702327332523437,-9.677696,0.601772,1.87593,0.19711,0.26149,0.22535
1702327332531250,-9.689696,0.605772,1.67593,0.19411,0.29749,0.17835
1702327332539062,-9.691696,0.614772,1.69593,0.17711,0.34749,0.14735
1702327332546875,-9.693696,0.603772,1.67593,0.16611,0.24549,0.22535
1702327332554687,-9.693696,0.607772,1.65593,0.9911,0.29649,0.21235
1702327332562500,-9.695696,0.609772,1.63593,0.14211,0.31649,0.22935
1702327332570312,-9.684696,0.623772,1.58593,0.18611,0.27549,0.19235
1702327332578125,-9.679696,0.634772,1.69593,0.16211,0.28049,0.21135
1702327332585937,-9.684696,0.632772,1.72593,0.9711,0.29849,0.21235
1702327332593750,-9.711696,0.618772,1.67593,0.2511,0.26149,0.22735
1702327332601562,-9.711696,0.607772,1.67593,0.5311,0.28049,0.19635
1702327332609375,-9.718696,0.605772,1.69593,0.5611,0.29449,0.19535
1702327332617187,-9.702696,0.607772,1.72593,0.3611,0.29849,0.13235
1702327332625000,-9.709696,0.607772,1.72593,0.5411,0.31349,0.9935
1702327332632812,-9.709696,0.616772,1.99593,0.6811,0.36449,0.11635
1702327332640625,-9.690696,0.634772,1.108593,0.211,0.44749,0.15135
1702327332648437,-9.679696,0.654772,1.105593,0.1911,0.38049,0.16535
1702327332656250,-9.670696,0.654772,1.87593,0.611,0.41149,0.13335
1702327332664062,-9.676696,0.651772,1.74593,0.8911,0.41849,0.18435
1702327332671875,-9.675696,0.645772,1.101593,0.23011,0.37649,0.12935
1702327332679687,-9.686696,0.643772,1.101593,0.23811,0.38049,0.21135
1702327332687500,-9.701696,0.636772,1.103593,0.26911,0.36549,0.13135
1702327332695312,-9.722696,0.613772,1.83593,0.26711,0.28549,0.14735
1702327332703125,-9.720696,0.620772,1.47593,0.20511,0.34949,0.18035
1702327332710937,-9.698696,0.607772,1.56593,0.14911,0.41049,0.13135
1702327332718750,-9.675696,0.610772,1.87593,0.19311,0.44449,0.16335
1702327332726562,-9.642696,0.588772,1.99593,0.23111,0.42449,0.16135
1702327332734375,-9.655696,0.601772,1.83593,0.17811,0.41149,0.17935
1702327332742187,-9.682696,0.607772,1.67593,0.19311,0.42849,0.16335
1702327332750000,-9.716696,0.605772,1.83593,0.27511,0.41049,0.11335
1702327332757812,-9.713696,0.607772,1.92593,0.16011,0.52849,0.13335
1702327332765625,-9.718696,0.604772,1.108593,0.19211,0.47949,0.10035
1702327332773437,-9.717696,0.622772,1.83593,0.9711,0.52749,0.13335
1702327332781250,-9.713696,0.647772,1.45593,0.12211,0.44049,0.11435
1702327332789062,-9.697696,0.649772,1.36593,0.22511,0.47749,0.11535
1702327332796875,-9.674696,0.651772,1.67593,0.23511,0.59649,0.8535
1702327332804687,-9.670696,0.647772,1.74593,0.21011,0.51049,0.11535
1702327332812500,-9.656696,0.632772,1.71593,0.18511,0.43349,0.19835
1702327332820312,-9.672696,0.632772,1.60593,0.25611,0.41349,0.8235
1702327332828125,-9.686696,0.636772,1.58593,0.23511,0.44849,0.14935
1702327332835937,-9.688696,0.618772,1.60593,0.17911,0.45949,0.19535
1702327332843750,-9.686696,0.603772,1.74593,0.15111,0.52249,0.21135
1702327332851562,-9.684696,0.623772,1.94593,0.11911,0.48949,0.21135
1702327332859375,-9.670696,0.634772,1.99593,0.6511,0.51149,0.19835
1702327332867187,-9.670696,0.639772,1.96593,0.19811,0.52449,0.11435
1702327332875000,-9.674696,0.643772,1.94593,0.25811,0.42849,0.6635
1702327332882812,-9.690696,0.642772,1.99593,0.25411,0.41549,0.6735
1702327332890625,-9.692696,0.654772,1.108593,0.27611,0.39449,0.8135
1702327332898437,-9.679696,0.647772,1.94593,0.26111,0.36249,0.4835
1702327332906250,-9.666696,0.643772,1.96593,0.27511,0.39449,0.12935
1702327332914062,-9.661696,0.621772,1.94593,0.25411,0.34949,0.9935
1702327332921875,-9.664696,0.619772,1.81593,0.24411,0.31249,0.14535
1702327332929687,-9.682696,0.612772,1.69593,0.26111,0.42649,0.11335
1702327332937500,-9.684696,0.609772,1.74593,0.22511,0.46149,0.13135
1702327332945312,-9.684696,0.611772,1.76593,0.26511,0.40149,0.13335
1702327332953125,-9.697696,0.618772,1.76593,0.21311,0.39449,0.6535
1702327332960937,-9.707696,0.607772,1.67593,0.28111,0.32549,0.11035
1702327332968750,-9.704696,0.614772,1.78593,0.25711,0.39549,0.11435
1702327332976562,-9.709696,0.618772,1.78593,0.27411,0.42749,0.12935
1702327332984375,-9.695696,0.609772,1.83593,0.22811,0.41049,0.9835
1702327332992187,-9.693696,0.609772,1.96593,0.19311,0.43049,0.8335
1702327333000000,-9.693696,0.605772,1.96593,0.25311,0.48049,0.10035
1702327333007812,-9.711696,0.609772,1.96593,0.26611,0.38549,0.8435
1702327333015625,-9.702696,0.607772,1.87593,0.29011,0.44549,0.3335
1702327333023437,-9.686696,0.605772,1.94593,0.25711,0.36449,0.6635
1702327333031250,-9.659696,0.608772,1.114593,0.27911,0.37749,0.0
1702327333039062,-9.653696,0.583772,1.119593,0.26311,0.44249,0.3235
1702327333046875,-9.647696,0.573772,1.112593,0.26611,0.32549,0.7835
1702327333054687,-9.649696,0.570772,1.83593,0.27211,0.29949,0.8135
1702327333062500,-9.676696,0.574772,1.87593,0.24911,0.27749,0.9535
1702327333070312,-9.676696,0.572772,1.101593,0.23111,0.36049,0.6435
1702327333078125,-9.687696,0.579772,1.90593,0.25111,0.34349,0.3265
1702327333085937,-9.693696,0.594772,1.92593,0.22611,0.31749,0.4565
1702327333093750,-9.707696,0.587772,1.96593,0.22811,0.44549,0.1365
1702327333101562,-9.704696,0.600772,1.96593,0.26611,0.37049,0.435
1702327333109375,-9.693696,0.607772,1.90593,0.24611,0.28149,0.4765
1702327333117187,-9.693696,0.605772,1.76593,0.18911,0.38549,0.2035
1702327333125000,-9.704696,0.609772,1.99593,0.24111,0.43149,0.2865
1702327333132812,-9.684696,0.603772,1.137593,0.27111,0.39949,0.235
1702327333140625,-9.666696,0.587772,1.135593,0.25811,0.37949,0.9835
1702327333148437,-9.658696,0.575772,1.110593,0.28111,0.29549,0.3365
1702327333156250,-9.669696,0.583772,1.85593,0.29311,0.23249,0.3265
1702327333164062,-9.669696,0.576772,1.99593,0.29011,0.26649,0.0
1702327333171875,-9.667696,0.550772,1.94593,0.28611,0.28549,0.1365
1702327333179687,-9.667696,0.541772,1.101593,0.28911,0.26849,0.4665
1702327333187500,-9.690696,0.536772,1.119593,0.27711,0.29849,0.3165
1702327333195312,-9.714696,0.540772,1.112593,0.32411,0.29849,0.4865
1702327333203125,-9.717696,0.527772,1.87593,0.24611,0.23249,0.3165
1702327333210937,-9.705696,0.531772,1.94593,0.27411,0.28349,0.135
1702327333218750,-9.694696,0.536772,1.101593,0.28211,0.32149,0.435
1702327333226562,-9.709696,0.549772,1.110593,0.25511,0.30249,0.235
1702327333234375,-9.712696,0.551772,1.121593,0.27311,0.23549,0.3065
1702327333242187,-9.712696,0.556772,1.117593,0.26411,0.24749,0.4865
1702327333250000,-9.710696,0.549772,1.110593,0.28111,0.27949,0.3365
1702327333257812,-9.694696,0.545772,1.137593,0.26311,0.36249,0.4765
1702327333265625,-9.690696,0.538772,1.141593,0.27611,0.36349,0.3165
1702327333273437,-9.683696,0.534772,1.139593,0.25011,0.39249,0.3265
1702327333281250,-9.680696,0.536772,1.137593,0.25611,0.44849,0.4565
1702327333289062,-9.660696,0.534772,1.121593,0.27311,0.46449,0.9365
1702327333296875,-9.656696,0.537772,1.130593,0.27511,0.41449,0.6265
1702327333304687,-9.669696,0.545772,1.148593,0.26211,0.42949,0.11165
1702327333312500,-9.678696,0.545772,1.155593,0.27811,0.41349,0.12765
1702327333320312,-9.685696,0.549772,1.128593,0.23811,0.43349,0.435
1702327333328125,-9.687696,0.538772,1.110593,0.25811,0.34849,0.135
1702327333335937,-9.696696,0.545772,1.92593,0.27711,0.33149,0.4765
1702327333343750,-9.692696,0.540772,1.108593,0.25511,0.38449,0.2865
1702327333351562,-9.694696,0.543772,1.114593,0.27211,0.33349,0.1365
1702327333359375,-9.707696,0.544772,1.96593,0.23511,0.38549,0.6835
1702327333367187,-9.707696,0.545772,1.108593,0.25811,0.42849,0.6635
1702327333375000,-9.714696,0.551772,1.110593,0.27211,0.41549,0.2965
1702327333382812,-9.705696,0.553772,1.119593,0.25511,0.41549,0.1935
1702327333390625,-9.685696,0.558772,1.105593,0.25511,0.44849,0.335
1702327333398437,-9.667696,0.543772,1.92593,0.27111,0.44849,0.335
1702327333406250,-9.665696,0.518772,1.96593,0.27311,0.43949,0.10335
1702327333414062,-9.683696,0.498772,1.107593,0.24311,0.45549,0.5535
1702327333421875,-9.708696,0.504772,1.92593,0.26011,0.43849,0.7035
1702327333429687,-9.701696,0.505772,1.81593,0.25811,0.41249,0.8235
1702327333437500,-9.699696,0.498772,1.72593,0.27511,0.42749,0.9735
1702327333445312,-9.688696,0.514772,1.78593,0.26011,0.41149,0.8135
1702327333453125,-9.661696,0.510772,1.94593,0.25211,0.43249,0.10035
1702327333460937,-9.663696,0.514772,1.96593,0.25611,0.44649,0.8335
1702327333468750,-9.674696,0.518772,1.96593,0.26811,0.44949,0.6835
1702327333476562,-9.681696,0.520772,1.89593,0.31311,0.35249,0.9935
1702327333484375,-9.683696,0.518772,1.98593,0.26111,0.32349,0.8635
1702327333492187,-9.688696,0.514772,1.92593,0.25711,0.29949,0.8235
1702327333500000,-9.688696,0.518772,1.101593,0.25611,0.28249,0.11435
1702327333507812,-9.690696,0.527772,1.101593,0.27811,0.26249,0.12735
1702327333515625,-9.687696,0.527772,1.92593,0.25511,0.20249,0.9835
1702327333523437,-9.696696,0.518772,1.80593,0.24911,0.25549,0.10035
1702327333531250,-9.694696,0.518772,1.85593,0.26911,0.26949,0.8335
1702327333539062,-9.685696,0.498772,1.87593,0.25311,0.17049,0.11435
1702327333546875,-9.703696,0.516772,1.67593,0.27111,0.23549,0.6535
1702327333554687,-9.717696,0.516772,1.49593,0.24211,0.29749,0.12935
1702327333562500,-9.728696,0.522772,1.36593,0.26011,0.41149,0.8135
1702327333570312,-9.735696,0.527772,1.49593,0.27311,0.38149,0.1835
1702327333578125,-9.730696,0.515772,1.65593,0.20311,0.43449,0.6935
1702327333585937,-9.725696,0.535772,1.71593,0.22911,0.42149,0.5435
1702327333593750,-9.703696,0.533772,1.92593,0.12611,0.43449,0.2235
1702327333601562,-9.673696,0.545772,1.107593,0.17411,0.41849,0.2665
1702327333609375,-9.669696,0.532772,1.103593,0.17811,0.43149,0.2865
1702327333617187,-9.660696,0.528772,1.110593,0.19311,0.41549,0.1265
1702327333625000,-9.658696,0.512772,1.123593,0.25711,0.43049,0.1835
1702327333632812,-9.661696,0.505772,1.112593,0.20411,0.40149,0.6935
1702327333640625,-9.665696,0.509772,1.87593,0.12411,0.41949,0.635
1702327333648437,-9.679696,0.505772,1.56593,0.12311,0.43549,0.5435
1702327333656250,-9.697696,0.498772,1.49593,0.3411,0.49849,0.635
1702327333664062,-9.708696,0.518772,1.67593,0.6611,0.56449,0.7365
1702327333671875,-9.716696,0.538772,1.107593,0.12611,0.59849,0.2565
1702327333679687,-9.707696,0.542772,1.128593,0.14811,0.57649,0.5235
1702327333687500,-9.691696,0.542772,1.121593,0.14011,0.48349,0.8635
1702327333695312,-9.671696,0.534772,1.110593,0.1389,0.44849,0.5535
1702327333703125,-9.669696,0.540772,1.107593,0.12211,0.42049,0.2335
1702327333710937,-9.669696,0.532772,1.96593,0.20211,0.40249,0.5335
1702327333718750,-9.683696,0.518772,1.71593,0.17011,0.42049,0.635
1702327333726562,-9.715696,0.513772,1.15593,0.14511,0.43149,0.3635
1702327333734375,-9.737696,0.500772,1.38593,0.23911,0.44949,0.4465
1702327333742187,-9.728696,0.498772,1.90593,0.14311,0.43249,0.6935
1702327333750000,-9.708696,0.500772,1.123593,0.19011,0.41849,0.2765
1702327333757812,-9.674696,0.498772,1.121593,0.19311,0.46449,0.1265
1702327333765625,-9.654696,0.516772,1.98593,0.22111,0.43449,0.2765
1702327333773437,-9.652696,0.506772,1.72593,0.25611,0.53049,0.2865
1702327333781250,-9.681696,0.500772,1.67593,0.25111,0.46849,0.4265
1702327333789062,-9.722696,0.489772,1.69593,0.27111,0.44849,0.335
1702327333796875,-9.728696,0.495772,1.87593,0.20711,0.44949,0.2765
1702327333804687,-9.719696,0.499772,1.80593,0.22511,0.54049,0.3865
1702327333812500,-9.699696,0.514772,1.58593,0.27111,0.53149,0.9265
1702327333820312,-9.685696,0.513772,1.67593,0.24811,0.48849,0.13865
1702327333828125,-9.685696,0.518772,1.103593,0.25711,0.43149,0.4565
1702327333835937,-9.661696,0.510772,1.128593,0.27111,0.44949,0.7665
1702327333843750,-9.661696,0.499772,1.108593,0.28811,0.39949,0.2965
1702327333851562,-9.672696,0.485772,1.65593,0.30411,0.43249,0.7765
1702327333859375,-9.709696,0.469772,1.18593,0.35511,0.42949,0.4765
1702327333867187,-9.729696,0.469772,1.27593,0.35411,0.41349,0.3165
1702327333875000,-9.729696,0.467772,1.67593,0.27111,0.49749,0.2865
1702327333882812,-9.708696,0.471772,1.114593,0.25311,0.45049,0.4365
1702327333890625,-9.693696,0.492772,1.150593,0.24411,0.44549,0.1465
1702327333898437,-9.661696,0.503772,1.157593,0.25711,0.39749,0.5035
1702327333906250,-9.645696,0.497772,1.123593,0.27311,0.36649,0.4565
1702327333914062,-9.647696,0.483772,1.85593,0.25011,0.40349,0.1165
1702327333921875,-9.675696,0.456772,1.85593,0.34711,0.40049,0.5035
1702327333929687,-9.698696,0.438772,1.112593,0.35211,0.36649,0.9565
1702327333937500,-9.714696,0.427772,1.128593,0.23711,0.35249,0.2865
1702327333945312,-9.705696,0.422772,1.114593,0.26911,0.33649,0.4465
1702327333953125,-9.689696,0.414772,1.99593,0.25411,0.27049,0.4565
1702327333960937,-9.683696,0.412772,1.105593,0.29211,0.31449,0.0
1702327333968750,-9.700696,0.429772,1.112593,0.19511,0.39749,0.235
1702327333976562,-9.696696,0.432772,1.106593,0.27911,0.37749,0.3235
1702327333984375,-9.698696,0.436772,1.105593,0.18311,0.28149,0.3065
1702327333992187,-9.695696,0.443772,1.101593,0.19111,0.40049,0.1165
1702327334000000,-9.695696,0.454772,1.87593,0.14611,0.43149,0.2765
1702327334007812,-9.686696,0.463772,1.81593,0.16611,0.41249,0.4565
1702327334015625,-9.675696,0.447772,1.63593,0.13111,0.39849,0.4465
1702327334023437,-9.684696,0.439772,1.70593,0.26411,0.42649,0.3165
1702327334031250,-9.702696,0.429772,1.99593,0.21411,0.41249,0.6265
1702327334039062,-9.704696,0.438772,1.112593,0.19411,0.43149,0.4465
1702327334046875,-9.693696,0.427772,1.137593,0.18011,0.41449,0.4565
1702327334054687,-9.675696,0.447772,1.135593,0.22311,0.46549,0.2765
1702327334062500,-9.668696,0.454772,1.126593,0.28011,0.47749,0.15965
1702327334070312,-9.678696,0.441772,1.92593,0.25911,0.33249,0.6265
1702327334078125,-9.682696,0.436772,1.110593,0.27311,0.30149,0.6265
1702327334085937,-9.678696,0.428772,1.128593,0.25911,0.26649,0.3165
1702327334093750,-9.680696,0.425772,1.103593,0.26311,0.26549,0.11265
1702327334101562,-9.703696,0.416772,1.87593,0.27611,0.28349,0.6365
1702327334109375,-9.730696,0.402772,1.78593,0.25711,0.30249,0.14265
1702327334117187,-9.736696,0.418772,1.81593,0.28211,0.32849,0.9765
1702327334125000,-9.725696,0.425772,1.67593,0.26011,0.38149,0.12665
1702327334132812,-9.698696,0.399772,1.69593,0.29311,0.33149,0.7965
1702327334140625,-9.687696,0.388772,1.67593,0.18811,0.32849,0.9665
1702327334148437,-9.710696,0.374772,1.56593,0.19411,0.39949,0.6065
1702327334156250,-9.692696,0.376772,1.65593,0.29811,0.40449,0.12365
1702327334164062,-9.688696,0.368772,1.69593,0.13711,0.39649,0.12665
1702327334171875,-9.685696,0.365772,1.74593,0.20811,0.43349,0.4365
1702327334179687,-9.678696,0.381772,1.117593,0.18811,0.41949,0.2665
1702327334187500,-9.699696,0.397772,1.139593,0.15711,0.42549,0.6365
1702327334195312,-9.696696,0.390772,1.142593,0.20211,0.41049,0.7965
1702327334203125,-9.683696,0.403772,1.121593,0.13311,0.43049,0.4465
1702327334210937,-9.689696,0.394772,1.103593,0.22611,0.41549,0.7765
1702327334218750,-9.714696,0.394772,1.74593,0.16611,0.44749,0.12565
1702327334226562,-9.750696,0.389772,1.67593,0.24311,0.43049,0.7765
1702327334234375,-9.741696,0.375772,1.67593,0.27011,0.40049,0.2865
1702327334242187,-9.737696,0.358772,1.60593,0.25611,0.43149,0.2965
1702327334250000,-9.728696,0.374772,1.54593,0.27311,0.44649,0.235
1702327334257812,-9.717696,0.389772,1.65593,0.26111,0.41149,0.4935
1702327334265625,-9.707696,0.394772,1.74593,0.25611,0.43149,0.335
1702327334273437,-9.691696,0.389772,1.74593,0.24711,0.42049,0.5435
1702327334281250,-9.699696,0.374772,1.78593,0.25111,0.48349,0.3735
1702327334289062,-9.710696,0.356772,1.119593,0.26411,0.45149,0.6935
1702327334296875,-9.721696,0.369772,1.121593,0.25611,0.47949,0.5135
1702327334304687,-9.701696,0.360772,1.92593,0.26611,0.45049,0.5235
1702327334312500,-9.672696,0.368772,1.108593,0.26411,0.44249,0.3165
1702327334320312,-9.670696,0.359772,1.123593,0.30311,0.53049,0.4565
1702327334328125,-9.670696,0.343772,1.130593,0.42911,0.43249,0.3165
1702327334335937,-9.679696,0.348772,1.112593,0.29311,0.41149,0.1565
1702327334343750,-9.690696,0.339772,1.85593,0.25611,0.39849,0.235
1702327334351562,-9.699696,0.343772,1.74593,0.28311,0.43249,0.11635
1702327334359375,-9.685696,0.356772,1.87593,0.27011,0.41549,0.6735
1702327334367187,-9.677696,0.348772,1.79593,0.26111,0.42749,0.3335
1702327334375000,-9.663696,0.344772,1.67593,0.27411,0.33049,0.9735
1702327334382812,-9.677696,0.341772,1.69593,0.32311,0.29849,0.1635
1702327334390625,-9.693696,0.339772,1.63593,0.30411,0.25149,0.1465
1702327334398437,-9.710696,0.350772,1.51593,0.29011,0.29749,0.6435
1702327334406250,-9.722696,0.354772,1.60593,0.27311,0.23349,0.9735
1702327334414062,-9.731696,0.349772,1.58593,0.25211,0.28549,0.11535
1702327334421875,-9.724696,0.347772,1.56593,0.26611,0.31949,0.11635
1702327334429687,-9.708696,0.358772,1.47593,0.31611,0.30149,0.5035
1702327334437500,-9.697696,0.359772,1.74593,0.27711,0.26349,0.4835
1702327334445312,-9.692696,0.363772,1.79593,0.26111,0.26349,0.6435
1702327334453125,-9.690696,0.361772,1.67593,0.31111,0.19649,0.6235
1702327334460937,-9.697696,0.356772,1.67593,0.33411,0.20249,0.9735
1702327334468750,-9.693696,0.345772,1.51593,0.29011,0.28149,0.8035
1702327334476562,-9.683696,0.359772,1.63593,0.25611,0.26649,0.13035
1702327334484375,-9.679696,0.357772,1.51593,0.30411,0.28249,0.9735
1702327334492187,-9.695696,0.361772,1.52593,0.35411,0.26349,0.11135
1702327334500000,-9.699696,0.345772,1.70593,0.30711,0.28049,0.9635
1702327334507812,-9.704696,0.352772,1.47593,0.33311,0.23449,0.11335
1702327334515625,-9.717696,0.354772,1.38593,0.36711,0.25049,0.9635
1702327334523437,-9.737696,0.358772,1.42593,0.30611,0.19949,0.8035
1702327334531250,-9.719696,0.352772,1.51593,0.41611,0.21649,0.9535
1702327334539062,-9.704696,0.352772,1.45593,0.36611,0.31549,0.8035
1702327334546875,-9.715696,0.359772,1.38593,0.37411,0.19749,0.4535
1702327334554687,-9.715696,0.356772,1.20593,0.33611,0.21749,0.6435
1702327334562500,-9.715696,0.352772,1.20593,0.25511,0.36549,0.6735
1702327334570312,-9.717696,0.352772,1.38593,0.30311,0.29949,0.9735
1702327334578125,-9.730696,0.360772,1.42593,0.25111,0.30349,0.6835
1702327334585937,-9.732696,0.358772,1.49593,0.26311,0.40449,0.3735
1702327334593750,-9.721696,0.342772,1.47593,0.25011,0.45249,0.535
1702327334601562,-9.704696,0.336772,1.65593,0.27011,0.44949,0.2865
1702327334609375,-9.682696,0.328772,1.69593,0.25811,0.36449,0.135
1702327334617187,-9.695696,0.327772,1.51593,0.26511,0.35549,0.5965
1702327334625000,-9.715696,0.327772,1.42593,0.34611,0.32149,0.7765
1702327334632812,-9.724696,0.320772,1.51593,0.36711,0.25149,0.3165
1702327334640625,-9.738696,0.327772,1.47593,0.32111,0.38149,0.135
1702327334648437,-9.727696,0.318772,1.63593,0.27211,0.36449,0.6635
1702327334656250,-9.704696,0.305772,1.67593,0.39711,0.39749,0.8135
1702327334664062,-9.693696,0.310772,1.65593,0.29211,0.37849,0.4835
1702327334671875,-9.691696,0.287772,1.58593,0.25511,0.28549,0.235
1702327334679687,-9.687696,0.288772,1.42593,0.27411,0.28249,0.1735
1702327334687500,-9.716696,0.285772,1.24593,0.29111,0.25049,0.3165
1702327334695312,-9.736696,0.296772,1.20593,0.25311,0.26949,0.6735
1702327334703125,-9.733696,0.322772,1.13593,0.26811,0.30349,0.1935
1702327334710937,-9.715696,0.320772,1.31593,0.25711,0.33349,0.1365
1702327334718750,-9.713696,0.327772,1.47593,0.25711,0.38249,0.4565
1702327334726562,-9.706696,0.323772,1.67593,0.27211,0.33349,0.235
1702327334734375,-9.693696,0.321772,1.65593,0.23911,0.23649,0.1835
1702327334742187,-9.668696,0.323772,1.49593,0.24811,0.27349,0.5335
1702327334750000,-9.673696,0.313772,1.36593,0.28011,0.32849,0.0
1702327334757812,-9.684696,0.292772,1.31593,0.28611,0.20349,0.3435
1702327334765625,-9.689696,0.288772,1.38593,0.25711,0.28449,0.235
1702327334773437,-9.694696,0.272772,1.15593,0.27211,0.28449,0.1735
1702327334781250,-9.701696,0.252772,0.995593,0.25411,0.21949,0.5035
1702327334789062,-9.699696,0.250772,1.9593,0.30811,0.24749,0.6335
1702327334796875,-9.716696,0.272772,1.22593,0.30811,0.23249,0.1535
1702327334804687,-9.752696,0.276772,1.2593,0.27211,0.25749,0.2835
1702327334812500,-9.752696,0.285772,1.24593,0.25811,0.34649,0.9735
1702327334820312,-9.754696,0.278772,1.38593,0.24211,0.44549,0.8235
1702327334828125,-9.740696,0.284772,1.20593,0.20511,0.44949,0.10135
1702327334835937,-9.738696,0.287772,1.6593,0.22311,0.41349,0.17935
1702327334843750,-9.727696,0.289772,0.997593,0.27511,0.41049,0.11335
1702327334851562,-9.716696,0.281772,1.27593,0.25611,0.43049,0.8335
1702327334859375,-9.696696,0.279772,1.40593,0.25311,0.41449,0.13135
1702327334867187,-9.678696,0.277772,1.42593,0.27311,0.39549,0.9835
1702327334875000,-9.682696,0.266772,1.15593,0.22111,0.43149,0.18035
1702327334882812,-9.682696,0.275772,1.13593,0.19511,0.41049,0.19535
1702327334890625,-9.700696,0.290772,1.22593,0.24211,0.41049,0.19435
1702327334898437,-9.702696,0.306772,1.20593,0.23111,0.42449,0.16135
1702327334906250,-9.697696,0.314772,1.20593,0.20811,0.39749,0.14735
1702327334914062,-9.697696,0.321772,1.38593,0.21211,0.41049,0.14635
1702327334921875,-9.713696,0.323772,1.36593,0.16511,0.40949,0.19435
1702327334929687,-9.720696,0.321772,1.43593,0.23111,0.39149,0.14435
1702327334937500,-9.731696,0.320772,1.40593,0.24711,0.43349,0.21435
1702327334945312,-9.713696,0.323772,1.36593,0.21511,0.40849,0.14535
1702327334953125,-9.716696,0.312772,1.38593,0.26011,0.34549,0.8135
1702327334960937,-9.711696,0.301772,1.31593,0.26311,0.27749,0.14335
1702327334968750,-9.700696,0.288772,1.29593,0.19111,0.31449,0.21135
1702327334976562,-9.705696,0.287772,1.18593,0.14411,0.31649,0.14835
1702327334984375,-9.716696,0.285772,1.36593,0.22711,0.24649,0.20935
1702327334992187,-9.707696,0.298772,1.36593,0.25211,0.30149,0.13135
1702327335000000,-9.709696,0.305772,1.35593,0.20111,0.32049,0.11735
1702327335007812,-9.706696,0.305772,1.31593,0.23511,0.31949,0.11635
1702327335015625,-9.698696,0.314772,1.34593,0.27511,0.31249,0.16135
1702327335023437,-9.698696,0.299772,1.31593,0.18011,0.36149,0.16235
1702327335031250,-9.702696,0.290772,1.31593,0.25711,0.33149,0.8235
1702327335039062,-9.709696,0.283772,1.34593,0.17911,0.34449,0.21035
1702327335046875,-9.711696,0.298772,1.36593,0.21611,0.40049,0.23035
1702327335054687,-9.705696,0.290772,1.24593,0.25611,0.29749,0.21035
1702327335062500,-9.707696,0.292772,1.31593,0.28011,0.25949,0.20735
1702327335070312,-9.709696,0.305772,1.38593,0.25511,0.42949,0.11535
1702327335078125,-9.709696,0.305772,1.60593,0.26611,0.33549,0.11635
1702327335085937,-9.709696,0.316772,1.67593,0.24111,0.28049,0.17835
1702327335093750,-9.707696,0.287772,1.54593,0.24011,0.29749,0.21035
1702327335101562,-9.713696,0.285772,1.42593,0.18511,0.33549,0.23035
1702327335109375,-9.693696,0.287772,1.29593,0.25011,0.33449,0.21235
1702327335117187,-9.684696,0.286772,1.36593,0.26911,0.42949,0.22735
1702327335125000,-9.693696,0.267772,1.36593,0.24811,0.40049,0.21335
1702327335132812,-9.696696,0.270772,1.34593,0.27511,0.32749,0.20935
1702327335140625,-9.710696,0.268772,1.25593,0.24711,0.37349,0.22435
1702327335148437,-9.694696,0.290772,0.998593,0.19911,0.34249,0.19335
1702327335156250,-9.707696,0.294772,0.973593,0.5811,0.30949,0.22635
1702327335164062,-9.713696,0.305772,0.979593,0.11311,0.29849,0.21235
1702327335171875,-9.720696,0.298772,0.999593,0.16911,0.36949,0.16635
1702327335179687,-9.738696,0.289772,1.2593,0.12511,0.44849,0.13435
1702327335187500,-9.738696,0.305772,1.11593,0.19111,0.30049,0.14735
1702327335195312,-9.725696,0.296772,1.15593,0.14411,0.38149,0.11635
1702327335203125,-9.713696,0.294772,1.15593,0.24811,0.36949,0.13335
1702327335210937,-9.727696,0.296772,0.995593,0.24211,0.29549,0.20935
1702327335218750,-9.725696,0.285772,1.593,0.19111,0.33149,0.22835
1702327335226562,-9.716696,0.287772,1.6593,0.14511,0.39549,0.22835
1702327335234375,-9.702696,0.283772,1.18593,0.9311,0.33349,0.21435
1702327335242187,-9.698696,0.298772,1.31593,0.7711,0.41549,0.23135
1702327335250000,-9.698696,0.301772,1.29593,0.6811,0.37849,0.18035
1702327335257812,-9.698696,0.303772,1.31593,0.16511,0.35949,0.21035
1702327335265625,-9.702696,0.310772,1.9593,0.8611,0.24649,0.19535
1702327335273437,-9.711696,0.314772,1.593,0.13211,0.31249,0.21135
1702327335281250,-9.700696,0.319772,1.27593,0.24311,0.27949,0.19335
1702327335289062,-9.697696,0.309772,1.31593,0.23211,0.33549,0.21335
1702327335296875,-9.686696,0.306772,1.24593,0.17711,0.32949,0.22735
1702327335304687,-9.680696,0.290772,1.16593,0.13411,0.27749,0.22635
1702327335312500,-9.689696,0.288772,1.13593,0.19311,0.29749,0.21135
1702327335320312,-9.711696,0.294772,0.995593,0.26611,0.23549,0.24335
1702327335328125,-9.718696,0.303772,0.979593,0.12411,0.26849,0.24535
1702327335335937,-9.724696,0.327772,0.975593,0.16511,0.31249,0.17835
1702327335343750,-9.731696,0.320772,0.991593,0.11611,0.41049,0.22835
1702327335351562,-9.724696,0.311772,1.11593,0.10711,0.43349,0.19935
1702327335359375,-9.720696,0.305772,1.22593,0.18711,0.39949,0.22935
1702327335367187,-9.715696,0.318772,1.31593,0.9511,0.38149,0.23035
1702327335375000,-9.718696,0.327772,1.22593,0.13011,0.31349,0.22735
1702327335382812,-9.715696,0.323772,1.2593,0.10411,0.43249,0.31235
1702327335390625,-9.722696,0.323772,0.995593,0.2511,0.40549,0.34035
1702327335398437,-9.726696,0.345772,0.988593,0.7511,0.43149,0.29535
1702327335406250,-9.706696,0.358772,1.13593,0.12111,0.41549,0.35935
1702327335414062,-9.706696,0.347772,1.15593,0.9711,0.36249,0.30935
1702327335421875,-9.699696,0.343772,0.991593,0.189,0.44649,0.32835
1702327335429687,-9.695696,0.341772,1.4593,0.7211,0.42249,0.33935
1702327335437500,-9.679696,0.339772,1.2593,0.9811,0.42649,0.32535
1702327335445312,-9.679696,0.346772,0.993593,0.3111,0.41249,0.35935
1702327335453125,-9.692696,0.359772,1.4593,0.3311,0.39449,0.34235
1702327335460937,-9.701696,0.367772,1.15593,0.211,0.41049,0.34235
1702327335468750,-9.685696,0.363772,1.15593,0.1111,0.35049,0.32835
1702327335476562,-9.681696,0.358772,1.6593,0.789,0.35249,0.36135
1702327335484375,-9.699696,0.341772,1.6593,0.1211,0.34949,0.34435
1702327335492187,-9.697696,0.354772,1.11593,0.3411,0.31249,0.35735
1702327335500000,-9.701696,0.359772,1.4593,0.511,0.29549,0.34135
1702327335507812,-9.715696,0.365772,0.989593,0.2411,0.30849,0.35635
1702327335515625,-9.708696,0.374772,0.968593,0.511,0.29549,0.34135
1702327335523437,-9.696696,0.390772,0.997593,0.311,0.23049,0.35735
1702327335531250,-9.712696,0.394772,0.991593,0.2511,0.21049,0.32335
1702327335539062,-9.719696,0.394772,0.993593,0.811,0.24449,0.27535
1702327335546875,-9.719696,0.392772,0.979593,0.2011,0.21449,0.30935
1702327335554687,-9.732696,0.393772,0.981593,0.7511,0.26949,0.27935
1702327335562500,-9.732696,0.391772,0.979593,0.1611,0.25049,0.27835
1702327335570312,-9.730696,0.373772,0.973593,0.1711,0.25049,0.24635
1702327335578125,-9.726696,0.376772,0.975593,0.889,0.24649,0.27635
1702327335585937,-9.712696,0.372772,0.986593,0.2689,0.28049,0.27735
1702327335593750,-9.717696,0.383772,1.2593,0.2689,0.31149,0.34135
1702327335601562,-9.714696,0.392772,1.22593,0.411,0.34549,0.27835
1702327335609375,-9.717696,0.405772,1.9593,0.3011,0.30649,0.24135
1702327335617187,-9.703696,0.407772,0.991593,0.511,0.37849,0.21335
1702327335625000,-9.694696,0.419772,0.986593,0.2811,0.30749,0.25835
1702327335632812,-9.698696,0.429772,1.6593,0.1589,0.39749,0.24735
1702327335640625,-9.689696,0.427772,1.29593,0.1189,0.37849,0.24635
1702327335648437,-9.678696,0.425772,1.22593,0.6411,0.31549,0.23035
1702327335656250,-9.678696,0.421772,1.11593,0.3611,0.36249,0.22935
1702327335664062,-9.685696,0.405772,0.973593,0.11611,0.23049,0.25935
1702327335671875,-9.685696,0.394772,0.959593,0.6811,0.31149,0.29235
1702327335679687,-9.730696,0.394772,0.957593,0.10011,0.37549,0.34035
1702327335687500,-9.768696,0.398772,0.961593,0.17711,0.31149,0.32335
1702327335695312,-9.763696,0.413772,0.921593,0.7811,0.39649,0.35835
1702327335703125,-9.736696,0.431772,0.905593,0.14211,0.42949,0.30935
1702327335710937,-9.709696,0.427772,0.921593,0.16011,0.41149,0.27635
1702327335718750,-9.698696,0.429772,0.979593,0.14011,0.48149,0.18235
1702327335726562,-9.694696,0.421772,0.975593,0.13411,0.42549,0.21135
1702327335734375,-9.707696,0.409772,0.952593,0.17411,0.31649,0.19635
1702327335742187,-9.718696,0.434772,0.959593,0.10111,0.32649,0.30735
1702327335750000,-9.700696,0.427772,0.995593,0.16011,0.40949,0.35635
1702327335757812,-9.696696,0.430772,0.988593,0.12711,0.41149,0.34135
1702327335765625,-9.707696,0.427772,0.977593,0.19211,0.42649,0.30835
1702327335773437,-9.707696,0.430772,0.975593,0.22611,0.40849,0.32335
1702327335781250,-9.716696,0.422772,0.981593,0.24911,0.43249,0.24535
1702327335789062,-9.712696,0.409772,0.993593,0.23511,0.41449,0.24435
1702327335796875,-9.689696,0.412772,0.973593,0.23811,0.36449,0.22735
1702327335804687,-9.687696,0.412772,0.932593,0.25311,0.21849,0.21135
1702327335812500,-9.710696,0.403772,0.921593,0.27111,0.28049,0.24235
1702327335820312,-9.719696,0.396772,0.936593,0.26711,0.36549,0.22835
1702327335828125,-9.727696,0.409772,0.939593,0.22111,0.34749,0.26035
1702327335835937,-9.727696,0.409772,0.919593,0.11111,0.42949,0.26135
1702327335843750,-9.734696,0.414772,0.932593,0.24111,0.39449,0.25835
1702327335851562,-9.734696,0.422772,0.943593,0.11411,0.52449,0.27735
1702327335859375,-9.743696,0.427772,0.932593,0.15711,0.49449,0.29435
1702327335867187,-9.747696,0.431772,0.919593,0.14311,0.50949,0.29335
1702327335875000,-9.734696,0.427772,0.923593,0.19211,0.47749,0.22835
1702327335882812,-9.727696,0.414772,0.930593,0.23811,0.38049,0.21135
1702327335890625,-9.705696,0.412772,0.932593,0.19011,0.38149,0.18035
1702327335898437,-9.696696,0.416772,0.923593,0.23811,0.38049,0.21135
1702327335906250,-9.712696,0.427772,0.905593,0.11811,0.42549,0.19535
1702327335914062,-9.709696,0.441772,0.923593,0.611,0.46049,0.13335
1702327335921875,-9.702696,0.447772,0.943593,0.14311,0.56249,0.10235
1702327335929687,-9.709696,0.445772,0.959593,0.3211,0.57849,0.15135
1702327335937500,-9.726696,0.464772,0.963593,0.11611,0.53749,0.8935
1702327335945312,-9.697696,0.465772,0.966593,0.11511,0.49349,0.13235
1702327335953125,-9.688696,0.463772,0.966593,0.27111,0.49549,0.8335
1702327335960937,-9.695696,0.465772,0.968593,0.22211,0.46449,0.8435
1702327335968750,-9.704696,0.443772,0.966593,0.25211,0.44949,0.10035
1702327335976562,-9.705696,0.427772,0.975593,0.27311,0.39549,0.11435
1702327335984375,-9.689696,0.417772,0.970593,0.25811,0.41049,0.19435
1702327335992187,-9.689696,0.403772,0.952593,0.24811,0.38649,0.11735
1702327336000000,-9.680696,0.403772,0.952593,0.24611,0.40249,0.21435
1702327336007812,-9.694696,0.398772,0.943593,0.25211,0.29949,0.22735
1702327336015625,-9.694696,0.388772,0.946593,0.25911,0.32749,0.22535
1702327336023437,-9.698696,0.392772,0.945593,0.24911,0.43249,0.21335
1702327336031250,-9.719696,0.392772,0.952593,0.25711,0.37749,0.22635
1702327336039062,-9.728696,0.393772,0.954593,0.26611,0.36649,0.19635
1702327336046875,-9.741696,0.387772,0.961593,0.25111,0.41449,0.21235
1702327336054687,-9.735696,0.358772,0.957593,0.26211,0.33649,0.21335
1702327336062500,-9.730696,0.365772,0.941593,0.25111,0.28449,0.19635
1702327336070312,-9.735696,0.362772,0.948593,0.26511,0.39949,0.22935
1702327336078125,-9.726696,0.358772,0.948593,0.23711,0.29949,0.21135
1702327336085937,-9.717696,0.360772,0.943593,0.20711,0.36449,0.21235
1702327336093750,-9.717696,0.367772,0.939593,0.13811,0.40049,0.23135
1702327336101562,-9.712696,0.361772,0.957593,0.12811,0.39649,0.19735
1702327336109375,-9.712696,0.369772,0.979593,0.15311,0.35349,0.15035
1702327336117187,-9.712696,0.376772,0.984593,0.17211,0.47949,0.23035
1702327336125000,-9.696696,0.390772,0.991593,0.13311,0.36149,0.14735
1702327336132812,-9.712696,0.385772,0.979593,0.25911,0.31249,0.16135
1702327336140625,-9.713696,0.365772,0.975593,0.22711,0.34549,0.17835
1702327336148437,-9.728696,0.374772,0.973593,0.14111,0.41449,0.24635
1702327336156250,-9.715696,0.361772,0.968593,0.16511,0.44149,0.22735
1702327336164062,-9.717696,0.354772,0.982593,0.10711,0.43149,0.27935
1702327336171875,-9.715696,0.352772,1.593,0.11211,0.47649,0.29335
1702327336179687,-9.715696,0.365772,1.13593,0.16011,0.49149,0.35735
1702327336187500,-9.715696,0.376772,0.977593,0.3711,0.42449,0.32535
1702327336195312,-9.715696,0.381772,0.941593,0.6711,0.40949,0.32535
1702327336203125,-9.717696,0.372772,0.959593,0.8411,0.49049,0.30935
1702327336210937,-9.715696,0.385772,0.984593,0.10311,0.58749,0.22835
1702327336218750,-9.721696,0.378772,0.979593,0.14311,0.47849,0.22935
1702327336226562,-9.721696,0.374772,0.979593,0.14311,0.44549,0.21335
1702327336234375,-9.723696,0.376772,0.977593,0.8011,0.56049,0.23135
1702327336242187,-9.739696,0.389772,0.986593,0.6211,0.62749,0.23235
1702327336250000,-9.723696,0.385772,1.7593,0.14811,0.57249,0.21235
1702327336257812,-9.714696,0.391772,1.15593,0.9411,0.44649,0.23035
1702327336265625,-9.714696,0.394772,1.4593,0.17311,0.47949,0.21335
1702327336273437,-9.705696,0.392772,1.13593,0.13811,0.51349,0.24735
1702327336281250,-9.703696,0.394772,1.15593,0.19011,0.51149,0.21335
1702327336289062,-9.698696,0.392772,0.990593,0.10611,0.46649,0.23135
1702327336296875,-9.705696,0.396772,1.9593,0.8111,0.49349,0.27835
1702327336304687,-9.696696,0.394772,1.20593,0.17911,0.45949,0.21135
1702327336312500,-9.694696,0.394772,1.20593,0.17611,0.44449,0.24435
1702327336320312,-9.696696,0.405772,1.593,0.4711,0.41449,0.24735
1702327336328125,-9.690696,0.397772,1.11593,0.3711,0.45949,0.22935
1702327336335937,-9.678696,0.394772,1.11593,0.511,0.42649,0.27735
1702327336343750,-9.683696,0.392772,0.997593,0.1811,0.41249,0.23035
1702327336351562,-9.690696,0.392772,0.986593,0.7311,0.42549,0.13135
1702327336359375,-9.714696,0.401772,0.975593,0.10611,0.40749,0.13035
1702327336367187,-9.728696,0.407772,1.2593,0.8511,0.42649,0.19635
1702327336375000,-9.714696,0.418772,1.11593,0.3811,0.45949,0.19735
1702327336382812,-9.714696,0.440772,0.986593,0.3511,0.44449,0.23035
1702327336390625,-9.711696,0.440772,0.979593,0.3611,0.39549,0.22935
1702327336398437,-9.700696,0.429772,0.986593,0.8211,0.33149,0.19735
1702327336406250,-9.687696,0.423772,0.975593,0.11311,0.39649,0.18135
1702327336414062,-9.700696,0.414772,0.970593,0.14211,0.34849,0.21335
1702327336421875,-9.694696,0.407772,0.986593,0.12611,0.43049,0.23035
1702327336429687,-9.710696,0.401772,0.995593,0.16711,0.40749,0.19435
1702327336437500,-9.714696,0.412772,0.991593,0.14811,0.42649,0.17935
1702327336445312,-9.716696,0.418772,0.977593,0.19511,0.41049,0.21135
1702327336453125,-9.732696,0.416772,0.977593,0.16111,0.41149,0.22835
1702327336460937,-9.712696,0.420772,0.964593,0.17511,0.42949,0.21235
1702327336468750,-9.716696,0.429772,0.975593,0.15811,0.43049,0.16535
1702327336476562,-9.707696,0.432772,0.979593,0.21311,0.47449,0.14635
1702327336484375,-9.707696,0.443772,0.993593,0.20711,0.41349,0.16435
1702327336492187,-9.693696,0.441772,1.593,0.25911,0.44249,0.21035
1702327336500000,-9.682696,0.430772,1.9593,0.24111,0.39549,0.16235
1702327336507812,-9.693696,0.427772,0.995593,0.25311,0.42949,0.21135
1702327336515625,-9.712696,0.429772,0.977593,0.27311,0.37749,0.21035
1702327336523437,-9.711696,0.436772,0.966593,0.25311,0.38049,0.22735
1702327336531250,-9.702696,0.441772,0.939593,0.27311,0.32849,0.20935
1702327336539062,-9.705696,0.438772,0.964593,0.17911,0.32849,0.24335
1702327336546875,-9.698696,0.432772,0.984593,0.24711,0.35749,0.22435
1702327336554687,-9.691696,0.423772,0.979593,0.24011,0.39549,0.21135
1702327336562500,-9.698696,0.428772,0.975593,0.27911,0.32449,0.22335
1702327336570312,-9.711696,0.427772,0.961593,0.25211,0.34949,0.22835
1702327336578125,-9.716696,0.436772,0.979593,0.24211,0.37749,0.21035
1702327336585937,-9.707696,0.434772,0.988593,0.23811,0.36449,0.22735
1702327336593750,-9.702696,0.441772,0.988593,0.22211,0.41349,0.21235
1702327336601562,-9.698696,0.445772,1.2593,0.27111,0.42849,0.19535
1702327336609375,-9.691696,0.447772,1.593,0.20811,0.41349,0.11535
1702327336617187,-9.705696,0.450772,0.995593,0.23111,0.34449,0.8035
1702327336625000,-9.716696,0.443772,0.997593,0.25711,0.37949,0.13035
1702327336632812,-9.734696,0.438772,0.993593,0.27711,0.40949,0.9635
1702327336640625,-9.727696,0.429772,0.991593,0.24411,0.36149,0.11335
1702327336648437,-9.709696,0.430772,0.984593,0.26111,0.40949,0.12935
1702327336656250,-9.696696,0.427772,0.982593,0.27211,0.44449,0.14635
1702327336664062,-9.696696,0.423772,0.991593,0.26511,0.42349,0.11135
1702327336671875,-9.705696,0.429772,1.593,0.22011,0.52949,0.18135
1702327336679687,-9.695696,0.429772,0.997593,0.19611,0.50349,0.12035
1702327336687500,-9.691696,0.432772,0.977593,0.23911,0.44649,0.13135
1702327336695312,-9.698696,0.434772,0.995593,0.23711,0.43149,0.14835
1702327336703125,-9.693696,0.445772,1.11593,0.23011,0.40949,0.11335
1702327336710937,-9.686696,0.447772,0.990593,0.21811,0.43249,0.21335
1702327336718750,-9.704696,0.445772,0.997593,0.27111,0.41149,0.21135
1702327336726562,-9.716696,0.445772,1.4593,0.23011,0.45749,0.16135
1702327336734375,-9.727696,0.447772,1.6593,0.27411,0.50749,0.22635
1702327336742187,-9.707696,0.445772,1.15593,0.27411,0.52349,0.19435
1702327336750000,-9.702696,0.447772,1.22593,0.23811,0.59249,0.21235
1702327336757812,-9.697696,0.440772,1.20593,0.24211,0.51949,0.16835
1702327336765625,-9.691696,0.436772,1.15593,0.23911,0.46149,0.21135
1702327336773437,-9.691696,0.432772,1.6593,0.25311,0.43149,0.13235
1702327336781250,-9.689696,0.430772,1.593,0.27811,0.40849,0.16035
1702327336789062,-9.680696,0.421772,1.22593,0.24211,0.44549,0.8235
1702327336796875,-9.689696,0.421772,1.13593,0.25411,0.44649,0.16335
1702327336804687,-9.698696,0.423772,1.4593,0.26511,0.44849,0.19735
1702327336812500,-9.712696,0.409772,1.11593,0.25011,0.41649,0.16435
1702327336820312,-9.727696,0.420772,0.997593,0.27311,0.41049,0.19435
1702327336828125,-9.730696,0.413772,1.6593,0.26811,0.43149,0.18035
1702327336835937,-9.730696,0.416772,1.593,0.23611,0.41449,0.19635
1702327336843750,-9.723696,0.409772,1.593,0.26811,0.48049,0.16435
1702327336851562,-9.700696,0.412772,1.11593,0.25111,0.46549,0.11635
1702327336859375,-9.705696,0.410772,1.13593,0.27211,0.47749,0.13035
1702327336867187,-9.710696,0.412772,1.2593,0.21011,0.52549,0.17935
1702327336875000,-9.714696,0.409772,1.2593,0.14111,0.44849,0.15035
1702327336882812,-9.714696,0.420772,1.6593,0.15611,0.51449,0.16635
1702327336890625,-9.718696,0.425772,1.15593,0.10811,0.61049,0.24735
1702327336898437,-9.709696,0.445772,1.20593,0.13811,0.68549,0.11535
1702327336906250,-9.711696,0.443772,1.4593,0.14711,0.67249,0.14935
1702327336914062,-9.723696,0.445772,0.993593,0.20811,0.67249,0.21235
1702327336921875,-9.727696,0.440772,1.31593,0.26011,0.65349,0.16235
1702327336929687,-9.712696,0.423772,1.47593,0.25211,0.62649,0.19735
1702327336937500,-9.700696,0.427772,1.29593,0.23811,0.59249,0.21235
1702327336945312,-9.698696,0.441772,1.2593,0.13111,0.62349,0.19735
1702327336953125,-9.714696,0.445772,0.995593,0.26211,0.57249,0.11335
1702327336960937,-9.714696,0.438772,1.9593,0.22211,0.65749,0.21335
1702327336968750,-9.713696,0.445772,1.11593,0.12411,0.59649,0.16735
1702327336976562,-9.711696,0.445772,1.6593,0.5411,0.63849,0.19735
1702327336984375,-9.698696,0.447772,1.29593,0.21011,0.60749,0.18035
1702327336992187,-9.698696,0.447772,1.40593,0.19211,0.68849,0.22935
1702327337000000,-9.705696,0.430772,1.40593,0.16711,0.60449,0.16335
1702327337007812,-9.711696,0.427772,1.51593,0.19311,0.60849,0.11635
1702327337015625,-9.702696,0.432772,1.45593,0.17311,0.60949,0.23035
1702327337023437,-9.696696,0.421772,1.40593,0.25411,0.72349,0.18135
1702327337031250,-9.705696,0.421772,1.38593,0.24411,0.66949,0.21135
1702327337039062,-9.696696,0.439772,1.45593,0.25911,0.60549,0.17935
1702327337046875,-9.693696,0.439772,1.54593,0.24111,0.57449,0.17935
1702327337054687,-9.691696,0.456772,1.67593,0.22211,0.64149,0.22935
1702327337062500,-9.682696,0.446772,1.67593,0.14911,0.63849,0.14835
1702327337070312,-9.666696,0.452772,1.69593,0.27011,0.52649,0.22735
1702327337078125,-9.655696,0.457772,1.61593,0.10211,0.53949,0.21235
1702327337085937,-9.671696,0.439772,1.51593,0.10011,0.45949,0.19635
1702327337093750,-9.709696,0.440772,1.47593,0.9411,0.52849,0.23135
1702327337101562,-9.716696,0.436772,1.52593,0.10211,0.57249,0.19635
1702327337109375,-9.707696,0.439772,1.61593,0.24811,0.45549,0.17635
1702327337117187,-9.702696,0.438772,1.56593,0.25611,0.51049,0.13135
1702327337125000,-9.711696,0.425772,1.51593,0.23611,0.59349,0.21335
1702327337132812,-9.707696,0.419772,1.49593,0.18611,0.56949,0.17735
1702327337140625,-9.696696,0.414772,1.52593,0.14811,0.44149,0.25935
1702327337148437,-9.696696,0.412772,1.49593,0.24511,0.50649,0.21035
1702327337156250,-9.696696,0.394772,1.72593,0.27611,0.48949,0.24135
1702327337164062,-9.705696,0.396772,1.87593,0.16111,0.42849,0.22835
1702327337171875,-9.696696,0.408772,1.70593,0.8511,0.40849,0.29235
1702327337179687,-9.683696,0.419772,1.70593,0.1111,0.43849,0.25935
1702327337187500,-9.689696,0.425772,1.61593,0.2411,0.45749,0.21235
1702327337195312,-9.698696,0.421772,1.78593,0.211,0.49449,0.23135
1702327337203125,-9.696696,0.425772,1.106593,0.2511,0.57149,0.19635
1702327337210937,-9.693696,0.432772,1.92593,0.711,0.55749,0.13335
1702327337218750,-9.678696,0.446772,1.101593,0.1011,0.45649,0.21235
1702327337226562,-9.680696,0.450772,1.83593,0.1711,0.52749,0.23135
1702327337234375,-9.688696,0.465772,1.74593,0.13211,0.42649,0.21235
1702327337242187,-9.711696,0.465772,1.85593,0.22911,0.42449,0.22535
1702327337250000,-9.716696,0.474772,1.103593,0.11011,0.46949,0.17735
1702327337257812,-9.700696,0.465772,1.114593,0.6611,0.50949,0.23035
1702327337265625,-9.691696,0.465772,1.110593,0.16311,0.53949,0.26035
1702327337273437,-9.691696,0.458772,1.92593,0.19011,0.47649,0.32535
1702327337281250,-9.700696,0.449772,1.87593,0.18111,0.48349,0.28035
1702327337289062,-9.709696,0.445772,1.85593,0.14211,0.51149,0.26235
1702327337296875,-9.695696,0.443772,1.103593,0.9111,0.53049,0.24835
1702327337304687,-9.700696,0.441772,1.106593,0.16211,0.42649,0.27635
1702327337312500,-9.698696,0.436772,1.103593,0.21011,0.47649,0.21135
1702327337320312,-9.689696,0.441772,1.112593,0.3111,0.54549,0.23235
1702327337328125,-9.662696,0.448772,1.108593,0.16511,0.45849,0.21135
1702327337335937,-9.671696,0.459772,1.103593,0.18211,0.40749,0.24235
1702327337343750,-9.691696,0.445772,1.81593,0.20211,0.44649,0.31035
1702327337351562,-9.702696,0.447772,1.81593,0.16211,0.45949,0.24435
1702327337359375,-9.714696,0.445772,1.88593,0.22311,0.50849,0.34035
1702327337367187,-9.705696,0.447772,1.99593,0.22711,0.42349,0.33835
1702327337375000,-9.684696,0.461772,1.94593,0.20811,0.41049,0.32335
1702327337382812,-9.677696,0.459772,1.85593,0.11811,0.40749,0.29135
1702327337390625,-9.677696,0.450772,1.83593,0.6711,0.42649,0.30935
1702327337398437,-9.684696,0.445772,1.69593,0.11411,0.45949,0.29335
1702327337406250,-9.698696,0.450772,1.67593,0.1811,0.42749,0.32635
1702327337414062,-9.704696,0.454772,1.78593,0.6611,0.46049,0.27835
1702327337421875,-9.695696,0.463772,1.85593,0.16211,0.36149,0.27535
1702327337429687,-9.700696,0.467772,1.74593,0.14311,0.39649,0.24535
1702327337437500,-9.695696,0.472772,1.87593,0.6911,0.44249,0.22835
1702327337445312,-9.675696,0.475772,1.101593,0.711,0.43949,0.34135
1702327337453125,-9.657696,0.466772,1.99593,0.5411,0.37549,0.27635
1702327337460937,-9.657696,0.486772,1.90593,0.14211,0.33049,0.32535
1702327337468750,-9.663696,0.490772,1.99593,0.14811,0.34449,0.21135
1702327337476562,-9.675696,0.490772,1.78593,0.10111,0.29549,0.22735
1702327337484375,-9.684696,0.492772,1.65593,0.11811,0.27749,0.25835
1702327337492187,-9.697696,0.494772,1.74593,0.16911,0.27549,0.24035
1702327337500000,-9.695696,0.470772,1.92593,0.16611,0.32749,0.21035
1702327337507812,-9.697696,0.481772,1.83593,0.23311,0.38849,0.24035
1702327337515625,-9.704696,0.483772,1.81593,0.10211,0.37649,0.22735
1702327337523437,-9.697696,0.485772,1.103593,0.12011,0.42449,0.21035
1702327337531250,-9.697696,0.480772,1.99593,0.3411,0.39649,0.23035
1702327337539062,-9.697696,0.481772,1.81593,0.7311,0.40749,0.19535
1702327337546875,-9.686696,0.483772,1.72593,0.5511,0.42549,0.21235
1702327337554687,-9.677696,0.492772,1.106593,0.4511,0.38849,0.22635
1702327337562500,-9.688696,0.483772,1.114593,0.3111,0.41549,0.18335
1702327337570312,-9.704696,0.483772,1.85593,0.1011,0.42549,0.13235
1702327337578125,-9.708696,0.473772,1.94593,0.1511,0.43249,0.16735
1702327337585937,-9.713696,0.476772,1.103593,0.3411,0.41249,0.19835
1702327337593750,-9.720696,0.474772,1.94593,0.2611,0.42349,0.19535
1702327337601562,-9.722696,0.480772,1.105593,0.3711,0.41149,0.14935
1702327337609375,-9.701696,0.496772,1.123593,0.6711,0.54249,0.19835
1702327337617187,-9.693696,0.499772,1.124593,0.5811,0.47349,0.17935
1702327337625000,-9.691696,0.466772,1.121593,0.11111,0.51849,0.12935
1702327337632812,-9.684696,0.466772,1.137593,0.9211,0.53649,0.17835
1702327337640625,-9.700696,0.463772,1.128593,0.9611,0.57649,0.16635
1702327337648437,-9.706696,0.474772,1.119593,0.18211,0.52449,0.11435
1702327337656250,-9.686696,0.487772,1.101593,0.14411,0.52749,0.16535
1702327337664062,-9.672696,0.499772,1.110593,0.10311,0.55649,0.13235
1702327337671875,-9.670696,0.494772,1.130593,0.5611,0.58949,0.13235
1702327337679687,-9.675696,0.463772,1.139593,0.16111,0.60849,0.14935
1702327337687500,-9.679696,0.465772,1.135593,0.18011,0.54149,0.9935
1702327337695312,-9.707696,0.461772,1.110593,0.21111,0.52549,0.11535
1702327337703125,-9.715696,0.465772,1.105593,0.27011,0.52849,0.11535
1702327337710937,-9.700696,0.463772,1.117593,0.21111,0.49249,0.16335
1702327337718750,-9.697696,0.472772,1.94593,0.24711,0.42449,0.14435
1702327337726562,-9.691696,0.474772,1.79593,0.27611,0.40949,0.16135
1702327337734375,-9.695696,0.476772,1.85593,0.21611,0.44049,0.11335
1702327337742187,-9.673696,0.466772,1.106593,0.25811,0.45949,0.14635
1702327337750000,-9.677696,0.465772,1.112593,0.19611,0.47649,0.13135
1702327337757812,-9.679696,0.470772,1.108593,0.22711,0.50749,0.21035
1702327337765625,-9.695696,0.452772,1.132593,0.24111,0.44449,0.13135
1702327337773437,-9.700696,0.452772,1.139593,0.27811,0.49049,0.12835
1702327337781250,-9.688696,0.467772,1.142593,0.25811,0.49249,0.16235
1702327337789062,-9.671696,0.464772,1.153593,0.27911,0.40649,0.17635
1702327337796875,-9.670696,0.468772,1.137593,0.22211,0.42949,0.21235
1702327337804687,-9.671696,0.459772,1.108593,0.22811,0.39249,0.21035
1702327337812500,-9.648696,0.466772,1.105593,0.27011,0.34749,0.16235
1702327337820312,-9.642696,0.457772,1.90593,0.26311,0.32649,0.16035
1702327337828125,-9.641696,0.464772,1.85593,0.27911,0.27749,0.15935
1702327337835937,-9.664696,0.455772,1.85593,0.25911,0.36049,0.22535
1702327337843750,-9.693696,0.443772,1.92593,0.25611,0.33049,0.21035
1702327337851562,-9.716696,0.431772,1.105593,0.27211,0.28049,0.19335
1702327337859375,-9.725696,0.447772,1.112593,0.26311,0.29149,0.25535
1702327337867187,-9.731696,0.455772,1.112593,0.20411,0.31649,0.24435
1702327337875000,-9.729696,0.462772,1.85593,0.18911,0.36549,0.21235
1702327337882812,-9.729696,0.467772,1.87593,0.24111,0.42649,0.24335
1702327337890625,-9.713696,0.469772,1.88593,0.15111,0.40749,0.22635
1702327337898437,-9.709696,0.465772,1.108593,0.25111,0.38749,0.20735
1702327337906250,-9.691696,0.461772,1.126593,0.24211,0.36149,0.22635
1702327337914062,-9.691696,0.458772,1.117593,0.25311,0.38049,0.22735
1702327337921875,-9.695696,0.450772,1.112593,0.24211,0.42749,0.19435
1702327337929687,-9.711696,0.452772,1.108593,0.21011,0.42849,0.11535
1702327337937500,-9.716696,0.465772,1.103593,0.14911,0.39249,0.22735
1702327337945312,-9.706696,0.463772,1.105593,0.14611,0.42849,0.18035
1702327337953125,-9.691696,0.466772,1.119593,0.13911,0.45449,0.20935
1702327337960937,-9.673696,0.468772,1.130593,0.19411,0.49249,0.21135
1702327337968750,-9.659696,0.468772,1.146593,0.20611,0.46249,0.19635
1702327337976562,-9.655696,0.471772,1.128593,0.21811,0.40549,0.20835
1702327337984375,-9.659696,0.466772,1.126593,0.19311,0.42849,0.19535
1702327337992187,-9.679696,0.465772,1.126593,0.24911,0.41549,0.22935
1702327338000000,-9.709696,0.463772,1.128593,0.21111,0.42749,0.17835
1702327338007812,-9.713696,0.467772,1.133593,0.25611,0.41049,0.25835
1702327338015625,-9.715696,0.465772,1.133593,0.19311,0.42649,0.27535
1702327338023437,-9.709696,0.463772,1.126593,0.11211,0.41249,0.24535
1702327338031250,-9.697696,0.465772,1.119593,0.14111,0.42949,0.32635
1702327338039062,-9.684696,0.474772,1.103593,0.13011,0.39549,0.21235
1702327338046875,-9.677696,0.470772,1.110593,0.12211,0.43149,0.29535
1702327338054687,-9.677696,0.463772,1.124593,0.10011,0.45949,0.21235
1702327338062500,-9.686696,0.467772,1.119593,0.0,0.39949,0.19935
1702327338070312,-9.693696,0.465772,1.101593,0.10311,0.45849,0.17935
1702327338078125,-9.697696,0.463772,1.101593,0.9611,0.42949,0.24535
1702327338085937,-9.689696,0.454772,1.119593,0.3311,0.42949,0.26235
1702327338093750,-9.678696,0.459772,1.121593,0.13811,0.37349,0.20935
1702327338101562,-9.684696,0.465772,1.90593,0.1911,0.28149,0.22935
1702327338109375,-9.695696,0.465772,1.72593,0.311,0.29649,0.32535
1702327338117187,-9.697696,0.474772,1.76593,0.5511,0.39049,0.34035
1702327338125000,-9.695696,0.465772,1.126593,0.5511,0.42349,0.30835
1702327338132812,-9.679696,0.463772,1.141593,0.3211,0.41249,0.29435
1702327338140625,-9.659696,0.472772,1.117593,0.19511,0.32649,0.32235
1702327338148437,-9.666696,0.472772,1.83593,0.6611,0.19849,0.35635
1702327338156250,-9.677696,0.464772,1.58593,0.7411,0.30749,0.30635
1702327338164062,-9.691696,0.465772,1.63593,0.2311,0.39249,0.27635
1702327338171875,-9.675696,0.470772,1.85593,0.2511,0.32549,0.27535
1702327338179687,-9.679696,0.472772,1.101593,0.211,0.49249,0.32735
1702327338187500,-9.675696,0.472772,1.103593,0.3089,0.41249,0.34335
1702327338195312,-9.668696,0.497772,1.103593,0.1289,0.42749,0.27835
1702327338203125,-9.681696,0.503772,1.81593,0.2211,0.37749,0.24535
1702327338210937,-9.701696,0.516772,1.74593,0.1911,0.31249,0.29335
1702327338218750,-9.712696,0.524772,1.89593,0.2411,0.40349,0.21735
1702327338226562,-9.710696,0.531772,1.105593,0.389,0.36749,0.24835
1702327338234375,-9.713696,0.518772,1.92593,0.13711,0.30749,0.25735
1702327338242187,-9.712696,0.525772,1.96593,0.10111,0.36149,0.21135
1702327338250000,-9.710696,0.523772,1.103593,0.9211,0.40449,0.22535
1702327338257812,-9.699696,0.509772,1.87593,0.6711,0.37849,0.22935
1702327338265625,-9.694696,0.516772,1.81593,0.24911,0.35049,0.26135
1702327338273437,-9.694696,0.498772,1.80593,0.12311,0.33549,0.21435
1702327338281250,-9.694696,0.525772,1.78593,0.15911,0.42949,0.22935
1702327338289062,-9.683696,0.514772,1.69593,0.17811,0.36249,0.19535
1702327338296875,-9.677696,0.499772,1.74593,0.19311,0.34649,0.21135
1702327338304687,-9.681696,0.501772,1.88593,0.26011,0.31049,0.22535
1702327338312500,-9.677696,0.501772,1.85593,0.24011,0.34649,0.21035
1702327338320312,-9.679696,0.514772,1.83593,0.26011,0.29449,0.22535
1702327338328125,-9.692696,0.505772,1.76593,0.25511,0.26549,0.19435
1702327338335937,-9.694696,0.512772,1.76593,0.27211,0.24849,0.19335
1702327338343750,-9.694696,0.529772,1.63593,0.22011,0.28349,0.24435
1702327338351562,-9.694696,0.536772,1.67593,0.25311,0.29949,0.19535
1702327338359375,-9.699696,0.536772,1.72593,0.23911,0.31549,0.16235
1702327338367187,-9.694696,0.532772,1.76593,0.26111,0.29449,0.14435
1702327338375000,-9.699696,0.512772,1.67593,0.27111,0.34849,0.14635
1702327338382812,-9.697696,0.500772,1.74593,0.26611,0.28449,0.19535
1702327338390625,-9.688696,0.498772,1.67593,0.25711,0.26449,0.16135
1702327338398437,-9.692696,0.494772,1.69593,0.24311,0.26449,0.11335
1702327338406250,-9.712696,0.514772,1.47593,0.30211,0.24949,0.21035
1702327338414062,-9.715696,0.518772,1.47593,0.25511,0.21649,0.19435
1702327338421875,-9.708696,0.532772,1.58593,0.27411,0.29649,0.19335
1702327338429687,-9.710696,0.534772,1.67593,0.25711,0.37949,0.13035
1702327338437500,-9.714696,0.538772,1.78593,0.27011,0.36549,0.9935
1702327338445312,-9.712696,0.536772,1.90593,0.26611,0.38949,0.15935
1702327338453125,-9.694696,0.547772,1.103593,0.25611,0.34649,0.21035
1702327338460937,-9.694696,0.558772,1.110593,0.27711,0.34449,0.14435
1702327338468750,-9.694696,0.541772,1.92593,0.27911,0.29349,0.15935
1702327338476562,-9.699696,0.538772,1.83593,0.34011,0.31149,0.11135
1702327338484375,-9.687696,0.534772,1.94593,0.30811,0.27849,0.15935
1702327338492187,-9.658696,0.543772,1.89593,0.28211,0.30349,0.9935
1702327338500000,-9.672696,0.534772,1.83593,0.38111,0.33149,0.12935
1702327338507812,-9.676696,0.539772,1.69593,0.40211,0.34449,0.15935
1702327338515625,-9.681696,0.550772,1.78593,0.42411,0.30749,0.14035
1702327338523437,-9.685696,0.549772,1.69593,0.45611,0.39849,0.16135
1702327338531250,-9.678696,0.543772,1.78593,0.48211,0.37549,0.17435
1702327338539062,-9.692696,0.536772,1.54593,0.45011,0.37549,0.15835
1702327338546875,-9.692696,0.534772,1.72593,0.46511,0.32749,0.14235
1702327338554687,-9.697696,0.534772,1.90593,0.53211,0.32549,0.12435
1702327338562500,-9.695696,0.507772,1.99593,0.41311,0.39649,0.16035
1702327338570312,-9.701696,0.516772,1.81593,0.32211,0.34549,0.12835
1702327338578125,-9.701696,0.514772,1.69593,0.32011,0.39449,0.20935
1702327338585937,-9.699696,0.514772,1.85593,0.32511,0.40849,0.16035
1702327338593750,-9.692696,0.525772,1.83593,0.27011,0.42949,0.14735
1702327338601562,-9.683696,0.527772,1.69593,0.29111,0.36149,0.11335
1702327338609375,-9.677696,0.521772,1.67593,0.32811,0.31049,0.4635
1702327338617187,-9.683696,0.521772,1.74593,0.34011,0.36049,0.9535
1702327338625000,-9.681696,0.518772,1.87593,0.34811,0.31649,0.11435
1702327338632812,-9.685696,0.527772,1.71593,0.31011,0.40249,0.13335
1702327338640625,-9.701696,0.525772,1.67593,0.32111,0.33049,0.9735
1702327338648437,-9.710696,0.520772,1.69593,0.29911,0.40049,0.8335
1702327338656250,-9.717696,0.516772,1.74593,0.25611,0.41349,0.9935
1702327338664062,-9.701696,0.516772,1.74593,0.27911,0.45749,0.8035
1702327338671875,-9.699696,0.509772,1.78593,0.25811,0.39649,0.8235
1702327338679687,-9.711696,0.503772,1.85593,0.28311,0.39049,0.1435
1702327338687500,-9.721696,0.518772,1.90593,0.26811,0.43249,0.5235
1702327338695312,-9.706696,0.505772,1.101593,0.25311,0.41649,0.5235
1702327338703125,-9.701696,0.498772,1.94593,0.26811,0.43249,0.6835
1702327338710937,-9.703696,0.500772,1.103593,0.23611,0.41749,0.2035
1702327338718750,-9.714696,0.522772,1.90593,0.22111,0.51449,0.3735
1702327338726562,-9.705696,0.536772,1.89593,0.26711,0.43449,0.2035
1702327338734375,-9.694696,0.536772,1.107593,0.23211,0.48449,0.7035
