time,Acceleration X (m/s^2),Acceleration Y (m/s^2),Acceleration Z (m/s^2),Angular Velocity X (rad/s),Angular Velocity Y (rad/s),Angular Velocity Z (rad/s)
1702327490929687,-9.128992,2.730046,-0.707109,,,
1702327490937500,-9.163992,0.483058,2.640046,0.633209,0.65747,0.93476
1702327490945312,-9.160992,0.408058,2.622046,0.619209,0.29747,0.84076
1702327490953125,-9.133992,0.283058,2.611046,0.591909,0.253,0.70376
1702327490960937,-9.73992,0.56058,2.709046,0.577709,0.28753,0.55776
1702327490968750,-9.119992,0.60942,2.745046,0.558409,0.50353,0.53076
1702327490984375,-9.535992,0.80058,2.568046,0.474609,0.36153,0.46176
1702327490992187,-9.597992,0.186058,2.680046,0.446809,0.18147,0.49276
1702327491000000,-9.552992,0.303058,2.867046,0.390809,0.55847,0.39976
1702327491007812,-9.488992,0.397058,2.998046,0.317509,0.85447,0.32476
1702327491031250,-9.541992,0.336058,3.41046,0.131709,0.53447,0.23276
1702327491039062,-9.620992,0.370058,2.955046,0.71909,0.35247,0.12976
1702327491046875,-9.604992,0.361058,2.881046,0.49809,0.13847,0.576
1702327491054687,-9.536992,0.296058,2.734046,0.25209,0.7353,0.16824
1702327491062500,-9.373992,0.240058,2.570046,0.3091,0.10753,0.26024
1702327491070312,-9.169992,0.175058,2.405046,0.16091,0.8553,0.39124
1702327491078125,-9.4992,0.77058,2.365046,0.24391,0.847,0.45324
1702327491085937,-8.965992,0.5942,2.509046,0.16291,0.8747,0.64724
1702327491093750,-9.83992,0.68942,2.685046,0.8809,0.16647,0.81024
1702327491101562,-9.277992,0.11942,2.894046,0.21909,0.27947,0.102224
1702327491109375,-9.513992,0.123058,3.115046,0.28009,0.41647,0.122024
1702327491117187,-9.756992,0.128058,3.277046,0.5509,0.57347,0.134524
1702327491125000,-10.12992,0.33058,3.311046,0.36491,0.66647,0.150724
1702327491132812,-10.234992,0.65942,3.263046,0.110791,0.82547,0.154624
1702327491140625,-10.323992,0.245942,3.86046,0.157791,0.123347,0.160624
1702327491148437,-10.258992,0.351942,2.890046,0.209091,0.167447,0.174824
1702327491156250,-10.112992,0.378942,2.773046,0.251091,0.200047,0.190724
1702327491164062,-9.870992,0.463942,2.682046,0.293691,0.200647,0.216224
1702327491171875,-9.542992,0.608942,2.536046,0.348291,0.180747,0.246024
1702327491179687,-9.214992,0.755942,2.416046,0.413891,0.172347,0.278924
1702327491187500,-8.989992,0.879942,2.360046,0.461891,0.154447,0.305724
1702327491195312,-8.934992,0.959942,2.299046,0.486091,0.146647,0.323324
1702327491203125,-9.17992,0.936942,2.306046,0.496791,0.161347,0.331324
1702327491210937,-9.189992,0.887942,2.419046,0.517391,0.185347,0.350424
1702327491218750,-9.359992,0.837942,2.554046,0.556791,0.211347,0.350024
1702327491226562,-9.457992,0.687942,2.619046,0.604091,0.241547,0.356424
1702327491234375,-9.515992,0.469942,2.689046,0.680291,0.242647,0.353724
1702327491242187,-9.558992,0.264942,2.617046,0.760591,0.261647,0.353224
1702327491250000,-9.424992,0.113942,2.495046,0.846491,0.281247,0.368524
1702327491257812,-9.308992,0.49942,2.412046,0.911391,0.274447,0.370724
1702327491265625,-9.254992,0.52942,2.270046,0.942491,0.249947,0.381524
1702327491273437,-9.204992,0.77942,2.115046,0.956791,0.205547,0.395524
1702327491281250,-9.109992,0.129942,2.47046,0.964291,0.163447,0.395324
1702327491289062,-9.58992,0.198942,2.169046,0.967291,0.98147,0.407824
1702327491296875,-9.78992,0.258942,2.282046,0.968591,0.28647,0.411824
1702327491304687,-9.164992,0.208942,2.304046,1.1391,0.26553,0.408024
1702327491312500,-9.270992,0.136942,2.318046,1.60091,0.59253,0.395724
1702327491320312,-9.388992,0.96942,2.295046,1.110591,0.49653,0.395124
1702327491328125,-9.440992,0.71942,2.306046,1.156291,0.18553,0.381924
1702327491335937,-9.486992,0.28942,2.365046,1.196891,0.6447,0.360824
1702327491343750,-9.502992,0.5058,2.367046,1.217091,0.50947,0.346424
1702327491351562,-9.491992,0.11058,2.421046,1.245891,0.67147,0.331624
1702327491359375,-9.493992,0.27058,2.437046,1.288591,0.66347,0.333124
1702327491367187,-9.516992,0.56058,2.365046,1.349591,0.44247,0.333424
1702327491375000,-9.576992,0.134058,2.234046,1.417891,0.30147,0.336024
1702327491382812,-9.632992,0.138058,2.153046,1.497291,0.15947,0.340024
1702327491390625,-9.734992,0.70058,2.135046,1.550891,0.11953,0.340824
1702327491398437,-9.846992,0.942,2.113046,1.566991,0.33353,0.338824
1702327491406250,-9.916992,0.65942,2.63046,1.553891,0.36253,0.337424
1702327491414062,-9.968992,0.89942,2.79046,1.555091,0.40153,0.329124
1702327491421875,-9.946992,0.54942,2.129046,1.536891,0.24153,0.319524
1702327491429687,-9.846992,0.9942,2.176046,1.542991,0.547,0.311724
1702327491437500,-9.727992,0.0,2.277046,1.550591,0.12547,0.290924
1702327491445312,-9.638992,0.43942,2.345046,1.595591,0.18847,0.264524
1702327491453125,-9.609992,0.157942,2.421046,1.637691,0.14447,0.246424
1702327491460937,-9.673992,0.273942,2.421046,1.692991,0.16553,0.237524
1702327491468750,-9.708992,0.322942,2.329046,1.746891,0.49553,0.242924
1702327491476562,-9.738992,0.261942,2.232046,1.802691,0.58653,0.232824
1702327491484375,-9.708992,0.193942,2.131046,1.868891,0.60553,0.244824
1702327491492187,-9.700992,0.120942,2.23046,1.932991,0.37553,0.242624
1702327491500000,-9.652992,0.48942,1.942046,1.984791,0.18053,0.251724
1702327491507812,-9.581992,0.12058,1.903046,2.37191,0.10347,0.251624
1702327491515625,-9.537992,0.23942,1.959046,2.79091,0.10953,0.276724
1702327491523437,-9.347992,0.22058,1.964046,2.95891,0.7653,0.297524
1702327491531250,-9.395992,0.61942,1.919046,2.120091,0.4553,0.281124
1702327491539062,-9.430992,0.155942,1.802046,2.149291,0.35353,0.293624
1702327491546875,-9.433992,0.113942,1.793046,2.170191,0.35653,0.294824
1702327491554687,-9.456992,0.68942,1.763046,2.189691,0.15653,0.304524
1702327491562500,-9.538992,0.1942,1.752046,2.199891,0.1547,0.313924
1702327491570312,-9.634992,0.93058,1.714046,2.216391,0.26547,0.317324
1702327491578125,-9.685992,0.184058,1.712046,2.238291,0.62547,0.317224
1702327491585937,-9.756992,0.277058,1.773046,2.252391,0.85447,0.309224
1702327491593750,-9.799992,0.344058,1.777046,2.252091,0.106747,0.314224
1702327491601562,-9.798992,0.419058,1.780046,2.278291,0.115247,0.317324
1702327491609375,-9.808992,0.484058,1.712046,2.315391,0.105847,0.320224
1702327491617187,-9.757992,0.489058,1.719046,2.327191,0.115047,0.318224
1702327491625000,-9.653992,0.455058,1.737046,2.325891,0.101947,0.313324
1702327491632812,-9.639992,0.448058,1.703046,2.332791,0.72247,0.308024
1702327491640625,-9.632992,0.457058,1.597046,2.346091,0.41647,0.319224
1702327491648437,-9.631992,0.487058,1.498046,2.370591,0.21347,0.326524
1702327491656250,-9.601992,0.494058,1.403046,2.397091,0.24247,0.328424
1702327491664062,-9.622992,0.527058,1.334046,2.427491,0.27047,0.332724
1702327491671875,-9.627992,0.554058,1.307046,2.449591,0.38347,0.330824
1702327491679687,-9.534992,0.628058,1.368046,2.448191,0.67447,0.340624
1702327491687500,-9.532992,0.661058,1.327046,2.436991,0.87247,0.336024
1702327491695312,-9.544992,0.719058,1.343046,2.431391,0.117247,0.330124
1702327491703125,-9.575992,0.802058,1.359046,2.428191,0.120447,0.333424
1702327491710937,-9.701992,0.817058,1.291046,2.417691,0.109047,0.314124
1702327491718750,-9.714992,0.824058,1.302046,2.408391,0.125447,0.304724
1702327491726562,-9.639992,0.725058,1.336046,2.417591,0.125647,0.303024
1702327491734375,-9.607992,0.729058,1.316046,2.423291,0.123547,0.293024
1702327491742187,-9.573992,0.813058,1.305046,2.413491,0.138547,0.291724
1702327491750000,-9.605992,0.897058,1.264046,2.414991,0.151647,0.288624
1702327491757812,-9.611992,0.965058,1.192046,2.427891,0.162247,0.287324
1702327491765625,-9.538992,1.23058,1.181046,2.447491,0.172947,0.301324
1702327491773437,-9.536992,1.70058,1.208046,2.443191,0.193247,0.305024
1702327491781250,-9.566992,1.121058,1.124046,2.445591,0.195947,0.303124
1702327491789062,-9.612992,1.199058,1.39046,2.437791,0.220547,0.293724
1702327491796875,-9.594992,1.188058,1.16046,2.429991,0.241747,0.290724
1702327491804687,-9.569992,1.172058,1.32046,2.407791,0.243647,0.287924
1702327491812500,-9.586992,1.201058,1.46046,2.373791,0.236547,0.294524
1702327491820312,-9.680992,1.216058,0.978046,2.348191,0.222147,0.293224
1702327491828125,-9.723992,1.250058,0.996046,2.331991,0.217447,0.303124
1702327491835937,-9.676992,1.260058,0.998046,2.310491,0.208947,0.301624
1702327491843750,-9.691992,1.311058,0.951046,2.293891,0.218547,0.288824
1702327491851562,-9.688992,1.415058,1.12046,2.278091,0.233247,0.289124
1702327491859375,-9.703992,1.420058,1.41046,2.273191,0.228647,0.282824
1702327491867187,-9.737992,1.418058,0.956046,2.256391,0.239847,0.273324
1702327491875000,-9.736992,1.472058,0.983046,2.249891,0.235247,0.270224
1702327491882812,-9.685992,1.529058,1.5046,2.237091,0.225347,0.281624
1702327491890625,-9.745992,1.505058,0.965046,2.207591,0.192647,0.273724
1702327491898437,-9.798992,1.428058,0.917046,2.198691,0.154847,0.270224
1702327491906250,-9.822992,1.357058,0.868046,2.192891,0.133247,0.270024
1702327491914062,-9.880992,1.365058,0.846046,2.159091,0.127947,0.265424
1702327491921875,-9.860992,1.400058,0.769046,2.152491,0.123647,0.249524
1702327491929687,-9.798992,1.439058,0.679046,2.146191,0.139947,0.244924
1702327491937500,-9.736992,1.476058,0.632046,2.129091,0.167547,0.245224
1702327491945312,-9.642992,1.521058,0.539046,2.115891,0.184247,0.244024
1702327491953125,-9.557992,1.571058,0.521046,2.101391,0.215547,0.242824
1702327491960937,-9.445992,1.545058,0.571046,2.82691,0.246347,0.246424
1702327491968750,-9.385992,1.484058,0.677046,2.51491,0.246147,0.248324
1702327491976562,-9.387992,1.452058,0.674046,2.15991,0.224347,0.258024
1702327491984375,-9.421992,1.446058,0.677046,1.973291,0.195047,0.266424
1702327491992187,-9.523992,1.388058,0.701046,1.938491,0.154247,0.279524
1702327492000000,-9.529992,1.348058,0.728046,1.911991,0.153847,0.289424
1702327492007812,-9.531992,1.442058,0.719046,1.889691,0.145747,0.300924
1702327492015625,-9.649992,1.665058,0.706046,1.871891,0.142647,0.307724
1702327492023437,-9.684992,1.621058,0.600046,1.856291,0.150647,0.312724
1702327492031250,-9.544992,1.535058,0.602046,1.836391,0.187647,0.320924
1702327492039062,-9.576992,1.735058,0.492046,1.820191,0.194247,0.335724
1702327492046875,-9.590992,1.633058,0.503046,1.808791,0.199247,0.348824
1702327492054687,-9.605992,1.469058,0.503046,1.785291,0.174547,0.357024
1702327492062500,-9.591992,1.391058,0.555046,1.773891,0.155147,0.361924
1702327492070312,-9.619992,1.365058,0.717046,1.745691,0.146847,0.363824
1702327492078125,-9.683992,1.231058,0.807046,1.705091,0.133747,0.364224
1702327492085937,-9.694992,1.224058,0.785046,1.663191,0.143447,0.346924
1702327492093750,-9.742992,1.272058,0.755046,1.660691,0.148047,0.335624
1702327492101562,-9.752992,1.327058,0.728046,1.641491,0.125347,0.339024
1702327492109375,-9.784992,1.383058,0.541046,1.652591,0.133647,0.334124
1702327492117187,-9.722992,1.436058,0.584046,1.663391,0.163147,0.332624
1702327492125000,-9.678992,1.508058,0.609046,1.649191,0.158147,0.335924
1702327492132812,-9.619992,1.627058,0.605046,1.633591,0.157947,0.340924
1702327492140625,-9.626992,1.627058,0.645046,1.612691,0.164747,0.347724
1702327492148437,-9.565992,1.440058,0.722046,1.608291,0.141447,0.358724
1702327492156250,-9.538992,1.348058,0.717046,1.608091,0.107147,0.369824
1702327492164062,-9.534992,1.317058,0.697046,1.560691,0.81747,0.376324
1702327492171875,-9.598992,1.274058,0.552046,1.546591,0.84547,0.370524
1702327492179687,-9.743992,1.350058,0.672046,1.538691,0.101147,0.357924
1702327492187500,-9.802992,1.404058,0.649046,1.501491,0.84347,0.358124
1702327492195312,-9.717992,1.409058,0.589046,1.504491,0.61547,0.362824
1702327492203125,-9.797992,1.492058,0.548046,1.497091,0.41947,0.351424
1702327492210937,-9.715992,1.476058,0.622046,1.491091,0.71347,0.333924
1702327492218750,-9.639992,1.470058,0.798046,1.496091,0.58247,0.325724
1702327492226562,-9.670992,1.559058,0.737046,1.479391,0.30447,0.309624
1702327492234375,-9.663992,1.584058,0.722046,1.471191,0.22347,0.317724
1702327492242187,-9.697992,1.602058,0.665046,1.454591,0.13953,0.319224
1702327492250000,-9.783992,1.636058,0.458046,1.439591,0.22853,0.336724
1702327492257812,-9.758992,1.618058,0.393046,1.413891,0.14553,0.345224
1702327492265625,-9.653992,1.479058,0.427046,1.378891,0.35853,0.366524
1702327492273437,-9.537992,1.408058,0.386046,1.358791,0.45853,0.368224
1702327492281250,-9.424992,1.386058,0.514046,1.339891,0.32753,0.363724
1702327492289062,-9.525992,1.207058,0.760046,1.291091,0.104353,0.363924
1702327492296875,-9.610992,1.186058,0.584046,1.228291,0.158253,0.365924
1702327492304687,-9.670992,1.277058,0.483046,1.222791,0.142053,0.340224
1702327492312500,-9.780992,1.401058,0.465046,1.235591,0.112653,0.329024
1702327492320312,-9.717992,1.411058,0.271046,1.231391,0.60253,0.297124
1702327492328125,-9.934992,1.645058,0.476046,1.270691,0.12453,0.266524
1702327492335937,-9.800992,1.415058,0.629046,1.264891,0.104153,0.272324
1702327492343750,-9.824992,1.523058,0.154046,1.272191,0.132053,0.241324
1702327492351562,-10.87992,1.701058,0.289046,1.299191,0.98853,0.259224
1702327492359375,-10.36992,1.429058,0.436046,1.291091,0.130253,0.291224
1702327492367187,-9.932992,1.552058,0.377046,1.249391,0.235153,0.297324
1702327492375000,-9.691992,1.503058,0.87046,1.215591,0.234153,0.299124
1702327492382812,-9.930992,1.554058,0.242046,1.163991,0.178453,0.274324
1702327492390625,-10.6992,1.349058,0.244046,1.96191,0.170453,0.294524
1702327492398437,-9.736992,1.479058,0.28046,1.35491,0.139653,0.280824
1702327492406250,-10.11992,1.558058,0.178954,1.25291,0.33653,0.275824
1702327492414062,-9.860992,1.522058,0.82046,1.17591,0.21747,0.269724
1702327492421875,-9.788992,1.816058,0.454046,0.987591,0.19553,0.247024
1702327492429687,-9.473992,1.756058,0.427046,0.909391,0.48953,0.238024
1702327492437500,-9.520992,1.592058,0.107046,0.878391,0.44347,0.197124
1702327492445312,-9.631992,1.816058,0.400046,0.931791,0.85447,0.180724
1702327492453125,-9.703992,2.87058,0.560046,0.913091,0.46247,0.177524
1702327492460937,-9.836992,2.21058,0.490046,0.891091,0.15047,0.190424
1702327492468750,-9.750992,1.926058,0.274046,0.851991,0.34147,0.208524
1702327492476562,-9.808992,1.765058,0.294046,0.846191,0.95247,0.204424
1702327492484375,-9.974992,1.610058,0.346046,0.821291,0.104947,0.203124
1702327492492187,-10.100992,1.452058,0.314046,0.764691,0.145847,0.199224
1702327492500000,-10.95992,1.328058,0.424046,0.682691,0.170547,0.195624
1702327492507812,-10.57992,1.159058,0.494046,0.631591,0.176547,0.189624
1702327492515625,-9.989992,0.987058,0.672046,0.586791,0.174647,0.175524
1702327492523437,-9.809992,0.960058,0.759046,0.571591,0.173747,0.176024
1702327492531250,-9.630992,0.929058,0.832046,0.570391,0.186947,0.151924
1702327492539062,-9.686992,0.599058,0.816046,0.573391,0.177147,0.159924
1702327492546875,-9.647992,0.410058,0.721046,0.564191,0.140747,0.182224
1702327492554687,-9.665992,0.261058,0.557046,0.542391,0.134147,0.179124
1702327492562500,-9.767992,0.197058,0.628046,0.535291,0.104847,0.211324
1702327492570312,-9.714992,0.40058,0.464046,0.518291,0.63347,0.238424
1702327492578125,-9.644992,0.210942,0.536046,0.541691,0.33847,0.255724
1702327492585937,-9.510992,0.445942,0.678046,0.600791,0.27953,0.270924
1702327492593750,-9.600992,0.446942,0.817046,0.681191,0.83653,0.272724
1702327492601562,-9.585992,0.422942,1.22046,0.750691,0.126453,0.282824
1702327492609375,-9.598992,0.442942,0.919046,0.795191,0.139553,0.267624
1702327492617187,-9.650992,0.321942,0.919046,0.829491,0.77153,0.254824
1702327492625000,-9.787992,0.186942,0.829046,0.870491,0.46053,0.240024
1702327492632812,-9.739992,0.369942,0.590046,0.949391,0.10253,0.234424
1702327492640625,-9.594992,0.408942,0.644046,1.49191,0.36853,0.201224
1702327492648437,-9.849992,0.220942,0.547046,1.109391,0.64653,0.187424
1702327492656250,-9.842992,0.256942,0.556046,1.143291,0.43553,0.219324
1702327492664062,-9.620992,0.329942,0.448046,1.171891,0.30853,0.225424
1702327492671875,-9.461992,0.282942,0.464046,1.217291,0.7553,0.201024
1702327492679687,-9.568992,0.70942,0.336046,1.259291,0.35053,0.206924
1702327492687500,-9.596992,0.23058,0.423046,1.297891,0.50753,0.203324
1702327492695312,-9.573992,0.235058,0.248046,1.335691,0.115353,0.197224
1702327492703125,-9.610992,0.312058,0.93046,1.375591,0.69053,0.194124
1702327492710937,-9.564992,0.280058,0.259046,1.423991,0.38053,0.203424
1702327492718750,-9.627992,0.227058,0.284046,1.453391,0.126753,0.200624
1702327492726562,-9.628992,0.156058,0.169046,1.451891,0.192153,0.209924
1702327492734375,-9.722992,0.21942,0.72046,1.450691,0.207053,0.208124
1702327492742187,-9.767992,0.143058,0.21046,1.466091,0.234653,0.212724
1702327492750000,-9.842992,0.42058,0.66046,1.458391,0.226753,0.217524
1702327492757812,-10.80992,0.242942,0.6954,1.456591,0.262753,0.235124
1702327492765625,-10.82992,0.242942,0.247954,1.456391,0.278953,0.239824
1702327492773437,-10.207992,0.187942,0.247954,1.432691,0.241653,0.256424
1702327492781250,-10.51992,0.207058,0.145954,1.401191,0.231753,0.250424
1702327492789062,-10.90992,0.99058,0.226954,1.336791,0.186153,0.249824
1702327492796875,-10.31992,0.238058,0.402954,1.332791,0.143353,0.260024
1702327492804687,-10.37992,0.433058,0.303954,1.322191,0.184653,0.275824
1702327492812500,-10.144992,0.262058,0.629954,1.243091,0.185853,0.273724
1702327492820312,-10.222992,0.236058,0.679954,1.232091,0.161453,0.277124
1702327492828125,-10.151992,0.126058,0.695954,1.252691,0.191353,0.302324
1702327492835937,-10.52992,0.295058,0.591954,1.273191,0.184753,0.295724
1702327492843750,-9.771992,0.251058,0.683954,1.326591,0.248953,0.328324
1702327492851562,-9.852992,0.110058,0.629954,1.417691,0.282853,0.314324
1702327492859375,-9.995992,0.494058,0.595954,1.389491,0.242253,0.316424
1702327492867187,-9.613992,0.544058,0.282954,1.306791,0.197853,0.335524
1702327492875000,-9.916992,0.96058,0.697954,1.268791,0.212053,0.320024
1702327492882812,-10.108992,0.146058,0.909954,1.339291,0.110253,0.345824
1702327492890625,-9.942992,0.6058,0.479954,1.327591,0.13747,0.367624
1702327492898437,-10.161992,0.38058,0.589954,1.330391,0.48247,0.366324
1702327492906250,-10.105992,0.79942,0.584954,1.362791,0.74147,0.401524
1702327492914062,-10.142992,0.295058,0.631954,1.350991,0.39647,0.386824
1702327492921875,-9.786992,0.826058,0.780954,1.310091,0.12047,0.382324
1702327492929687,-9.597992,0.952058,0.877954,1.312291,0.65747,0.363224
1702327492937500,-9.580992,0.716058,0.656954,1.355791,0.33347,0.373924
1702327492945312,-9.849992,0.517058,0.769954,1.365791,0.35453,0.368424
1702327492953125,-10.44992,0.757058,0.886954,1.364291,0.44953,0.347524
1702327492960937,-10.21992,1.29058,-1.14954,1.373491,0.22853,0.337524
1702327492968750,-9.932992,0.793058,0.983954,1.379991,0.15447,0.346124
1702327492976562,-9.967992,0.423058,0.902954,1.410191,0.17047,0.332824
1702327492984375,-10.4992,0.344058,0.719954,1.423391,0.747,0.306724
1702327492992187,-10.127992,0.448058,0.598954,1.402391,0.46653,0.272824
1702327493000000,-10.40992,0.491058,0.501954,1.368091,0.71553,0.293824
1702327493007812,-9.975992,0.536058,0.365954,1.376991,0.150253,0.277024
1702327493015625,-9.919992,0.397058,0.616954,1.371091,0.174953,0.276824
1702327493023437,-9.702992,0.193058,0.551954,1.398291,0.113553,0.256324
1702327493031250,-9.663992,0.573058,0.811954,1.388291,0.63253,0.229124
1702327493039062,-9.488992,0.877058,0.471954,1.341691,0.21853,0.235024
1702327493046875,-9.316992,0.903058,0.347954,1.281291,0.43653,0.237024
1702327493054687,-9.60992,0.824058,0.73954,1.260991,0.49553,0.197124
1702327493062500,-9.143992,0.335058,0.81046,1.253991,0.98853,0.180724
1702327493070312,-9.535992,0.292058,0.3046,1.264891,0.84253,0.187024
1702327493078125,-9.540992,0.896058,0.131046,1.239791,0.9053,0.176524
1702327493085937,-9.555992,0.554058,0.95954,1.224191,0.10647,0.165624
1702327493093750,-9.773992,0.238058,0.224954,1.255591,0.14047,0.158824
1702327493101562,-9.866992,0.419058,0.204954,1.245391,0.5947,0.126624
1702327493109375,-9.930992,0.511058,0.251954,1.209691,0.26653,0.110724
1702327493117187,-9.862992,0.348058,0.143954,1.223691,0.95753,0.87324
1702327493125000,-9.715992,0.741058,0.68954,1.208791,0.169153,0.56524
1702327493132812,-9.446992,1.25058,0.12954,1.164791,0.154253,0.47524
1702327493140625,-9.428992,0.506058,0.5954,1.230591,0.183553,0.48224
1702327493148437,-9.441992,0.422058,0.210046,1.264391,0.226053,0.26524
1702327493156250,-9.784992,0.379058,0.162046,1.216991,0.163453,0.2876
1702327493164062,-9.777992,0.806058,0.46046,1.228491,0.136153,0.1476
1702327493171875,-9.555992,0.548058,0.77954,1.220591,0.121053,0.18876
1702327493179687,-9.285992,0.486058,0.176046,1.185191,0.110053,0.29876
1702327493187500,-9.369992,0.283058,0.84046,1.147691,0.131353,0.27976
1702327493195312,-9.557992,0.375058,0.89954,1.151891,0.87053,0.24476
1702327493203125,-9.556992,0.456058,0.39046,1.113691,0.44953,0.49776
1702327493210937,-9.585992,0.138058,0.66046,1.81391,0.36453,0.36276
1702327493218750,-9.565992,0.468058,0.280046,1.51791,0.52853,0.40876
1702327493226562,-9.708992,0.570058,0.219046,0.997591,0.44153,0.41476
1702327493234375,-9.782992,0.835058,0.163046,0.958091,0.33453,0.52576
1702327493242187,-9.727992,0.783058,0.48046,0.924091,0.15153,0.34176
1702327493250000,-9.636992,0.704058,0.239046,0.898891,0.2453,0.14576
1702327493257812,-9.747992,1.21058,0.296046,0.839191,0.15753,0.2776
1702327493265625,-9.965992,0.882058,0.296046,0.795291,0.35353,0.3976
1702327493273437,-10.25992,0.874058,0.235046,0.720091,0.23953,0.9476
1702327493281250,-10.126992,0.665058,0.397046,0.664291,0.11153,0.24976
1702327493289062,-10.115992,0.570058,0.534046,0.627891,0.27053,0.42176
1702327493296875,-9.993992,0.710058,0.588046,0.584891,0.23553,0.26976
1702327493304687,-9.897992,0.409058,0.552046,0.512691,0.6547,0.10824
1702327493312500,-9.915992,0.154058,0.424046,0.453691,0.54047,0.37624
1702327493320312,-9.908992,0.551058,0.428046,0.390591,0.67147,0.40124
1702327493328125,-10.49992,0.482058,0.199046,0.351791,0.81347,0.45324
1702327493335937,-10.55992,0.283058,0.399046,0.320391,0.71847,0.36024
1702327493343750,-9.978992,0.563058,0.275046,0.229591,0.34147,0.28824
1702327493351562,-9.708992,0.561058,0.30046,0.201791,0.66447,0.25924
1702327493359375,-9.628992,0.631058,0.0,0.193291,0.68647,0.19824
1702327493367187,-9.552992,0.776058,0.12046,0.135091,0.59547,0.12024
1702327493375000,-9.528992,0.851058,0.68046,0.85591,0.32247,0.20724
1702327493382812,-9.513992,0.609058,0.217046,0.35691,0.7153,0.22624
1702327493390625,-9.579992,0.484058,0.323046,0.7709,0.12353,0.14924
1702327493398437,-9.626992,0.503058,0.430046,0.72609,0.15053,0.176
1702327493406250,-9.684992,0.475058,0.550046,0.140309,0.40053,0.22376
1702327493414062,-9.710992,0.504058,0.669046,0.209609,0.73353,0.38176
1702327493421875,-9.770992,0.473058,0.681046,0.281909,0.66953,0.30876
1702327493429687,-9.756992,0.447058,0.622046,0.349909,0.52253,0.13876
1702327493437500,-9.728992,0.406058,0.471046,0.414609,0.6553,0.9576
1702327493445312,-9.649992,0.396058,0.314046,0.479309,0.14747,0.3776
1702327493453125,-9.589992,0.428058,0.140046,0.532609,0.32647,0.6276
1702327493460937,-9.511992,0.456058,0.63046,0.562709,0.36347,0.21776
1702327493468750,-9.487992,0.513058,0.52046,0.604109,0.21047,0.23276
1702327493476562,-9.545992,0.625058,0.163046,0.656009,0.9547,0.21176
1702327493484375,-9.676992,0.658058,0.226046,0.713409,0.13653,0.27276
1702327493492187,-9.795992,0.620058,0.237046,0.773209,0.41353,0.21776
1702327493500000,-9.875992,0.593058,0.248046,0.817609,0.49453,0.16376
1702327493507812,-9.886992,0.544058,0.244046,0.859309,0.40253,0.9676
1702327493515625,-9.821992,0.479058,0.183046,0.891909,0.28053,0.10476
1702327493523437,-9.749992,0.455058,0.165046,0.927709,0.26853,0.5924
1702327493531250,-9.791992,0.405058,0.167046,0.950909,0.61353,0.1024
1702327493539062,-9.929992,0.329058,0.210046,0.997609,0.79753,0.9424
1702327493546875,-9.996992,0.288058,0.226046,-1.71809,0.73253,0.23224
1702327493554687,-10.5992,0.264058,0.142046,-1.129209,0.55153,0.46724
1702327493562500,-10.13992,0.222058,0.5954,-1.165809,0.27253,0.53824
1702327493570312,-9.995992,0.239058,0.233954,-1.194209,0.18247,0.68824
1702327493578125,-9.947992,0.301058,0.393954,-1.220309,0.64447,0.76124
1702327493585937,-9.814992,0.407058,0.490954,-1.247009,0.77347,0.81324
1702327493593750,-9.775992,0.387058,0.550954,-1.259309,0.67547,0.73324
1702327493601562,-9.634992,0.422058,0.508954,-1.279709,0.69347,0.63924
1702327493609375,-9.560992,0.455058,0.465954,-1.293609,0.46347,0.60724
1702327493617187,-9.521992,0.512058,0.366954,-1.332809,0.20247,0.62624
1702327493625000,-9.398992,0.586058,0.292954,-1.366009,0.5653,0.54924
1702327493632812,-9.401992,0.608058,0.269954,-1.393609,0.14453,0.64624
1702327493640625,-9.410992,0.628058,0.296954,-1.420209,0.9753,0.72924
1702327493648437,-9.503992,0.553058,0.417954,-1.448609,0.21147,0.79824
1702327493656250,-9.574992,0.461058,0.499954,-1.472509,0.61947,0.93224
1702327493664062,-9.575992,0.404058,0.521954,-1.495309,0.89747,0.119524
1702327493671875,-9.546992,0.399058,0.535954,-1.509609,0.128847,0.124824
1702327493679687,-9.530992,0.383058,0.507954,-1.527009,0.153047,0.142724
1702327493687500,-9.532992,0.367058,0.544954,-1.548609,0.181147,0.165924
1702327493695312,-9.538992,0.332058,0.641954,-1.575909,0.202547,0.182624
1702327493703125,-9.540992,0.290058,0.634954,-1.585409,0.217247,0.179624
1702327493710937,-9.574992,0.323058,0.521954,-1.582509,0.221347,0.172724
1702327493718750,-9.622992,0.369058,0.462954,-1.587709,0.213547,0.169724
1702327493726562,-9.669992,0.370058,0.519954,-1.587909,0.200747,0.166524
1702327493734375,-9.664992,0.301058,0.546954,-1.582709,0.210347,0.155124
1702327493742187,-9.634992,0.285058,0.586954,-1.586109,0.233447,0.153824
1702327493750000,-9.651992,0.198058,0.701954,-1.610909,0.240047,0.136424
1702327493757812,-9.798992,0.145058,0.710954,-1.612309,0.254947,0.112424
1702327493765625,-9.847992,0.99058,0.665954,-1.624309,0.263047,0.94824
1702327493773437,-9.778992,0.1942,0.767954,-1.633109,0.276147,0.70824
1702327493781250,-9.770992,0.56942,0.706954,-1.637509,0.266647,0.40324
1702327493789062,-9.923992,0.220942,0.848954,-1.656509,0.188947,0.42824
1702327493796875,-10.8992,0.259942,0.960954,-1.654909,0.164847,0.23524
1702327493804687,-10.6992,0.219942,0.821954,-1.656809,0.180147,0.2924
1702327493812500,-9.897992,0.167942,0.695954,-1.637109,0.167047,0.26476
1702327493820312,-9.869992,0.97942,0.652954,-1.627409,0.152347,0.36376
1702327493828125,-9.900992,0.14058,0.595954,-1.607709,0.155247,0.51276
1702327493835937,-9.871992,0.40058,0.677954,-1.619109,0.181947,0.68476
1702327493843750,-9.779992,0.85058,0.706954,-1.604709,0.196647,0.78276
1702327493851562,-9.757992,0.85058,0.726954,-1.601209,0.186847,0.89676
1702327493859375,-9.706992,0.104058,0.787954,-1.604009,0.193147,0.92976
1702327493867187,-9.645992,0.116058,0.783954,-1.623309,0.192047,0.103776
1702327493875000,-9.699992,0.124058,0.794954,-1.619109,0.154047,0.113976
1702327493882812,-9.686992,0.139058,0.773954,-1.644009,0.137447,0.110676
1702327493890625,-9.689992,0.52058,0.787954,-1.658409,0.134247,0.103976
1702327493898437,-9.749992,0.22058,0.749954,-1.655209,0.150547,0.105576
1702327493906250,-9.784992,0.60058,0.618954,-1.653309,0.145147,0.91376
1702327493914062,-9.927992,0.18058,0.571954,-1.652409,0.137347,0.83176
1702327493921875,-10.90992,0.123058,0.519954,-1.687609,0.132747,0.76176
1702327493929687,-10.193992,0.216058,0.670954,-1.749709,0.159147,0.62176
1702327493937500,-10.192992,0.182058,0.794954,-1.771209,0.196247,0.58676
1702327493945312,-10.115992,0.159058,0.859954,-1.798109,0.235547,0.61276
1702327493953125,-10.16992,0.126058,0.920954,-1.824909,0.261647,0.59176
1702327493960937,-9.939992,0.107058,0.936954,-1.834509,0.253547,0.57476
1702327493968750,-9.902992,0.174058,0.970954,-1.830209,0.226147,0.59176
1702327493976562,-9.869992,0.193058,0.974954,-1.830809,0.196147,0.57976
1702327493984375,-9.877992,0.282058,0.974954,-1.832709,0.171947,0.62776
1702327493992187,-9.841992,0.254058,0.908954,-1.836309,0.169747,0.67976
1702327494000000,-9.861992,0.241058,0.827954,-1.858609,0.182847,0.62676
1702327494007812,-9.880992,0.355058,0.776954,-1.882709,0.184847,0.65476
1702327494015625,-9.910992,0.409058,0.814954,-1.915209,0.184547,0.68476
1702327494023437,-9.813992,0.336058,0.935954,-1.944609,0.197347,0.69776
1702327494031250,-9.721992,0.239058,-1.23954,-1.957209,0.192547,0.74376
1702327494039062,-9.776992,0.7942,-1.161954,-1.972209,0.184847,0.67576
1702327494046875,-9.829992,0.191942,-1.206954,-1.963809,0.176247,0.64676
1702327494054687,-9.839992,0.262942,-1.141954,-1.930409,0.166047,0.54076
1702327494062500,-9.881992,0.352942,-1.51954,-1.905709,0.143447,0.46376
1702327494070312,-9.843992,0.441942,0.974954,-1.875409,0.136647,0.50076
1702327494078125,-9.963992,0.559942,0.839954,-1.856209,0.160447,0.59376
1702327494085937,-9.987992,0.612942,0.776954,-1.853909,0.177847,0.53176
1702327494093750,-9.872992,0.607942,0.776954,-1.829009,0.199147,0.51676
1702327494101562,-9.735992,0.576942,0.684954,-1.805909,0.228947,0.58076
1702327494109375,-9.762992,0.471942,0.587954,-1.802709,0.210947,0.56576
1702327494117187,-9.757992,0.536942,0.679954,-1.780009,0.148147,0.33376
1702327494125000,-9.659992,0.584942,0.724954,-1.743909,0.141647,0.35476
1702327494132812,-9.577992,0.667942,0.607954,-1.682309,0.142247,0.18176
1702327494140625,-9.576992,0.583942,0.609954,-1.637709,0.115647,0.19076
1702327494148437,-9.598992,0.571942,0.607954,-1.594409,0.129047,0.9676
1702327494156250,-9.579992,0.674942,0.625954,-1.566109,0.151947,0.13076
1702327494164062,-9.588992,0.545942,0.670954,-1.536309,0.147247,0.23076
1702327494171875,-9.656992,0.612942,0.681954,-1.506409,0.150647,0.28276
1702327494179687,-9.750992,0.534942,0.769954,-1.523009,0.158447,0.37876
1702327494187500,-9.772992,0.535942,0.855954,-1.530109,0.178447,0.29376
1702327494195312,-9.821992,0.530942,0.830954,-1.528009,0.175847,0.27476
1702327494203125,-9.822992,0.530942,0.803954,-1.505609,0.173747,0.19876
1702327494210937,-9.844992,0.512942,0.706954,-1.471209,0.167247,0.12276
1702327494218750,-9.862992,0.538942,0.641954,-1.438209,0.146047,0.11176
1702327494226562,-9.910992,0.495942,0.677954,-1.402109,0.159047,0.8376
1702327494234375,-9.818992,0.501942,0.535954,-1.381709,0.150847,0.6976
1702327494242187,-9.820992,0.510942,0.648954,-1.362109,0.126247,0.25176
1702327494250000,-9.803992,0.441942,0.537954,-1.342009,0.147747,0.30076
1702327494257812,-9.710992,0.483942,0.641954,-1.354409,0.137947,0.31576
1702327494265625,-9.733992,0.596942,0.776954,-1.376309,0.175647,0.47176
1702327494273437,-9.775992,0.608942,0.754954,-1.378509,0.193847,0.40476
1702327494281250,-9.768992,0.644942,0.835954,-1.375109,0.156047,0.34376
1702327494289062,-9.705992,0.660942,0.886954,-1.354609,0.136447,0.31576
1702327494296875,-9.649992,0.630942,0.814954,-1.336109,0.130147,0.34876
1702327494304687,-9.614992,0.571942,0.738954,-1.285409,0.100547,0.32576
1702327494312500,-9.595992,0.666942,0.806954,-1.254709,0.97447,0.15076
1702327494320312,-9.604992,0.822942,0.709954,-1.216409,0.101947,0.12476
1702327494328125,-9.606992,0.930942,0.598954,-1.179509,0.88947,0.14424
1702327494335937,-9.654992,0.896942,0.555954,-1.182409,0.77147,0.27124
1702327494343750,-9.731992,0.855942,0.513954,-1.165909,0.83947,0.41624
1702327494351562,-9.770992,0.835942,0.456954,-1.153109,0.67247,0.55724
1702327494359375,-9.809992,0.787942,0.486954,-1.154909,0.62447,0.59024
1702327494367187,-9.794992,0.854942,0.441954,-1.153209,0.75447,0.57424
1702327494375000,-9.777992,0.832942,0.371954,-1.129409,0.68847,0.52224
1702327494382812,-9.748992,0.799942,0.306954,-1.113209,0.72947,0.49224
1702327494390625,-9.725992,0.802942,0.209954,-1.91109,0.79347,0.47324
1702327494398437,-9.756992,0.854942,0.188954,-1.78109,0.80947,0.34224
1702327494406250,-9.723992,0.820942,0.161954,-1.50709,0.80647,0.27324
1702327494414062,-9.798992,0.752942,0.103954,-1.29509,0.68147,0.25624
1702327494421875,-9.875992,0.728942,0.121954,-1.27409,0.66247,0.22224
1702327494429687,-9.909992,0.706942,0.112954,-1.29409,0.77747,0.28824
1702327494437500,-9.917992,0.734942,0.134954,-1.31309,0.77847,0.36924
1702327494445312,-9.939992,0.749942,0.155954,-1.30409,0.68247,0.51524
1702327494453125,-9.900992,0.803942,0.159954,-1.21809,0.81747,0.61424
1702327494460937,-9.817992,0.822942,0.62954,-1.5109,0.77847,0.59224
1702327494468750,-9.803992,0.822942,0.44954,-1.5109,0.66347,0.64024
1702327494476562,-9.811992,0.774942,0.44954,0.993909,0.79247,0.63824
1702327494484375,-9.760992,0.708942,0.51954,0.980409,0.97647,0.59124
1702327494492187,-9.731992,0.706942,0.26954,0.957309,0.90547,0.52124
1702327494500000,-9.727992,0.662942,0.38954,0.962709,0.71547,0.45924
1702327494507812,-9.748992,0.604942,0.13954,0.954809,0.63547,0.37724
1702327494515625,-9.732992,0.626942,0.52046,0.952809,0.56747,0.35924
1702327494523437,-9.673992,0.658942,0.65046,0.938309,0.43547,0.30724
1702327494531250,-9.648992,0.721942,0.119046,0.925809,0.40447,0.24224
1702327494539062,-9.667992,0.789942,0.193046,0.907109,0.33947,0.30424
1702327494546875,-9.673992,0.834942,0.216046,0.889009,0.20247,0.33024
1702327494554687,-9.706992,0.864942,0.245046,0.865809,0.4047,0.42424
1702327494562500,-9.749992,0.841942,0.288046,0.853409,0.5653,0.43924
1702327494570312,-9.775992,0.774942,0.299046,0.841209,0.2747,0.47124
1702327494578125,-9.823992,0.731942,0.293046,0.816309,0.14347,0.45324
1702327494585937,-9.838992,0.651942,0.293046,0.817509,0.41747,0.47024
1702327494593750,-9.843992,0.589942,0.282046,0.807909,0.77547,0.45424
1702327494601562,-9.845992,0.498942,0.320046,0.811209,0.105447,0.44024
1702327494609375,-9.778992,0.468942,0.322046,0.807909,0.100547,0.37524
1702327494617187,-9.760992,0.453942,0.293046,0.792809,0.92947,0.31124
1702327494625000,-9.731992,0.422942,0.309046,0.784509,0.74647,0.32324
1702327494632812,-9.774992,0.388942,0.293046,0.776609,0.56847,0.22524
1702327494640625,-9.820992,0.374942,0.345046,0.765009,0.40047,0.26924
1702327494648437,-9.864992,0.376942,0.383046,0.751909,0.37447,0.28724
1702327494656250,-9.884992,0.428942,0.423046,0.738109,0.50747,0.33524
1702327494664062,-9.862992,0.502942,0.428046,0.725209,0.73647,0.14124
1702327494671875,-9.841992,0.571942,0.419046,0.703909,0.94447,0.4124
1702327494679687,-9.798992,0.625942,0.358046,0.679209,0.96547,0.8776
1702327494687500,-9.835992,0.693942,0.284046,0.648809,0.96547,0.26976
1702327494695312,-9.879992,0.739942,0.311046,0.623809,0.91647,0.22476
1702327494703125,-9.885992,0.772942,0.326046,0.600209,0.101547,0.29076
1702327494710937,-9.925992,0.792942,0.430046,0.578809,0.123147,0.30676
1702327494718750,-9.883992,0.810942,0.495046,0.563909,0.129247,0.32676
1702327494726562,-9.822992,0.820942,0.507046,0.534609,0.142447,0.23176
1702327494734375,-9.763992,0.792942,0.536046,0.510409,0.144647,0.16676
1702327494742187,-9.730992,0.799942,0.497046,0.467909,0.116847,0.20576
1702327494750000,-9.720992,0.830942,0.414046,0.434409,0.93747,0.19676
1702327494757812,-9.718992,0.842942,0.419046,0.405709,0.78647,0.8976
1702327494765625,-9.765992,0.850942,0.446046,0.376009,0.76847,0.5124
1702327494773437,-9.778992,0.874942,0.488046,0.352009,0.72647,0.11524
1702327494781250,-9.764992,0.891942,0.529046,0.316509,0.82747,0.16224
1702327494789062,-9.783992,0.883942,0.565046,0.282809,0.106747,0.15624
1702327494796875,-9.771992,0.883942,0.588046,0.250409,0.111947,0.20324
1702327494804687,-9.794992,0.860942,0.558046,0.204309,0.124147,0.13724
1702327494812500,-9.798992,0.882942,0.509046,0.162509,0.125247,0.11324
1702327494820312,-9.756992,0.883942,0.484046,0.118209,0.118447,0.12224
1702327494828125,-9.712992,0.920942,0.462046,0.92409,0.96847,0.10024
1702327494835937,-9.676992,0.929942,0.439046,0.47209,0.90847,0.0
1702327494843750,-9.701992,0.948942,0.452046,0.109,0.82747,0.2176
1702327494851562,-9.739992,0.954942,0.504046,0.26291,0.74847,0.4076
1702327494859375,-9.720992,0.881942,0.570046,0.54591,0.84547,0.4376
1702327494867187,-9.696992,0.815942,0.612046,0.84791,0.89447,0.14376
1702327494875000,-9.684992,0.747942,0.572046,0.122691,0.82647,0.8576
1702327494882812,-9.680992,0.676942,0.536046,0.151991,0.76647,0.11976
1702327494890625,-9.658992,0.625942,0.502046,0.182891,0.91547,0.5676
1702327494898437,-9.618992,0.590942,0.493046,0.218791,0.88447,0.2876
1702327494906250,-9.606992,0.537942,0.516046,0.248791,0.55747,0.4976
1702327494914062,-9.628992,0.547942,0.464046,0.278191,0.44747,0.11676
1702327494921875,-9.628992,0.537942,0.486046,0.302591,0.52447,0.16976
1702327494929687,-9.625992,0.475942,0.525046,0.299091,0.65547,0.5576
1702327494937500,-9.591992,0.437942,0.502046,0.320991,0.36147,0.2776
1702327494945312,-9.609992,0.362942,0.514046,0.349791,0.12847,0.3024
1702327494953125,-9.649992,0.381942,0.518046,0.351291,0.5053,0.4524
1702327494960937,-9.754992,0.424942,0.500046,0.359291,0.3047,0.2824
1702327494968750,-9.768992,0.355942,0.606046,0.351991,0.37947,0.6624
1702327494976562,-9.750992,0.360942,0.502046,0.390891,0.16147,0.2376
1702327494984375,-9.710992,0.318942,0.482046,0.424591,0.31447,0.7176
1702327494992187,-9.710992,0.329942,0.513046,0.415491,0.36247,0.15176
1702327495000000,-9.757992,0.357942,0.462046,0.416891,0.31447,0.16776
1702327495007812,-9.769992,0.311942,0.453046,0.451791,0.21647,0.22176
1702327495015625,-9.699992,0.300942,0.453046,0.465891,0.18547,0.31876
1702327495023437,-9.673992,0.270942,0.468046,0.480591,0.10247,0.46676
1702327495031250,-9.633992,0.237942,0.477046,0.502591,0.10753,0.55076
1702327495039062,-9.596992,0.300942,0.417046,0.528391,0.45253,0.70176
1702327495046875,-9.589992,0.203942,0.437046,0.555991,0.67053,0.69376
1702327495054687,-9.565992,0.136942,0.453046,0.558691,0.109053,0.72676
1702327495062500,-9.635992,0.109942,0.426046,0.585691,0.153353,0.63676
1702327495070312,-9.738992,0.154942,0.475046,0.572891,0.145053,0.64976
1702327495078125,-9.848992,0.98942,0.432046,0.542291,0.123653,0.49876
1702327495085937,-9.895992,0.106942,0.372046,0.544991,0.89053,0.49576
1702327495093750,-9.921992,0.197942,0.320046,0.544691,0.71153,0.42976
1702327495101562,-9.936992,0.109942,0.374046,0.532891,0.42453,0.31776
1702327495109375,-9.928992,0.24942,0.372046,0.519891,0.58853,0.13976
1702327495117187,-9.832992,0.146058,0.239046,0.541591,0.135253,0.11276
1702327495125000,-9.561992,0.82058,0.69954,0.605591,0.217053,0.40076
1702327495132812,-9.742992,0.278058,0.53954,0.596191,0.220153,0.49576
1702327495140625,-9.862992,0.69058,0.34046,0.605791,0.363153,0.50976
1702327495148437,-9.848992,0.198058,0.181954,0.607191,0.432853,0.67276
1702327495156250,-9.798992,0.306058,0.30954,0.607091,0.435953,0.72076
1702327495164062,-9.831992,0.213058,0.230046,0.628191,0.470753,0.66376
1702327495171875,-9.739992,0.238058,0.419046,0.566491,0.392253,0.63476
1702327495179687,-9.525992,0.361058,0.426046,0.482291,0.295553,0.61676
1702327495187500,-9.329992,0.447058,0.264046,0.459391,0.240553,0.61376
1702327495195312,-9.330992,0.403058,0.72046,0.483291,0.244253,0.75576
1702327495203125,-9.466992,0.294058,0.170954,0.481091,0.280853,0.74476
1702327495210937,-9.623992,0.178058,0.312954,0.468991,0.295753,0.82576
1702327495218750,-9.646992,0.341058,0.125954,0.453791,0.277453,0.62776
1702327495226562,-9.663992,0.412058,0.48954,0.423091,0.279353,0.72176
1702327495234375,-9.732992,0.387058,0.30954,0.415091,0.262853,0.79976
1702327495242187,-9.836992,0.253058,0.19954,0.404091,0.197553,0.79576
1702327495250000,-9.794992,0.123058,0.194046,0.391291,0.142253,0.69476
1702327495257812,-9.862992,0.167058,0.120046,0.345591,0.122653,0.63976
1702327495265625,-9.840992,0.359058,0.87954,0.327391,0.95953,0.63276
1702327495273437,-9.760992,0.165058,0.242954,0.349691,0.86353,0.63576
1702327495281250,-9.606992,0.227058,0.145954,0.352991,0.91453,0.60476
1702327495289062,-9.520992,0.15058,0.89954,0.332491,0.114053,0.68376
1702327495296875,-9.590992,0.87942,0.78954,0.331591,0.129253,0.65476
1702327495304687,-9.638992,0.200942,0.112954,0.304191,0.86453,0.59876
1702327495312500,-9.665992,0.183942,0.136954,0.259291,0.56653,0.50876
1702327495320312,-9.856992,0.11942,0.159954,0.237891,0.57753,0.47076
1702327495328125,-9.927992,0.77942,0.85954,0.230791,0.84353,0.45776
1702327495335937,-9.968992,0.106058,0.84954,0.195791,0.89653,0.68176
1702327495343750,-10.195992,0.248058,0.208954,0.175791,0.81153,0.41976
1702327495351562,-10.69992,0.228058,0.186954,0.166391,0.22653,0.30276
1702327495359375,-10.91992,0.197058,0.42954,0.153691,0.9453,0.38076
1702327495367187,-10.118992,0.313058,0.111954,0.124291,0.8153,0.39476
1702327495375000,-9.982992,0.291058,0.100954,0.106091,0.33347,0.41876
1702327495382812,-9.949992,0.181058,0.64954,0.86291,0.50947,0.46576
1702327495390625,-9.934992,0.106058,0.170954,0.59491,0.44647,0.55876
1702327495398437,-9.863992,0.91058,0.229954,0.51991,0.39247,0.43176
1702327495406250,-9.840992,0.62058,0.240954,0.53691,0.14747,0.43376
1702327495414062,-9.782992,0.24942,0.199954,0.62891,0.13247,0.41776
1702327495421875,-9.754992,0.30058,0.188954,0.75791,0.8153,0.40576
1702327495429687,-9.762992,0.6942,0.173954,0.79191,0.7553,0.27376
1702327495437500,-9.788992,0.37942,0.159954,0.100091,0.7953,0.21376
1702327495445312,-9.806992,0.106942,0.136954,0.103691,0.11653,0.18376
1702327495453125,-9.859992,0.103942,0.123954,0.123491,0.21053,0.12076
1702327495460937,-9.994992,0.47058,0.220954,0.114291,0.9753,0.15176
1702327495468750,-9.907992,0.59058,0.281954,0.125991,0.8847,0.18076
1702327495476562,-9.765992,0.70058,0.339954,0.127391,0.18647,0.14776
1702327495484375,-9.703992,0.104058,0.359954,0.127691,0.29747,0.5276
1702327495492187,-9.691992,0.168058,0.316954,0.143591,0.45947,0.10176
1702327495500000,-9.685992,0.222058,0.312954,0.133691,0.72247,0.4976
1702327495507812,-9.655992,0.317058,0.364954,0.129091,0.90147,0.4876
1702327495515625,-9.660992,0.381058,0.409954,0.125191,0.89847,0.19576
1702327495523437,-9.604992,0.404058,0.463954,0.107891,0.78447,0.20976
1702327495531250,-9.569992,0.479058,0.384954,0.105891,0.69047,0.27276
1702327495539062,-9.608992,0.477058,0.321954,0.118491,0.42147,0.37676
1702327495546875,-9.685992,0.496058,0.262954,0.105491,0.34347,0.43876
1702327495554687,-9.762992,0.427058,0.240954,0.100591,0.39347,0.43676
1702327495562500,-9.806992,0.365058,0.253954,0.88491,0.48947,0.51676
1702327495570312,-9.812992,0.317058,0.260954,0.86691,0.65247,0.45076
1702327495578125,-9.810992,0.297058,0.251954,0.76991,0.84847,0.36776
1702327495593750,-9.856992,0.260058,0.406954,0.55591,0.104847,0.18476
1702327495601562,-9.789992,0.243058,0.427954,0.54491,0.102647,0.7476
1702327495609375,-9.696992,0.204058,0.402954,0.60191,0.99747,0.4076
1702327495617187,-9.646992,0.170058,0.375954,0.58991,0.97847,0.2676
1702327495625000,-9.668992,0.119058,0.348954,0.76391,0.101047,0.2876
1702327495632812,-9.706992,0.142058,0.325954,0.74591,0.115747,0.3724
1702327495640625,-9.727992,0.173058,0.287954,0.65991,0.133947,0.15324
1702327495648437,-9.813992,0.203058,0.271954,0.74591,0.139947,0.16624
1702327495656250,-9.859992,0.282058,0.260954,0.75191,0.150147,0.33024
1702327495664062,-9.835992,0.355058,0.224954,0.73291,0.160047,0.36424
1702327495671875,-9.859992,0.319058,0.199954,0.76491,0.171447,0.36424
1702327495679687,-9.906992,0.285058,0.120954,0.78891,0.176847,0.35024
1702327495687500,-9.897992,0.242058,0.41954,0.73291,0.185947,0.44524
1702327495695312,-9.918992,0.210058,0.26954,0.46291,0.187847,0.44924
1702327495703125,-9.939992,0.219058,0.73954,0.25591,0.189547,0.48524
1702327495710937,-9.941992,0.203058,0.123954,0.9791,0.184747,0.48724
1702327495718750,-9.934992,0.185058,0.136954,0.11509,0.171247,0.47024
