time,Acceleration X (m/s^2),Acceleration Y (m/s^2),Acceleration Z (m/s^2),Angular Velocity X (rad/s),Angular Velocity Y (rad/s),Angular Velocity Z (rad/s)
1696781375460937,-8.668065,1.703741,-4.248833,-0.016117,,
1696781375468750,-8.668065,1.703741,-4.239833,0.36896,0.4574,0.18017
1696781375476562,-8.672065,1.700741,-4.207833,0.30896,0.2874,0.13117
1696781375484375,-8.688065,1.703741,-4.201833,0.25296,0.6674,0.18317
1696781375492187,-8.690065,1.701741,-4.194833,0.29096,0.15974,0.21317
1696781375500000,-8.697065,1.698741,-4.180833,0.36896,0.15974,0.19617
1696781375515625,-8.742065,1.699741,-4.219833,0.24096,0.25874,0.19917
1696781375523437,-8.733065,1.699741,-4.210833,0.25996,0.38674,0.19817
1696781375531250,-8.726065,1.690741,-4.217833,0.23796,0.40774,0.21717
1696781375539062,-8.730065,1.668741,-4.203833,0.24396,0.41974,0.21517
1696781375562500,-8.716065,1.643741,-4.183833,0.25796,0.53474,0.23217
1696781375570312,-8.736065,1.633741,-4.196833,0.23996,0.65074,0.21717
1696781375578125,-8.745065,1.628741,-4.190833,0.29896,0.68574,0.23417
1696781375585937,-8.754065,1.622741,-4.187833,0.29696,0.67074,0.21917
1696781375593750,-8.769065,1.611741,-4.178833,0.27896,0.80374,0.20517
1696781375601562,-8.774065,1.616741,-4.169833,0.36296,0.78274,0.23417
1696781375609375,-8.790065,1.618741,-4.151833,0.32296,0.80474,0.23717
1696781375617187,-8.797065,1.616741,-4.138833,0.35096,0.94274,0.24917
1696781375625000,-8.806065,1.620741,-4.144833,0.33196,0.99474,0.21917
1696781375632812,-8.813065,1.623741,-4.131833,0.37896,0.107674,0.20317
1696781375640625,-8.820065,1.627741,-4.110833,0.35196,0.120374,0.21817
1696781375648437,-8.835065,1.619741,-4.93833,0.32996,0.128974,0.23717
1696781375656250,-8.828065,1.619741,-4.68833,0.43796,0.135674,0.20517
1696781375664062,-8.840065,1.632741,-4.66833,0.32896,0.137174,0.22217
1696781375671875,-8.860065,1.632741,-4.45833,0.31896,0.146574,0.20417
1696781375679687,-8.864065,1.637741,-4.39833,0.31096,0.148774,0.22317
1696781375687500,-8.871065,1.639741,-4.45833,0.36296,0.163074,0.20617
1696781375695312,-8.890065,1.668741,-4.34833,0.32396,0.157074,0.22417
1696781375703125,-8.896065,1.662741,-4.39833,0.28096,0.166574,0.20817
1696781375710937,-8.898065,1.624741,-4.72833,0.26396,0.174774,0.22517
1696781375718750,-8.891065,1.613741,-4.104833,0.48196,0.181474,0.20817
1696781375726562,-8.896065,1.611741,-4.102833,0.32396,0.184774,0.22617
1696781375734375,-8.898065,1.626741,-4.77833,0.27796,0.188074,0.17817
1696781375742187,-8.887065,1.639741,-4.45833,0.23496,0.197574,0.14617
1696781375750000,-8.896065,1.657741,-4.7833,0.21696,0.210674,0.21217
1696781375757812,-8.899065,1.691741,-3.971833,0.10196,0.222574,0.15117
1696781375765625,-8.892065,1.697741,-3.969833,0.8496,0.232374,0.16817
1696781375773437,-8.899065,1.724741,-3.982833,0.19396,0.233974,0.23217
1696781375781250,-8.915065,1.720741,-3.948833,0.24296,0.243774,0.16717
1696781375789062,-8.927065,1.733741,-3.957833,0.16796,0.246674,0.16617
1696781375796875,-8.949065,1.727741,-3.937833,0.2396,0.253374,0.20117
1696781375804687,-8.949065,1.723741,-3.910833,0.8396,0.268274,0.20217
1696781375812500,-8.949065,1.723741,-3.885833,0.1796,0.274874,0.23717
1696781375820312,-8.936065,1.724741,-3.874833,0.896,0.277774,0.18717
1696781375828125,-8.915065,1.713741,-3.863833,0.1304,0.286574,0.12617
1696781375835937,-8.918065,1.718741,-3.836833,0.5304,0.292574,0.10817
1696781375843750,-8.922065,1.707741,-3.802833,0.10604,0.294574,0.14317
1696781375851562,-8.935065,1.702741,-3.779833,0.8104,0.300474,0.9117
1696781375859375,-8.937065,1.707741,-3.764833,0.2804,0.310974,0.9517
1696781375867187,-8.939065,1.689741,-3.750833,0.7404,0.319074,0.11117
1696781375875000,-8.955065,1.681741,-3.730833,0.3104,0.317674,0.9617
1696781375882812,-8.962065,1.685741,-3.690833,0.4504,0.325774,0.8017
1696781375890625,-8.969065,1.689741,-3.669833,0.2204,0.326874,0.9317
1696781375898437,-8.965065,1.705741,-3.622833,0.1996,0.338574,0.12717
1696781375906250,-8.960065,1.718741,-3.583833,0.2304,0.339874,0.14317
1696781375914062,-8.960065,1.725741,-3.554833,0.1504,0.343774,0.11317
1696781375921875,-8.960065,1.707741,-3.536833,0.2304,0.343174,0.11117
1696781375929687,-8.953065,1.690741,-3.491833,0.1904,0.352174,0.6717
1696781375937500,-8.962065,1.699741,-3.473833,0.3304,0.353874,0.317
1696781375945312,-8.962065,1.717741,-3.458833,0.1704,0.358674,0.6717
1696781375953125,-8.956065,1.725741,-3.453833,0.0,0.363574,0.217
1696781375960937,-8.956065,1.734741,-3.440833,0.15096,0.368774,0.6717
1696781375968750,-8.956065,1.727741,-3.421833,0.12896,0.366474,0.6417
1696781375976562,-8.956065,1.725741,-3.394833,0.22496,0.367974,0.9417
1696781375984375,-8.965065,1.730741,-3.367833,0.20796,0.366274,0.14317
1696781375992187,-8.963065,1.739741,-3.327833,0.22096,0.365074,0.1517
1696781376000000,-8.961065,1.752741,-3.320833,0.22296,0.361674,0.1783
1696781376007812,-8.956065,1.758741,-3.289833,0.17896,0.363174,0.3383
1696781376015625,-8.957065,1.765741,-3.252833,0.22796,0.367874,0.283
1696781376023437,-8.956065,1.752741,-3.205833,0.23596,0.371674,0.0
1696781376031250,-8.956065,1.758741,-3.153833,0.22696,0.353274,0.2917
1696781376039062,-8.961065,1.752741,-3.133833,0.25196,0.348774,0.4617
1696781376046875,-8.972065,1.761741,-3.129833,0.35996,0.342374,0.6117
1696781376054687,-8.985065,1.750741,-3.147833,0.42196,0.335974,0.2817
1696781376062500,-8.978065,1.750741,-3.109833,0.37496,0.334274,0.6117
1696781376070312,-8.990065,1.742741,-3.113833,0.24796,0.319474,0.15817
1696781376078125,-8.999065,1.735741,-3.95833,0.25696,0.320574,0.9117
1696781376085937,-9.8065,1.733741,-3.68833,0.22696,0.315674,0.5917
1696781376093750,-9.3065,1.726741,-3.48833,0.23996,0.307674,0.10717
1696781376101562,-9.7065,1.719741,-3.23833,0.24296,0.305874,0.7417
1696781376109375,-9.30065,1.727741,-3.21833,0.21696,0.293374,0.14117
1696781376117187,-9.48065,1.732741,-3.9833,0.19996,0.293374,0.19017
1696781376125000,-9.64065,1.729741,-2.998833,0.24096,0.287974,0.10517
1696781376132812,-9.64065,1.723741,-2.994833,0.22496,0.288074,0.7417
1696781376140625,-9.77065,1.718741,-2.960833,0.24596,0.277874,0.11917
1696781376148437,-9.104065,1.726741,-2.949833,0.22096,0.268674,0.12217
1696781376156250,-9.111065,1.732741,-2.935833,0.22596,0.273174,0.13717
1696781376164062,-9.107065,1.741741,-2.906833,0.24296,0.268174,0.16817
1696781376171875,-9.107065,1.763741,-2.863833,0.22596,0.263374,0.16817
1696781376179687,-9.114065,1.772741,-2.816833,0.24196,0.263374,0.16817
1696781376187500,-9.130065,1.802741,-2.804833,0.20296,0.265374,0.23517
1696781376195312,-9.139065,1.795741,-2.780833,0.19596,0.261574,0.21617
1696781376203125,-9.146065,1.795741,-2.759833,0.11396,0.253674,0.23417
1696781376210937,-9.159065,1.784741,-2.741833,0.6996,0.240374,0.21717
1696781376218750,-9.166065,1.771741,-2.725833,0.2496,0.232074,0.23217
1696781376226562,-9.168065,1.762741,-2.714833,0.1004,0.229074,0.21717
1696781376234375,-9.169065,1.749741,-2.674833,0.8104,0.229574,0.25317
1696781376242187,-9.174065,1.733741,-2.656833,0.5704,0.222474,0.23417
1696781376250000,-9.183065,1.718741,-2.649833,0.10204,0.223974,0.23417
1696781376257812,-9.185065,1.700741,-2.631833,0.19104,0.213874,0.21617
1696781376265625,-9.187065,1.691741,-2.604833,0.404,0.209174,0.19817
1696781376273437,-9.205065,1.692741,-2.597833,0.496,0.207874,0.23217
1696781376281250,-9.230065,1.687741,-2.599833,0.5996,0.208974,0.21317
1696781376289062,-9.245065,1.683741,-2.577833,0.10296,0.210874,0.23017
1696781376296875,-9.265065,1.693741,-2.541833,0.8796,0.207674,0.21417
1696781376304687,-9.284065,1.700741,-2.514833,0.3796,0.209374,0.23217
1696781376312500,-9.288065,1.720741,-2.494833,0.10396,0.204374,0.21417
1696781376320312,-9.282065,1.726741,-2.480833,0.12296,0.200874,0.22817
1696781376328125,-9.275065,1.697741,-2.480833,0.18296,0.192974,0.21217
1696781376335937,-9.281065,1.675741,-2.457833,0.25396,0.185874,0.22417
1696781376343750,-9.279065,1.669741,-2.417833,0.22796,0.188274,0.13217
1696781376351562,-9.281065,1.675741,-2.388833,0.24396,0.186674,0.13217
1696781376359375,-9.286065,1.682741,-2.374833,0.21996,0.187574,0.22517
1696781376367187,-9.272065,1.686741,-2.372833,0.23596,0.184474,0.14517
1696781376375000,-9.277065,1.695741,-2.347833,0.25396,0.182774,0.12817
1696781376382812,-9.302065,1.700741,-2.311833,0.23396,0.184674,0.14617
1696781376390625,-9.340065,1.722741,-2.302833,0.23596,0.182674,0.24117
1696781376398437,-9.356065,1.729741,-2.273833,0.25296,0.185974,0.17617
1696781376406250,-9.387065,1.726741,-2.232833,0.29396,0.194574,0.14617
1696781376414062,-9.389065,1.710741,-2.212833,0.27196,0.203074,0.22917
1696781376421875,-9.421065,1.709741,-2.205833,0.30496,0.207974,0.13217
1696781376429687,-9.414065,1.700741,-2.217833,0.41596,0.214374,0.16317
1696781376437500,-9.423065,1.686741,-2.210833,0.48396,0.213974,0.19317
1696781376445312,-9.432065,1.706741,-2.203833,0.48196,0.214174,0.16117
1696781376453125,-9.426065,1.708741,-2.205833,0.50296,0.212074,0.20717
1696781376460937,-9.428065,1.722741,-2.214833,0.48396,0.212374,0.19317
1696781376468750,-9.417065,1.722741,-2.203833,0.49596,0.225774,0.14617
1696781376476562,-9.423065,1.726741,-2.181833,0.50896,0.234074,0.11517
1696781376484375,-9.403065,1.724741,-2.144833,0.47996,0.237074,0.19517
1696781376492187,-9.421065,1.735741,-2.100833,0.42696,0.237474,0.23017
1696781376500000,-9.430065,1.747741,-2.81833,0.47396,0.242374,0.21417
1696781376507812,-9.442065,1.749741,-2.61833,0.49096,0.237374,0.22817
1696781376515625,-9.473065,1.765741,-2.30833,0.36396,0.237474,0.21417
1696781376523437,-9.491065,1.770741,-2.3833,0.32896,0.237674,0.23217
1696781376531250,-9.498065,1.745741,-1.962833,0.28696,0.250374,0.21617
1696781376539062,-9.489065,1.732741,-1.917833,0.22196,0.248874,0.23317
1696781376546875,-9.484065,1.736741,-1.906833,0.21496,0.262974,0.23117
1696781376554687,-9.475065,1.734741,-1.874833,0.19096,0.265074,0.23417
1696781376562500,-9.469065,1.740741,-1.843833,0.22996,0.272774,0.21517
1696781376570312,-9.464065,1.713741,-1.833833,0.23196,0.270974,0.23117
1696781376578125,-9.475065,1.708741,-1.836833,0.7996,0.268474,0.22017
1696781376585937,-9.475065,1.703741,-1.811833,0.6796,0.271474,0.23517
1696781376593750,-9.461065,1.698741,-1.791833,0.3596,0.276474,0.22017
1696781376601562,-9.477065,1.690741,-1.780833,0.2904,0.277974,0.31717
1696781376609375,-9.477065,1.710741,-1.768833,0.4504,0.283074,0.23817
1696781376617187,-9.477065,1.714741,-1.753833,0.5504,0.289274,0.23717
1696781376625000,-9.475065,1.730741,-1.753833,0.8104,0.278374,0.32017
1696781376632812,-9.489065,1.712741,-1.730833,0.15004,0.285774,0.36617
1696781376640625,-9.490065,1.697741,-1.705833,0.21904,0.289374,0.40117
1696781376648437,-9.493065,1.705741,-1.701833,0.18704,0.284474,0.36817
1696781376656250,-9.477065,1.687741,-1.669833,0.19504,0.283974,0.38117
1696781376664062,-9.472065,1.698741,-1.653833,0.24904,0.287674,0.41617
1696781376671875,-9.475065,1.676741,-1.635833,0.21404,0.285774,0.44717
1696781376679687,-9.468065,1.696741,-1.635833,0.27804,0.282574,0.41617
1696781376687500,-9.459065,1.687741,-1.604833,0.26704,0.268274,0.41717
1696781376695312,-9.456065,1.670741,-1.557833,0.30504,0.270274,0.43517
1696781376703125,-9.445065,1.667741,-1.545833,0.32904,0.264974,0.36917
1696781376710937,-9.454065,1.676741,-1.534833,0.35804,0.267974,0.43217
1696781376718750,-9.458065,1.672741,-1.523833,0.39504,0.266674,0.43517
1696781376726562,-9.452065,1.669741,-1.493833,0.30104,0.260874,0.38017
1696781376734375,-9.454065,1.657741,-1.474833,0.35304,0.263874,0.40417
1696781376742187,-9.456065,1.645741,-1.455833,0.27404,0.261174,0.39717
1696781376750000,-9.458065,1.632741,-1.431833,0.26204,0.256574,0.38217
1696781376757812,-9.469065,1.628741,-1.388833,0.28004,0.248574,0.36717
1696781376765625,-9.476065,1.632741,-1.374833,0.24404,0.236874,0.33217
1696781376773437,-9.476065,1.634741,-1.356833,0.11104,0.239674,0.34417
1696781376781250,-9.478065,1.614741,-1.318833,0.9204,0.232974,0.29517
1696781376789062,-9.469065,1.607741,-1.307833,0.3404,0.225274,0.24717
1696781376796875,-9.471065,1.601741,-1.273833,0.1696,0.220074,0.26117
1696781376804687,-9.478065,1.608741,-1.259833,0.6896,0.214374,0.23217
1696781376812500,-9.480065,1.619741,-1.246833,0.23096,0.210774,0.21217
1696781376820312,-9.476065,1.628741,-1.250833,0.24496,0.201074,0.22817
1696781376828125,-9.496065,1.614741,-1.234833,0.31496,0.197374,0.22417
1696781376835937,-9.507065,1.610741,-1.230833,0.45596,0.184374,0.20617
1696781376843750,-9.505065,1.628741,-1.221833,0.48696,0.186074,0.22217
1696781376851562,-9.512065,1.628741,-1.226833,0.50096,0.182874,0.20617
1696781376859375,-9.528065,1.628741,-1.217833,0.48496,0.184474,0.22317
1696781376867187,-9.528065,1.626741,-1.180833,0.50396,0.182774,0.14117
1696781376875000,-9.532065,1.631741,-1.154833,0.48096,0.184974,0.14417
1696781376882812,-9.559065,1.629741,-1.129833,0.49496,0.183474,0.12817
1696781376890625,-9.570065,1.631741,-1.97833,0.53196,0.184674,0.14217
1696781376898437,-9.552065,1.629741,-1.79833,0.64296,0.182974,0.17217
1696781376906250,-9.541065,1.622741,-1.93833,0.70596,0.184574,0.14017
1696781376914062,-9.538065,1.598741,-1.91833,0.76596,0.179974,0.10817
1696781376921875,-9.552065,1.580741,-1.64833,0.79696,0.179974,0.10717
1696781376929687,-9.567065,1.581741,-1.21833,0.73396,0.184874,0.12517
1696781376937500,-9.565065,1.574741,-1.21833,0.73996,0.184474,0.9017
1696781376945312,-9.567065,1.576741,-1.23833,0.78296,0.179974,0.4317
1696781376953125,-9.570065,1.590741,-1.19833,0.81296,0.173574,0.1117
1696781376960937,-9.581065,1.587741,-1.25833,0.72496,0.178074,0.1017
1696781376968750,-9.595065,1.619741,-1.7833,0.75596,0.173374,0.5383
1696781376976562,-9.595065,1.621741,0.978833,0.74296,0.168174,0.817
1696781376984375,-9.604065,1.641741,0.924833,0.74696,0.172174,0.1317
1696781376992187,-9.597065,1.632741,0.894833,0.74196,0.176274,0.4117
1696781377000000,-9.593065,1.623741,0.881833,0.74296,0.169574,0.8917
1696781377007812,-9.602065,1.630741,0.881833,0.74996,0.173374,0.12417
1696781377015625,-9.601065,1.603741,0.870833,0.73996,0.171474,0.5817
1696781377023437,-9.606065,1.594741,0.861833,0.75196,0.173274,0.12317
1696781377031250,-9.626065,1.595741,0.843833,0.73896,0.174774,0.10617
1696781377039062,-9.630065,1.602741,0.832833,0.74596,0.173774,0.7717
1696781377046875,-9.635065,1.619741,0.820833,0.71996,0.176674,0.7617
1696781377054687,-9.640065,1.604741,0.807833,0.71996,0.173374,0.9217
1696781377062500,-9.637065,1.595741,0.802833,0.61296,0.169874,0.12417
1696781377070312,-9.644065,1.599741,0.771833,0.55096,0.174774,0.10817
1696781377078125,-9.644065,1.620741,0.753833,0.49896,0.184874,0.12717
1696781377085937,-9.633065,1.642741,0.728833,0.48096,0.183174,0.22417
1696781377093750,-9.617065,1.635741,0.703833,0.47796,0.181774,0.20917
1696781377101562,-9.615065,1.615741,0.696833,0.49496,0.184874,0.22517
1696781377109375,-9.635065,1.602741,0.690833,0.44196,0.183674,0.22717
1696781377117187,-9.640065,1.600741,0.656833,0.33996,0.188074,0.21017
1696781377125000,-9.651065,1.597741,0.633833,0.29896,0.187674,0.22417
1696781377132812,-9.653065,1.586741,0.622833,0.30496,0.187274,0.20617
1696781377140625,-9.646065,1.595741,0.613833,0.33096,0.190774,0.27217
1696781377148437,-9.639065,1.588741,0.597833,0.16796,0.200974,0.22817
1696781377156250,-9.668065,1.587741,0.568833,0.15996,0.201474,0.26317
1696781377164062,-9.662065,1.582741,0.530833,0.1004,0.204474,0.29617
1696781377171875,-9.669065,1.585741,0.523833,0.804,0.192874,0.34317
1696781377179687,-9.660065,1.589741,0.500833,0.13204,0.204174,0.36117
1696781377187500,-9.653065,1.584741,0.496833,0.18304,0.204374,0.33017
1696781377195312,-9.648065,1.564741,0.476833,0.22904,0.205874,0.37917
1696781377203125,-9.650065,1.560741,0.462833,0.32304,0.208974,0.46017
1696781377210937,-9.657065,1.549741,0.442833,0.42904,0.200474,0.49117
1696781377218750,-9.657065,1.538741,0.419833,0.51404,0.212374,0.49517
1696781377226562,-9.675065,1.540741,0.419833,0.51304,0.205774,0.47917
1696781377234375,-9.684065,1.536741,0.417833,0.53004,0.220574,0.49617
1696781377242187,-9.672065,1.516741,0.413833,0.68704,0.220474,0.51417
1696781377250000,-9.656065,1.500741,0.406833,0.68704,0.220474,0.51417
1696781377257812,-9.645065,1.482741,0.383833,0.71704,0.228574,0.53017
1696781377265625,-9.642065,1.480741,0.375833,0.71204,0.227774,0.47017
1696781377273437,-9.635065,1.458741,0.365833,0.73504,0.230374,0.49917
1696781377281250,-9.635065,1.449741,0.365833,0.75204,0.238674,0.48417
1696781377289062,-9.646065,1.449741,0.354833,0.65104,0.231574,0.52817
1696781377296875,-9.648065,1.436741,0.329833,0.49504,0.235074,0.47917
1696781377304687,-9.653065,1.434741,0.316833,0.56104,0.235274,0.43317
1696781377312500,-9.648065,1.436741,0.298833,0.55104,0.237374,0.41917
1696781377320312,-9.639065,1.427741,0.262833,0.52904,0.235274,0.41617
1696781377328125,-9.646065,1.422741,0.235833,0.48004,0.243374,0.36717
1696781377335937,-9.637065,1.414741,0.212833,0.37404,0.240374,0.35117
1696781377343750,-9.639065,1.416741,0.187833,0.33804,0.241774,0.35017
1696781377351562,-9.634065,1.411741,0.174833,0.29304,0.240274,0.31717
1696781377359375,-9.648065,1.402741,0.145833,0.22604,0.228574,0.34717
1696781377367187,-9.654065,1.385741,0.111833,0.22804,0.227074,0.34717
1696781377375000,-9.643065,1.389741,0.86833,0.16204,0.228474,0.36217
1696781377382812,-9.625065,1.389741,0.109833,0.4804,0.223474,0.29517
1696781377390625,-9.618065,1.393741,0.115833,0.2604,0.223974,0.34517
1696781377398437,-9.623065,1.393741,0.86833,0.1904,0.208974,0.27917
1696781377406250,-9.627065,1.391741,0.79833,0.996,0.210774,0.27917
1696781377414062,-9.630065,1.395741,0.55833,0.21596,0.209074,0.24417
1696781377421875,-9.627065,1.382741,0.48833,0.24696,0.197674,0.21117
1696781377429687,-9.605065,1.380741,0.41833,0.25596,0.188374,0.22917
1696781377437500,-9.603065,1.380741,0.23833,0.35996,0.182874,0.20817
1696781377445312,-9.614065,1.378741,0.12833,0.43096,0.181774,0.21017
1696781377453125,-9.627065,1.389741,0.12833,0.47996,0.165474,0.14317
1696781377460937,-9.650065,1.398741,0.1833,0.56496,0.166674,0.10817
1696781377468750,-9.661065,1.401741,0.21167,0.65796,0.160174,0.18717
1696781377476562,-9.659065,1.409741,0.5833,0.77096,0.158374,0.13717
1696781377484375,-9.643065,1.398741,0.3167,0.73996,0.150174,0.13717
1696781377492187,-9.616065,1.377741,0.26167,0.76296,0.130174,0.11717
1696781377500000,-9.612065,1.389741,0.59167,0.73796,0.130874,0.10417
1696781377507812,-9.614065,1.398741,0.73167,0.78896,0.120874,0.5417
1696781377515625,-9.621065,1.404741,0.77167,0.85396,0.107674,0.3617
1696781377523437,-9.617065,1.422741,0.71167,0.83996,0.107574,0.6717
1696781377531250,-9.630065,1.427741,0.80167,0.87096,0.101174,0.1917
1696781377539062,-9.658065,1.454741,0.80167,0.83896,0.89674,0.6717
1696781377546875,-9.685065,1.454741,0.93167,0.77496,0.83174,0.8417
1696781377554687,-9.685065,1.450741,0.100167,0.74796,0.91174,0.1917
1696781377562500,-9.676065,1.456741,0.131167,0.82096,0.86674,0.3617
1696781377570312,-9.655065,1.454741,0.172167,0.82296,0.78274,0.5117
1696781377578125,-9.642065,1.443741,0.206167,0.72196,0.80374,0.7017
1696781377585937,-9.639065,1.445741,0.221167,0.82996,0.77174,0.10117
1696781377593750,-9.651065,1.434741,0.242167,0.80396,0.78474,0.11617
1696781377601562,-9.660065,1.436741,0.269167,0.78096,0.79574,0.9817
1696781377609375,-9.673065,1.447741,0.282167,0.79796,0.76174,0.9617
1696781377617187,-9.684065,1.446741,0.275167,0.74096,0.78574,0.5317
1696781377625000,-9.696065,1.457741,0.276167,0.76096,0.83074,0.9917
1696781377632812,-9.703065,1.455741,0.298167,0.74296,0.84874,0.11617
1696781377640625,-9.707065,1.453741,0.336167,0.75696,0.84974,0.10117
1696781377648437,-9.709065,1.455741,0.348167,0.73896,0.101374,0.13417
1696781377656250,-9.712065,1.459741,0.359167,0.75196,0.104774,0.15117
1696781377664062,-9.703065,1.486741,0.368167,0.72596,0.111974,0.18817
1696781377671875,-9.687065,1.493741,0.379167,0.74496,0.123174,0.18717
1696781377679687,-9.685065,1.475741,0.370167,0.70896,0.128274,0.22117
1696781377687500,-9.680065,1.472741,0.379167,0.73596,0.134074,0.20117
1696781377695312,-9.673065,1.447741,0.415167,0.67596,0.135374,0.21717
1696781377703125,-9.680065,1.452741,0.444167,0.60896,0.150374,0.20417
1696781377710937,-9.687065,1.452741,0.438167,0.65496,0.152174,0.17217
1696781377718750,-9.693065,1.446741,0.451167,0.69496,0.160774,0.19017
1696781377726562,-9.689065,1.455741,0.478167,0.61596,0.164074,0.22417
1696781377734375,-9.694065,1.459741,0.480167,0.54396,0.160374,0.20617
1696781377742187,-9.705065,1.457741,0.505167,0.48296,0.163474,0.22317
1696781377750000,-9.721065,1.471741,0.496167,0.45796,0.173874,0.22617
1696781377757812,-9.705065,1.484741,0.516167,0.43096,0.181774,0.21017
1696781377765625,-9.707065,1.464741,0.557167,0.29196,0.201174,0.22717
1696781377773437,-9.691065,1.455741,0.570167,0.40796,0.214774,0.24617
1696781377781250,-9.666065,1.430741,0.570167,0.50096,0.210074,0.21317
1696781377789062,-9.643065,1.416741,0.566167,0.47596,0.227474,0.22817
1696781377796875,-9.630065,1.418741,0.555167,0.48796,0.229374,0.21317
1696781377804687,-9.632065,1.423741,0.532167,0.51996,0.226174,0.22917
1696781377812500,-9.639065,1.417741,0.579167,0.49896,0.219974,0.21417
1696781377820312,-9.646065,1.427741,0.595167,0.47996,0.228874,0.22717
1696781377828125,-9.651065,1.443741,0.606167,0.47896,0.227374,0.21117
1696781377835937,-9.644065,1.439741,0.618167,0.48796,0.232674,0.22917
1696781377843750,-9.632065,1.405741,0.618167,0.47896,0.238674,0.26017
1696781377851562,-9.632065,1.414741,0.618167,0.51496,0.237874,0.21517
1696781377859375,-9.639065,1.401741,0.606167,0.56696,0.232574,0.26017
1696781377867187,-9.637065,1.412741,0.618167,0.70696,0.232674,0.22717
1696781377875000,-9.639065,1.418741,0.642167,0.66396,0.230774,0.24217
1696781377882812,-9.639065,1.421741,0.647167,0.69696,0.229074,0.25717
1696781377890625,-9.653065,1.432741,0.660167,0.72296,0.226174,0.25917
1696781377898437,-9.651065,1.436741,0.688167,0.72696,0.230774,0.22517
1696781377906250,-9.634065,1.430741,0.703167,0.68996,0.229574,0.21217
1696781377914062,-9.643065,1.423741,0.732167,0.73896,0.222874,0.24217
1696781377921875,-9.634065,1.414741,0.768167,0.70796,0.227774,0.22717
1696781377929687,-9.634065,1.414741,0.766167,0.68996,0.222974,0.24317
1696781377937500,-9.652065,1.423741,0.755167,0.72296,0.217974,0.29017
1696781377945312,-9.639065,1.418741,0.744167,0.70996,0.217674,0.32117
1696781377953125,-9.644065,1.425741,0.784167,0.56896,0.224174,0.30717
1696781377960937,-9.628065,1.418741,0.802167,0.47696,0.222374,0.32417
1696781377968750,-9.621065,1.407741,0.802167,0.50796,0.214374,0.22717
1696781377976562,-9.626065,1.418741,0.816167,0.55796,0.210974,0.20917
1696781377984375,-9.634065,1.403741,0.856167,0.52396,0.206174,0.24217
1696781377992187,-9.639065,1.403741,0.859167,0.51996,0.199874,0.27517
1696781378000000,-9.634065,1.396741,0.854167,0.47696,0.197974,0.27417
1696781378007812,-9.638065,1.381741,0.883167,0.49296,0.199474,0.33817
1696781378015625,-9.634065,1.399741,0.890167,0.46996,0.195074,0.34017
1696781378023437,-9.641065,1.421741,0.906167,0.38096,0.189974,0.29117
1696781378031250,-9.646065,1.421741,0.944167,0.50096,0.193574,0.29217
1696781378039062,-9.655065,1.412741,0.931167,0.37896,0.188374,0.34017
1696781378046875,-9.643065,1.394741,0.953167,0.33596,0.194674,0.27517
1696781378054687,-9.638065,1.363741,0.980167,0.33896,0.191274,0.27517
1696781378062500,-9.640065,1.346741,0.991167,0.28496,0.188374,0.34117
1696781378070312,-9.631065,1.345741,1.3167,0.27796,0.191174,0.25817
1696781378078125,-9.636065,1.345741,1.30167,0.40796,0.184374,0.27117
1696781378085937,-9.633065,1.350741,1.48167,0.31896,0.188274,0.29217
1696781378093750,-9.635065,1.326741,1.81167,0.23496,0.188474,0.35917
1696781378101562,-9.658065,1.346741,1.84167,0.23996,0.186574,0.30917
1696781378109375,-9.665065,1.355741,1.77167,0.23896,0.188274,0.35717
1696781378117187,-9.663065,1.364741,1.122167,0.22296,0.193174,0.34217
1696781378125000,-9.622065,1.374741,1.138167,0.23196,0.201774,0.39317
1696781378132812,-9.600065,1.371741,1.165167,0.22396,0.199374,0.47017
1696781378140625,-9.570065,1.338741,1.205167,0.23696,0.194774,0.42217
1696781378148437,-9.581065,1.316741,1.232167,0.21696,0.188674,0.37617
1696781378156250,-9.608065,1.287741,1.282167,0.30196,0.192974,0.45317
1696781378164062,-9.630065,1.274741,1.296167,0.37096,0.199174,0.40217
1696781378171875,-9.648065,1.284741,1.296167,0.42896,0.204374,0.38717
1696781378179687,-9.644065,1.288741,1.284167,0.49396,0.208974,0.48217
1696781378187500,-9.613065,1.287741,1.323167,0.46696,0.208774,0.46517
1696781378195312,-9.599065,1.307741,1.316167,0.45496,0.211174,0.48517
1696781378203125,-9.592065,1.305741,1.327167,0.42596,0.207774,0.43717
1696781378210937,-9.579065,1.303741,1.356167,0.37796,0.209574,0.40617
1696781378218750,-9.576065,1.285741,1.399167,0.34796,0.225574,0.47017
1696781378226562,-9.576065,1.276741,1.422167,0.25296,0.233774,0.47217
1696781378234375,-9.586065,1.314741,1.426167,0.23996,0.231974,0.47117
1696781378242187,-9.597065,1.329741,1.410167,0.44096,0.225774,0.43817
1696781378250000,-9.590065,1.320741,1.426167,0.47596,0.226974,0.51617
1696781378257812,-9.578065,1.274741,1.458167,0.45096,0.232574,0.48817
1696781378265625,-9.574065,1.251741,1.480167,0.43896,0.237274,0.47117
1696781378273437,-9.599065,1.254741,1.501167,0.47996,0.233274,0.48317
1696781378281250,-9.596065,1.250741,1.536167,0.46996,0.240474,0.47117
1696781378289062,-9.592065,1.247741,1.543167,0.52696,0.236774,0.38717
1696781378296875,-9.574065,1.249741,1.559167,0.57196,0.231974,0.41917
1696781378304687,-9.556065,1.258741,1.555167,0.49396,0.230274,0.40317
1696781378312500,-9.549065,1.269741,1.586167,0.54996,0.239074,0.32517
1696781378320312,-9.534065,1.287741,1.606167,0.45196,0.235874,0.45617
1696781378328125,-9.532065,1.306741,1.652167,0.46296,0.233474,0.45217
1696781378335937,-9.534065,1.295741,1.633167,0.41596,0.235174,0.38817
1696781378343750,-9.532065,1.293741,1.624167,0.44296,0.232174,0.42117
1696781378351562,-9.538065,1.269741,1.665167,0.49096,0.236974,0.42117
1696781378359375,-9.528065,1.253741,1.676167,0.42196,0.229374,0.37517
1696781378367187,-9.538065,1.253741,1.708167,0.41396,0.225574,0.38817
1696781378375000,-9.535065,1.249741,1.726167,0.47096,0.227574,0.37417
1696781378382812,-9.526065,1.251741,1.742167,0.49296,0.223874,0.38717
1696781378390625,-9.526065,1.244741,1.723167,0.47596,0.219174,0.37217
1696781378398437,-9.524065,1.248741,1.724167,0.59196,0.205674,0.36717
1696781378406250,-9.528065,1.238741,1.737167,0.64196,0.190174,0.38617
1696781378414062,-9.510065,1.242741,1.762167,0.64596,0.201374,0.37017
1696781378421875,-9.504065,1.262741,1.737167,0.69896,0.188074,0.28617
1696781378429687,-9.502065,1.259741,1.737167,0.69796,0.183274,0.27117
1696781378437500,-9.522065,1.271741,1.782167,0.75396,0.175474,0.35217
1696781378445312,-9.527065,1.264741,1.805167,0.60496,0.170074,0.33417
1696781378453125,-9.518065,1.271741,1.802167,0.63896,0.158474,0.33317
1696781378460937,-9.498065,1.281741,1.820167,0.59196,0.161674,0.31717
1696781378468750,-9.488065,1.252741,1.865167,0.49896,0.161674,0.27017
1696781378476562,-9.506065,1.257741,1.879167,0.51096,0.145774,0.25417
1696781378484375,-9.509065,1.257741,1.899167,0.45096,0.135574,0.31717
1696781378492187,-9.519065,1.247741,1.903167,0.49096,0.134474,0.30317
1696781378500000,-9.517065,1.233741,1.877167,0.51496,0.114474,0.25117
1696781378507812,-9.524065,1.229741,1.897167,0.46696,0.122674,0.23617
1696781378515625,-9.508065,1.206741,1.903167,0.34096,0.114574,0.23817
1696781378523437,-9.503065,1.206741,1.899167,0.39296,0.104574,0.20317
1696781378531250,-9.492065,1.230741,1.886167,0.46996,0.112674,0.25117
1696781378539062,-9.470065,1.234741,1.913167,0.44096,0.107674,0.21817
1696781378546875,-9.497065,1.240741,1.917167,0.38996,0.94974,0.20417
1696781378554687,-9.501065,1.235741,1.908167,0.40996,0.81574,0.21717
1696781378562500,-9.501065,1.207741,1.926167,0.44796,0.78974,0.20417
1696781378570312,-9.501065,1.204741,1.949167,0.34696,0.88174,0.21917
1696781378578125,-9.501065,1.211741,1.964167,0.37596,0.86674,0.20317
1696781378585937,-9.501065,1.211741,1.985167,0.43796,0.80274,0.18617
1696781378593750,-9.519065,1.204741,1.985167,0.48496,0.75274,0.21717
1696781378601562,-9.516065,1.184741,2.5167,0.50396,0.57174,0.18317
1696781378609375,-9.504065,1.144741,2.34167,0.48496,0.59074,0.15217
1696781378617187,-9.498065,1.137741,2.57167,0.50896,0.63374,0.21417
1696781378625000,-9.475065,1.128741,2.64167,0.49496,0.55174,0.14917
1696781378632812,-9.466065,1.132741,2.70167,0.54496,0.48474,0.13117
1696781378640625,-9.457065,1.135741,2.48167,0.61196,0.42774,0.11717
1696781378648437,-9.460065,1.152741,2.46167,0.63996,0.43574,0.8117
1696781378656250,-9.444065,1.188741,2.68167,0.62896,0.44374,0.6917
1696781378664062,-9.456065,1.202741,2.83167,0.49596,0.38174,0.16917
1696781378671875,-9.467065,1.206741,2.84167,0.50096,0.29774,0.16717
1696781378679687,-9.456065,1.183741,2.131167,0.56996,0.30974,0.13217
1696781378687500,-9.455065,1.166741,2.151167,0.53296,0.29574,0.23017
1696781378695312,-9.459065,1.139741,2.187167,0.46896,0.21574,0.19917
1696781378703125,-9.468065,1.133741,2.194167,0.50196,0.26474,0.10217
1696781378710937,-9.481065,1.115741,2.183167,0.56796,0.21274,0.14817
1696781378718750,-9.484065,1.120741,2.144167,0.56996,0.19574,0.14717
1696781378726562,-9.463065,1.113741,2.153167,0.63196,0.15874,0.10417
1696781378734375,-9.463065,1.104741,2.162167,0.63396,0.16274,0.11417
1696781378742187,-9.466065,1.133741,2.160167,0.53196,0.23374,0.10217
1696781378750000,-9.464065,1.144741,2.165167,0.53496,0.16574,0.13317
1696781378757812,-9.430065,1.148741,2.160167,0.57696,0.24974,0.16617
1696781378765625,-9.426065,1.141741,2.129167,0.53196,0.23174,0.18217
1696781378773437,-9.426065,1.143741,2.126167,0.56496,0.24874,0.10117
1696781378781250,-9.401065,1.141741,2.153167,0.45896,0.27174,0.18617
1696781378789062,-9.430065,1.132741,2.201167,0.48896,0.21474,0.10117
1696781378796875,-9.459065,1.137741,2.221167,0.43896,0.26274,0.19917
1696781378804687,-9.484065,1.147741,2.225167,0.43796,0.28074,0.16717
1696781378812500,-9.515065,1.140741,2.207167,0.37596,0.31374,0.13617
1696781378820312,-9.520065,1.129741,2.221167,0.32296,0.38174,0.21917
1696781378828125,-9.524065,1.112741,2.239167,0.46796,0.37874,0.20017
1696781378835937,-9.513065,1.98741,2.223167,0.38696,0.42974,0.21817
1696781378843750,-9.517065,1.89741,2.216167,0.50196,0.50774,0.19917
1696781378851562,-9.503065,1.89741,2.228167,0.35096,0.57974,0.22117
1696781378859375,-9.486065,1.95741,2.252167,0.24796,0.67274,0.20417
1696781378867187,-9.472065,1.93741,2.235167,0.26896,0.78274,0.20317
1696781378875000,-9.445065,1.91741,2.254167,0.24896,0.82874,0.22617
1696781378882812,-9.443065,1.77741,2.232167,0.24796,0.78674,0.20517
1696781378890625,-9.465065,1.84741,2.223167,0.22996,0.80474,0.22217
1696781378898437,-9.483065,1.72741,2.250167,0.23596,0.79474,0.20917
1696781378906250,-9.480065,1.60741,2.264167,0.17596,0.89074,0.24117
1696781378914062,-9.476065,1.64741,2.264167,0.22896,0.88674,0.22217
1696781378921875,-9.467065,1.38741,2.270167,0.16196,0.100374,0.22517
1696781378929687,-9.442065,1.28741,2.302167,0.17996,0.106674,0.24017
1696781378937500,-9.437065,1.36741,2.304167,0.13596,0.107574,0.21317
1696781378945312,-9.433065,1.39741,2.279167,0.8696,0.103374,0.20917
1696781378953125,-9.442065,1.42741,2.268167,0.18896,0.98974,0.24217
1696781378960937,-9.444065,1.35741,2.273167,0.24196,0.105174,0.22417
1696781378968750,-9.451065,1.26741,2.286167,0.19296,0.108374,0.27317
1696781378976562,-9.449065,1.26741,2.293167,0.9996,0.114774,0.30617
1696781378984375,-9.465065,1.48741,2.298167,0.7496,0.114374,0.28917
1696781378992187,-9.458065,1.37741,2.320167,0.5796,0.115974,0.36917
1696781379000000,-9.462065,1.21741,2.331167,0.3104,0.120474,0.38517
1696781379007812,-9.471065,1.7741,2.309167,0.8496,0.114674,0.35417
1696781379015625,-9.457065,1.4741,2.329167,0.5596,0.116174,0.35417
1696781379023437,-9.448065,0.988741,2.318167,0.3204,0.115774,0.35317
1696781379031250,-9.439065,0.975741,2.318167,0.3996,0.122674,0.33917
1696781379039062,-9.437065,0.961741,2.277167,0.6296,0.125474,0.35217
1696781379046875,-9.429065,0.948741,2.293167,0.804,0.119574,0.30717
1696781379054687,-9.420065,0.948741,2.331167,0.504,0.116174,0.29017
1696781379062500,-9.412065,0.950741,2.365167,0.1504,0.119074,0.25617
1696781379070312,-9.418065,0.957741,2.352167,0.2496,0.107974,0.33817
1696781379078125,-9.441065,0.948741,2.349167,0.1296,0.107874,0.25717
1696781379085937,-9.450065,0.951741,2.372167,0.4396,0.106174,0.28817
1696781379093750,-9.481065,0.953741,2.338167,0.6496,0.94474,0.25417
1696781379101562,-9.497065,0.960741,2.304167,0.15296,0.106374,0.23917
1696781379109375,-9.504065,0.958741,2.298167,0.23496,0.101174,0.25317
1696781379117187,-9.492065,0.942741,2.325167,0.15796,0.106074,0.20617
1696781379125000,-9.478065,0.914741,2.349167,0.22796,0.108274,0.22417
1696781379132812,-9.458065,0.915741,2.352167,0.24996,0.101374,0.20517
1696781379140625,-9.440065,0.919741,2.343167,0.34196,0.96574,0.22017
1696781379148437,-9.434065,0.901741,2.322167,0.33696,0.94274,0.20117
1696781379156250,-9.473065,0.887741,2.333167,0.35696,0.81974,0.23617
1696781379164062,-9.458065,0.882741,2.437167,0.36796,0.82774,0.21617
1696781379171875,-9.420065,0.897741,2.462167,0.41196,0.81474,0.20117
1696781379179687,-9.415065,0.908741,2.410167,0.48896,0.76674,0.18417
1696781379187500,-9.411065,0.925741,2.367167,0.51996,0.71774,0.21517
1696781379195312,-9.423065,0.939741,2.340167,0.50096,0.70374,0.21717
1696781379203125,-9.400065,0.950741,2.363167,0.50296,0.71874,0.20017
1696781379210937,-9.387065,0.956741,2.417167,0.64996,0.68274,0.18017
1696781379218750,-9.412065,0.961741,2.458167,0.61596,0.74974,0.21417
1696781379226562,-9.427065,0.937741,2.471167,0.66296,0.73274,0.19717
1696781379234375,-9.422065,0.910741,2.493167,0.75096,0.76974,0.21417
1696781379242187,-9.438065,0.908741,2.491167,0.79596,0.82074,0.19917
1696781379250000,-9.449065,0.906741,2.469167,0.78396,0.86674,0.21417
1696781379257812,-9.447065,0.904741,2.471167,0.76896,0.80174,0.19817
1696781379265625,-9.447065,0.906741,2.480167,0.73696,0.83474,0.19817
1696781379273437,-9.445065,0.924741,2.473167,0.78296,0.93274,0.21517
1696781379281250,-9.411065,0.930741,2.475167,0.87496,0.99974,0.19917
1696781379289062,-9.405065,0.923741,2.491167,0.87996,0.106074,0.21317
1696781379296875,-9.394065,0.941741,2.512167,0.92996,0.104374,0.19617
1696781379304687,-9.403065,0.961741,2.516167,0.92196,0.104874,0.21517
1696781379312500,-9.387065,0.965741,2.523167,0.97296,0.106274,0.16417
1696781379320312,-9.394065,0.954741,2.527167,0.100696,0.104474,0.16317
1696781379328125,-9.394065,0.961741,2.545167,0.97196,0.111174,0.21317
1696781379335937,-9.396065,0.974741,2.570167,0.104996,0.111374,0.13217
1696781379343750,-9.414065,0.990741,2.595167,0.111296,0.116274,0.13217
1696781379351562,-9.413065,1.10741,2.577167,0.111096,0.124474,0.18117
1696781379359375,-9.397065,1.17741,2.604167,0.105896,0.131274,0.19917
1696781379367187,-9.359065,1.14741,2.611167,0.104496,0.132774,0.21517
1696781379375000,-9.379065,1.12741,2.646167,0.108696,0.133174,0.20117
1696781379382812,-9.383065,0.996741,2.685167,0.101896,0.130874,0.18217
1696781379390625,-9.358065,0.985741,2.698167,0.98696,0.132474,0.19817
1696781379398437,-9.356065,0.982741,2.698167,0.100396,0.134174,0.11817
1696781379406250,-9.356065,0.991741,2.692167,0.98496,0.137574,0.15117
1696781379414062,-9.343065,0.995741,2.708167,0.100796,0.137174,0.11717
1696781379421875,-9.338065,1.7741,2.705167,0.83496,0.142974,0.22017
1696781379429687,-9.341065,1.20741,2.710167,0.76796,0.142174,0.20117
1696781379437500,-9.343065,1.20741,2.725167,0.79196,0.141074,0.20317
1696781379445312,-9.370065,1.9741,2.737167,0.73796,0.133974,0.18517
1696781379453125,-9.365065,1.741,2.746167,0.73996,0.130574,0.18417
1696781379460937,-9.340065,0.987741,2.770167,0.63996,0.139074,0.18717
1696781379468750,-9.333065,0.996741,2.795167,0.67896,0.137974,0.17317
1696781379476562,-9.340065,1.1741,2.804167,0.62596,0.146574,0.19317
1696781379484375,-9.340065,0.998741,2.813167,0.62396,0.135774,0.22017
1696781379492187,-9.332065,1.4741,2.807167,0.73296,0.142374,0.20317
1696781379500000,-9.334065,1.2741,2.798167,0.73796,0.133974,0.16817
1696781379507812,-9.314065,0.999741,2.804167,0.75596,0.135474,0.18417
1696781379515625,-9.309065,0.982741,2.813167,0.72196,0.137374,0.8917
1696781379523437,-9.338065,0.978741,2.811167,0.69796,0.137874,0.10817
1696781379531250,-9.331065,0.989741,2.818167,0.59296,0.147274,0.12417
1696781379539062,-9.309065,0.993741,2.840167,0.70096,0.140874,0.13917
1696781379546875,-9.305065,1.8741,2.870167,0.73796,0.145374,0.13717
1696781379554687,-9.287065,1.1741,2.876167,0.62796,0.148674,0.15517
1696781379562500,-9.311065,0.993741,2.883167,0.59796,0.135774,0.2617
1696781379570312,-9.316065,0.991741,2.908167,0.61496,0.137074,0.16917
1696781379578125,-9.307065,0.988741,2.928167,0.52296,0.131974,0.16917
1696781379585937,-9.311065,0.986741,2.921167,0.48596,0.143874,0.12417
1696781379593750,-9.295065,0.980741,2.921167,0.58996,0.149274,0.7717
1696781379601562,-9.264065,0.986741,2.935167,0.56596,0.147174,0.4317
1696781379609375,-9.269065,1.3741,2.928167,0.58896,0.143374,0.7217
1696781379617187,-9.269065,1.6741,2.924167,0.67696,0.147074,0.7317
1696781379625000,-9.257065,1.8741,2.933167,0.64296,0.155374,0.9117
1696781379632812,-9.246065,1.3741,2.953167,0.62296,0.152374,0.12517
1696781379640625,-9.267065,1.1741,2.987167,0.74196,0.153374,0.10417
1696781379648437,-9.271065,0.997741,2.973167,0.68896,0.152074,0.12317
1696781379656250,-9.273065,0.988741,2.957167,0.75196,0.157074,0.9017
1696781379664062,-9.273065,0.986741,2.973167,0.65596,0.158674,0.17217
1696781379671875,-9.255065,0.990741,3.167,0.73696,0.155274,0.18617
1696781379679687,-9.264065,0.990741,3.50167,0.68896,0.150474,0.13917
1696781379687500,-9.277065,0.990741,3.32167,0.73096,0.158874,0.14017
1696781379695312,-9.246065,0.996741,3.14167,0.75396,0.155074,0.18517
1696781379703125,-9.232065,0.961741,3.70167,0.76196,0.157474,0.10817
1696781379710937,-9.234065,0.948741,3.131167,0.73496,0.161974,0.12317
1696781379718750,-9.239065,0.977741,3.131167,0.74996,0.158774,0.10717
1696781379726562,-9.210065,0.991741,3.120167,0.73896,0.160074,0.12117
1696781379734375,-9.194065,0.998741,3.104167,0.75096,0.165174,0.10717
1696781379742187,-9.199065,0.993741,3.97167,0.73996,0.160074,0.10517
1696781379750000,-9.233065,1.3741,3.99167,0.75396,0.156874,0.10617
1696781379757812,-9.240065,1.1741,3.120167,0.73896,0.163274,0.12217
1696781379765625,-9.239065,0.997741,3.162167,0.74896,0.165374,0.10817
1696781379773437,-9.235065,0.987741,3.180167,0.62496,0.170074,0.12517
1696781379781250,-9.237065,0.994741,3.174167,0.67296,0.173274,0.17217
1696781379789062,-9.217065,0.989741,3.178167,0.73496,0.183074,0.15617
1696781379796875,-9.176065,0.976741,3.232167,0.74996,0.171774,0.14017
1696781379804687,-9.197065,0.993741,3.246167,0.67796,0.164774,0.13817
1696781379812500,-9.187065,0.980741,3.259167,0.59196,0.171674,0.19017
1696781379820312,-9.165065,0.989741,3.255167,0.54696,0.174874,0.19017
1696781379828125,-9.161065,0.986741,3.250167,0.56096,0.168374,0.22217
1696781379835937,-9.172065,0.978741,3.250167,0.65596,0.156974,0.20417
1696781379843750,-9.169065,0.973741,3.273167,0.56096,0.168474,0.20617
1696781379851562,-9.158065,0.977741,3.327167,0.45296,0.168274,0.19017
1696781379859375,-9.154065,0.991741,3.338167,0.48596,0.163274,0.22117
1696781379867187,-9.161065,1.741,3.329167,0.34196,0.158574,0.20817
1696781379875000,-9.136065,1.6741,3.338167,0.36096,0.156674,0.22217
1696781379882812,-9.129065,1.4741,3.338167,0.33996,0.157074,0.20817
1696781379890625,-9.149065,0.991741,3.343167,0.32396,0.158674,0.22517
1696781379898437,-9.144065,0.966741,3.381167,0.27896,0.156874,0.20817
1696781379906250,-9.140065,0.970741,3.388167,0.24196,0.157874,0.22217
1696781379914062,-9.151065,0.966741,3.385167,0.27696,0.155374,0.24117
1696781379921875,-9.136065,0.955741,3.410167,0.28696,0.156374,0.23817
1696781379929687,-9.120065,0.952741,3.471167,0.23996,0.157974,0.22217
1696781379937500,-9.99065,0.941741,3.482167,0.24796,0.153674,0.20817
1696781379945312,-9.111065,0.948741,3.494167,0.25096,0.150074,0.25517
1696781379953125,-9.126065,0.924741,3.500167,0.26596,0.143674,0.22317
1696781379960937,-9.128065,0.911741,3.511167,0.23296,0.148674,0.22417
1696781379968750,-9.124065,0.910741,3.514167,0.25296,0.146774,0.20617
1696781379976562,-9.119065,0.912741,3.512167,0.28296,0.148474,0.27117
1696781379984375,-9.92065,0.895741,3.538167,0.26096,0.155374,0.27317
1696781379992187,-9.78065,0.883741,3.554167,0.23096,0.153774,0.20917
1696781380000000,-9.80065,0.875741,3.552167,0.27396,0.139274,0.27317
1696781380007812,-9.64065,0.870741,3.583167,0.30296,0.142574,0.33817
1696781380015625,-9.49065,0.872741,3.601167,0.21396,0.156974,0.25817
1696781380023437,-9.48065,0.849741,3.592167,0.30996,0.153574,0.27217
1696781380031250,-9.28065,0.843741,3.617167,0.37296,0.158574,0.22317
1696781380039062,-9.51065,0.845741,3.608167,0.32796,0.153474,0.23917
1696781380046875,-9.26065,0.841741,3.619167,0.35096,0.152374,0.25717
1696781380054687,-9.19065,0.843741,3.642167,0.26796,0.162474,0.26017
1696781380062500,-9.25065,0.843741,3.689167,0.30096,0.157574,0.21117
1696781380070312,-9.50065,0.827741,3.710167,0.43396,0.150474,0.23917
1696781380078125,-9.48065,0.828741,3.689167,0.48996,0.157474,0.28917
1696781380085937,-9.34065,0.830741,3.651167,0.51996,0.159074,0.35317
1696781380093750,-9.12065,0.818741,3.676167,0.50996,0.157074,0.33517
1696781380101562,-9.25065,0.812741,3.707167,0.47496,0.157274,0.35317
1696781380109375,-9.7065,0.807741,3.730167,0.47496,0.154074,0.33717
1696781380117187,-8.982065,0.814741,3.730167,0.54896,0.159174,0.37017
1696781380125000,-8.971065,0.811741,3.739167,0.68496,0.156974,0.31617
1696781380132812,-8.966065,0.800741,3.772167,0.69296,0.157474,0.30317
1696781380140625,-8.971065,0.800741,3.784167,0.55296,0.160574,0.33617
1696781380148437,-8.980065,0.794741,3.790167,0.56296,0.160974,0.32217
1696781380156250,-8.982065,0.798741,3.802167,0.68096,0.168674,0.27017
1696781380164062,-8.980065,0.820741,3.808167,0.70696,0.169074,0.27217
1696781380171875,-8.998065,0.834741,3.806167,0.72496,0.162374,0.27117
1696781380179687,-8.994065,0.838741,3.802167,0.74296,0.167074,0.30217
1696781380187500,-8.962065,0.838741,3.844167,0.67196,0.169174,0.32117
1696781380195312,-8.956065,0.837741,3.858167,0.67696,0.165474,0.38417
1696781380203125,-8.965065,0.842741,3.874167,0.72796,0.153974,0.34917
1696781380210937,-8.956065,0.840741,3.867167,0.62896,0.163974,0.36917
1696781380218750,-8.943065,0.841741,3.854167,0.71596,0.166574,0.39717
1696781380226562,-8.943065,0.853741,3.854167,0.73896,0.173674,0.38317
1696781380234375,-8.956065,0.844741,3.872167,0.72396,0.167174,0.36717
1696781380242187,-8.958065,0.827741,3.874167,0.73396,0.160974,0.38517
1696781380250000,-8.955065,0.815741,3.892167,0.72396,0.165474,0.39917
1696781380257812,-8.953065,0.809741,3.883167,0.73196,0.157874,0.40117
1696781380265625,-8.933065,0.813741,3.943167,0.71496,0.162874,0.38617
1696781380273437,-8.918065,0.846741,3.968167,0.74196,0.162074,0.36617
1696781380281250,-8.911065,0.879741,3.952167,0.71596,0.169374,0.38617
1696781380289062,-8.896065,0.881741,3.964167,0.70296,0.172474,0.35317
1696781380296875,-8.923065,0.874741,3.978167,0.71396,0.160374,0.30117
1696781380304687,-8.941065,0.864741,4.18167,0.64796,0.165374,0.36717
1696781380312500,-8.918065,0.872741,4.2167,0.55996,0.158374,0.38217
1696781380320312,-8.900065,0.881741,4.5167,0.60096,0.168674,0.36817
1696781380328125,-8.913065,0.850741,3.995167,0.72596,0.165374,0.39817
1696781380335937,-8.900065,0.830741,4.27167,0.69796,0.168374,0.41417
1696781380343750,-8.884065,0.816741,4.25167,0.72496,0.171874,0.43117
1696781380351562,-8.863065,0.796741,4.31167,0.60596,0.179174,0.38817
1696781380359375,-8.866065,0.816741,4.36167,0.69296,0.175174,0.41617
1696781380367187,-8.879065,0.805741,4.61167,0.62896,0.178574,0.40117
1696781380375000,-8.890065,0.797741,4.79167,0.58196,0.176974,0.38517
1696781380382812,-8.879065,0.812741,4.99167,0.59996,0.173374,0.46417
1696781380390625,-8.839065,0.824741,4.110167,0.56996,0.178274,0.38417
1696781380398437,-8.854065,0.827741,4.133167,0.56396,0.173774,0.41817
1696781380406250,-8.848065,0.811741,4.176167,0.56696,0.165474,0.41717
1696781380414062,-8.836065,0.800741,4.173167,0.53296,0.164074,0.37017
1696781380421875,-8.812065,0.797741,4.144167,0.64996,0.174874,0.43117
1696781380429687,-8.800065,0.797741,4.144167,0.64696,0.170274,0.38417
1696781380437500,-8.811065,0.764741,4.140167,0.52396,0.173374,0.36817
1696781380445312,-8.808065,0.738741,4.155167,0.53496,0.181874,0.40217
1696781380453125,-8.801065,0.724741,4.220167,0.49996,0.190274,0.35617
1696781380460937,-8.822065,0.740741,4.245167,0.46896,0.177174,0.38817
1696781380468750,-8.815065,0.745741,4.239167,0.46896,0.178874,0.37217
1696781380476562,-8.804065,0.740741,4.259167,0.44996,0.182274,0.42117
1696781380484375,-8.788065,0.744741,4.257167,0.45596,0.183474,0.38717
1696781380492187,-8.759065,0.737741,4.300167,0.46296,0.173274,0.38517
1696781380500000,-8.761065,0.732741,4.342167,0.49196,0.168674,0.33717
1696781380507812,-8.743065,0.719741,4.351167,0.45596,0.162274,0.40317
1696781380515625,-8.731065,0.706741,4.338167,0.46696,0.164174,0.42017
1696781380523437,-8.724065,0.692741,4.349167,0.48496,0.159374,0.33917
1696781380531250,-8.740065,0.706741,4.371167,0.45896,0.165474,0.33817
1696781380539062,-8.745065,0.699741,4.369167,0.46096,0.162074,0.33717
1696781380546875,-8.740065,0.692741,4.381167,0.42296,0.156674,0.27017
1696781380554687,-8.731065,0.694741,4.378167,0.45996,0.165374,0.35317
1696781380562500,-8.724065,0.684741,4.391167,0.38596,0.161174,0.35817
1696781380570312,-8.715065,0.696741,4.398167,0.20796,0.150674,0.38817
1696781380578125,-8.711065,0.688741,4.405167,0.37896,0.147774,0.25817
1696781380585937,-8.708065,0.667741,4.412167,0.44696,0.148974,0.28817
1696781380593750,-8.699065,0.641741,4.446167,0.44496,0.147474,0.32017
1696781380601562,-8.687065,0.609741,4.477167,0.46096,0.155574,0.33617
1696781380609375,-8.687065,0.589741,4.491167,0.48296,0.155174,0.33417
1696781380617187,-8.680065,0.591741,4.475167,0.49696,0.150374,0.30217
1696781380625000,-8.647065,0.591741,4.493167,0.48496,0.151874,0.22117
1696781380632812,-8.635065,0.604741,4.511167,0.47396,0.157574,0.20917
1696781380640625,-8.658065,0.629741,4.507167,0.52996,0.152074,0.22117
1696781380648437,-8.629065,0.633741,4.522167,0.71496,0.147474,0.20417
1696781380656250,-8.627065,0.631741,4.525167,0.61896,0.152474,0.22217
1696781380664062,-8.640065,0.602741,4.534167,0.58696,0.149174,0.23817
1696781380671875,-8.622065,0.608741,4.559167,0.69196,0.148574,0.20217
1696781380679687,-8.613065,0.600741,4.563167,0.72396,0.154374,0.22217
1696781380687500,-8.592065,0.590741,4.599167,0.74696,0.147474,0.20417
1696781380695312,-8.620065,0.593741,4.606167,0.73396,0.152274,0.13917
1696781380703125,-8.613065,0.626741,4.612167,0.74796,0.144174,0.17117
1696781380710937,-8.609065,0.646741,4.622167,0.73996,0.140374,0.16817
1696781380718750,-8.589065,0.648741,4.648167,0.73196,0.149074,0.15517
1696781380726562,-8.578065,0.646741,4.642167,0.68396,0.149074,0.18817
1696781380734375,-8.582065,0.659741,4.626167,0.75196,0.137374,0.15317
1696781380742187,-8.585065,0.650741,4.626167,0.77196,0.133774,0.15117
1696781380750000,-8.613065,0.637741,4.646167,0.72596,0.134774,0.20517
1696781380757812,-8.609065,0.661741,4.624167,0.60796,0.130874,0.21917
1696781380765625,-8.589065,0.654741,4.631167,0.62596,0.132374,0.20217
1696781380773437,-8.567065,0.654741,4.653167,0.75296,0.127374,0.21617
1696781380781250,-8.582065,0.628741,4.676167,0.73496,0.121074,0.20117
1696781380789062,-8.602065,0.606741,4.682167,0.75096,0.122774,0.18517
1696781380796875,-8.597065,0.617741,4.675167,0.73096,0.111574,0.21817
1696781380804687,-8.604065,0.601741,4.714167,0.75296,0.111174,0.20017
1696781380812500,-8.613065,0.604741,4.757167,0.55996,0.114674,0.21917
1696781380820312,-8.598065,0.639741,4.761167,0.68296,0.111674,0.20317
1696781380828125,-8.558065,0.665741,4.728167,0.77196,0.107574,0.21417
1696781380835937,-8.531065,0.678741,4.714167,0.69796,0.104074,0.21317
1696781380843750,-8.537065,0.674741,4.698167,0.61996,0.109974,0.20417
1696781380851562,-8.569065,0.663741,4.732167,0.55496,0.100874,0.21517
1696781380859375,-8.573065,0.656741,4.732167,0.59696,0.101274,0.20117
1696781380867187,-8.573065,0.641741,4.766167,0.67496,0.106174,0.21617
1696781380875000,-8.582065,0.626741,4.766167,0.61096,0.99774,0.20117
1696781380882812,-8.575065,0.619741,4.754167,0.70296,0.104674,0.24917
1696781380890625,-8.580065,0.612741,4.712167,0.75896,0.105774,0.21317
1696781380898437,-8.550065,0.614741,4.694167,0.73496,0.109574,0.23217
1696781380906250,-8.536065,0.589741,4.736167,0.70796,0.107674,0.21517
1696781380914062,-8.541065,0.585741,4.777167,0.63996,0.117774,0.23417
1696781380921875,-8.563065,0.594741,4.802167,0.46896,0.109574,0.21917
1696781380929687,-8.555065,0.619741,4.829167,0.65496,0.108074,0.23417
1696781380937500,-8.526065,0.616741,4.809167,0.58196,0.107674,0.23317
1696781380945312,-8.485065,0.622741,4.786167,0.58396,0.104274,0.23217
1696781380953125,-8.474065,0.613741,4.815167,0.50496,0.110774,0.24917
1696781380960937,-8.487065,0.611741,4.851167,0.48696,0.107674,0.26617
1696781380968750,-8.470065,0.619741,4.838167,0.48896,0.110774,0.24917
1696781380976562,-8.442065,0.605741,4.833167,0.53696,0.107574,0.23317
1696781380984375,-8.462065,0.586741,4.849167,0.52596,0.106674,0.20417
1696781380992187,-8.489065,0.569741,4.856167,0.48696,0.107774,0.20217
1696781381000000,-8.482065,0.586741,4.851167,0.49896,0.114474,0.23517
1696781381007812,-8.473065,0.586741,4.860167,0.43196,0.122774,0.31817
1696781381015625,-8.462065,0.588741,4.890167,0.48396,0.122574,0.28417
1696781381023437,-8.455065,0.562741,4.923167,0.48196,0.124474,0.20517
1696781381031250,-8.452065,0.533741,4.930167,0.49596,0.121174,0.26917
1696781381039062,-8.434065,0.539741,4.905167,0.47996,0.129374,0.27017
1696781381046875,-8.419065,0.559741,4.916167,0.52896,0.132474,0.23617
1696781381054687,-8.459065,0.546741,4.939167,0.55896,0.134174,0.30117
1696781381062500,-8.475065,0.553741,4.944167,0.45296,0.133874,0.30117
1696781381070312,-8.450065,0.535741,4.946167,0.48796,0.132074,0.23517
1696781381078125,-8.430065,0.521741,4.989167,0.48296,0.130874,0.20517
1696781381085937,-8.434065,0.510741,4.996167,0.50896,0.134974,0.23317
1696781381093750,-8.427065,0.519741,4.984167,0.48096,0.135874,0.22217
1696781381101562,-8.394065,0.525741,4.982167,0.50396,0.133774,0.20317
1696781381109375,-8.378065,0.503741,4.989167,0.56496,0.135574,0.20317
1696781381117187,-8.400065,0.518741,5.22167,0.53296,0.132274,0.23517
1696781381125000,-8.416065,0.517741,5.34167,0.48496,0.124174,0.25217
1696781381132812,-8.402065,0.510741,5.47167,0.49596,0.132674,0.22117
1696781381140625,-8.395065,0.497741,5.51167,0.47996,0.126274,0.20617
1696781381148437,-8.405065,0.494741,5.40167,0.48896,0.120674,0.21817
1696781381156250,-8.396065,0.508741,5.52167,0.49996,0.119374,0.20417
1696781381164062,-8.387065,0.501741,5.58167,0.48796,0.110974,0.21817
1696781381171875,-8.376065,0.507741,5.67167,0.50396,0.109374,0.20217
1696781381179687,-8.360065,0.498741,5.72167,0.46596,0.116274,0.22117
1696781381187500,-8.362065,0.507741,5.81167,0.48996,0.118974,0.20217
1696781381195312,-8.360065,0.511741,5.108167,0.48696,0.101274,0.18617
1696781381203125,-8.360065,0.502741,5.101167,0.50896,0.95974,0.21517
1696781381210937,-8.357065,0.480741,5.128167,0.40796,0.104574,0.20317
1696781381218750,-8.364065,0.478741,5.119167,0.45496,0.102874,0.21817
1696781381226562,-8.366065,0.454741,5.119167,0.50696,0.97774,0.20017
1696781381234375,-8.362065,0.458741,5.119167,0.49696,0.98974,0.21417
1696781381242187,-8.350065,0.460741,5.108167,0.58096,0.102874,0.20117
1696781381250000,-8.334065,0.449741,5.112167,0.55096,0.101174,0.21717
1696781381257812,-8.334065,0.467741,5.110167,0.59496,0.103074,0.16917
1696781381265625,-8.325065,0.451741,5.126167,0.61396,0.101274,0.13617
1696781381273437,-8.289065,0.457741,5.162167,0.61296,0.109374,0.23317
1696781381281250,-8.292065,0.475741,5.157167,0.72196,0.107874,0.20017
1696781381289062,-8.292065,0.472741,5.158167,0.72496,0.109274,0.21417
1696781381296875,-8.292065,0.474741,5.173167,0.71396,0.108974,0.18117
1696781381304687,-8.269065,0.484741,5.182167,0.65496,0.108074,0.20217
1696781381312500,-8.254065,0.497741,5.180167,0.66996,0.111374,0.21817
1696781381320312,-8.254065,0.488741,5.175167,0.64096,0.111274,0.20117
1696781381328125,-8.265065,0.470741,5.160167,0.73396,0.108174,0.18517
1696781381335937,-8.256065,0.474741,5.162167,0.75496,0.109374,0.19917
1696781381343750,-8.265065,0.479741,5.189167,0.73796,0.109474,0.16717
1696781381351562,-8.285065,0.437741,5.225167,0.83496,0.109274,0.21317
1696781381359375,-8.269065,0.455741,5.254167,0.86096,0.111474,0.10317
1696781381367187,-8.233065,0.481741,5.263167,0.78896,0.121774,0.15517
1696781381375000,-8.209065,0.512741,5.247167,0.72796,0.110174,0.18717
1696781381382812,-8.199065,0.540741,5.230167,0.83496,0.111074,0.11717
1696781381390625,-8.209065,0.536741,5.245167,0.85496,0.105274,0.12117
1696781381398437,-8.245065,0.505741,5.284167,0.72296,0.102974,0.13517
1696781381406250,-8.277065,0.517741,5.290167,0.72696,0.107574,0.13417
1696781381414062,-8.248065,0.527741,5.281167,0.75696,0.105974,0.19817
1696781381421875,-8.246065,0.527741,5.279167,0.73996,0.109374,0.16717
1696781381429687,-8.239065,0.521741,5.288167,0.71896,0.109774,0.16917
1696781381437500,-8.229065,0.514741,5.313167,0.56196,0.104874,0.18617
1696781381445312,-8.223065,0.516741,5.335167,0.68796,0.106374,0.21717
1696781381453125,-8.241065,0.494741,5.320167,0.73796,0.106274,0.19917
1696781381460937,-8.227065,0.496741,5.311167,0.75096,0.109674,0.18417
1696781381468750,-8.216065,0.485741,5.326167,0.70196,0.108074,0.20117
1696781381476562,-8.220065,0.480741,5.356167,0.62796,0.102974,0.18417
1696781381484375,-8.209065,0.498741,5.356167,0.59596,0.104674,0.15317
1696781381492187,-8.207065,0.489741,5.367167,0.73896,0.96374,0.16617
1696781381500000,-8.204065,0.478741,5.338167,0.73896,0.96374,0.15017
1696781381507812,-8.180065,0.475741,5.324167,0.73896,0.94774,0.16617
1696781381515625,-8.184065,0.482741,5.329167,0.75196,0.83574,0.15017
1696781381523437,-8.187065,0.497741,5.358167,0.77596,0.78174,0.13117
1696781381531250,-8.191065,0.475741,5.365167,0.74596,0.73274,0.9917
1696781381539062,-8.184065,0.480741,5.376167,0.75896,0.68474,0.11517
1696781381546875,-8.191065,0.513741,5.381167,0.75996,0.66674,0.17917
1696781381554687,-8.198065,0.518741,5.347167,0.72296,0.54074,0.13317
1696781381562500,-8.178065,0.520741,5.337167,0.70396,0.52774,0.11817
1696781381570312,-8.169065,0.527741,5.353167,0.68996,0.42774,0.13317
1696781381578125,-8.160065,0.520741,5.398167,0.64196,0.36374,0.13317
1696781381585937,-8.156065,0.528741,5.403167,0.52296,0.30974,0.11617
1696781381593750,-8.162065,0.522741,5.441167,0.74296,0.22874,0.12917
1696781381601562,-8.178065,0.504741,5.432167,0.69596,0.16274,0.11317
1696781381609375,-8.182065,0.502741,5.430167,0.62696,0.2674,0.9417
1696781381617187,-8.175065,0.493741,5.457167,0.63296,0.3226,0.9717
1696781381625000,-8.186065,0.480741,5.466167,0.70396,0.21626,0.6117
1696781381632812,-8.186065,0.476741,5.475167,0.65496,0.23126,0.4617
1696781381640625,-8.180065,0.477741,5.466167,0.75796,0.26926,0.2617
1696781381648437,-8.177065,0.460741,5.471167,0.77396,0.25226,0.917
1696781381656250,-8.177065,0.453741,5.475167,0.75896,0.26926,0.2283
1696781381664062,-8.161065,0.457741,5.446167,0.72296,0.28226,0.483
1696781381671875,-8.108065,0.470741,5.435167,0.82296,0.44926,0.4083
1696781381679687,-8.119065,0.475741,5.437167,0.82796,0.47326,0.6883
1696781381687500,-8.132065,0.470741,5.453167,0.77196,0.46226,0.5483
1696781381695312,-8.148065,0.471741,5.452167,0.76896,0.73726,0.7083
1696781381703125,-8.164065,0.477741,5.459167,0.78496,0.70526,0.2383
1696781381710937,-8.155065,0.479741,5.439167,0.81696,0.70526,0.5583
1696781381718750,-8.137065,0.486741,5.426167,0.94496,0.73926,0.5883
1696781381726562,-8.124065,0.490741,5.419167,0.93196,0.78926,0.10783
1696781381734375,-8.121065,0.486741,5.425167,0.91296,0.77026,0.13783
1696781381742187,-8.106065,0.498741,5.426167,0.95296,0.82526,0.12583
1696781381750000,-8.81065,0.500741,5.403167,0.92296,0.85726,0.18983
1696781381757812,-8.75065,0.514741,5.369167,0.96396,0.88626,0.18883
1696781381765625,-8.79065,0.538741,5.358167,0.96296,0.80426,0.17183
1696781381773437,-8.104065,0.547741,5.360167,0.93096,0.83626,0.18683
1696781381781250,-8.118065,0.550741,5.363167,0.93696,0.85626,0.22183
1696781381789062,-8.118065,0.552741,5.383167,0.75796,0.91626,0.23383
1696781381796875,-8.120065,0.552741,5.378167,0.82896,0.86326,0.16783
1696781381804687,-8.122065,0.557741,5.365167,0.83696,0.96726,0.15483
1696781381812500,-8.154065,0.559741,5.385167,0.72596,0.91826,0.10483
1696781381820312,-8.167065,0.546741,5.367167,0.69796,0.91926,0.16983
1696781381828125,-8.161065,0.553741,5.356167,0.63596,0.87226,0.16983
1696781381835937,-8.170065,0.580741,5.340167,0.70796,0.88226,0.19983
1696781381843750,-8.159065,0.592741,5.302167,0.63596,0.79026,0.18483
1696781381851562,-8.170065,0.606741,5.308167,0.53696,0.86826,0.18283
1696781381859375,-8.188065,0.584741,5.329167,0.61596,0.88426,0.21583
1696781381867187,-8.213065,0.567741,5.317167,0.55696,0.80626,0.13583
1696781381875000,-8.210065,0.547741,5.236167,0.66896,0.85726,0.12183
1696781381882812,-8.206065,0.553741,5.180167,0.78296,0.85926,0.14083
1696781381890625,-8.217065,0.580741,5.196167,0.61596,0.80426,0.15083
1696781381898437,-8.226065,0.584741,5.225167,0.49996,0.81126,0.12083
1696781381906250,-8.245065,0.623741,5.286167,0.48696,0.77026,0.8483
1696781381914062,-8.265065,0.630741,5.340167,0.51796,0.78526,0.14883
1696781381921875,-8.294065,0.619741,5.326167,0.50796,0.85426,0.13483
1696781381929687,-8.326065,0.635741,5.245167,0.61896,0.87026,0.20083
1696781381937500,-8.344065,0.633741,5.160167,0.65696,0.89026,0.20283
1696781381945312,-8.366065,0.613741,5.124167,0.54896,0.94026,0.26683
1696781381953125,-8.388065,0.598741,5.117167,0.53696,0.99726,0.24683
1696781381960937,-8.379065,0.591741,5.97167,0.50996,0.93426,0.26383
1696781381968750,-8.361065,0.580741,5.61167,0.58896,0.91826,0.31283
1696781381976562,-8.336065,0.540741,5.11167,0.63796,0.88626,0.32983
1696781381984375,-8.355065,0.498741,5.7167,0.65096,0.88526,0.29683
1696781381992187,-8.368065,0.473741,5.59167,0.56196,0.79126,0.29783
1696781382000000,-8.375065,0.445741,5.112167,0.55496,0.81826,0.29483
1696781382007812,-8.370065,0.419741,5.148167,0.51996,0.83326,0.22983
1696781382015625,-8.361065,0.407741,5.171167,0.59096,0.80626,0.24883
1696781382023437,-8.354065,0.424741,5.155167,0.75196,0.88826,0.33283
1696781382031250,-8.330065,0.464741,5.128167,0.75696,0.76726,0.34483
1696781382039062,-8.319065,0.486741,5.99167,0.80596,0.88326,0.33083
1696781382046875,-8.308065,0.495741,5.131167,0.80096,0.89026,0.36583
1696781382054687,-8.306065,0.488741,5.171167,0.80696,0.94926,0.34683
1696781382062500,-8.274065,0.496741,5.160167,0.86396,0.92226,0.38283
1696781382070312,-8.254065,0.521741,5.153167,0.88696,0.103026,0.39683
1696781382078125,-8.273065,0.527741,5.173167,0.92696,0.97126,0.36783
1696781382085937,-8.286065,0.526741,5.191167,0.90696,0.100226,0.31883
1696781382093750,-8.293065,0.536741,5.185167,0.100796,0.97226,0.40183
1696781382101562,-8.275065,0.543741,5.158167,0.103996,0.103826,0.40283
1696781382109375,-8.233065,0.578741,5.108167,0.101896,0.93726,0.38483
1696781382117187,-8.215065,0.591741,5.103167,0.105996,0.99926,0.35083
1696781382125000,-8.220065,0.589741,5.113167,0.103296,0.105026,0.31983
1696781382132812,-8.222065,0.603741,5.146167,0.108796,0.112726,0.33483
1696781382140625,-8.253065,0.603741,5.169167,0.123896,0.113926,0.31883
1696781382148437,-8.267065,0.618741,5.142167,0.127196,0.129726,0.34183
1696781382156250,-8.299065,0.601741,5.106167,0.128696,0.131326,0.30983
1696781382164062,-8.334065,0.595741,5.52167,0.126496,0.129326,0.29083
1696781382171875,-8.363065,0.589741,5.4167,0.126496,0.131026,0.29083
1696781382179687,-8.390065,0.576741,4.989167,0.119796,0.127626,0.19283
1696781382187500,-8.408065,0.583741,4.998167,0.115296,0.125926,0.27283
1696781382195312,-8.426065,0.559741,5.29167,0.126296,0.122626,0.28983
1696781382203125,-8.432065,0.557741,5.47167,0.126196,0.119426,0.28983
1696781382210937,-8.435065,0.577741,5.27167,0.110896,0.127726,0.32183
1696781382218750,-8.420065,0.609741,4.962167,0.103696,0.126626,0.29083
1696781382226562,-8.394065,0.653741,4.928167,0.115996,0.126526,0.24283
1696781382234375,-8.408065,0.694741,4.959167,0.115196,0.137426,0.22483
1696781382242187,-8.462065,0.714741,4.937167,0.102296,0.143226,0.21183
1696781382250000,-8.511065,0.704741,4.953167,0.103096,0.141026,0.19283
1696781382257812,-8.538065,0.671741,4.977167,0.101496,0.139526,0.12883
1696781382265625,-8.551065,0.636741,4.968167,0.102796,0.141026,0.6383
1696781382273437,-8.528065,0.625741,4.944167,0.101096,0.139326,0.11183
1696781382281250,-8.503065,0.638741,4.901167,0.101096,0.149126,0.4783
1696781382289062,-8.490065,0.635741,4.917167,0.102596,0.145726,0.12783
1696781382296875,-8.512065,0.634741,4.950167,0.100796,0.152126,0.7883
1696781382304687,-8.515065,0.651741,4.950167,0.105196,0.150326,0.6283
1696781382312500,-8.486065,0.660741,4.919167,0.115196,0.149126,0.4983
1696781382320312,-8.472065,0.649741,4.887167,0.103296,0.153526,0.217
1696781382328125,-8.495065,0.673741,4.890167,0.111996,0.158826,0.8183
1696781382335937,-8.511065,0.691741,4.865167,0.104296,0.162226,0.6583
1696781382343750,-8.500065,0.713741,4.872167,0.106496,0.164226,0.8383
1696781382351562,-8.469065,0.741741,4.851167,0.104596,0.164126,0.283
1696781382359375,-8.449065,0.740741,4.825167,0.102696,0.173126,0.3883
1696781382367187,-8.419065,0.729741,4.804167,0.101496,0.172226,0.8283
1696781382375000,-8.442065,0.703741,4.822167,0.102896,0.178726,0.1883
1696781382382812,-8.468065,0.681741,4.822167,0.104696,0.178926,0.3583
1696781382390625,-8.504065,0.693741,4.770167,0.101296,0.178626,0.8283
1696781382398437,-8.521065,0.724741,4.757167,0.103096,0.172226,0.9883
1696781382406250,-8.558065,0.712741,4.745167,0.102796,0.167126,0.9783
1696781382414062,-8.557065,0.734741,4.673167,0.100996,0.152226,0.12783
1696781382421875,-8.525065,0.758741,4.687167,0.99496,0.153926,0.14383
1696781382429687,-8.537065,0.740741,4.707167,0.98496,0.155926,0.14583
1696781382437500,-8.547065,0.716741,4.745167,0.86696,0.147226,0.14183
1696781382445312,-8.525065,0.729741,4.705167,0.85596,0.155826,0.4783
1696781382453125,-8.532065,0.755741,4.644167,0.98296,0.157426,0.12983
1696781382460937,-8.584065,0.721741,4.658167,0.92496,0.159326,0.14683
1696781382468750,-8.588065,0.721741,4.640167,0.76496,0.152726,0.11083
1696781382476562,-8.597065,0.734741,4.640167,0.84896,0.151226,0.20983
1696781382484375,-8.601065,0.721741,4.680167,0.87596,0.154326,0.14483
1696781382492187,-8.627065,0.761741,4.667167,0.85896,0.157426,0.15983
1696781382500000,-8.657065,0.817741,4.617167,0.91996,0.155626,0.20883
1696781382507812,-8.660065,0.853741,4.601167,0.90496,0.162226,0.19283
1696781382515625,-8.696065,0.866741,4.593167,0.86696,0.162726,0.29183
1696781382523437,-8.693065,0.851741,4.601167,0.80796,0.158826,0.17483
1696781382531250,-8.675065,0.833741,4.599167,0.76596,0.172226,0.19283
1696781382539062,-8.657065,0.853741,4.529167,0.76996,0.172426,0.19383
1696781382546875,-8.617065,0.861741,4.495167,0.72896,0.181426,0.27083
1696781382554687,-8.651065,0.890741,4.446167,0.61396,0.185426,0.30483
1696781382562500,-8.628065,0.832741,4.493167,0.55596,0.187326,0.33783
1696781382570312,-8.661065,0.801741,4.521167,0.64096,0.189326,0.35783
1696781382578125,-8.688065,0.791741,4.520167,0.65096,0.196926,0.45183
1696781382585937,-8.704065,0.807741,4.469167,0.74696,0.195426,0.45383
1696781382593750,-8.724065,0.794741,4.428167,0.65196,0.200226,0.46883
1696781382601562,-8.766065,0.777741,4.421167,0.71096,0.208126,0.45283
1696781382609375,-8.791065,0.773741,4.444167,0.77496,0.203226,0.51683
1696781382617187,-8.780065,0.766741,4.383167,0.77396,0.203026,0.56483
1696781382625000,-8.744065,0.787741,4.302167,0.78496,0.216826,0.58583
1696781382632812,-8.722065,0.786741,4.264167,0.80596,0.212126,0.66683
1696781382640625,-8.706065,0.804741,4.284167,0.77996,0.211426,0.63083
1696781382648437,-8.713065,0.789741,4.270167,0.79696,0.216326,0.67983
1696781382656250,-8.726065,0.769741,4.239167,0.73896,0.216726,0.66583
1696781382664062,-8.751065,0.794741,4.275167,0.75496,0.210826,0.69183
1696781382671875,-8.771065,0.761741,4.320167,0.79296,0.211126,0.69483
1696781382679687,-8.800065,0.766741,4.289167,0.73796,0.210026,0.72883
1696781382687500,-8.800065,0.763741,4.239167,0.78596,0.211826,0.68183
1696781382695312,-8.778065,0.776741,4.214167,0.79096,0.210326,0.82783
1696781382703125,-8.760065,0.794741,4.196167,0.79796,0.208326,0.67983
1696781382710937,-8.778065,0.792741,4.153167,0.78596,0.216426,0.82583
1696781382718750,-8.771065,0.788741,4.144167,0.78396,0.214626,0.82483
1696781382726562,-8.775065,0.786741,4.142167,0.71896,0.216126,0.83983
1696781382734375,-8.776065,0.794741,4.140167,0.73496,0.218026,0.72783
1696781382742187,-8.794065,0.808741,4.122167,0.72496,0.220026,0.69783
1696781382750000,-8.819065,0.844741,4.111167,0.60996,0.214926,0.64683
1696781382757812,-8.835065,0.871741,4.88167,0.62396,0.221326,0.64683
1696781382765625,-8.869065,0.862741,4.29167,0.63496,0.212826,0.66083
1696781382773437,-8.893065,0.829741,4.45167,0.61996,0.208126,0.61283
1696781382781250,-8.918065,0.832741,4.63167,0.50196,0.212526,0.56083
1696781382789062,-8.931065,0.830741,4.7167,0.52296,0.214526,0.53083
1696781382796875,-8.902065,0.821741,3.928167,0.57496,0.210026,0.50083
1696781382804687,-8.888065,0.798741,3.888167,0.67896,0.223626,0.55383
1696781382812500,-8.899065,0.794741,3.964167,0.79796,0.231226,0.60183
1696781382820312,-8.913065,0.785741,3.978167,0.71796,0.234526,0.53583
1696781382828125,-8.917065,0.799741,3.903167,0.52496,0.236026,0.46883
1696781382835937,-8.899065,0.792741,3.865167,0.53996,0.232726,0.41983
1696781382843750,-8.908065,0.799741,3.854167,0.53796,0.226026,0.43483
1696781382851562,-8.942065,0.799741,3.800167,0.77096,0.232426,0.43783
1696781382859375,-8.981065,0.828741,3.743167,0.80596,0.232726,0.40683
1696781382867187,-9.5065,0.829741,3.770167,0.80196,0.235726,0.38983
1696781382875000,-9.24065,0.847741,3.743167,0.66396,0.234426,0.35683
1696781382882812,-9.26065,0.880741,3.752167,0.75296,0.234126,0.32483
1696781382890625,-9.38065,0.903741,3.820167,0.78896,0.237626,0.31083
1696781382898437,-9.36065,0.916741,3.797167,0.78296,0.244026,0.19683
1696781382906250,-9.36065,0.938741,3.725167,0.77096,0.244226,0.19783
1696781382914062,-9.47065,0.936741,3.719167,0.81596,0.242526,0.18183
1696781382921875,-9.56065,0.923741,3.712167,0.93796,0.245426,0.19783
1696781382929687,-9.85065,0.910741,3.658167,0.100996,0.250826,0.24983
1696781382937500,-9.90065,0.899741,3.647167,0.104296,0.246226,0.20283
1696781382945312,-9.71065,0.861741,3.644167,0.92096,0.245326,0.24583
1696781382953125,-9.55065,0.847741,3.660167,0.96596,0.244626,0.23483
1696781382960937,-9.35065,0.876741,3.665167,0.101896,0.250526,0.21583
1696781382968750,-9.35065,0.887741,3.649167,0.112996,0.248926,0.21783
1696781382976562,-9.49065,0.896741,3.566167,0.105496,0.245926,0.20183
1696781382984375,-9.72065,0.912741,3.538167,0.101996,0.240826,0.23183
1696781382992187,-9.60065,0.923741,3.574167,0.102996,0.240426,0.21383
1696781383000000,-9.76065,0.932741,3.568167,0.113696,0.235326,0.19783
1696781383007812,-9.95065,0.941741,3.586167,0.119496,0.234526,0.17083
1696781383015625,-9.93065,0.948741,3.581167,0.119296,0.234326,0.18583
1696781383023437,-9.92065,0.930741,3.538167,0.126696,0.230826,0.16883
1696781383031250,-9.106065,0.923741,3.566167,0.129096,0.229726,0.18783
1696781383039062,-9.95065,0.950741,3.597167,0.127396,0.219726,0.23483
1696781383046875,-9.68065,0.958741,3.556167,0.127096,0.212826,0.31383
1696781383054687,-9.48065,0.976741,3.496167,0.129496,0.206826,0.37983
1696781383062500,-9.44065,0.980741,3.464167,0.127096,0.204626,0.32883
1696781383070312,-9.62065,1.12741,3.450167,0.130596,0.194026,0.37283
1696781383078125,-9.98065,1.28741,3.498167,0.137796,0.181526,0.37583
1696781383085937,-9.126065,1.57741,3.491167,0.150196,0.179926,0.32883
1696781383093750,-9.106065,1.79741,3.484167,0.149996,0.165226,0.27983
1696781383101562,-9.119065,1.57741,3.516167,0.133296,0.159126,0.27883
1696781383109375,-9.153065,1.62741,3.520167,0.124796,0.157126,0.21183
1696781383117187,-9.164065,1.73741,3.485167,0.133096,0.142726,0.21383
1696781383125000,-9.196065,1.66741,3.433167,0.134996,0.131526,0.24683
1696781383132812,-9.198065,1.84741,3.383167,0.126596,0.114926,0.19483
1696781383140625,-9.196065,1.98741,3.374167,0.127896,0.100026,0.22483
1696781383148437,-9.167065,1.112741,3.386167,0.126996,0.92426,0.17883
1696781383156250,-9.145065,1.124741,3.363167,0.127696,0.72226,0.22283
1696781383164062,-9.114065,1.125741,3.392167,0.127196,0.69526,0.25883
1696781383171875,-9.89065,1.122741,3.426167,0.128996,0.53426,0.25883
1696781383179687,-9.100065,1.125741,3.446167,0.126496,0.41426,0.20683
1696781383187500,-9.118065,1.105741,3.453167,0.131196,0.33226,0.22283
1696781383195312,-9.131065,1.77741,3.494167,0.130696,0.23326,0.12483
1696781383203125,-9.146065,1.70741,3.473167,0.122896,0.12026,0.9083
1696781383210937,-9.128065,1.95741,3.444167,0.126996,0.1626,0.16883
1696781383218750,-9.126065,1.101741,3.498167,0.122396,0.1826,0.15283
1696781383226562,-9.131065,1.99741,3.529167,0.107796,0.1674,0.8483
1696781383234375,-9.140065,1.90741,3.509167,0.115896,0.17874,0.10283
1696781383242187,-9.126065,1.99741,3.453167,0.104696,0.31074,0.13183
1696781383250000,-9.131065,1.101741,3.422167,0.101996,0.28974,0.5283
1696781383257812,-9.115065,1.114741,3.440167,0.103196,0.42374,0.11583
1696781383265625,-9.133065,1.99741,3.485167,0.87896,0.50074,0.3483
1696781383273437,-9.158065,1.97741,3.476167,0.71696,0.47074,0.4917
1696781383281250,-9.145065,1.130741,3.460167,0.59996,0.52274,0.11717
1696781383289062,-9.118065,1.127741,3.444167,0.48196,0.55074,0.13217
1696781383296875,-9.89065,1.130741,3.446167,0.35096,0.55374,0.11917
1696781383304687,-9.98065,1.136741,3.431167,0.7096,0.55274,0.10617
1696781383312500,-9.93065,1.127741,3.451167,0.404,0.59674,0.18617
1696781383320312,-9.129065,1.130741,3.473167,0.14504,0.53074,0.21917
1696781383328125,-9.143065,1.130741,3.487167,0.26104,0.61674,0.20717
1696781383335937,-9.145065,1.110741,3.469167,0.46604,0.69874,0.22617
1696781383343750,-9.126065,1.95741,3.410167,0.51804,0.66974,0.22817
1696781383351562,-9.126065,1.87741,3.401167,0.55104,0.61074,0.20717
1696781383359375,-9.160065,1.75741,3.412167,0.73704,0.63674,0.23017
1696781383367187,-9.164065,1.66741,3.392167,0.89404,0.83174,0.24917
1696781383375000,-9.153065,1.42741,3.345167,0.82404,0.77874,0.21417
1696781383382812,-9.139065,1.30741,3.302167,0.79804,0.78674,0.22517
1696781383390625,-9.129065,0.999741,3.273167,0.82704,0.86174,0.21517
1696781383398437,-9.129065,0.977741,3.228167,0.82104,0.82474,0.21317
1696781383406250,-9.145065,0.970741,3.210167,0.73104,0.82774,0.22917
1696781383414062,-9.163065,0.962741,3.271167,0.69804,0.77874,0.14817
1696781383421875,-9.189065,0.931741,3.316167,0.56004,0.79674,0.19517
1696781383429687,-9.202065,0.903741,3.338167,0.51504,0.76674,0.14717
1696781383437500,-9.197065,0.880741,3.311167,0.33804,0.82874,0.16017
1696781383445312,-9.228065,0.861741,3.266167,0.19604,0.76374,0.15817
1696781383453125,-9.259065,0.821741,3.304167,0.19604,0.89474,0.11117
1696781383460937,-9.348065,0.799741,3.279167,0.17104,0.83574,0.3183
1696781383468750,-9.360065,0.772741,3.169167,0.5304,0.102674,0.3483
1696781383476562,-9.197065,0.709741,3.174167,0.3504,0.126974,0.1883
1696781383484375,-9.237065,0.708741,3.234167,0.13196,0.102974,0.6783
1696781383492187,-9.335065,0.756741,3.239167,0.10896,0.115674,0.24583
1696781383500000,-9.259065,0.839741,3.282167,0.19596,0.132674,0.33983
1696781383507812,-9.153065,0.931741,3.307167,0.26396,0.130574,0.27783
1696781383515625,-9.129065,0.984741,3.327167,0.24596,0.124174,0.26183
1696781383523437,-9.120065,0.999741,3.345167,0.24496,0.122574,0.18083
1696781383531250,-9.113065,0.973741,3.367167,0.25096,0.142674,0.16083
1696781383539062,-9.109065,0.984741,3.381167,0.18996,0.135874,0.3283
1696781383546875,-9.118065,1.2741,3.405167,0.20096,0.127874,0.4817
1696781383554687,-9.107065,0.985741,3.460167,0.24196,0.128874,0.2817
1696781383562500,-9.109065,0.966741,3.482167,0.25096,0.124174,0.19017
1696781383570312,-9.138065,0.962741,3.489167,0.20196,0.114474,0.20717
1696781383578125,-9.167065,0.973741,3.502167,0.2996,0.112774,0.19217
1696781383585937,-9.187065,0.960741,3.496167,0.6404,0.116074,0.17817
1696781383593750,-9.187065,0.956741,3.437167,0.3404,0.117874,0.13017
1696781383601562,-9.158065,0.960741,3.410167,0.1896,0.120874,0.4717
1696781383609375,-9.171065,0.946741,3.480167,0.6704,0.113974,0.6683
1696781383617187,-9.160065,0.958741,3.514167,0.1004,0.119274,0.6483
1696781383625000,-9.115065,0.961741,3.507167,0.1104,0.119274,0.4883
1696781383632812,-9.74065,0.925741,3.554167,0.12596,0.121074,0.7917
1696781383640625,-9.27065,0.916741,3.606167,0.16496,0.123074,0.19417
1696781383648437,-8.946065,0.910741,3.653167,0.4096,0.123074,0.11417
1696781383656250,-8.917065,0.919741,3.626167,0.10496,0.119674,0.14517
1696781383664062,-8.928065,0.923741,3.586167,0.4496,0.111274,0.14417
1696781383671875,-8.952065,0.895741,3.644167,0.1704,0.120974,0.16117
1696781383679687,-8.984065,0.893741,3.741167,0.5304,0.120374,0.11017
1696781383687500,-9.7065,0.913741,3.762167,0.23104,0.125474,0.16217
1696781383695312,-9.2065,0.924741,3.725167,0.21704,0.130374,0.22717
1696781383703125,-8.973065,0.911741,3.748167,0.41104,0.142174,0.18317
1696781383710937,-8.971065,0.922741,3.822167,0.44104,0.142074,0.23117
1696781383718750,-8.962065,0.917741,3.833167,0.50804,0.150474,0.21817
1696781383726562,-8.935065,0.901741,3.845167,0.53404,0.154974,0.21717
1696781383734375,-8.901065,0.905741,3.852167,0.51604,0.161474,0.18417
1696781383742187,-8.892065,0.880741,3.834167,0.43604,0.166174,0.19917
1696781383750000,-8.873065,0.858741,3.831167,0.27004,0.184474,0.23217
1696781383757812,-8.848065,0.853741,3.867167,0.31804,0.184674,0.18517
1696781383765625,-8.870065,0.840741,3.928167,0.35304,0.186574,0.18717
1696781383773437,-8.873065,0.845741,4.167,0.27604,0.193074,0.23517
1696781383781250,-8.868065,0.847741,3.991167,0.24204,0.212674,0.15417
1696781383789062,-8.846065,0.869741,3.957167,0.13204,0.212674,0.12117
1696781383796875,-8.837065,0.848741,4.29167,0.15904,0.222074,0.16817
1696781383804687,-8.830065,0.844741,4.101167,0.24304,0.233974,0.14017
1696781383812500,-8.810065,0.857741,4.86167,0.9304,0.236574,0.15117
1696781383820312,-8.786065,0.859741,4.97167,0.1804,0.235074,0.19917
1696781383828125,-8.779065,0.846741,4.156167,0.6904,0.243574,0.18617
1696781383835937,-8.805065,0.830741,4.180167,0.2204,0.256474,0.23417
1696781383843750,-8.830065,0.837741,4.151167,0.104,0.254574,0.18417
1696781383851562,-8.837065,0.820741,4.162167,0.9804,0.264674,0.12217
1696781383859375,-8.871065,0.845741,4.207167,0.6304,0.264574,0.4117
1696781383867187,-8.887065,0.840741,4.226167,0.1004,0.274074,0.4183
1696781383875000,-8.869065,0.838741,4.232167,0.3296,0.277574,0.2383
1696781383882812,-8.826065,0.842741,4.239167,0.1396,0.279574,0.7083
1696781383890625,-8.783065,0.848741,4.266167,0.204,0.276374,0.13483
1696781383898437,-8.763065,0.830741,4.291167,0.1804,0.281374,0.11783
1696781383906250,-8.713065,0.816741,4.309167,0.2896,0.284474,0.3883
1696781383914062,-8.706065,0.813741,4.318167,0.14096,0.282674,0.4083
1696781383921875,-8.742065,0.812741,4.297167,0.7596,0.274774,0.8783
1696781383929687,-8.753065,0.796741,4.334167,0.3096,0.284274,0.3883
1696781383937500,-8.803065,0.800741,4.360167,0.2404,0.284874,0.5183
1696781383945312,-8.814065,0.802741,4.367167,0.2296,0.286474,0.3683
1696781383953125,-8.794065,0.832741,4.372167,0.6096,0.286074,0.7083
1696781383960937,-8.774065,0.850741,4.379167,0.18696,0.286174,0.12083
1696781383968750,-8.733065,0.811741,4.442167,0.26896,0.277874,0.13883
1696781383976562,-8.722065,0.827741,4.462167,0.16696,0.283274,0.18283
1696781383984375,-8.648065,0.832741,4.462167,0.24996,0.291074,0.13683
1696781383992187,-8.614065,0.839741,4.464167,0.13496,0.284874,0.13483
1696781384000000,-8.588065,0.840741,4.455167,0.15696,0.277974,0.12083
1696781384007812,-8.605065,0.819741,4.493167,0.26496,0.278074,0.13783
1696781384015625,-8.619065,0.812741,4.525167,0.23596,0.282774,0.8983
1696781384023437,-8.627065,0.788741,4.545167,0.20196,0.289374,0.8883
1696781384031250,-8.624065,0.764741,4.543167,0.13596,0.281474,0.7083
1696781384039062,-8.616065,0.768741,4.556167,0.24896,0.284474,0.5683
1696781384046875,-8.606065,0.730741,4.613167,0.23596,0.282674,0.7383
1696781384054687,-8.601065,0.734741,4.597167,0.22696,0.288174,0.5483
1696781384062500,-8.586065,0.736741,4.586167,0.24396,0.294574,0.3883
1696781384070312,-8.523065,0.733741,4.644167,0.22796,0.289674,0.2283
1696781384078125,-8.544065,0.771741,4.667167,0.41696,0.281374,0.7017
1696781384085937,-8.530065,0.778741,4.703167,0.46296,0.274974,0.3817
1696781384093750,-8.546065,0.782741,4.730167,0.33596,0.271774,0.5617
1696781384101562,-8.584065,0.765741,4.827167,0.37196,0.271574,0.1083
1696781384109375,-8.577065,0.758741,4.836167,0.40696,0.266374,0.3617
1696781384117187,-8.535065,0.791741,4.766167,0.47896,0.271674,0.5317
1696781384125000,-8.508065,0.799741,4.752167,0.43696,0.266274,0.8417
1696781384132812,-8.476065,0.734741,4.798167,0.28596,0.262574,0.13117
1696781384140625,-8.469065,0.741741,4.807167,0.25396,0.256074,0.14717
1696781384148437,-8.460065,0.743741,4.887167,0.26196,0.258174,0.13417
1696781384156250,-8.447065,0.748741,4.946167,0.22796,0.255174,0.11917
1696781384164062,-8.434065,0.809741,4.915167,0.31096,0.266074,0.19717
1696781384171875,-8.461065,0.808741,4.809167,0.39796,0.265074,0.21517
1696781384179687,-8.402065,0.796741,4.777167,0.45996,0.278174,0.19917
1696781384187500,-8.357065,0.762741,4.836167,0.36496,0.274874,0.23217
1696781384195312,-8.350065,0.719741,4.978167,0.31996,0.284374,0.31217
1696781384203125,-8.332065,0.717741,5.20167,0.40396,0.282374,0.30917
1696781384210937,-8.325065,0.725741,4.949167,0.53396,0.290174,0.33917
1696781384218750,-8.368065,0.713741,4.915167,0.60996,0.274074,0.33817
1696781384226562,-8.361065,0.682741,5.16167,0.46596,0.277374,0.35717
1696781384234375,-8.394065,0.698741,5.92167,0.49696,0.279174,0.29317
1696781384242187,-8.442065,0.719741,5.45167,0.48096,0.276074,0.21317
1696781384250000,-8.375065,0.719741,5.21167,0.47196,0.282074,0.22717
1696781384257812,-8.354065,0.713741,5.36167,0.42996,0.289474,0.18317
1696781384265625,-8.329065,0.715741,5.52167,0.27496,0.287674,0.18417
1696781384273437,-8.312065,0.730741,5.101167,0.36796,0.286074,0.23217
1696781384281250,-8.271065,0.718741,5.140167,0.52796,0.281074,0.21317
1696781384289062,-8.284065,0.703741,5.182167,0.38396,0.276174,0.26317
1696781384296875,-8.289065,0.723741,5.164167,0.28896,0.277774,0.28017
1696781384304687,-8.242065,0.713741,5.176167,0.44896,0.275874,0.34117
1696781384312500,-8.226065,0.689741,5.178167,0.49096,0.266474,0.34217
1696781384320312,-8.248065,0.698741,5.174167,0.43596,0.259374,0.34017
1696781384328125,-8.259065,0.671741,5.185167,0.48096,0.262774,0.34017
1696781384335937,-8.243065,0.640741,5.200167,0.64696,0.267974,0.43717
1696781384343750,-8.218065,0.611741,5.254167,0.54996,0.263374,0.45517
1696781384351562,-8.227065,0.654741,5.288167,0.65896,0.266574,0.45417
1696781384359375,-8.255065,0.689741,5.282167,0.74196,0.259874,0.41917
1696781384367187,-8.232065,0.691741,5.318167,0.72596,0.259774,0.45117
1696781384375000,-8.212065,0.655741,5.356167,0.72596,0.258174,0.48317
1696781384382812,-8.245065,0.656741,5.344167,0.73696,0.242174,0.46817
1696781384390625,-8.268065,0.661741,5.336167,0.70996,0.243574,0.45117
1696781384398437,-8.250065,0.663741,5.360167,0.72896,0.236774,0.46517
1696781384406250,-8.255065,0.672741,5.372167,0.74396,0.233574,0.43317
1696781384414062,-8.218065,0.673741,5.353167,0.78496,0.224174,0.48217
1696781384421875,-8.161065,0.706741,5.363167,0.74096,0.215874,0.46517
1696781384429687,-8.194065,0.683741,5.421167,0.80396,0.203374,0.47417
1696781384437500,-8.192065,0.693741,5.423167,0.74396,0.200974,0.44717
1696781384445312,-8.179065,0.703741,5.392167,0.78196,0.195474,0.52417
1696781384453125,-8.154065,0.681741,5.426167,0.77596,0.190974,0.52617
1696781384460937,-8.153065,0.652741,5.484167,0.75996,0.181174,0.57417
1696781384468750,-8.196065,0.644741,5.498167,0.85496,0.169674,0.57217
1696781384476562,-8.171065,0.622741,5.504167,0.100796,0.169974,0.57217
1696781384484375,-8.133065,0.630741,5.505167,0.84296,0.164474,0.60317
1696781384492187,-8.87065,0.621741,5.520167,0.84696,0.165174,0.68617
1696781384500000,-8.74065,0.633741,5.531167,0.98096,0.159874,0.57017
1696781384507812,-8.92065,0.651741,5.516167,0.94696,0.148574,0.63417
1696781384515625,-8.65065,0.649741,5.559167,0.90196,0.143474,0.68217
1696781384523437,-8.74065,0.653741,5.534167,0.93096,0.132174,0.71417
1696781384531250,-8.74065,0.651741,5.540167,0.97696,0.130674,0.68217
1696781384539062,-8.117065,0.629741,5.592167,0.98696,0.118674,0.61417
1696781384546875,-8.112065,0.621741,5.586167,0.96796,0.109074,0.63117
1696781384554687,-8.99065,0.634741,5.552167,0.100196,0.113874,0.56617
1696781384562500,-8.78065,0.611741,5.617167,0.98696,0.113974,0.53417
1696781384570312,-8.98065,0.581741,5.669167,0.100196,0.102574,0.48517
1696781384578125,-8.62065,0.578741,5.637167,0.97496,0.104874,0.56917
1696781384585937,-8.43065,0.626741,5.624167,0.92096,0.107674,0.53517
1696781384593750,-8.40065,0.651741,5.617167,0.88196,0.91774,0.55317
1696781384601562,-8.20065,0.642741,5.642167,0.96896,0.83074,0.53317
1696781384609375,-8.65,0.645741,5.667167,0.100596,0.84274,0.56317
1696781384617187,-7.984065,0.639741,5.637167,0.98796,0.79674,0.51617
1696781384625000,-7.987065,0.636741,5.642167,0.100896,0.75974,0.51317
1696781384632812,-8.65,0.621741,5.658167,0.98996,0.71374,0.49817
1696781384640625,-7.980065,0.603741,5.619167,0.99396,0.71074,0.49717
1696781384648437,-7.990065,0.559741,5.630167,0.98596,0.65174,0.46717
1696781384656250,-7.981065,0.530741,5.694167,0.99796,0.64474,0.41517
1696781384664062,-7.999065,0.568741,5.664167,0.101196,0.61474,0.35117
1696781384671875,-7.979065,0.612741,5.617167,0.99296,0.61774,0.32117
1696781384679687,-7.966065,0.616741,5.682167,0.101196,0.64574,0.39917
1696781384687500,-7.982065,0.610741,5.653167,0.98996,0.66774,0.37017
1696781384695312,-7.943065,0.587741,5.653167,0.100296,0.76774,0.35517
1696781384703125,-7.937065,0.589741,5.714167,0.97996,0.59774,0.38417
1696781384710937,-7.952065,0.585741,5.719167,0.99796,0.62774,0.43117
1696781384718750,-7.936065,0.574741,5.718167,0.100596,0.68274,0.41817
1696781384726562,-7.909065,0.593741,5.691167,0.100396,0.71674,0.40317
1696781384734375,-7.907065,0.602741,5.703167,0.98896,0.68274,0.46617
1696781384742187,-7.934065,0.602741,5.651167,0.97396,0.64974,0.48217
1696781384750000,-7.910065,0.613741,5.662167,0.99896,0.71874,0.46817
1696781384757812,-7.873065,0.586741,5.707167,0.98496,0.76674,0.46817
1696781384765625,-7.900065,0.580741,5.752167,0.99796,0.76774,0.48517
1696781384773437,-7.949065,0.554741,5.739167,0.114496,0.68374,0.44917
1696781384781250,-7.947065,0.543741,5.691167,0.109496,0.76674,0.46717
1696781384789062,-7.933065,0.541741,5.765167,0.105496,0.78874,0.47017
1696781384796875,-7.953065,0.541741,5.759167,0.101496,0.73574,0.45217
1696781384804687,-7.895065,0.551741,5.784167,0.98796,0.78074,0.48317
1696781384812500,-7.866065,0.577741,5.777167,0.100096,0.78374,0.46817
1696781384820312,-7.872065,0.595741,5.728167,0.99496,0.79274,0.41717
1696781384828125,-7.876065,0.610741,5.761167,0.100796,0.79474,0.46617
1696781384835937,-7.874065,0.632741,5.795167,0.92996,0.77774,0.45017
1696781384843750,-7.881065,0.626741,5.793167,0.92596,0.78074,0.45217
1696781384851562,-7.856065,0.595741,5.831167,0.87996,0.69874,0.46817
1696781384859375,-7.858065,0.586741,5.856167,0.81696,0.64974,0.45217
1696781384867187,-7.859065,0.566741,5.849167,0.74796,0.66974,0.51917
1696781384875000,-7.867065,0.577741,5.838167,0.83096,0.68174,0.54917
1696781384882812,-7.833065,0.561741,5.844167,0.79896,0.69974,0.48517
1696781384890625,-7.826065,0.550741,5.844167,0.76396,0.68474,0.55117
1696781384898437,-7.814065,0.526741,5.822167,0.82696,0.63674,0.47017
1696781384906250,-7.825065,0.523741,5.833167,0.79796,0.70074,0.45417
1696781384914062,-7.846065,0.544741,5.829167,0.78596,0.56874,0.38817
1696781384921875,-7.889065,0.546741,5.826167,0.83696,0.58274,0.38617
1696781384929687,-7.911065,0.549741,5.829167,0.94696,0.63174,0.36917
1696781384937500,-7.918065,0.540741,5.854167,0.88796,0.56374,0.36817
1696781384945312,-7.880065,0.542741,5.865167,0.77596,0.64974,0.19517
1696781384953125,-7.834065,0.528741,5.826167,0.82196,0.71374,0.29117
1696781384960937,-7.798065,0.512741,5.840167,0.80396,0.71474,0.34017
1696781384968750,-7.769065,0.512741,5.896167,0.80996,0.63974,0.35817
1696781384976562,-7.767065,0.511741,5.876167,0.92896,0.58574,0.27417
1696781384984375,-7.771065,0.514741,5.842167,0.75296,0.66874,0.35717
1696781384992187,-7.767065,0.516741,5.844167,0.89496,0.66874,0.30717
1696781385000000,-7.753065,0.489741,5.905167,0.102596,0.68174,0.30417
1696781385007812,-7.769065,0.505741,5.905167,0.99196,0.76274,0.38617
1696781385015625,-7.789065,0.516741,5.883167,0.100696,0.69874,0.37017
1696781385023437,-7.789065,0.505741,5.930167,0.106096,0.75974,0.38317
1696781385031250,-7.795065,0.490741,5.912167,0.109196,0.81874,0.37217
1696781385039062,-7.816065,0.495741,5.862167,0.123596,0.73574,0.38517
1696781385046875,-7.802065,0.505741,5.889167,0.124096,0.83174,0.30417
1696781385054687,-7.803065,0.514741,5.928167,0.113196,0.70074,0.27217
1696781385062500,-7.808065,0.549741,5.878167,0.113696,0.73074,0.23917
1696781385070312,-7.765065,0.549741,5.890167,0.110296,0.81274,0.30417
1696781385078125,-7.744065,0.531741,5.894167,0.102396,0.81374,0.24117
1696781385085937,-7.765065,0.540741,5.919167,0.100696,0.68474,0.25717
1696781385093750,-7.760065,0.547741,5.968167,0.97096,0.70374,0.30717
1696781385101562,-7.751065,0.551741,5.941167,0.96896,0.70474,0.30817
1696781385109375,-7.718065,0.540741,5.961167,0.100396,0.75074,0.32317
1696781385117187,-7.724065,0.553741,5.964167,0.94096,0.75074,0.32417
1696781385125000,-7.720065,0.561741,5.975167,0.97696,0.79574,0.33817
1696781385132812,-7.743065,0.595741,5.989167,0.100396,0.73474,0.30717
1696781385140625,-7.757065,0.591741,5.975167,0.98696,0.68574,0.37117
1696781385148437,-7.730065,0.589741,5.961167,0.97496,0.66974,0.24217
1696781385156250,-7.739065,0.598741,5.955167,0.81896,0.68574,0.19617
1696781385164062,-7.793065,0.589741,5.948167,0.86896,0.66674,0.21017
1696781385171875,-7.801065,0.570741,5.932167,0.95796,0.63774,0.21017
1696781385179687,-7.828065,0.572741,5.926167,0.99696,0.58374,0.22317
1696781385187500,-7.842065,0.575741,5.925167,0.97396,0.57274,0.19417
1696781385195312,-7.810065,0.583741,5.925167,0.92896,0.55474,0.21017
1696781385203125,-7.811065,0.607741,5.944167,0.98396,0.56574,0.20617
1696781385210937,-7.792065,0.574741,5.955167,0.98296,0.63174,0.19117
1696781385218750,-7.783065,0.565741,5.950167,0.100296,0.62174,0.29017
1696781385226562,-7.799065,0.545741,5.959167,0.99296,0.63574,0.20917
1696781385234375,-7.801065,0.540741,5.984167,0.101896,0.61274,0.18917
1696781385242187,-7.799065,0.574741,5.948167,0.101296,0.55074,0.20717
1696781385250000,-7.779065,0.567741,5.930167,0.97796,0.58674,0.19217
1696781385257812,-7.777065,0.591741,5.939167,0.95196,0.56574,0.20717
1696781385265625,-7.784065,0.611741,5.948167,0.86996,0.56874,0.19317
1696781385273437,-7.775065,0.609741,5.968167,0.85096,0.52174,0.21017
1696781385281250,-7.734065,0.600741,5.975167,0.81996,0.53674,0.25817
1696781385289062,-7.759065,0.596741,5.991167,0.76796,0.52474,0.22917
1696781385296875,-7.777065,0.591741,6.11167,0.83496,0.48874,0.22617
1696781385304687,-7.795065,0.612741,6.16167,0.74096,0.47274,0.22717
1696781385312500,-7.809065,0.632741,5.986167,0.71196,0.55274,0.19517
1696781385320312,-7.791065,0.620741,5.973167,0.73396,0.46774,0.19217
1696781385328125,-7.777065,0.600741,5.986167,0.75496,0.47374,0.21217
1696781385335937,-7.759065,0.596741,5.977167,0.71896,0.50974,0.23017
1696781385343750,-7.756065,0.585741,6.7167,0.74096,0.37374,0.25917
1696781385351562,-7.797065,0.560741,5.962167,0.76396,0.46674,0.22417
1696781385359375,-7.753065,0.522741,5.890167,0.77896,0.43574,0.19217
1696781385367187,-7.769065,0.544741,5.977167,0.79496,0.41974,0.20817
1696781385375000,-7.792065,0.560741,6.40167,0.68496,0.43574,0.20917
1696781385382812,-7.759065,0.580741,6.18167,0.74196,0.45674,0.19517
1696781385390625,-7.723065,0.599741,5.973167,0.69496,0.43974,0.21117
1696781385398437,-7.687065,0.625741,5.993167,0.58796,0.42174,0.14717
1696781385406250,-7.678065,0.621741,6.47167,0.54196,0.42274,0.8317
1696781385414062,-7.691065,0.597741,6.79167,0.49396,0.30874,0.10017
1696781385421875,-7.692065,0.594741,6.52167,0.51096,0.40374,0.16317
1696781385429687,-7.700065,0.588741,6.20167,0.49596,0.42074,0.16417
1696781385437500,-7.709065,0.566741,6.40167,0.51096,0.47174,0.8417
1696781385445312,-7.696065,0.581741,6.38167,0.49596,0.46974,0.11617
1696781385453125,-7.676065,0.581741,6.7167,0.50996,0.50374,0.10017
1696781385460937,-7.657065,0.556741,6.9167,0.49096,0.50474,0.16617
1696781385468750,-7.671065,0.548741,6.9167,0.51196,0.51874,0.11617
1696781385476562,-7.661065,0.548741,6.15167,0.50596,0.53974,0.11817
1696781385484375,-7.668065,0.530741,6.42167,0.53596,0.52474,0.10217
1696781385492187,-7.697065,0.512741,6.31167,0.43296,0.53474,0.13317
1696781385500000,-7.692065,0.508741,6.47167,0.49096,0.52174,0.15017
1696781385507812,-7.695065,0.533741,6.38167,0.52796,0.57774,0.18517
1696781385515625,-7.675065,0.537741,6.45167,0.48896,0.63574,0.21517
1696781385523437,-7.643065,0.516741,6.56167,0.49596,0.66474,0.18117
1696781385531250,-7.641065,0.520741,6.58167,0.50896,0.66574,0.19817
1696781385539062,-7.627065,0.532741,6.72167,0.45596,0.73574,0.16917
1696781385546875,-7.638065,0.525741,6.78167,0.41896,0.80474,0.15517
1696781385554687,-7.645065,0.516741,6.38167,0.41596,0.77974,0.18317
1696781385562500,-7.663065,0.490741,6.67167,0.48896,0.80174,0.10417
1696781385570312,-7.674065,0.477741,6.88167,0.44296,0.78374,0.12017
1696781385578125,-7.678065,0.468741,6.103167,0.35096,0.79874,0.12117
1696781385585937,-7.663065,0.477741,6.160167,0.30496,0.83174,0.7317
1696781385593750,-7.654065,0.499741,6.162167,0.23896,0.83374,0.4317
1696781385601562,-7.636065,0.518741,6.128167,0.25596,0.83274,0.5817
1696781385609375,-7.638065,0.478741,6.142167,0.24096,0.91274,0.7417
1696781385617187,-7.627065,0.467741,6.137167,0.24196,0.86374,0.5817
1696781385625000,-7.620065,0.491741,6.184167,0.25796,0.92774,0.10617
1696781385632812,-7.600065,0.482741,6.205167,0.22696,0.87874,0.12217
1696781385640625,-7.586065,0.466741,6.149167,0.23296,0.92374,0.10417
1696781385648437,-7.581065,0.446741,6.155167,0.19896,0.90874,0.12117
1696781385656250,-7.597065,0.442741,6.187167,0.18196,0.82974,0.4117
1696781385664062,-7.608065,0.445741,6.214167,0.11996,0.87874,0.583
1696781385671875,-7.597065,0.435741,6.234167,0.21996,0.79174,0.8617
1696781385679687,-7.606065,0.433741,6.223167,0.24996,0.80974,0.5517
1696781385687500,-7.606065,0.431741,6.207167,0.23396,0.79274,0.10317
1696781385695312,-7.613065,0.422741,6.214167,0.26396,0.79274,0.15117
1696781385703125,-7.590065,0.404741,6.225167,0.24796,0.76174,0.10317
1696781385710937,-7.558065,0.406741,6.209167,0.26396,0.77774,0.7117
1696781385718750,-7.550065,0.417741,6.214167,0.25196,0.79174,0.5417
1696781385726562,-7.543065,0.421741,6.241167,0.26696,0.74374,0.3817
1696781385734375,-7.534065,0.401741,6.254167,0.32696,0.77974,0.4183
1696781385742187,-7.536065,0.401741,6.234167,0.42696,0.77574,0.2883
1696781385750000,-7.529065,0.394741,6.218167,0.47396,0.72674,0.2983
1696781385757812,-7.518065,0.385741,6.245167,0.43996,0.74474,0.417
1696781385765625,-7.524065,0.381741,6.257167,0.50196,0.71374,0.6083
1696781385773437,-7.533065,0.384741,6.250167,0.48996,0.75374,0.4083
1696781385781250,-7.535065,0.370741,6.236167,0.51596,0.69874,0.6083
1696781385789062,-7.535065,0.348741,6.236167,0.49596,0.66874,0.4283
1696781385796875,-7.548065,0.357741,6.259167,0.50796,0.67074,0.5783
1696781385804687,-7.542065,0.357741,6.238167,0.57296,0.66974,0.5983
1696781385812500,-7.540065,0.384741,6.250167,0.71996,0.64974,0.4683
1696781385820312,-7.535065,0.374741,6.290167,0.67696,0.66374,0.6383
1696781385828125,-7.540065,0.397741,6.306167,0.73496,0.66574,0.3083
1696781385835937,-7.543065,0.432741,6.320167,0.69096,0.58274,0.4783
1696781385843750,-7.539065,0.457741,6.338167,0.75496,0.53374,0.11383
1696781385851562,-7.546065,0.466741,6.340167,0.56496,0.50174,0.9483
1696781385859375,-7.541065,0.475741,6.293167,0.59396,0.51774,0.1817
1696781385867187,-7.525065,0.466741,6.275167,0.55996,0.53774,0.4483
1696781385875000,-7.503065,0.441741,6.297167,0.64396,0.45274,0.9583
1696781385882812,-7.509065,0.428741,6.308167,0.68896,0.46974,0.3183
1696781385890625,-7.498065,0.434741,6.317167,0.65496,0.53774,0.9383
1696781385898437,-7.480065,0.436741,6.331167,0.75596,0.41974,0.9783
1696781385906250,-7.492065,0.449741,6.326167,0.75296,0.43574,0.1517
1696781385914062,-7.494065,0.456741,6.324167,0.76896,0.32274,0.6583
1696781385921875,-7.483065,0.442741,6.309167,0.67996,0.38374,0.1783
1696781385929687,-7.464065,0.427741,6.306167,0.71196,0.43974,0.9817
1696781385937500,-7.469065,0.409741,6.338167,0.66096,0.41774,0.1517
1696781385945312,-7.473065,0.396741,6.295167,0.63896,0.50374,0.217
1696781385953125,-7.457065,0.384741,6.275167,0.75196,0.48374,0.6317
1696781385960937,-7.486065,0.361741,6.313167,0.62296,0.35574,0.8117
1696781385968750,-7.509065,0.394741,6.374167,0.57696,0.40474,0.1817
1696781385976562,-7.489065,0.443741,6.389167,0.68896,0.43674,0.1617
1696781385984375,-7.485065,0.478741,6.342167,0.64196,0.30574,0.1617
1696781385992187,-7.474065,0.467741,6.353167,0.50196,0.37074,0.4683
1696781386000000,-7.498065,0.452741,6.394167,0.51596,0.32274,0.1383
1696781386007812,-7.500065,0.437741,6.398167,0.49696,0.25974,0.2883
1696781386015625,-7.505065,0.427741,6.378167,0.50496,0.22174,0.3183
1696781386023437,-7.503065,0.436741,6.365167,0.46596,0.27474,0.1917
1696781386031250,-7.496065,0.445741,6.360167,0.52196,0.22074,0.1683
1696781386039062,-7.489065,0.463741,6.371167,0.49896,0.19374,0.1483
1696781386046875,-7.472065,0.469741,6.374167,0.56896,0.17174,0.1417
1696781386054687,-7.465065,0.469741,6.367167,0.38896,0.25874,0.1283
1696781386062500,-7.465065,0.461741,6.373167,0.47896,0.16474,0.6083
1696781386070312,-7.453065,0.445741,6.356167,0.43896,0.17574,0.3083
1696781386078125,-7.453065,0.425741,6.362167,0.49596,0.17974,0.4483
1696781386085937,-7.448065,0.425741,6.355167,0.49596,0.16374,0.6183
1696781386093750,-7.451065,0.420741,6.351167,0.51396,0.12874,0.4683
1696781386101562,-7.458065,0.424741,6.367167,0.39596,0.22174,0.6283
1696781386109375,-7.455065,0.420741,6.367167,0.48896,0.15674,0.1683
1696781386117187,-7.460065,0.411741,6.380167,0.51696,0.17374,0.6417
1696781386125000,-7.450065,0.409741,6.369167,0.50096,0.17574,0.1483
1696781386132812,-7.450065,0.409741,6.374167,0.51296,0.15974,0.6617
1696781386140625,-7.446065,0.413741,6.371167,0.48096,0.14374,0.9817
1696781386148437,-7.450065,0.393741,6.387167,0.46796,0.17474,0.5017
1696781386156250,-7.477065,0.372741,6.403167,0.45196,0.17474,0.6617
1696781386164062,-7.461065,0.376741,6.392167,0.40996,0.12374,0.1617
1696781386171875,-7.461065,0.387741,6.392167,0.32796,0.6074,0.5017
1696781386179687,-7.473065,0.400741,6.392167,0.46896,0.6074,0.3317
1696781386187500,-7.484065,0.396741,6.392167,0.42496,0.7374,0.9617
1696781386195312,-7.475065,0.407741,6.378167,0.35396,0.1374,0.11517
1696781386203125,-7.448065,0.413741,6.385167,0.46796,0.1174,0.9717
1696781386210937,-7.466065,0.396741,6.387167,0.37296,0.426,0.9817
1696781386218750,-7.476065,0.363741,6.394167,0.34996,0.1574,0.14917
1696781386226562,-7.461065,0.347741,6.392167,0.37896,0.674,0.16017
1696781386234375,-7.447065,0.360741,6.387167,0.25796,0.1474,0.14917
1696781386242187,-7.438065,0.351741,6.389167,0.28996,0.1374,0.18117
1696781386250000,-7.438065,0.358741,6.380167,0.31196,0.1074,0.8217
1696781386257812,-7.416065,0.360741,6.373167,0.35296,0.1474,0.6817
1696781386265625,-7.407065,0.373741,6.362167,0.35996,0.1174,0.1717
1696781386273437,-7.416065,0.375741,6.367167,0.37096,0.1574,0.4483
1696781386281250,-7.409065,0.366741,6.360167,0.36796,0.774,0.9783
1696781386289062,-7.421065,0.373741,6.365167,0.28496,0.974,0.4683
1696781386296875,-7.421065,0.371741,6.365167,0.29796,0.974,0.8217
1696781386304687,-7.427065,0.371741,6.344167,0.28196,0.726,0.11417
1696781386312500,-7.425065,0.342741,6.342167,0.28396,0.974,0.3417
1696781386320312,-7.442065,0.327741,6.342167,0.45296,0.526,0.8117
1696781386328125,-7.445065,0.322741,6.344167,0.37596,0.2574,0.8117
1696781386335937,-7.436065,0.320741,6.347167,0.42396,0.5874,0.4817
1696781386343750,-7.424065,0.304741,6.360167,0.37196,0.12674,0.8317
1696781386351562,-7.424065,0.302741,6.376167,0.46096,0.9874,0.6817
1696781386359375,-7.424065,0.322741,6.364167,0.44496,0.9874,0.8417
1696781386367187,-7.411065,0.326741,6.351167,0.45596,0.14174,0.0
1696781386375000,-7.418065,0.324741,6.360167,0.53196,0.14274,0.1617
1696781386382812,-7.425065,0.342741,6.376167,0.50596,0.12274,0.1417
1696781386390625,-7.441065,0.353741,6.380167,0.48496,0.14274,0.0
1696781386398437,-7.461065,0.365741,6.380167,0.45696,0.17274,0.1617
1696781386406250,-7.463065,0.369741,6.360167,0.50396,0.18774,0.9617
1696781386414062,-7.465065,0.360741,6.353167,0.54496,0.22474,0.9717
1696781386421875,-7.461065,0.358741,6.374167,0.64096,0.17574,0.4817
1696781386429687,-7.454065,0.360741,6.385167,0.71696,0.19374,0.6417
1696781386437500,-7.434065,0.358741,6.376167,0.74996,0.17574,0.9517
1696781386445312,-7.421065,0.364741,6.392167,0.59396,0.27274,0.8017
1696781386453125,-7.405065,0.373741,6.405167,0.50396,0.22174,0.3217
1696781386460937,-7.425065,0.367741,6.423167,0.60496,0.19474,0.8217
1696781386468750,-7.432065,0.353741,6.398167,0.59196,0.24074,0.11317
1696781386476562,-7.423065,0.351741,6.376167,0.60796,0.25674,0.9717
1696781386484375,-7.431065,0.342741,6.392167,0.54696,0.20674,0.11317
1696781386492187,-7.438065,0.327741,6.382167,0.55196,0.26174,0.16517
1696781386500000,-7.427065,0.329741,6.423167,0.66496,0.31074,0.6617
1696781386507812,-7.434065,0.351741,6.450167,0.66996,0.24074,0.14417
1696781386515625,-7.439065,0.355741,6.421167,0.60196,0.26674,0.7817
1696781386523437,-7.447065,0.356741,6.401167,0.67496,0.28774,0.6317
1696781386531250,-7.425065,0.339741,6.417167,0.63196,0.26874,0.6217
1696781386539062,-7.395065,0.328741,6.425167,0.55896,0.30574,0.16217
1696781386546875,-7.382065,0.317741,6.425167,0.73296,0.30674,0.11217
1696781386554687,-7.397065,0.320741,6.412167,0.69496,0.34274,0.13117
1696781386562500,-7.406065,0.310741,6.394167,0.73696,0.25274,0.20617
1696781386570312,-7.426065,0.298741,6.419167,0.72896,0.19274,0.20817
1696781386578125,-7.453065,0.287741,6.470167,0.57096,0.25974,0.19517
1696781386585937,-7.431065,0.347741,6.468167,0.72696,0.25974,0.21017
1696781386593750,-7.398065,0.393741,6.452167,0.77596,0.24374,0.11217
1696781386601562,-7.394065,0.390741,6.452167,0.66896,0.16074,0.11217
1696781386609375,-7.394065,0.389741,6.450167,0.59596,0.21574,0.14917
1696781386617187,-7.394065,0.366741,6.446167,0.70696,0.12374,0.9317
1696781386625000,-7.405065,0.357741,6.450167,0.62396,0.10974,0.11217
1696781386632812,-7.398065,0.363741,6.446167,0.61896,0.10274,0.9217
1696781386640625,-7.382065,0.359741,6.437167,0.75496,0.13874,0.12517
1696781386648437,-7.380065,0.354741,6.441167,0.72296,0.13874,0.17317
1696781386656250,-7.389065,0.353741,6.439167,0.70296,0.10774,0.20717
1696781386664062,-7.378065,0.357741,6.432167,0.71396,0.17674,0.20917
1696781386671875,-7.380065,0.359741,6.430167,0.76396,0.9374,0.19117
1696781386679687,-7.373065,0.339741,6.430167,0.74596,0.11074,0.20817
1696781386687500,-7.364065,0.327741,6.446167,0.77196,0.7174,0.15517
1696781386695312,-7.391065,0.337741,6.479167,0.75096,0.4274,0.15717
1696781386703125,-7.389065,0.355741,6.457167,0.75396,0.5074,0.21017
1696781386710937,-7.373065,0.352741,6.439167,0.75196,0.4174,0.18917
1696781386718750,-7.384065,0.364741,6.452167,0.73896,0.6674,0.19417
1696781386726562,-7.387065,0.350741,6.464167,0.75296,0.4174,0.17317
1696781386734375,-7.377065,0.355741,6.466167,0.73996,0.6574,0.20917
1696781386742187,-7.362065,0.347741,6.471167,0.75596,0.3874,0.18817
1696781386750000,-7.358065,0.354741,6.468167,0.76596,0.5874,0.20617
1696781386757812,-7.373065,0.357741,6.452167,0.74896,0.2774,0.19017
1696781386765625,-7.382065,0.339741,6.432167,0.76296,0.10974,0.20717
1696781386773437,-7.384065,0.333741,6.414167,0.77496,0.6274,0.20817
1696781386781250,-7.364065,0.312741,6.416167,0.74696,0.6074,0.25517
1696781386789062,-7.368065,0.290741,6.455167,0.85396,0.6374,0.20717
1696781386796875,-7.359065,0.310741,6.484167,0.81396,0.12374,0.22117
1696781386804687,-7.353065,0.354741,6.459167,0.76596,0.5874,0.20617
1696781386812500,-7.351065,0.390741,6.441167,0.79396,0.15874,0.22317
1696781386820312,-7.351065,0.383741,6.446167,0.74696,0.4374,0.25517
1696781386828125,-7.358065,0.377741,6.457167,0.76096,0.17674,0.22417
1696781386835937,-7.376065,0.375741,6.448167,0.77396,0.11374,0.19317
1696781386843750,-7.391065,0.357741,6.428167,0.74596,0.12774,0.20817
1696781386851562,-7.396065,0.355741,6.432167,0.74796,0.12574,0.20717
1696781386859375,-7.400065,0.335741,6.423167,0.76496,0.15774,0.19017
1696781386867187,-7.393065,0.317741,6.432167,0.77996,0.17374,0.22317
1696781386875000,-7.418065,0.338741,6.452167,0.74496,0.24174,0.20917
1696781386882812,-7.425065,0.364741,6.434167,0.76496,0.18974,0.20717
1696781386890625,-7.401065,0.386741,6.403167,0.76296,0.19174,0.19117
1696781386898437,-7.392065,0.391741,6.421167,0.73996,0.24474,0.24217
1696781386906250,-7.423065,0.371741,6.441167,0.72496,0.26074,0.19417
1696781386914062,-7.389065,0.353741,6.421167,0.74196,0.24274,0.27417
1696781386921875,-7.348065,0.345741,6.434167,0.71196,0.33974,0.25817
1696781386929687,-7.362065,0.346741,6.452167,0.76096,0.27474,0.19317
1696781386937500,-7.375065,0.350741,6.452167,0.74596,0.30574,0.20817
1696781386945312,-7.362065,0.354741,6.430167,0.75996,0.25874,0.24117
1696781386953125,-7.351065,0.365741,6.428167,0.74396,0.27474,0.22517
1696781386960937,-7.360065,0.376741,6.480167,0.75096,0.27074,0.19117
1696781386968750,-7.378065,0.370741,6.477167,0.76596,0.25474,0.20717
1696781386976562,-7.376065,0.365741,6.482167,0.75296,0.26974,0.19017
1696781386984375,-7.369065,0.363741,6.489167,0.60996,0.22174,0.20817
1696781386992187,-7.376065,0.357741,6.482167,0.57596,0.25574,0.19317
1696781387000000,-7.384065,0.348741,6.464167,0.49796,0.23874,0.21017
1696781387007812,-7.402065,0.353741,6.450167,0.50796,0.20974,0.21217
1696781387015625,-7.398065,0.360741,6.452167,0.48796,0.22874,0.21317
1696781387023437,-7.398065,0.355741,6.455167,0.50796,0.25974,0.21217
1696781387031250,-7.400065,0.344741,6.477167,0.47896,0.14274,0.21117
1696781387039062,-7.386065,0.319741,6.500167,0.46396,0.7774,0.19517
1696781387046875,-7.418065,0.329741,6.509167,0.46596,0.10874,0.19417
1696781387054687,-7.422065,0.311741,6.481167,0.50496,0.11474,0.21217
1696781387062500,-7.406065,0.291741,6.466167,0.49396,0.22474,0.19517
1696781387070312,-7.404065,0.286741,6.470167,0.50996,0.17574,0.21117
1696781387078125,-7.374065,0.279741,6.473167,0.50296,0.13774,0.19217
1696781387085937,-7.352065,0.283741,6.459167,0.53096,0.12474,0.16117
1696781387093750,-7.352065,0.283741,6.464167,0.59496,0.10674,0.17517
1696781387101562,-7.352065,0.261741,6.457167,0.65396,0.6074,0.20817
1696781387109375,-7.356065,0.243741,6.466167,0.57996,0.9074,0.19117
1696781387117187,-7.370065,0.257741,6.484167,0.59496,0.4074,0.20717
1696781387125000,-7.385065,0.282741,6.502167,0.77596,0.6374,0.19217
1696781387132812,-7.390065,0.286741,6.486167,0.68996,0.826,0.20517
1696781387140625,-7.388065,0.302741,6.457167,0.66196,0.4974,0.19417
1696781387148437,-7.361065,0.295741,6.419167,0.71496,0.7774,0.20817
1696781387156250,-7.318065,0.280741,6.450167,0.76596,0.2674,0.20617
1696781387164062,-7.350065,0.277741,6.491167,0.71596,0.14274,0.19117
1696781387171875,-7.351065,0.270741,6.495167,0.75596,0.6574,0.19317
1696781387179687,-7.354065,0.248741,6.437167,0.73196,0.10974,0.20717
1696781387187500,-7.383065,0.239741,6.464167,0.79596,0.1174,0.19017
1696781387195312,-7.390065,0.264741,6.536167,0.74996,0.974,0.20617
1696781387203125,-7.372065,0.288741,6.506167,0.63296,0.6474,0.19417
1696781387210937,-7.343065,0.310741,6.443167,0.76096,0.226,0.15917
1696781387218750,-7.334065,0.301741,6.416167,0.75196,0.1074,0.10917
1696781387226562,-7.339065,0.285741,6.437167,0.76996,0.726,0.10817
1696781387234375,-7.359065,0.285741,6.477167,0.76996,0.4174,0.7617
1696781387242187,-7.365065,0.293741,6.475167,0.74496,0.3274,0.6317
1696781387250000,-7.370065,0.293741,6.470167,0.81096,0.2974,0.11017
1696781387257812,-7.363065,0.288741,6.432167,0.76296,0.4574,0.15917
1696781387265625,-7.341065,0.288741,6.403167,0.79796,0.1174,0.9317
1696781387273437,-7.361065,0.292741,6.428167,0.82296,0.7974,0.17517
1696781387281250,-7.358065,0.286741,6.439167,0.75696,0.13374,0.3317
1696781387289062,-7.370065,0.282741,6.454167,0.75796,0.19774,0.6517
1696781387296875,-7.372065,0.284741,6.457167,0.74596,0.22774,0.6417
1696781387304687,-7.358065,0.284741,6.454167,0.75696,0.26274,0.8217
1696781387312500,-7.354065,0.277741,6.477167,0.74996,0.33974,0.3117
1696781387320312,-7.350065,0.299741,6.488167,0.75896,0.26174,0.8117
1696781387328125,-7.343065,0.325741,6.488167,0.74896,0.27574,0.1617
1696781387335937,-7.339065,0.337741,6.493167,0.72996,0.30974,0.6517
1696781387343750,-7.377065,0.330741,6.488167,0.76096,0.24374,0.11217
1696781387351562,-7.366065,0.313741,6.502167,0.74096,0.36074,0.9917
1696781387359375,-7.366065,0.322741,6.484167,0.75096,0.29974,0.11617
1696781387367187,-7.375065,0.315741,6.470167,0.74396,0.35874,0.13017
1696781387375000,-7.359065,0.295741,6.455167,0.75896,0.39074,0.13017
1696781387382812,-7.359065,0.290741,6.443167,0.75096,0.35274,0.17517
1696781387390625,-7.361065,0.304741,6.443167,0.75196,0.42774,0.19617
1696781387398437,-7.356065,0.304741,6.484167,0.71796,0.46174,0.21417
1696781387406250,-7.347065,0.286741,6.509167,0.74396,0.40574,0.19417
1696781387414062,-7.334065,0.312741,6.511167,0.68696,0.44474,0.21417
1696781387421875,-7.323065,0.323741,6.513167,0.73796,0.42574,0.18017
1696781387429687,-7.339065,0.321741,6.509167,0.75696,0.44174,0.14717
1696781387437500,-7.354065,0.308741,6.511167,0.74096,0.42474,0.14717
1696781387445312,-7.352065,0.301741,6.506167,0.74196,0.48874,0.17917
1696781387453125,-7.345065,0.296741,6.502167,0.74996,0.51674,0.16017
1696781387460937,-7.343065,0.301741,6.498167,0.76796,0.48474,0.4717
1696781387468750,-7.330065,0.294741,6.491167,0.75196,0.56574,0.3217
1696781387476562,-7.334065,0.305741,6.491167,0.76396,0.51974,0.3317
1696781387484375,-7.323065,0.301741,6.511167,0.74696,0.63574,0.1383
1696781387492187,-7.289065,0.302741,6.515167,0.76196,0.55374,0.1717
1696781387500000,-7.280065,0.304741,6.515167,0.65296,0.58674,0.2883
1696781387507812,-7.278065,0.320741,6.484167,0.68796,0.53474,0.0
1696781387515625,-7.289065,0.325741,6.502167,0.74496,0.52274,0.217
1696781387523437,-7.294065,0.318741,6.545167,0.72996,0.53874,0.2983
1696781387531250,-7.278065,0.293741,6.554167,0.69696,0.52274,0.5117
1696781387539062,-7.267065,0.282741,6.583167,0.73496,0.53274,0.9617
1696781387546875,-7.255065,0.287741,6.578167,0.69396,0.57274,0.8417
1696781387554687,-7.255065,0.293741,6.585167,0.69696,0.55374,0.13117
1696781387562500,-7.280065,0.316741,6.569167,0.61796,0.60274,0.14817
1696781387570312,-7.285065,0.311741,6.560167,0.64496,0.55774,0.11717
1696781387578125,-7.276065,0.313741,6.587167,0.61896,0.58574,0.13217
1696781387585937,-7.287065,0.291741,6.599167,0.73996,0.67074,0.11617
1696781387593750,-7.296065,0.289741,6.614167,0.67996,0.60374,0.10017
1696781387601562,-7.291065,0.296741,6.590167,0.61896,0.65174,0.10017
1696781387609375,-7.251065,0.298741,6.581167,0.53696,0.57174,0.13417
1696781387617187,-7.249065,0.308741,6.608167,0.55796,0.55174,0.14817
1696781387625000,-7.228065,0.290741,6.628167,0.57296,0.58474,0.14817
1696781387632812,-7.246065,0.288741,6.660167,0.62296,0.66574,0.9917
1696781387640625,-7.258065,0.288741,6.651167,0.69996,0.53374,0.17817
1696781387648437,-7.257065,0.284741,6.648167,0.64996,0.56974,0.16417
1696781387656250,-7.264065,0.269741,6.664167,0.69496,0.58774,0.11617
1696781387664062,-7.260065,0.275741,6.655167,0.74496,0.60274,0.9917
1696781387671875,-7.244065,0.290741,6.644167,0.65696,0.56574,0.8117
1696781387679687,-7.224065,0.281741,6.648167,0.57196,0.56974,0.13217
1696781387687500,-7.217065,0.290741,6.682167,0.68496,0.53574,0.6617
1696781387695312,-7.217065,0.284741,6.693167,0.58496,0.50474,0.18117
1696781387703125,-7.221065,0.293741,6.662167,0.49896,0.47774,0.16817
1696781387710937,-7.216065,0.260741,6.677167,0.49996,0.52674,0.12017
1696781387718750,-7.189065,0.254741,6.689167,0.49196,0.47274,0.11717
1696781387726562,-7.187065,0.241741,6.684167,0.54396,0.42074,0.9917
1696781387734375,-7.180065,0.250741,6.709167,0.53796,0.42474,0.13317
1696781387742187,-7.149065,0.261741,6.727167,0.52396,0.34174,0.14817
1696781387750000,-7.176065,0.248741,6.668167,0.48896,0.34374,0.15017
1696781387757812,-7.185065,0.228741,6.653167,0.51096,0.32374,0.11517
1696781387765625,-7.176065,0.225741,6.659167,0.61896,0.32574,0.9917
1696781387773437,-7.144065,0.225741,6.666167,0.71296,0.34174,0.13017
1696781387781250,-7.157065,0.207741,6.686167,0.75996,0.29274,0.11317
1696781387789062,-7.166065,0.203741,6.637167,0.76496,0.27374,0.9517
1696781387796875,-7.153065,0.214741,6.608167,0.77196,0.32874,0.9817
1696781387804687,-7.159065,0.203741,6.677167,0.75996,0.25974,0.11317
1696781387812500,-7.149065,0.218741,6.709167,0.71496,0.27474,0.12917
1696781387820312,-7.119065,0.234741,6.700167,0.71096,0.26174,0.13017
1696781387828125,-7.117065,0.227741,6.684167,0.76296,0.27374,0.17617
1696781387835937,-7.113065,0.233741,6.718167,0.66896,0.29174,0.6517
1696781387843750,-7.127065,0.255741,6.725167,0.69096,0.32074,0.4717
1696781387851562,-7.138065,0.276741,6.723167,0.65096,0.34174,0.8217
1696781387859375,-7.132065,0.302741,6.732167,0.72896,0.32574,0.9717
1696781387867187,-7.136065,0.293741,6.756167,0.60696,0.32274,0.9717
1696781387875000,-7.136065,0.280741,6.763167,0.71396,0.19474,0.8017
1696781387882812,-7.135065,0.261741,6.745167,0.62796,0.19774,0.21217
1696781387890625,-7.135065,0.236741,6.738167,0.62996,0.16574,0.13117
1696781387898437,-7.146065,0.221741,6.745167,0.55696,0.21074,0.13117
1696781387906250,-7.150065,0.212741,6.738167,0.65896,0.26374,0.18017
1696781387914062,-7.157065,0.212741,6.707167,0.61896,0.27574,0.11417
1696781387921875,-7.149065,0.218741,6.714167,0.63896,0.25674,0.11317
1696781387929687,-7.146065,0.227741,6.752167,0.70896,0.18074,0.17817
1696781387937500,-7.117065,0.249741,6.738167,0.68796,0.16774,0.14817
1696781387945312,-7.79065,0.269741,6.707167,0.64296,0.18374,0.11617
1696781387953125,-7.75065,0.260741,6.729167,0.70896,0.14774,0.16217
1696781387960937,-7.97065,0.249741,6.749167,0.64296,0.16674,0.13217
1696781387968750,-7.102065,0.247741,6.738167,0.64696,0.18074,0.13117
1696781387976562,-7.90065,0.240741,6.731167,0.67696,0.16574,0.11517
1696781387984375,-7.93065,0.247741,6.725167,0.72396,0.9974,0.13017
1696781387992187,-7.106065,0.244741,6.743167,0.72796,0.16174,0.20917
1696781388000000,-7.111065,0.247741,6.740167,0.63196,0.8274,0.11417
1696781388007812,-7.128065,0.241741,6.734167,0.65996,0.1974,0.13117
1696781388015625,-7.131065,0.243741,6.727167,0.75196,0.8674,0.11517
1696781388023437,-7.108065,0.254741,6.752167,0.73896,0.3574,0.9817
1696781388031250,-7.99065,0.269741,6.745167,0.74996,0.8974,0.3517
1696781388039062,-7.93065,0.269741,6.729167,0.69996,0.4674,0.7917
1696781388046875,-7.102065,0.267741,6.747167,0.71296,0.3226,0.6417
1696781388054687,-7.131065,0.243741,6.747167,0.74296,0.4826,0.12817
1696781388062500,-7.140065,0.245741,6.745167,0.77396,0.6326,0.4817
1696781388070312,-7.135065,0.236741,6.747167,0.68696,0.8526,0.9417
1696781388078125,-7.137065,0.216741,6.754167,0.67196,0.11826,0.3017
1696781388085937,-7.140065,0.243741,6.756167,0.71896,0.10126,0.6117
1696781388093750,-7.136065,0.254741,6.750167,0.71796,0.24726,0.6117
1696781388101562,-7.145065,0.272741,6.731167,0.74596,0.26126,0.3017
1696781388109375,-7.158065,0.274741,6.727167,0.69896,0.26126,0.1417
1696781388117187,-7.156065,0.285741,6.749167,0.66996,0.24626,0.183
1696781388125000,-7.172065,0.292741,6.725167,0.65296,0.22826,0.3283
1696781388132812,-7.141065,0.285741,6.691167,0.62696,0.19926,0.283
1696781388140625,-7.143065,0.278741,6.736167,0.64696,0.25126,0.3683
1696781388148437,-7.153065,0.252741,6.731167,0.57496,0.24426,0.6483
1696781388156250,-7.145065,0.249741,6.716167,0.52196,0.30026,0.5183
1696781388164062,-7.147065,0.276741,6.732167,0.52196,0.29926,0.13183
1696781388171875,-7.152065,0.278741,6.723167,0.50496,0.23226,0.16283
1696781388179687,-7.161065,0.272741,6.725167,0.55396,0.29926,0.16383
1696781388187500,-7.176065,0.256741,6.768167,0.55696,0.33326,0.18083
1696781388195312,-7.201065,0.248741,6.777167,0.50996,0.44726,0.14983
1696781388203125,-7.207065,0.255741,6.736167,0.51696,0.36026,0.14583
1696781388210937,-7.223065,0.259741,6.779167,0.50996,0.39826,0.19783
1696781388218750,-7.237065,0.246741,6.842167,0.35796,0.43426,0.19683
1696781388226562,-7.221065,0.273741,6.844167,0.25196,0.45926,0.17583
1696781388234375,-7.227065,0.308741,6.856167,0.27696,0.49826,0.17983
1696781388242187,-7.239065,0.287741,6.815167,0.26696,0.49026,0.24083
1696781388250000,-7.246065,0.266741,6.844167,0.18596,0.75826,0.32483
1696781388257812,-7.273065,0.240741,6.914167,0.1704,0.87426,0.30783
1696781388265625,-7.286065,0.245741,6.889167,0.12696,0.100626,0.31083
1696781388273437,-7.279065,0.236741,6.842167,0.28096,0.113426,0.32883
1696781388281250,-7.285065,0.205741,6.828167,0.26196,0.139226,0.37683
1696781388289062,-7.287065,0.181741,6.812167,0.26196,0.160126,0.47383
1696781388296875,-7.281065,0.185741,6.806167,0.31796,0.180226,0.55783
1696781388304687,-7.299065,0.183741,6.806167,0.30896,0.193626,0.59283
1696781388312500,-7.315065,0.217741,6.772167,0.32196,0.229326,0.59383
1696781388320312,-7.353065,0.228741,6.756167,0.50996,0.258626,0.62983
1696781388328125,-7.387065,0.213741,6.736167,0.68496,0.271626,0.68083
1696781388335937,-7.436065,0.187741,6.711167,0.68796,0.291426,0.69883
1696781388343750,-7.436065,0.181741,6.653167,0.63096,0.319426,0.78183
1696781388351562,-7.422065,0.174741,6.619167,0.78396,0.351526,0.84783
1696781388359375,-7.422065,0.178741,6.619167,0.83896,0.386326,0.86883
1696781388367187,-7.449065,0.194741,6.628167,0.84496,0.422526,0.93683
1696781388375000,-7.461065,0.225741,6.572167,0.94496,0.437426,0.97283
1696781388382812,-7.461065,0.243741,6.513167,0.108496,0.448726,0.100683
1696781388390625,-7.444065,0.249741,6.446167,0.109096,0.473626,0.100983
1696781388398437,-7.461065,0.230741,6.461167,0.107296,0.505926,0.107483
1696781388406250,-7.508065,0.224741,6.461167,0.104296,0.538526,0.115683
1696781388414062,-7.535065,0.244741,6.335167,0.106296,0.558326,0.117483
1696781388421875,-7.536065,0.248741,6.207167,0.108296,0.587726,0.130583
1696781388429687,-7.567065,0.244741,6.227167,0.107196,0.623926,0.130983
1696781388437500,-7.601065,0.240741,6.247167,0.109196,0.650026,0.144083
1696781388445312,-7.592065,0.289741,6.216167,0.105696,0.688826,0.153683
1696781388453125,-7.631065,0.336741,6.92167,0.108496,0.713826,0.165483
1696781388460937,-7.672065,0.370741,5.943167,0.109396,0.734626,0.165383
1696781388468750,-7.738065,0.396741,5.871167,0.116496,0.751326,0.170583
1696781388476562,-7.781065,0.401741,5.865167,0.113596,0.785726,0.174083
1696781388484375,-7.804065,0.416741,5.826167,0.125396,0.807426,0.176183
1696781388492187,-7.797065,0.410741,5.752167,0.150196,0.820126,0.177983
1696781388500000,-7.789065,0.367741,5.666167,0.161596,0.857926,0.178483
1696781388507812,-7.760065,0.360741,5.576167,0.165096,0.884326,0.177183
1696781388515625,-7.737065,0.367741,5.545167,0.184396,0.919326,0.180383
1696781388523437,-7.756065,0.389741,5.513167,0.184896,0.967026,0.180783
1696781388531250,-7.767065,0.427741,5.511167,0.185796,1.1626,0.192483
1696781388539062,-7.755065,0.498741,5.462167,0.205096,1.41026,0.193083
1696781388546875,-7.778065,0.543741,5.378167,0.212696,1.89726,0.194883
1696781388554687,-7.804065,0.585741,5.266167,0.214896,1.125826,0.203283
1696781388562500,-7.835065,0.585741,5.167167,0.235996,1.167026,0.207183
1696781388570312,-7.930065,0.595741,4.982167,0.234796,1.214526,0.212383
1696781388578125,-7.982065,0.621741,4.849167,0.244496,1.239026,0.215883
1696781388585937,-8.92065,0.651741,4.763167,0.252696,1.273326,0.222683
1696781388593750,-8.238065,0.660741,4.576167,0.261896,1.299326,0.226083
1696781388601562,-8.322065,0.675741,4.502167,0.254196,1.322126,0.230883
1696781388609375,-8.432065,0.692741,4.374167,0.245696,1.350326,0.240883
1696781388617187,-8.531065,0.718741,4.230167,0.248096,1.371026,0.235983
1696781388625000,-8.566065,0.780741,4.140167,0.239496,1.399526,0.226683
1696781388632812,-8.551065,0.831741,4.83167,0.240496,1.431726,0.228283
1696781388640625,-8.537065,0.893741,4.5167,0.239996,1.453526,0.231883
1696781388648437,-8.467065,0.885741,3.953167,0.248296,1.470026,0.241883
1696781388656250,-8.492065,0.910741,3.910167,0.265896,1.494426,0.253583
1696781388664062,-8.530065,0.930741,3.671167,0.261096,1.492726,0.254983
1696781388671875,-8.494065,0.883741,3.563167,0.287496,1.495626,0.259983
1696781388679687,-8.525065,0.877741,3.495167,0.282396,1.531126,0.266383
1696781388687500,-8.540065,0.835741,3.367167,0.250796,1.544926,0.282583
1696781388695312,-8.567065,0.829741,3.257167,0.261096,1.549226,0.285683
1696781388703125,-8.672065,0.817741,3.194167,0.285796,1.574226,0.299283
1696781388710937,-8.775065,0.778741,3.36167,0.300296,1.597126,0.309283
1696781388718750,-8.886065,0.862741,2.955167,0.321996,1.608126,0.320683
1696781388726562,-9.66065,0.978741,2.856167,0.300796,1.620026,0.325583
1696781388734375,-9.137065,1.50741,2.633167,0.293096,1.610326,0.325483
1696781388742187,-9.105065,1.54741,2.518167,0.323496,1.595026,0.322283
1696781388750000,-9.48065,1.117741,2.491167,0.353796,1.603526,0.316383
1696781388757812,-9.7065,1.114741,2.370167,0.367796,1.605226,0.310183
1696781388765625,-8.879065,1.104741,2.239167,0.372096,1.608326,0.298883
1696781388773437,-8.803065,1.122741,2.185167,0.376996,1.607026,0.290983
1696781388781250,-8.767065,1.124741,2.106167,0.359296,1.613526,0.277883
1696781388789062,-8.928065,1.235741,1.991167,0.368896,1.626626,0.279683
1696781388796875,-9.171065,1.379741,2.12167,0.400996,1.608126,0.276483
1696781388804687,-9.243065,1.486741,1.854167,0.419596,1.636926,0.267783
1696781388812500,-9.245065,1.506741,1.566167,0.442396,1.667326,0.269483
1696781388820312,-9.329065,1.571741,1.345167,0.442396,1.685326,0.264783
1696781388828125,-9.372065,1.563741,1.73167,0.442496,1.682426,0.248783
1696781388835937,-9.359065,1.578741,0.859167,0.422096,1.672926,0.234083
1696781388843750,-9.406065,1.610741,0.692167,0.399996,1.659926,0.230583
1696781388851562,-9.491065,1.602741,0.602167,0.377196,1.635026,0.225083
1696781388859375,-9.532065,1.627741,0.593167,0.354996,1.623626,0.215083
1696781388867187,-9.539065,1.635741,0.573167,0.337896,1.596626,0.209383
1696781388875000,-9.517065,1.678741,0.525167,0.322796,1.580626,0.214183
1696781388882812,-9.534065,1.736741,0.350167,0.314596,1.582226,0.209183
1696781388890625,-9.563065,1.743741,0.258167,0.316996,1.576326,0.201483
1696781388898437,-9.642065,1.771741,0.120167,0.313396,1.556626,0.194783
1696781388906250,-9.640065,1.771741,0.30167,0.296196,1.523226,0.179483
1696781388914062,-9.639065,1.835741,0.90833,0.295596,1.506026,0.176583
1696781388921875,-9.627065,1.837741,0.212833,0.285296,1.463226,0.164683
1696781388929687,-9.715065,1.816741,0.298833,0.263496,1.417826,0.157883
1696781388937500,-9.730065,1.774741,0.372833,0.264496,1.394626,0.155983
1696781388945312,-9.716065,1.743741,0.430833,0.245796,1.349126,0.157183
1696781388953125,-9.761065,1.721741,0.493833,0.231796,1.302026,0.152083
1696781388960937,-9.704065,1.689741,0.552833,0.219996,1.255926,0.144983
1696781388968750,-9.697065,1.660741,0.539833,0.233896,1.223226,0.146483
1696781388976562,-9.694065,1.649741,0.584833,0.240696,1.176926,0.136383
