time,Acceleration X (m/s^2),Acceleration Y (m/s^2),Acceleration Z (m/s^2),Angular Velocity X (rad/s),Angular Velocity Y (rad/s),Angular Velocity Z (rad/s)
1696781555460937,-9.150757,1.274556,-3.368587,-0.660629,,
1696781555468750,-9.76757,1.284556,-3.372587,1.204087,0.664229,0.633202
1696781555476562,-9.46757,1.332556,-3.384587,1.253387,0.661029,0.654802
1696781555484375,-8.990757,1.391556,-3.354587,1.302287,0.672429,0.663402
1696781555492187,-8.918757,1.490556,-3.314587,1.346187,0.695629,0.681402
1696781555500000,-8.827757,1.575556,-3.284587,1.391887,0.713629,0.689902
1696781555515625,-8.574757,1.768556,-3.255587,1.469887,0.741729,0.693702
1696781555523437,-8.537757,1.848556,-3.278587,1.517887,0.734229,0.695602
1696781555531250,-8.531757,1.905556,-3.311587,1.564187,0.727029,0.691702
1696781555539062,-8.545757,1.956556,-3.349587,1.595787,0.720229,0.681002
1696781555562500,-8.428757,2.203556,-3.349587,1.677787,0.699229,0.640102
1696781555570312,-8.440757,2.265556,-3.291587,1.697987,0.683029,0.633902
1696781555578125,-8.517757,2.344556,-3.286587,1.708587,0.661829,0.616302
1696781555585937,-8.577757,2.394556,-3.311587,1.700787,0.640329,0.602002
1696781555593750,-8.643757,2.484556,-3.354587,1.708487,0.612529,0.595802
1696781555601562,-8.658757,2.561556,-3.403587,1.715487,0.584129,0.586702
1696781555609375,-8.654757,2.637556,-3.439587,1.712787,0.552029,0.568802
1696781555617187,-8.627757,2.730556,-3.442587,1.711387,0.529029,0.565702
1696781555625000,-8.572757,2.800556,-3.435587,1.714687,0.502729,0.559602
1696781555632812,-8.512757,2.874556,-3.466587,1.713387,0.460129,0.558302
1696781555640625,-8.477757,2.929556,-3.509587,1.719787,0.424129,0.553802
1696781555648437,-8.466757,2.933556,-3.543587,1.719887,0.401329,0.558702
1696781555656250,-8.500757,2.931556,-3.610587,1.734687,0.379629,0.557602
1696781555664062,-8.506757,2.920556,-3.646587,1.731287,0.371729,0.562302
1696781555671875,-8.495757,2.905556,-3.734587,1.737787,0.353729,0.567402
1696781555679687,-8.442757,2.869556,-3.786587,1.734187,0.360729,0.571902
1696781555687500,-8.382757,2.868556,-3.811587,1.739487,0.350629,0.580202
1696781555695312,-8.339757,2.896556,-3.818587,1.739887,0.346329,0.568602
1696781555703125,-8.284757,2.980556,-3.752587,1.738287,0.347829,0.560602
1696781555710937,-8.236757,3.50556,-3.696587,1.754087,0.344229,0.546502
1696781555718750,-8.153757,3.77556,-3.590587,1.784287,0.342229,0.534202
1696781555726562,-8.50757,3.91556,-3.502587,1.791487,0.324429,0.519702
1696781555734375,-7.978757,3.59556,-3.439587,1.808087,0.316329,0.492502
1696781555742187,-7.929757,2.997556,-3.417587,1.816487,0.306829,0.468302
1696781555750000,-7.877757,2.938556,-3.426587,1.843987,0.298729,0.441202
1696781555757812,-7.827757,2.879556,-3.405587,1.876187,0.274929,0.418002
1696781555765625,-7.821757,2.799556,-3.410587,1.919287,0.252229,0.391102
1696781555773437,-7.865757,2.720556,-3.435587,1.941287,0.230629,0.367502
1696781555781250,-7.935757,2.619556,-3.446587,1.979987,0.209429,0.345502
1696781555789062,-8.37757,2.546556,-3.458587,1.990187,0.188329,0.316602
1696781555796875,-8.173757,2.476556,-3.480587,2.5787,0.179629,0.286402
1696781555804687,-8.292757,2.434556,-3.554587,2.19387,0.169929,0.267202
1696781555812500,-8.357757,2.426556,-3.647587,2.52687,0.156729,0.269402
1696781555820312,-8.525757,2.404556,-3.651587,2.92187,0.132329,0.276502
1696781555828125,-8.827757,2.313556,-3.554587,2.116187,0.104329,0.281802
1696781555835937,-9.204757,2.135556,-3.475587,2.134687,0.80829,0.292302
1696781555843750,-9.612757,1.928556,-3.485587,2.124987,0.65229,0.317702
1696781555851562,-10.94757,1.801556,-3.545587,2.94787,0.21129,0.359602
1696781555859375,-10.693757,1.755556,-3.622587,2.42887,0.12871,0.434802
1696781555867187,-11.125757,1.777556,-3.723587,2.1087,0.7771,0.531002
1696781555875000,-11.104757,1.896556,-3.759587,1.994087,0.2571,0.643802
1696781555882812,-10.464757,2.48556,-3.426587,1.995587,0.50329,0.741602
1696781555890625,-9.478757,2.87556,-2.789587,1.996287,0.103129,0.804002
1696781555898437,-8.587757,2.20556,-2.289587,1.976287,0.133929,0.813402
1696781555906250,-7.910757,1.872556,-2.161587,1.972587,0.132529,0.803502
1696781555914062,-7.454757,1.751556,-2.289587,1.963587,0.130429,0.794002
1696781555921875,-7.176757,1.751556,-2.591587,1.930987,0.127029,0.798602
1696781555929687,-7.72757,1.932556,-2.965587,1.902087,0.163729,0.823302
1696781555937500,-7.376757,2.251556,-3.212587,1.879187,0.209429,0.850302
1696781555945312,-8.48757,2.545556,-3.435587,1.869987,0.242229,0.874102
1696781555953125,-8.766757,2.592556,-3.714587,1.907987,0.264829,0.869802
1696781555960937,-9.451757,2.385556,-3.989587,1.963987,0.260129,0.855902
1696781555968750,-10.78757,1.953556,-4.271587,1.998287,0.266829,0.859402
1696781555976562,-10.432757,1.450556,-4.494587,1.983787,0.325729,0.858802
1696781555984375,-10.440757,0.951556,-4.550587,1.962887,0.372529,0.871602
1696781555992187,-10.295757,0.547556,-4.544587,1.971887,0.384429,0.882602
1696781556000000,-10.72757,0.276556,-4.544587,2.45487,0.383029,0.888202
1696781556007812,-9.755757,0.85556,-4.600587,2.182287,0.363729,0.904402
1696781556015625,-9.475757,0.5556,-4.756587,2.320687,0.334529,0.914202
1696781556023437,-9.311757,0.60556,-4.920587,2.426687,0.335429,0.934302
1696781556031250,-9.240757,0.270556,-5.4587,2.528887,0.337429,0.956302
1696781556039062,-9.271757,0.523556,-5.82587,2.602887,0.353729,0.960402
1696781556046875,-9.326757,0.773556,-5.107587,2.675287,0.371029,0.959002
1696781556054687,-9.374757,1.46556,-5.131587,2.723387,0.404529,0.959902
1696781556062500,-9.430757,1.315556,-5.170587,2.756187,0.425929,0.958502
1696781556070312,-9.478757,1.513556,-5.235587,2.763987,0.453429,0.948902
1696781556078125,-9.432757,1.619556,-5.311587,2.772987,0.491329,0.950202
1696781556085937,-9.343757,1.628556,-5.347587,2.798587,0.518429,0.939502
1696781556093750,-9.138757,1.532556,-5.311587,2.810987,0.558729,0.933902
1696781556101562,-8.878757,1.384556,-5.237587,2.838987,0.599729,0.937102
1696781556109375,-8.633757,1.232556,-5.104587,2.858087,0.638929,0.951602
1696781556117187,-8.440757,1.142556,-4.974587,2.896287,0.661729,0.968202
1696781556125000,-8.323757,1.91556,-4.904587,2.926287,0.686429,0.989302
1696781556132812,-8.239757,1.192556,-4.861587,2.959587,0.693129,1.10602
1696781556140625,-8.216757,1.347556,-4.863587,2.986187,0.696929,1.36402
1696781556148437,-8.190757,1.542556,-4.881587,3.20587,0.715829,1.51702
1696781556156250,-8.191757,1.760556,-4.859587,3.42587,0.739929,1.60802
1696781556164062,-8.145757,1.934556,-4.849587,3.35287,0.760729,1.65602
1696781556171875,-8.105757,2.97556,-4.840587,3.24687,0.780029,1.60802
1696781556179687,-8.80757,2.234556,-4.816587,3.14587,0.796529,1.49102
1696781556187500,-8.47757,2.336556,-4.755587,3.4487,0.796929,1.43902
1696781556195312,-8.37757,2.394556,-4.705587,2.993587,0.791829,1.37402
1696781556203125,-8.44757,2.391556,-4.712587,2.982987,0.776629,1.24802
1696781556210937,-8.57757,2.379556,-4.696587,2.964487,0.764429,1.20802
1696781556218750,-8.103757,2.340556,-4.690587,2.942787,0.754229,1.11202
1696781556226562,-8.105757,2.295556,-4.636587,2.917387,0.751029,1.2802
1696781556234375,-8.100757,2.239556,-4.590587,2.886687,0.752129,0.999602
1696781556242187,-8.101757,2.166556,-4.557587,2.860187,0.745329,0.993002
1696781556250000,-8.87757,2.108556,-4.511587,2.849487,0.728629,0.986702
1696781556257812,-8.97757,2.58556,-4.507587,2.831387,0.719329,0.978102
1696781556265625,-8.98757,2.556,-4.536587,2.823787,0.710929,0.978202
1696781556273437,-8.66757,1.946556,-4.566587,2.806587,0.693029,0.982902
1696781556281250,-8.56757,1.899556,-4.608587,2.801087,0.679729,0.997602
1696781556289062,-8.56757,1.846556,-4.631587,2.791987,0.661929,1.16902
1696781556296875,-8.76757,1.727556,-4.624587,2.771887,0.655329,1.24802
1696781556304687,-8.84757,1.507556,-4.573587,2.752087,0.633929,1.40902
1696781556312500,-8.28757,1.249556,-4.521587,2.735587,0.610929,1.60302
1696781556320312,-7.955757,1.15556,-4.517587,2.712587,0.603129,1.98602
1696781556328125,-8.30757,0.930556,-4.600587,2.716787,0.608229,1.153402
1696781556335937,-8.198757,1.75556,-4.713587,2.751187,0.623929,1.199902
1696781556343750,-8.313757,1.356556,-4.789587,2.793487,0.639929,1.247402
1696781556351562,-8.475757,1.657556,-4.953587,2.845587,0.646829,1.276802
1696781556359375,-8.741757,1.968556,-5.84587,2.911887,0.638729,1.284202
1696781556367187,-8.968757,2.266556,-5.86587,2.991787,0.669629,1.277002
1696781556375000,-9.105757,2.554556,-4.962587,3.42787,0.705829,1.259502
1696781556382812,-9.248757,2.796556,-4.817587,3.86287,0.730229,1.238902
1696781556390625,-9.385757,3.67556,-4.594587,3.140187,0.756729,1.219802
1696781556398437,-9.512757,3.340556,-4.333587,3.176187,0.798029,1.181002
1696781556406250,-9.604757,3.576556,-4.78587,3.179887,0.825229,1.111802
1696781556414062,-9.627757,3.760556,-3.839587,3.186587,0.850229,1.10702
1696781556421875,-9.600757,3.909556,-3.520587,3.179087,0.852229,0.918302
1696781556429687,-9.523757,3.952556,-3.209587,3.171987,0.849529,0.830102
1696781556437500,-9.285757,3.831556,-2.857587,3.118287,0.864029,0.747102
1696781556445312,-8.996757,3.636556,-2.500587,2.986187,0.882129,0.692002
1696781556453125,-8.883757,3.435556,-2.337587,2.818387,0.899529,0.677202
1696781556460937,-8.788757,3.242556,-2.257587,2.672487,0.910729,0.675502
1696781556468750,-8.784757,3.20556,-2.268587,2.568087,0.895529,0.684302
1696781556476562,-8.713757,2.749556,-2.201587,2.487887,0.863129,0.688202
1696781556484375,-8.763757,2.386556,-2.158587,2.435287,0.790929,0.697802
1696781556492187,-8.804757,2.110556,-2.208587,2.374587,0.716029,0.720002
1696781556500000,-8.766757,2.22556,-2.503587,2.305687,0.650229,0.760102
1696781556507812,-8.785757,2.62556,-2.890587,2.241387,0.609229,0.816202
1696781556515625,-8.832757,2.211556,-3.194587,2.200287,0.560229,0.858002
1696781556523437,-8.861757,2.345556,-3.372587,2.204087,0.519329,0.877602
1696781556531250,-8.950757,2.399556,-3.500587,2.263187,0.484929,0.902902
1696781556539062,-9.1757,2.405556,-3.557587,2.328687,0.465929,0.916302
1696781556546875,-9.1757,2.356556,-3.674587,2.401387,0.464229,0.927002
1696781556554687,-8.911757,2.327556,-3.752587,2.480387,0.485129,0.929702
1696781556562500,-8.764757,2.285556,-3.822587,2.550087,0.510329,0.933202
1696781556570312,-8.610757,2.230556,-3.867587,2.621787,0.546429,0.922402
1696781556578125,-8.414757,2.189556,-3.818587,2.673287,0.566229,0.921302
1696781556585937,-8.290757,2.176556,-3.766587,2.680287,0.575729,0.931202
1696781556593750,-8.231757,2.259556,-3.721587,2.654787,0.579029,0.921102
1696781556601562,-8.205757,2.372556,-3.662587,2.615587,0.559429,0.922402
1696781556609375,-8.237757,2.544556,-3.572587,2.577787,0.536829,0.931502
1696781556617187,-8.307757,2.734556,-3.539587,2.529987,0.511129,0.926002
1696781556625000,-8.389757,2.932556,-3.534587,2.505687,0.482929,0.934102
1696781556632812,-8.457757,3.115556,-3.556587,2.484587,0.454529,0.931202
1696781556640625,-8.494757,3.286556,-3.563587,2.472087,0.431729,0.932802
1696781556648437,-8.493757,3.388556,-3.545587,2.453387,0.426429,0.921502
1696781556656250,-8.430757,3.421556,-3.491587,2.428487,0.429029,0.915802
1696781556664062,-8.355757,3.439556,-3.452587,2.423387,0.442629,0.906602
1696781556671875,-8.276757,3.436556,-3.421587,2.416187,0.449629,0.896502
1696781556679687,-8.206757,3.422556,-3.369587,2.415687,0.451329,0.883502
1696781556687500,-8.154757,3.392556,-3.380587,2.423187,0.461029,0.861002
1696781556695312,-8.151757,3.354556,-3.408587,2.421187,0.464329,0.848002
1696781556703125,-8.177757,3.308556,-3.486587,2.423687,0.469929,0.834102
1696781556710937,-8.222757,3.277556,-3.572587,2.418087,0.475129,0.819202
1696781556718750,-8.267757,3.283556,-3.637587,2.403587,0.473629,0.807702
1696781556726562,-8.326757,3.319556,-3.669587,2.380387,0.460129,0.801302
1696781556734375,-8.358757,3.353556,-3.666587,2.368987,0.453829,0.793002
1696781556742187,-8.382757,3.355556,-3.671587,2.365787,0.429229,0.785102
1696781556750000,-8.389757,3.355556,-3.675587,2.353487,0.424129,0.786702
1696781556757812,-8.400757,3.347556,-3.693587,2.348887,0.406329,0.791502
1696781556765625,-8.407757,3.347556,-3.727587,2.358787,0.404229,0.787002
1696781556773437,-8.391757,3.338556,-3.765587,2.361187,0.404629,0.782002
1696781556781250,-8.409757,3.340556,-3.815587,2.365687,0.394929,0.778802
1696781556789062,-8.430757,3.345556,-3.855587,2.387987,0.388129,0.772802
1696781556796875,-8.423757,3.345556,-3.907587,2.396687,0.380529,0.774202
1696781556804687,-8.398757,3.320556,-3.957587,2.404887,0.378429,0.763302
1696781556812500,-8.341757,3.312556,-3.975587,2.432887,0.376829,0.754002
1696781556820312,-8.288757,3.324556,-3.986587,2.444887,0.372929,0.756202
1696781556828125,-8.182757,3.339556,-3.948587,2.460887,0.377029,0.751002
1696781556835937,-8.106757,3.353556,-3.919587,2.473787,0.381829,0.762502
1696781556843750,-8.57757,3.355556,-3.905587,2.494187,0.385129,0.761102
1696781556851562,-8.2757,3.332556,-3.853587,2.513787,0.389029,0.762502
1696781556859375,-7.932757,3.264556,-3.790587,2.532087,0.388229,0.758402
1696781556867187,-7.905757,3.180556,-3.732587,2.542387,0.380429,0.751902
1696781556875000,-7.898757,3.139556,-3.689587,2.549587,0.371329,0.738002
1696781556882812,-7.875757,3.117556,-3.723587,2.534787,0.360229,0.728002
1696781556890625,-7.863757,3.163556,-3.741587,2.507687,0.345529,0.708402
1696781556898437,-7.846757,3.262556,-3.747587,2.487687,0.312429,0.700502
1696781556906250,-7.875757,3.376556,-3.783587,2.474987,0.275029,0.700502
1696781556914062,-8.6757,3.465556,-3.732587,2.438687,0.216329,0.695402
1696781556921875,-8.396757,3.498556,-3.637587,2.349787,0.149029,0.696602
1696781556929687,-9.27757,3.465556,-3.641587,2.240087,0.97329,0.701002
1696781556937500,-9.751757,3.323556,-3.689587,2.113187,0.81229,0.725202
1696781556945312,-10.444757,3.115556,-3.826587,1.998087,0.70229,0.793102
1696781556953125,-10.869757,2.939556,-4.6587,1.934187,0.83229,0.876202
1696781556960937,-10.781757,2.769556,-4.74587,1.915687,0.135829,0.978802
1696781556968750,-10.246757,2.672556,-3.948587,1.929187,0.226229,1.55602
1696781556976562,-9.531757,2.677556,-3.482587,1.991187,0.307529,1.100302
1696781556984375,-9.81757,2.732556,-3.113587,2.94587,0.341729,1.83802
1696781556992187,-8.921757,2.852556,-3.56587,2.209687,0.356329,1.31902
1696781557000000,-8.927757,2.920556,-3.254587,2.249687,0.362329,0.971302
1696781557007812,-8.987757,2.908556,-3.457587,2.221187,0.368829,0.899902
1696781557015625,-9.93757,2.783556,-3.617587,2.168087,0.374829,0.826802
1696781557023437,-9.145757,2.558556,-3.649587,2.103487,0.373229,0.759802
1696781557031250,-9.115757,2.329556,-3.620587,2.45287,0.371129,0.727102
1696781557039062,-9.48757,2.70556,-3.568587,1.996487,0.371029,0.716902
1696781557046875,-8.976757,1.781556,-3.512587,1.952487,0.382529,0.725902
1696781557054687,-8.945757,1.497556,-3.417587,1.926687,0.403629,0.757802
1696781557062500,-8.930757,1.252556,-3.336587,1.919587,0.423329,0.791502
1696781557070312,-8.894757,1.103556,-3.233587,1.923787,0.445029,0.800802
1696781557078125,-8.854757,1.5556,-3.100587,1.947787,0.489029,0.818702
1696781557085937,-8.865757,0.965556,-2.978587,1.980287,0.512029,0.809202
1696781557093750,-8.981757,0.952556,-2.954587,1.996987,0.525029,0.786702
1696781557101562,-9.152757,0.941556,-3.17587,2.30687,0.541429,0.753202
1696781557109375,-9.305757,0.941556,-3.156587,2.63487,0.554229,0.731002
1696781557117187,-9.385757,0.876556,-3.336587,2.103487,0.560829,0.704002
1696781557125000,-9.485757,0.802556,-3.598587,2.149987,0.555929,0.680402
1696781557132812,-9.689757,0.740556,-3.870587,2.208287,0.536229,0.679602
1696781557140625,-9.830757,0.750556,-4.30587,2.280987,0.522429,0.681702
1696781557148437,-9.876757,0.832556,-4.129587,2.342487,0.504429,0.682602
1696781557156250,-9.833757,0.944556,-4.230587,2.369887,0.509029,0.694402
1696781557164062,-9.654757,1.105556,-4.190587,2.368687,0.518529,0.697702
1696781557171875,-9.473757,1.221556,-4.77587,2.371187,0.537029,0.698902
1696781557179687,-9.227757,1.263556,-3.924587,2.359087,0.559529,0.700502
1696781557187500,-8.958757,1.209556,-3.846587,2.340287,0.576929,0.705902
1696781557195312,-8.747757,1.81556,-3.823587,2.323787,0.566829,0.718902
1696781557203125,-8.723757,0.939556,-3.897587,2.303587,0.570129,0.729902
1696781557210937,-8.780757,0.881556,-4.12587,2.268787,0.579329,0.749202
1696781557218750,-8.815757,0.955556,-4.116587,2.246887,0.579429,0.756902
1696781557226562,-8.932757,1.65556,-4.307587,2.239887,0.561429,0.784502
1696781557234375,-8.974757,1.195556,-4.379587,2.243187,0.559929,0.802102
1696781557242187,-9.28757,1.367556,-4.429587,2.254387,0.542329,0.823202
1696781557250000,-9.44757,1.508556,-4.462587,2.263087,0.553129,0.825202
1696781557257812,-8.961757,1.645556,-4.365587,2.266687,0.576729,0.826302
1696781557265625,-8.882757,1.819556,-4.235587,2.270987,0.580129,0.813302
1696781557273437,-8.772757,1.935556,-4.50587,2.272887,0.586229,0.805502
1696781557281250,-8.665757,1.993556,-3.829587,2.279787,0.592929,0.782802
1696781557289062,-8.557757,1.976556,-3.665587,2.295787,0.600729,0.770302
1696781557296875,-8.520757,1.898556,-3.590587,2.279987,0.602129,0.755702
1696781557304687,-8.502757,1.805556,-3.627587,2.259987,0.601129,0.745402
1696781557312500,-8.477757,1.782556,-3.703587,2.238287,0.594429,0.745302
1696781557320312,-8.513757,1.762556,-3.784587,2.215387,0.580629,0.734202
1696781557328125,-8.567757,1.797556,-3.823587,2.178487,0.568329,0.743002
1696781557335937,-8.602757,1.879556,-3.897587,2.136387,0.548429,0.737902
1696781557343750,-8.636757,1.977556,-3.991587,2.107987,0.531129,0.733502
1696781557351562,-8.631757,2.90556,-4.70587,2.86887,0.516529,0.712202
1696781557359375,-8.562757,2.195556,-4.126587,2.70887,0.506729,0.705602
1696781557367187,-8.539757,2.282556,-4.171587,2.43587,0.493829,0.684302
1696781557375000,-8.555757,2.316556,-4.219587,2.17287,0.498929,0.654702
1696781557382812,-8.534757,2.284556,-4.203587,1.998187,0.493829,0.632002
1696781557390625,-8.515757,2.201556,-4.115587,1.971887,0.501329,0.611102
1696781557398437,-8.482757,2.94556,-4.61587,1.948287,0.497829,0.596402
1696781557406250,-8.460757,1.988556,-4.45587,1.925887,0.496229,0.586402
1696781557414062,-8.439757,1.908556,-4.57587,1.903587,0.488229,0.584502
1696781557421875,-8.442757,1.859556,-4.86587,1.887587,0.468829,0.579402
1696781557429687,-8.475757,1.813556,-4.91587,1.875487,0.442429,0.582802
1696781557437500,-8.499757,1.767556,-4.106587,1.863187,0.412829,0.578102
1696781557445312,-8.526757,1.738556,-4.131587,1.860687,0.375029,0.584902
1696781557453125,-8.506757,1.724556,-4.192587,1.843787,0.353729,0.594502
1696781557460937,-8.490757,1.713556,-4.257587,1.842587,0.338929,0.601102
1696781557468750,-8.481757,1.720556,-4.295587,1.823887,0.316229,0.615402
1696781557476562,-8.485757,1.708556,-4.311587,1.819987,0.306229,0.631702
1696781557484375,-8.499757,1.715556,-4.324587,1.824387,0.294129,0.646802
1696781557492187,-8.523757,1.694556,-4.320587,1.815487,0.285329,0.655902
1696781557500000,-8.523757,1.678556,-4.329587,1.826287,0.272629,0.670302
1696781557507812,-8.525757,1.647556,-4.338587,1.824187,0.273829,0.685102
1696781557515625,-8.513757,1.589556,-4.318587,1.818687,0.270129,0.693402
1696781557523437,-8.498757,1.542556,-4.275587,1.807687,0.276829,0.701202
1696781557531250,-8.448757,1.484556,-4.226587,1.787387,0.267129,0.715502
1696781557539062,-8.363757,1.396556,-4.194587,1.776087,0.254429,0.720002
1696781557546875,-8.311757,1.340556,-4.203587,1.764987,0.249829,0.731002
1696781557554687,-8.281757,1.331556,-4.219587,1.765387,0.248129,0.742402
1696781557562500,-8.263757,1.326556,-4.244587,1.771787,0.256729,0.768002
1696781557570312,-8.333757,1.329556,-4.280587,1.795887,0.263029,0.779702
1696781557578125,-8.561757,1.373556,-4.293587,1.842087,0.264629,0.801302
1696781557585937,-8.919757,1.556556,-4.296587,1.914187,0.289629,0.824302
1696781557593750,-9.306757,1.881556,-4.232587,1.986587,0.317729,0.849102
1696781557601562,-9.768757,2.378556,-4.86587,2.66587,0.355229,0.848302
1696781557609375,-10.202757,3.24556,-3.824587,2.136287,0.388129,0.824602
1696781557617187,-10.512757,3.724556,-3.427587,2.198287,0.422829,0.750702
1696781557625000,-10.608757,4.255556,-2.999587,2.226787,0.447829,0.640102
1696781557632812,-10.306757,4.371556,-2.423587,2.259487,0.502029,0.533402
1696781557640625,-9.686757,3.924556,-1.639587,2.311087,0.535929,0.443702
1696781557648437,-9.37757,3.225556,-1.29587,2.280187,0.552229,0.401202
1696781557656250,-8.610757,2.502556,0.937587,2.173887,0.553429,0.395402
1696781557664062,-8.411757,2.9556,-1.422587,2.54187,0.526229,0.417902
1696781557671875,-8.435757,1.709556,-2.75587,1.978387,0.501729,0.457502
1696781557679687,-8.606757,1.532556,-2.645587,1.942187,0.480029,0.494602
1696781557687500,-8.752757,1.428556,-3.73587,1.913687,0.479029,0.518102
1696781557695312,-8.814757,1.335556,-3.298587,1.894987,0.478229,0.540902
1696781557703125,-8.852757,1.329556,-3.404587,1.875287,0.460529,0.579402
1696781557710937,-8.949757,1.501556,-3.444587,1.841787,0.448929,0.616302
1696781557718750,-9.125757,1.810556,-3.469587,1.863187,0.416429,0.655402
1696781557726562,-9.308757,2.137556,-3.518587,1.903087,0.387429,0.696202
1696781557734375,-9.424757,2.422556,-3.583587,1.949287,0.372729,0.719502
1696781557742187,-9.426757,2.646556,-3.653587,2.7587,0.351529,0.728302
1696781557750000,-9.324757,2.778556,-3.640587,2.23687,0.351329,0.728702
1696781557757812,-9.179757,2.833556,-3.574587,2.40287,0.353229,0.719002
1696781557765625,-9.73757,2.827556,-3.534587,2.45087,0.364529,0.717502
1696781557773437,-8.966757,2.850556,-3.525587,2.38387,0.385929,0.710702
1696781557781250,-8.841757,2.895556,-3.549587,2.25487,0.417029,0.703902
1696781557789062,-8.745757,2.980556,-3.626587,2.18687,0.436929,0.705102
1696781557796875,-8.740757,3.62556,-3.691587,2.11087,0.449729,0.703502
1696781557804687,-8.739757,3.143556,-3.687587,1.985387,0.458829,0.705202
1696781557812500,-8.710757,3.212556,-3.633587,1.933387,0.455229,0.707002
1696781557820312,-8.687757,3.267556,-3.509587,1.885987,0.438229,0.719802
1696781557828125,-8.659757,3.342556,-3.369587,1.842487,0.416729,0.724402
1696781557835937,-8.657757,3.416556,-3.230587,1.798487,0.389329,0.738402
1696781557843750,-8.663757,3.464556,-3.142587,1.760087,0.359529,0.749602
1696781557851562,-8.674757,3.471556,-3.85587,1.720487,0.324729,0.765802
1696781557859375,-8.638757,3.438556,-3.63587,1.675987,0.310429,0.768202
1696781557867187,-8.569757,3.363556,-3.61587,1.641887,0.310129,0.769602
1696781557875000,-8.466757,3.266556,-3.119587,1.619587,0.308329,0.750102
1696781557882812,-8.381757,3.143556,-3.173587,1.614287,0.310229,0.740202
1696781557890625,-8.326757,3.47556,-3.225587,1.622187,0.314829,0.727502
1696781557898437,-8.287757,2.968556,-3.331587,1.643887,0.314529,0.697302
1696781557906250,-8.229757,2.887556,-3.432587,1.674487,0.321329,0.679702
1696781557914062,-8.205757,2.805556,-3.525587,1.708087,0.316629,0.652602
1696781557921875,-8.247757,2.741556,-3.565587,1.726787,0.309929,0.636802
1696781557929687,-8.332757,2.687556,-3.565587,1.741587,0.307729,0.634102
1696781557937500,-8.407757,2.626556,-3.561587,1.744587,0.306029,0.624402
1696781557945312,-8.448757,2.604556,-3.529587,1.771387,0.305829,0.613602
1696781557953125,-8.488757,2.597556,-3.473587,1.790587,0.295129,0.607002
1696781557960937,-8.474757,2.577556,-3.390587,1.790087,0.290529,0.602002
1696781557968750,-8.438757,2.609556,-3.304587,1.792287,0.289929,0.594302
1696781557976562,-8.423757,2.662556,-3.212587,1.790287,0.296729,0.594102
1696781557984375,-8.381757,2.717556,-3.149587,1.793287,0.290329,0.597302
1696781557992187,-8.326757,2.778556,-3.142587,1.799187,0.292129,0.589202
1696781558000000,-8.236757,2.795556,-3.221587,1.812187,0.292729,0.579302
1696781558007812,-8.133757,2.764556,-3.268587,1.839487,0.279129,0.570402
1696781558015625,-8.74757,2.763556,-3.372587,1.844287,0.273729,0.544902
1696781558023437,-7.971757,2.782556,-3.383587,1.863487,0.269329,0.520702
1696781558031250,-7.902757,2.816556,-3.365587,1.863987,0.235929,0.497102
1696781558039062,-7.901757,2.907556,-3.320587,1.862487,0.215729,0.468402
1696781558046875,-7.949757,2.970556,-3.291587,1.829787,0.211229,0.438802
1696781558054687,-8.87757,3.14556,-3.291587,1.783387,0.191629,0.401202
1696781558062500,-8.279757,3.39556,-3.277587,1.711187,0.166529,0.370102
1696781558070312,-8.577757,3.15556,-3.201587,1.611887,0.136929,0.343402
1696781558078125,-9.106757,2.953556,-3.122587,1.499987,0.101029,0.330902
1696781558085937,-9.802757,2.861556,-3.92587,1.407487,0.67529,0.351402
1696781558093750,-10.499757,2.734556,-3.151587,1.338887,0.41529,0.379702
1696781558101562,-10.965757,2.500556,-3.347587,1.314987,0.31829,0.431002
1696781558109375,-11.35757,2.248556,-3.489587,1.338487,0.40529,0.521402
1696781558117187,-10.594757,1.913556,-3.449587,1.358187,0.109529,0.579202
1696781558125000,-9.782757,1.559556,-3.149587,1.366387,0.160429,0.611102
1696781558132812,-9.80757,1.411556,-2.940587,1.346487,0.186929,0.597602
1696781558140625,-8.654757,1.442556,-2.884587,1.321987,0.227729,0.563102
1696781558148437,-8.503757,1.613556,-3.82587,1.295487,0.259029,0.531802
1696781558156250,-8.546757,1.892556,-3.509587,1.304787,0.275629,0.513202
1696781558164062,-8.720757,2.94556,-3.798587,1.330587,0.275929,0.489202
1696781558171875,-9.13757,2.258556,-4.25587,1.341387,0.284029,0.484402
1696781558179687,-9.389757,2.439556,-4.234587,1.356787,0.307029,0.476302
1696781558187500,-9.739757,2.549556,-4.275587,1.374687,0.338229,0.455302
1696781558195312,-9.970757,2.524556,-4.178587,1.401187,0.346229,0.437902
1696781558203125,-10.26757,2.403556,-3.996587,1.403587,0.331729,0.415302
1696781558210937,-9.877757,2.150556,-3.723587,1.394887,0.326029,0.402702
1696781558218750,-9.590757,1.826556,-3.449587,1.359687,0.316329,0.382902
1696781558226562,-9.327757,1.647556,-3.323587,1.334387,0.300029,0.374602
1696781558234375,-9.167757,1.600556,-3.374587,1.329987,0.278629,0.376402
1696781558242187,-9.58757,1.570556,-3.474587,1.337387,0.267429,0.370002
1696781558250000,-8.970757,1.557556,-3.577587,1.327887,0.277029,0.357002
1696781558257812,-8.926757,1.572556,-3.674587,1.299287,0.282029,0.350102
1696781558265625,-8.914757,1.556556,-3.753587,1.255787,0.270029,0.337102
1696781558273437,-8.934757,1.512556,-3.766587,1.227887,0.259629,0.319302
1696781558281250,-8.994757,1.509556,-3.717587,1.193887,0.238929,0.310702
1696781558289062,-9.72757,1.563556,-3.685587,1.158187,0.230229,0.292802
1696781558296875,-9.100757,1.638556,-3.638587,1.118887,0.225029,0.279602
1696781558304687,-9.55757,1.676556,-3.550587,1.90887,0.232129,0.261102
1696781558312500,-8.968757,1.681556,-3.435587,1.54787,0.215729,0.254402
1696781558320312,-8.828757,1.675556,-3.307587,1.12887,0.195529,0.239802
1696781558328125,-8.690757,1.612556,-3.199587,0.972287,0.187129,0.234602
1696781558335937,-8.559757,1.517556,-3.113587,0.926787,0.180629,0.240602
1696781558343750,-8.478757,1.428556,-3.66587,0.884087,0.187529,0.251102
1696781558351562,-8.462757,1.385556,-3.64587,0.841887,0.192629,0.271402
1696781558359375,-8.501757,1.408556,-3.95587,0.810387,0.187029,0.290802
1696781558367187,-8.537757,1.446556,-3.138587,0.773787,0.195729,0.306202
1696781558375000,-8.610757,1.514556,-3.149587,0.751387,0.205029,0.325502
1696781558382812,-8.654757,1.566556,-3.95587,0.724687,0.200629,0.349202
1696781558390625,-8.697757,1.622556,-3.43587,0.686187,0.189029,0.366602
1696781558398437,-8.752757,1.684556,-3.27587,0.661787,0.182029,0.371402
1696781558406250,-8.835757,1.790556,-3.587,0.642887,0.164129,0.371302
1696781558414062,-8.886757,1.889556,-3.28587,0.621887,0.146629,0.372502
1696781558421875,-8.930757,1.969556,-3.73587,0.606287,0.130029,0.359602
1696781558429687,-8.942757,2.56556,-3.133587,0.597087,0.114929,0.348502
1696781558437500,-8.939757,2.138556,-3.201587,0.581187,0.103529,0.343502
1696781558445312,-8.888757,2.215556,-3.239587,0.564787,0.100629,0.331802
1696781558453125,-8.845757,2.282556,-3.279587,0.548287,0.81829,0.319302
1696781558460937,-8.832757,2.369556,-3.295587,0.518087,0.91729,0.309102
1696781558468750,-8.849757,2.461556,-3.257587,0.494587,0.85829,0.287502
1696781558476562,-8.932757,2.532556,-3.221587,0.445087,0.75029,0.260102
1696781558484375,-9.5757,2.603556,-3.176587,0.378087,0.60429,0.223802
1696781558492187,-9.57757,2.645556,-3.153587,0.325187,0.43229,0.193002
1696781558500000,-9.125757,2.686556,-3.122587,0.265787,0.30329,0.155102
1696781558507812,-9.148757,2.733556,-3.61587,0.200587,0.12229,0.115802
1696781558515625,-9.158757,2.756556,-2.991587,0.132987,0.3329,0.76602
1696781558523437,-9.122757,2.759556,-2.901587,0.60487,0.6871,0.40502
1696781558531250,-9.95757,2.746556,-2.860587,0.1687,0.18571,0.1998
1696781558539062,-9.49757,2.705556,-2.856587,0.59213,0.29771,0.33498
1696781558546875,-9.44757,2.656556,-2.869587,0.117413,0.38371,0.66198
1696781558554687,-9.15757,2.570556,-2.930587,0.181413,0.36471,0.89698
1696781558562500,-8.976757,2.469556,-2.973587,0.251613,0.58371,0.107898
1696781558570312,-8.918757,2.353556,-3.43587,0.315813,0.70071,0.119698
1696781558578125,-8.856757,2.254556,-3.97587,0.373713,0.86871,0.139498
1696781558585937,-8.870757,2.150556,-3.131587,0.427013,0.109971,0.146298
1696781558593750,-8.891757,2.71556,-3.151587,0.465413,0.135871,0.162898
1696781558601562,-8.921757,2.14556,-3.151587,0.517913,0.156971,0.177998
1696781558609375,-8.907757,1.949556,-3.131587,0.568213,0.163771,0.200998
1696781558617187,-8.913757,1.931556,-3.102587,0.626413,0.188671,0.227198
1696781558625000,-8.891757,1.922556,-3.93587,0.701613,0.207171,0.248698
1696781558632812,-8.860757,1.968556,-3.109587,0.764913,0.219971,0.255998
1696781558640625,-8.825757,2.14556,-3.102587,0.833113,0.245571,0.280398
1696781558648437,-8.805757,2.65556,-3.77587,0.898213,0.260071,0.298898
1696781558656250,-8.752757,2.118556,-3.34587,0.957413,0.281071,0.326998
1696781558664062,-8.733757,2.166556,-3.16587,-1.10513,0.306071,0.345098
1696781558671875,-8.715757,2.183556,-2.967587,-1.73613,0.311371,0.376298
1696781558679687,-8.727757,2.212556,-2.942587,-1.155413,0.332871,0.397998
1696781558687500,-8.703757,2.265556,-2.906587,-1.235513,0.359571,0.430798
1696781558695312,-8.630757,2.331556,-2.852587,-1.319413,0.389071,0.462298
1696781558703125,-8.506757,2.342556,-2.867587,-1.411913,0.411071,0.496798
1696781558710937,-8.412757,2.356556,-2.921587,-1.492613,0.445271,0.520198
1696781558718750,-8.340757,2.333556,-3.3587,-1.568013,0.466971,0.543398
1696781558726562,-8.309757,2.243556,-3.115587,-1.643313,0.483671,0.561798
1696781558734375,-8.369757,2.182556,-3.277587,-1.720813,0.509971,0.593198
1696781558742187,-8.485757,2.148556,-3.453587,-1.782213,0.534771,0.612998
1696781558750000,-8.625757,2.197556,-3.577587,-1.847413,0.528071,0.638098
1696781558757812,-8.739757,2.319556,-3.642587,-1.869913,0.523371,0.664098
1696781558765625,-8.902757,2.518556,-3.660587,-1.877913,0.525371,0.691498
1696781558773437,-9.108757,2.768556,-3.619587,-1.874513,0.551471,0.746098
1696781558781250,-9.245757,3.5556,-3.572587,-1.875613,0.597771,0.824698
1696781558789062,-9.283757,3.185556,-3.536587,-1.892613,0.642471,0.914798
1696781558796875,-9.105757,3.281556,-3.502587,-1.928013,0.668571,-1.6998
1696781558804687,-8.664757,3.247556,-3.502587,-1.979313,0.677571,-1.94398
1696781558812500,-8.104757,3.119556,-3.565587,-2.3313,0.667471,-1.154498
1696781558820312,-7.626757,3.11556,-3.653587,-2.36513,0.661571,-1.195098
1696781558828125,-7.291757,2.973556,-3.811587,-2.70513,0.644871,-1.214998
1696781558835937,-7.145757,2.955556,-4.18587,-2.90213,0.625971,-1.223198
1696781558843750,-7.197757,2.991556,-4.198587,-2.126113,0.605071,-1.225298
1696781558851562,-7.472757,3.61556,-4.342587,-2.163513,0.600171,-1.214498
1696781558859375,-7.927757,3.129556,-4.489587,-2.198413,0.596471,-1.206998
1696781558867187,-8.506757,3.184556,-4.592587,-2.246513,0.598471,-1.202598
1696781558875000,-9.179757,3.272556,-4.682587,-2.287313,0.613171,-1.198198
1696781558882812,-9.726757,3.321556,-4.842587,-2.324113,0.632171,-1.192198
1696781558890625,-9.977757,3.295556,-5.11587,-2.342013,0.645671,-1.179298
1696781558898437,-9.949757,3.190556,-5.153587,-2.374213,0.650971,-1.174698
1696781558906250,-9.669757,3.8556,-5.173587,-2.406813,0.649571,-1.168598
1696781558914062,-9.314757,2.841556,-5.103587,-2.458913,0.642771,-1.166098
1696781558921875,-8.982757,2.765556,-5.83587,-2.476913,0.657771,-1.151598
1696781558929687,-8.816757,2.776556,-5.189587,-2.483513,0.676671,-1.125898
1696781558937500,-8.729757,2.821556,-5.369587,-2.478213,0.688071,-1.101598
1696781558945312,-8.674757,2.877556,-5.536587,-2.454613,0.683771,-1.76998
1696781558953125,-8.659757,2.946556,-5.646587,-2.440713,0.670171,-1.49598
1696781558960937,-8.693757,2.980556,-5.637587,-2.428313,0.645371,-1.40098
1696781558968750,-8.761757,3.17556,-5.497587,-2.432313,0.629271,-1.19198
1696781558976562,-8.796757,3.75556,-5.315587,-2.443413,0.615971,-1.12998
1696781558984375,-8.752757,3.150556,-5.110587,-2.467113,0.598071,-1.18198
1696781558992187,-8.567757,3.226556,-4.930587,-2.489913,0.585471,-1.13598
1696781559000000,-8.328757,3.296556,-4.725587,-2.517013,0.562471,-1.18898
1696781559007812,-8.124757,3.391556,-4.545587,-2.550513,0.555771,-1.29098
1696781559015625,-7.930757,3.472556,-4.446587,-2.590113,0.541171,-1.44198
1696781559023437,-7.764757,3.494556,-4.441587,-2.631413,0.526571,-1.62498
1696781559031250,-7.678757,3.417556,-4.493587,-2.670213,0.546571,-1.70698
1696781559039062,-7.694757,3.282556,-4.560587,-2.713013,0.556471,-1.90498
1696781559046875,-7.775757,3.160556,-4.622587,-2.739213,0.562371,-1.98998
1696781559054687,-7.822757,3.5556,-4.671587,-2.765213,0.550071,-1.108898
1696781559062500,-7.848757,2.817556,-4.728587,-2.791113,0.539671,-1.106198
1696781559070312,-7.899757,2.651556,-4.759587,-2.797813,0.526471,-1.114498
1696781559078125,-7.994757,2.555556,-4.761587,-2.779013,0.510071,-1.107898
1696781559085937,-8.32757,2.484556,-4.802587,-2.766813,0.492771,-1.101198
1696781559093750,-8.63757,2.441556,-4.806587,-2.735913,0.484171,-1.94598
1696781559101562,-8.114757,2.426556,-4.861587,-2.706613,0.473971,-1.95998
1696781559109375,-8.127757,2.422556,-4.901587,-2.682713,0.457871,-1.87798
1696781559117187,-8.116757,2.428556,-4.942587,-2.656213,0.451071,-1.85898
1696781559125000,-8.59757,2.503556,-4.966587,-2.633013,0.432771,-1.74598
1696781559132812,-7.893757,2.644556,-4.982587,-2.597713,0.428071,-1.59598
1696781559140625,-7.742757,2.802556,-4.953587,-2.548113,0.439071,-1.62298
1696781559148437,-7.709757,2.970556,-4.883587,-2.506713,0.452671,-1.72898
1696781559156250,-7.670757,3.51556,-4.772587,-2.478013,0.449171,-1.106498
1696781559164062,-7.698757,3.27556,-4.734587,-2.465113,0.452571,-1.159498
1696781559171875,-7.815757,2.987556,-4.689587,-2.456313,0.462471,-1.189998
1696781559179687,-7.997757,2.999556,-4.660587,-2.457213,0.459171,-1.223898
1696781559187500,-8.204757,2.995556,-4.664587,-2.475513,0.445371,-1.252998
1696781559195312,-8.352757,2.871556,-4.775587,-2.513513,0.415271,-1.282798
1696781559203125,-8.451757,2.717556,-4.890587,-2.540113,0.404371,-1.305698
1696781559210937,-8.604757,2.540556,-4.980587,-2.584313,0.412871,-1.330198
1696781559218750,-8.994757,2.337556,-4.937587,-2.654113,0.406271,-1.353698
1696781559226562,-9.640757,1.990556,-4.901587,-2.767513,0.368671,-1.355298
1696781559234375,-10.466757,1.629556,-4.852587,-2.892213,0.334071,-1.298998
1696781559242187,-11.318757,1.207556,-4.938587,-3.7913,0.296371,-1.203898
1696781559250000,-11.735757,0.548556,-4.954587,-3.126713,0.225971,-1.97698
1696781559257812,-11.346757,0.225444,-4.837587,-3.215213,0.137771,0.991298
1696781559265625,-10.392757,0.712444,-4.216587,-3.265913,0.58271,0.874998
1696781559273437,-9.449757,0.890444,-3.556587,-3.316513,0.2271,0.790598
1696781559281250,-8.581757,0.522444,-2.842587,-3.303513,0.76429,0.750698
1696781559289062,-7.894757,0.128556,-2.438587,-3.266513,0.97629,0.719698
1696781559296875,-7.548757,1.116556,-2.490587,-3.143813,0.27429,0.721098
1696781559304687,-7.544757,2.61556,-2.829587,-2.986813,0.85371,0.742598
1696781559312500,-7.666757,2.677556,-3.275587,-2.821213,0.214071,0.775498
1696781559320312,-7.822757,3.36556,-3.766587,-2.704113,0.315971,0.852198
1696781559328125,-7.944757,3.65556,-4.239587,-2.625813,0.364971,0.928398
1696781559335937,-8.25757,2.924556,-4.678587,-2.601413,0.413171,-1.8198
1696781559343750,-8.189757,2.780556,-5.77587,-2.587113,0.447871,-1.88398
1696781559351562,-8.365757,2.640556,-5.248587,-2.643213,0.467971,-1.162898
1696781559359375,-8.522757,2.485556,-5.320587,-2.746513,0.492671,-1.221998
1696781559367187,-8.677757,2.365556,-5.297587,-2.831213,0.514471,-1.248498
1696781559375000,-8.782757,2.281556,-5.246587,-2.903313,0.521071,-1.242898
1696781559382812,-8.798757,2.150556,-5.108587,-2.955213,0.526471,-1.214198
1696781559390625,-8.706757,1.936556,-4.964587,-3.10613,0.509371,-1.186198
1696781559398437,-8.534757,1.665556,-4.787587,-3.45213,0.494271,-1.157798
1696781559406250,-8.377757,1.414556,-4.661587,-3.55213,0.473271,-1.133798
1696781559414062,-8.306757,1.202556,-4.656587,-3.37213,0.476571,-1.106098
1696781559421875,-8.288757,1.29556,-4.728587,-3.2513,0.466471,-1.84898
1696781559429687,-8.297757,0.898556,-4.812587,-2.975813,0.445071,-1.75098
1696781559437500,-8.284757,0.778556,-4.886587,-2.953513,0.420671,-1.68498
1696781559445312,-8.269757,0.676556,-4.969587,-2.938213,0.409271,-1.79698
1696781559453125,-8.263757,0.598556,-5.24587,-2.926513,0.408671,-1.82898
1696781559460937,-8.239757,0.500556,-4.992587,-2.905813,0.412371,-1.97098
1696781559468750,-8.236757,0.456556,-4.931587,-2.903413,0.438071,-1.105098
1696781559476562,-8.220757,0.422556,-4.798587,-2.916513,0.461771,-1.111298
1696781559484375,-8.198757,0.431556,-4.681587,-2.954713,0.492571,-1.122898
1696781559492187,-8.232757,0.482556,-4.596587,-2.980713,0.507771,-1.122898
1696781559500000,-8.364757,0.578556,-4.553587,-2.999213,0.505371,-1.124998
1696781559507812,-8.548757,0.696556,-4.497587,-3.4913,0.508871,-1.120098
1696781559515625,-8.783757,0.784556,-4.422587,-3.6413,0.495771,-1.112198
1696781559523437,-8.995757,0.796556,-4.364587,-3.24613,0.484671,-1.107498
1696781559531250,-9.134757,0.779556,-4.312587,-3.34913,0.469571,-1.114298
1696781559539062,-9.203757,0.778556,-4.181587,-3.60013,0.459871,-1.116298
1696781559546875,-9.223757,0.717556,-4.41587,-3.88713,0.446071,-1.122898
1696781559554687,-9.143757,0.646556,-3.920587,-3.105313,0.430871,-1.124998
1696781559562500,-8.975757,0.583556,-3.893587,-3.118213,0.443771,-1.129898
1696781559570312,-8.819757,0.507556,-3.902587,-3.106513,0.460471,-1.127898
1696781559578125,-8.640757,0.421556,-3.940587,-3.102013,0.479671,-1.111698
1696781559585937,-8.470757,0.305556,-3.977587,-3.84513,0.499271,-1.108198
1696781559593750,-8.320757,0.183556,-4.96587,-3.59213,0.523471,-1.85198
1696781559601562,-8.181757,0.98556,-4.218587,-3.20413,0.536771,-1.60398
1696781559609375,-8.25757,0.43556,-4.287587,-2.997813,0.543071,-1.19898
1696781559617187,-7.885757,0.16444,-4.369587,-2.973413,0.542871,0.979298
1696781559625000,-7.730757,0.7444,-4.380587,-2.947613,0.552271,0.937098
1696781559632812,-7.585757,0.38556,-4.393587,-2.924613,0.586471,0.896298
1696781559640625,-7.407757,0.47556,-4.326587,-2.902013,0.608971,0.849298
1696781559648437,-7.276757,0.1444,-4.195587,-2.890113,0.618271,0.791198
1696781559656250,-7.182757,0.120444,-3.977587,-2.863313,0.621871,0.743898
1696781559664062,-7.180757,0.260444,-3.781587,-2.836613,0.623371,0.674298
1696781559671875,-7.413757,0.289444,-3.689587,-2.768813,0.613371,0.594498
1696781559679687,-8.69757,0.179444,-3.646587,-2.671913,0.599671,0.517898
1696781559687500,-9.126757,0.264556,-3.386587,-2.567813,0.589671,0.490898
1696781559695312,-10.361757,1.209556,-3.66587,-2.500313,0.641771,0.551198
1696781559703125,-11.111757,2.229556,-3.97587,-2.421813,0.732271,0.722098
1696781559710937,-11.108757,2.990556,-2.917587,-2.312013,0.775571,0.904098
1696781559718750,-10.264757,3.559556,-2.457587,-2.197513,0.770671,-1.34998
1696781559726562,-8.833757,3.683556,-1.837587,-2.110313,0.679871,-1.90898
1696781559734375,-7.671757,3.424556,-1.464587,-2.95113,0.598671,-1.96398
1696781559742187,-7.243757,3.33556,-1.680587,-2.115513,0.586171,-1.64298
1696781559750000,-7.608757,2.723556,-2.507587,-2.87913,0.621771,-1.20298
1696781559757812,-8.478757,2.426556,-3.489587,-1.978013,0.662071,0.997898
1696781559765625,-9.320757,2.86556,-4.257587,-1.897113,0.688571,0.990198
1696781559773437,-9.934757,1.778556,-4.712587,-1.937213,0.678771,0.961698
1696781559781250,-10.369757,1.733556,-4.994587,-2.55813,0.649071,0.908598
1696781559789062,-10.640757,1.999556,-5.356587,-2.218013,0.677271,0.827898
1696781559796875,-10.830757,2.474556,-5.813587,-2.398713,0.720271,0.737598
1696781559804687,-10.948757,3.8556,-5.932587,-2.480613,0.742571,0.657998
1696781559812500,-10.790757,3.412556,-5.439587,-2.449913,0.729271,0.609398
1696781559820312,-10.425757,3.602556,-4.675587,-2.388513,0.702871,0.586298
1696781559828125,-10.111757,3.684556,-4.90587,-2.357713,0.658271,0.579998
1696781559835937,-9.810757,3.648556,-3.745587,-2.320913,0.602671,0.599298
1696781559843750,-9.485757,3.459556,-3.594587,-2.299213,0.568671,0.631398
1696781559851562,-9.185757,3.248556,-3.597587,-2.306213,0.534271,0.646298
1696781559859375,-9.15757,3.95556,-3.727587,-2.325613,0.509771,0.669198
1696781559867187,-8.892757,3.26556,-3.880587,-2.357713,0.503271,0.690598
1696781559875000,-8.796757,3.56556,-4.54587,-2.399113,0.480371,0.705798
1696781559882812,-8.754757,3.130556,-4.196587,-2.437113,0.478871,0.725598
1696781559890625,-8.701757,3.196556,-4.268587,-2.462913,0.475371,0.738898
1696781559898437,-8.639757,3.235556,-4.252587,-2.483113,0.466071,0.758398
1696781559906250,-8.526757,3.185556,-4.126587,-2.513813,0.446071,0.768698
1696781559914062,-8.422757,3.165556,-3.982587,-2.559213,0.426971,0.786898
1696781559921875,-8.305757,3.137556,-3.808587,-2.597413,0.404071,0.798798
1696781559929687,-8.275757,3.117556,-3.678587,-2.629213,0.407271,0.813698
1696781559937500,-8.286757,2.957556,-3.727587,-2.646913,0.405771,0.831598
1696781559945312,-8.227757,2.739556,-3.714587,-2.669213,0.427171,0.857498
1696781559953125,-8.291757,2.565556,-3.897587,-2.699113,0.468071,0.865698
1696781559960937,-8.385757,2.362556,-4.54587,-2.714013,0.504771,0.878298
1696781559968750,-8.476757,2.161556,-4.171587,-2.732913,0.527571,0.879998
1696781559976562,-8.539757,1.987556,-4.250587,-2.764713,0.528871,0.877198
1696781559984375,-8.615757,1.840556,-4.257587,-2.771713,0.527371,0.853098
1696781559992187,-8.715757,1.759556,-4.190587,-2.750613,0.522771,0.844698
1696781560000000,-8.794757,1.769556,-4.160587,-2.703813,0.513871,0.816998
1696781560007812,-8.785757,1.802556,-4.102587,-2.613913,0.505771,0.804698
1696781560015625,-8.746757,1.853556,-4.30587,-2.540113,0.505471,0.787798
1696781560023437,-8.714757,1.963556,-3.996587,-2.469013,0.498971,0.775598
1696781560031250,-8.642757,2.88556,-3.980587,-2.403113,0.503671,0.765198
1696781560039062,-8.511757,2.210556,-4.9587,-2.345613,0.513871,0.757898
1696781560046875,-8.399757,2.404556,-4.65587,-2.311813,0.536171,0.757498
1696781560054687,-8.288757,2.642556,-4.38587,-2.277013,0.541171,0.755398
1696781560062500,-8.100757,2.836556,-3.959587,-2.252313,0.559071,0.771198
1696781560070312,-7.968757,3.16556,-3.901587,-2.240013,0.585471,0.801398
1696781560078125,-7.843757,3.119556,-3.883587,-2.242213,0.596071,0.833998
1696781560085937,-7.800757,3.183556,-3.962587,-2.264813,0.591571,0.882498
1696781560093750,-7.869757,3.137556,-3.986587,-2.311013,0.582371,0.939398
1696781560101562,-7.952757,2.976556,-3.957587,-2.377113,0.590771,-1.19098
1696781560109375,-7.962757,2.793556,-3.933587,-2.431913,0.564771,-1.76298
1696781560117187,-7.724757,2.627556,-3.951587,-2.453613,0.565471,-1.103798
1696781560125000,-7.686757,2.549556,-4.84587,-2.471213,0.620971,-1.119698
1696781560132812,-7.988757,2.555556,-4.137587,-2.475013,0.664271,-1.135398
1696781560140625,-8.406757,2.551556,-4.124587,-2.483813,0.686871,-1.161198
1696781560148437,-8.844757,2.415556,-4.122587,-2.499813,0.685371,-1.180698
1696781560156250,-9.259757,2.187556,-4.185587,-2.534913,0.673871,-1.197398
1696781560164062,-9.843757,1.869556,-4.271587,-2.577713,0.674471,-1.178398
1696781560171875,-10.538757,1.512556,-4.296587,-2.624913,0.637971,-1.150298
1696781560179687,-11.114757,1.79556,-4.291587,-2.662813,0.597271,-1.100898
1696781560187500,-11.299757,0.541556,-4.274587,-2.690913,0.516371,-1.31098
1696781560195312,-11.16757,0.23444,-4.69587,-2.683313,0.446071,0.968598
1696781560203125,-10.496757,0.492444,-3.752587,-2.675313,0.375371,0.930398
1696781560210937,-9.872757,0.732444,-3.340587,-2.639713,0.291571,0.914498
1696781560218750,-9.280757,0.628444,-2.858587,-2.580013,0.252071,0.896398
1696781560226562,-8.869757,0.348444,-2.486587,-2.515813,0.261271,0.871598
1696781560234375,-8.653757,0.69556,-2.294587,-2.429613,0.304171,0.845998
1696781560242187,-8.594757,0.576556,-2.253587,-2.330913,0.332071,0.813898
1696781560250000,-8.598757,1.121556,-2.264587,-2.258313,0.328471,0.774498
1696781560257812,-8.547757,1.624556,-2.381587,-2.246113,0.288771,0.760198
1696781560265625,-8.515757,2.49556,-2.660587,-2.257613,0.234971,0.781598
1696781560273437,-8.409757,2.334556,-2.926587,-2.245913,0.195871,0.817198
1696781560281250,-8.324757,2.490556,-2.982587,-2.223813,0.211971,0.863698
1696781560289062,-8.445757,2.609556,-3.110587,-2.208013,0.278071,0.907998
1696781560296875,-8.619757,2.643556,-3.284587,-2.206013,0.344971,0.957598
1696781560304687,-8.808757,2.697556,-3.450587,-2.223413,0.412471,0.994298
1696781560312500,-8.980757,2.766556,-3.700587,-2.270713,0.447571,-1.47598
1696781560320312,-9.90757,2.707556,-3.995587,-2.324513,0.451171,-1.83598
1696781560328125,-9.23757,2.471556,-4.207587,-2.385413,0.450971,-1.119898
1696781560335937,-8.900757,2.101556,-4.322587,-2.464513,0.447671,-1.136998
1696781560343750,-8.807757,1.621556,-4.408587,-2.544413,0.444471,-1.133098
1696781560351562,-8.798757,1.181556,-4.429587,-2.625613,0.433171,-1.114698
1696781560359375,-8.820757,0.873556,-4.442587,-2.684613,0.414871,-1.70498
1696781560367187,-8.863757,0.706556,-4.413587,-2.732713,0.385171,-1.26098
1696781560375000,-8.825757,0.578556,-4.427587,-2.728213,0.372371,0.984198
1696781560382812,-8.706757,0.470556,-4.463587,-2.722913,0.355871,0.951998
1696781560390625,-8.584757,0.395556,-4.499587,-2.691813,0.348771,0.930898
1696781560398437,-8.477757,0.347556,-4.519587,-2.664513,0.371671,0.915898
1696781560406250,-8.390757,0.354556,-4.488587,-2.660913,0.373471,0.904498
1696781560414062,-8.286757,0.366556,-4.429587,-2.658413,0.376371,0.909398
1696781560421875,-8.177757,0.373556,-4.350587,-2.643313,0.381871,0.910598
1696781560429687,-8.103757,0.412556,-4.330587,-2.623013,0.385171,0.913598
1696781560437500,-8.90757,0.456556,-4.362587,-2.593513,0.383371,0.916498
1696781560445312,-8.172757,0.513556,-4.420587,-2.551713,0.373171,0.920998
1696781560453125,-8.343757,0.538556,-4.452587,-2.509513,0.368171,0.923798
1696781560460937,-8.531757,0.514556,-4.454587,-2.478413,0.374371,0.920298
1696781560468750,-8.709757,0.517556,-4.445587,-2.471813,0.384171,0.905598
1696781560476562,-8.844757,0.506556,-4.411587,-2.462013,0.382471,0.889398
1696781560484375,-8.907757,0.484556,-4.323587,-2.447013,0.377971,0.877798
1696781560492187,-8.940757,0.454556,-4.193587,-2.449113,0.361071,0.860398
1696781560500000,-8.955757,0.423556,-4.87587,-2.446813,0.356371,0.844298
1696781560507812,-8.930757,0.414556,-3.990587,-2.446013,0.360171,0.843998
1696781560515625,-8.893757,0.467556,-3.954587,-2.451813,0.377371,0.845898
1696781560523437,-8.820757,0.532556,-3.925587,-2.463613,0.392471,0.844098
1696781560531250,-8.767757,0.607556,-3.895587,-2.497013,0.401971,0.842998
1696781560539062,-8.698757,0.690556,-3.846587,-2.546413,0.428471,0.831998
1696781560546875,-8.578757,0.750556,-3.767587,-2.591813,0.436571,0.821198
1696781560554687,-8.403757,0.801556,-3.657587,-2.648613,0.436071,0.799498
1696781560562500,-8.226757,0.825556,-3.553587,-2.683413,0.442971,0.772298
1696781560570312,-8.52757,0.864556,-3.517587,-2.713813,0.470971,0.744998
1696781560578125,-7.960757,0.899556,-3.542587,-2.723513,0.499671,0.719298
1696781560585937,-7.945757,0.960556,-3.657587,-2.711013,0.531171,0.694598
1696781560593750,-8.65757,1.11556,-3.819587,-2.693613,0.571971,0.687698
1696781560601562,-8.306757,1.23556,-3.965587,-2.665413,0.626571,0.680298
1696781560609375,-8.645757,1.44556,-4.183587,-2.657613,0.672371,0.684698
1696781560617187,-8.973757,1.27556,-4.370587,-2.639113,0.706671,0.703698
1696781560625000,-9.259757,1.27556,-4.364587,-2.612713,0.719571,0.711398
1696781560632812,-9.500757,1.84556,-4.264587,-2.597613,0.738971,0.724098
1696781560640625,-9.694757,1.140556,-4.167587,-2.575213,0.744271,0.734898
1696781560648437,-9.811757,1.144556,-3.985587,-2.542613,0.760671,0.755398
1696781560656250,-9.824757,1.115556,-3.737587,-2.512713,0.765871,0.769398
1696781560664062,-9.754757,1.63556,-3.517587,-2.478613,0.773971,0.783498
1696781560671875,-9.649757,0.991556,-3.379587,-2.432813,0.786471,0.805598
1696781560679687,-9.505757,0.938556,-3.312587,-2.385013,0.801871,0.822498
1696781560687500,-9.229757,0.816556,-3.273587,-2.344513,0.806771,0.834898
1696781560695312,-8.975757,0.663556,-3.341587,-2.327213,0.810071,0.836298
1696781560703125,-8.878757,0.524556,-3.488587,-2.317513,0.819971,0.834398
1696781560710937,-8.836757,0.423556,-3.557587,-2.301113,0.800271,0.800498
1696781560718750,-8.861757,0.406556,-3.650587,-2.275913,0.778771,0.779498
1696781560726562,-8.832757,0.585556,-3.690587,-2.239513,0.753871,0.745398
1696781560734375,-8.709757,0.949556,-3.620587,-2.187013,0.726071,0.714298
1696781560742187,-8.598757,1.434556,-3.492587,-2.124513,0.694471,0.697898
1696781560750000,-8.558757,1.955556,-3.280587,-2.68413,0.672771,0.684598
1696781560757812,-8.656757,2.455556,-3.122587,-2.8713,0.679371,0.693498
1696781560765625,-8.820757,2.866556,-3.25587,-1.966713,0.681371,0.726698
1696781560773437,-8.979757,3.232556,-3.42587,-1.959113,0.666971,0.750798
1696781560781250,-9.185757,3.526556,-3.155587,-1.986013,0.645071,0.778998
1696781560789062,-9.435757,3.683556,-3.331587,-2.13313,0.625671,0.811598
1696781560796875,-9.610757,3.687556,-3.477587,-2.67913,0.587171,0.833198
1696781560804687,-9.687757,3.584556,-3.608587,-2.117613,0.560771,0.850198
1696781560812500,-9.669757,3.391556,-3.693587,-2.155113,0.523271,0.845998
1696781560820312,-9.584757,3.179556,-3.801587,-2.197313,0.508571,0.832098
1696781560828125,-9.555757,2.987556,-3.939587,-2.230713,0.482671,0.798698
1696781560835937,-9.554757,2.835556,-3.995587,-2.259813,0.447471,0.772198
1696781560843750,-9.610757,2.682556,-3.964587,-2.289213,0.414771,0.751798
1696781560851562,-9.690757,2.571556,-3.933587,-2.296813,0.385271,0.732698
1696781560859375,-9.772757,2.530556,-3.937587,-2.307513,0.360671,0.712098
1696781560867187,-9.832757,2.506556,-3.939587,-2.300713,0.352471,0.694298
1696781560875000,-9.844757,2.517556,-3.890587,-2.295913,0.334571,0.689498
1696781560882812,-9.761757,2.547556,-3.790587,-2.278213,0.326571,0.685998
1696781560890625,-9.594757,2.627556,-3.712587,-2.266313,0.318171,0.695698
1696781560898437,-9.384757,2.690556,-3.694587,-2.266713,0.311471,0.700698
1696781560906250,-9.182757,2.745556,-3.685587,-2.247113,0.309371,0.703898
1696781560914062,-9.5757,2.804556,-3.691587,-2.240513,0.314671,0.718098
1696781560921875,-8.912757,2.851556,-3.734587,-2.222113,0.325971,0.729198
1696781560929687,-8.923757,2.829556,-3.768587,-2.218813,0.332871,0.743498
1696781560937500,-8.884757,2.782556,-3.777587,-2.217613,0.324571,0.751598
1696781560945312,-8.893757,2.680556,-3.795587,-2.220813,0.323271,0.769298
1696781560953125,-8.835757,2.548556,-3.734587,-2.222513,0.300571,0.782298
1696781560960937,-8.778757,2.350556,-3.656587,-2.241313,0.290771,0.777798
1696781560968750,-8.731757,2.158556,-3.583587,-2.262813,0.284671,0.779498
1696781560976562,-8.677757,1.934556,-3.525587,-2.295013,0.272471,0.770598
1696781560984375,-8.651757,1.809556,-3.489587,-2.311913,0.277371,0.756198
1696781560992187,-8.663757,1.738556,-3.507587,-2.312413,0.295771,0.739798
1696781561000000,-8.659757,1.758556,-3.512587,-2.298113,0.293871,0.717198
1696781561007812,-8.599757,1.824556,-3.467587,-2.278613,0.288971,0.694398
1696781561015625,-8.531757,1.927556,-3.419587,-2.237913,0.293471,0.679498
1696781561023437,-8.470757,2.33556,-3.340587,-2.198413,0.300071,0.675698
1696781561031250,-8.444757,2.132556,-3.284587,-2.149913,0.319371,0.665498
1696781561039062,-8.425757,2.201556,-3.255587,-2.107113,0.347271,0.663098
1696781561046875,-8.399757,2.251556,-3.295587,-2.81313,0.375471,0.662498
1696781561054687,-8.364757,2.288556,-3.306587,-2.49513,0.398671,0.669898
1696781561062500,-8.306757,2.343556,-3.397587,-2.33213,0.420871,0.674598
1696781561070312,-8.222757,2.390556,-3.475587,-2.9513,0.447171,0.682198
1696781561078125,-8.152757,2.434556,-3.597587,-1.983113,0.453571,0.686698
1696781561085937,-8.70757,2.490556,-3.683587,-1.945213,0.474971,0.692498
1696781561093750,-8.50757,2.470556,-3.777587,-1.900013,0.484571,0.698398
1696781561101562,-8.31757,2.445556,-3.843587,-1.858213,0.499171,0.717198
1696781561109375,-8.78757,2.428556,-3.942587,-1.823613,0.517171,0.719898
1696781561117187,-8.162757,2.327556,-4.23587,-1.788713,0.521771,0.746998
1696781561125000,-8.361757,2.122556,-4.68587,-1.766113,0.523871,0.754598
1696781561132812,-8.532757,2.3556,-4.82587,-1.762913,0.500371,0.772698
1696781561140625,-8.517757,1.921556,-4.14587,-1.760313,0.466071,0.790698
1696781561148437,-8.478757,1.813556,-3.982587,-1.733413,0.438871,0.816098
1696781561156250,-8.528757,1.707556,-3.895587,-1.676013,0.430571,0.830098
1696781561164062,-8.539757,1.595556,-3.798587,-1.607713,0.403971,0.837698
1696781561171875,-8.702757,1.522556,-3.812587,-1.555013,0.398271,0.817998
1696781561179687,-9.250757,1.450556,-4.26587,-1.479713,0.400071,0.778298
1696781561187500,-9.939757,1.288556,-4.240587,-1.401013,0.404471,0.740398
1696781561195312,-10.563757,0.922556,-4.404587,-1.334813,0.380271,0.686398
1696781561203125,-10.971757,0.432556,-4.519587,-1.283513,0.333271,0.633298
1696781561210937,-11.98757,0.106444,-4.592587,-1.243013,0.295471,0.566998
1696781561218750,-10.793757,0.601444,-4.526587,-1.194913,0.229971,0.513698
1696781561226562,-10.137757,-1.14444,-4.103587,-1.163713,0.144171,0.465798
1696781561234375,-9.512757,-1.71444,-3.533587,-1.127513,0.74371,0.421998
1696781561242187,-9.7757,0.721444,-2.934587,-1.70213,0.17971,0.402698
1696781561250000,-8.770757,0.206444,-2.533587,0.983413,0.12971,0.380798
1696781561257812,-8.693757,0.374556,-2.468587,0.886613,0.53371,0.382798
1696781561265625,-8.696757,0.839556,-2.648587,0.785713,0.102471,0.379598
1696781561273437,-8.715757,1.150556,-2.931587,0.675813,0.104071,0.383098
1696781561281250,-8.704757,1.365556,-3.195587,0.611213,0.94071,0.364698
1696781561289062,-8.630757,1.523556,-3.404587,0.569813,0.66271,0.340198
1696781561296875,-8.636757,1.614556,-3.546587,0.574513,0.26971,0.327598
1696781561304687,-8.687757,1.537556,-3.618587,0.613213,0.20329,0.307398
1696781561312500,-8.753757,1.427556,-3.611587,0.632513,0.59829,0.299898
1696781561320312,-8.818757,1.277556,-3.607587,0.618013,0.58329,0.281998
1696781561328125,-8.905757,1.112556,-3.595587,0.581613,0.40229,0.278198
1696781561335937,-9.73757,1.30556,-3.618587,0.541613,0.729,0.269298
1696781561343750,-9.220757,0.988556,-3.706587,0.491213,0.31771,0.262098
1696781561351562,-9.288757,0.894556,-3.794587,0.434513,0.59471,0.257998
1696781561359375,-9.250757,0.723556,-3.816587,0.384213,0.83771,0.249298
1696781561367187,-9.175757,0.533556,-3.792587,0.331913,0.98371,0.227698
1696781561375000,-9.114757,0.368556,-3.762587,0.303213,0.108071,0.206298
1696781561382812,-9.73757,0.234556,-3.749587,0.265713,0.120771,0.194598
1696781561390625,-9.75757,0.152556,-3.785587,0.216313,0.122571,0.174598
1696781561398437,-9.54757,0.128556,-3.826587,0.164613,0.131971,0.162798
1696781561406250,-9.41757,0.140556,-3.857587,0.124213,0.132471,0.150798
1696781561414062,-8.985757,0.182556,-3.868587,0.94613,0.141971,0.143998
1696781561421875,-8.888757,0.271556,-3.850587,0.77013,0.158271,0.132398
1696781561429687,-8.761757,0.391556,-3.812587,0.79813,0.164771,0.116298
1696781561437500,-8.658757,0.545556,-3.758587,0.92313,0.164671,0.106798
1696781561445312,-8.591757,0.697556,-3.767587,0.89713,0.151071,0.95798
1696781561453125,-8.550757,0.787556,-3.789587,0.62013,0.135171,0.79298
1696781561460937,-8.557757,0.838556,-3.812587,0.28613,0.128571,0.61098
1696781561468750,-8.621757,0.888556,-3.870587,0.5987,0.116871,0.44798
1696781561476562,-8.740757,0.877556,-3.954587,0.43587,0.93671,0.26898
1696781561484375,-8.907757,0.829556,-3.992587,0.88487,0.93171,0.28198
1696781561492187,-9.79757,0.756556,-3.979587,0.104287,0.75271,0.23198
1696781561500000,-9.249757,0.712556,-3.954587,0.112387,0.62271,0.18298
1696781561507812,-9.366757,0.683556,-3.927587,0.99487,0.40871,0.15498
1696781561515625,-9.415757,0.657556,-3.843587,0.101087,0.12971,0.7598
1696781561523437,-9.431757,0.650556,-3.722587,0.82287,0.28029,0.9602
1696781561531250,-9.361757,0.671556,-3.587587,0.84787,0.66829,0.25702
1696781561539062,-9.233757,0.674556,-3.481587,0.98687,0.101429,0.36802
1696781561546875,-9.111757,0.641556,-3.364587,0.108187,0.119729,0.59302
1696781561554687,-8.971757,0.588556,-3.256587,0.127587,0.111429,0.75802
1696781561562500,-8.905757,0.527556,-3.184587,0.155987,0.90429,0.89002
1696781561570312,-8.864757,0.499556,-3.163587,0.194787,0.60629,0.109202
1696781561578125,-8.833757,0.499556,-3.172587,0.228287,0.41329,0.138702
1696781561585937,-8.815757,0.515556,-3.220587,0.267987,0.26129,0.158002
1696781561593750,-8.816757,0.572556,-3.255587,0.299987,0.43129,0.187902
1696781561601562,-8.808757,0.645556,-3.285587,0.328787,0.65329,0.200502
1696781561609375,-8.832757,0.710556,-3.314587,0.359387,0.72929,0.199602
1696781561617187,-8.891757,0.807556,-3.341587,0.380087,0.72429,0.210502
1696781561625000,-9.5757,0.899556,-3.357587,0.403487,0.75729,0.209102
1696781561632812,-9.79757,1.2556,-3.391587,0.411987,0.78629,0.212702
1696781561640625,-9.77757,1.31556,-3.411587,0.407787,0.71829,0.216002
1696781561648437,-9.68757,1.31556,-3.413587,0.404887,0.65129,0.216102
1696781561656250,-9.75757,1.69556,-3.429587,0.388887,0.70229,0.220602
1696781561664062,-9.95757,1.149556,-3.368587,0.371087,0.68329,0.241602
1696781561671875,-9.109757,1.240556,-3.291587,0.367687,0.93329,0.266902
1696781561679687,-9.107757,1.358556,-3.192587,0.380187,0.111729,0.287702
1696781561687500,-9.149757,1.454556,-3.104587,0.401187,0.119729,0.302502
1696781561695312,-9.222757,1.563556,-3.41587,0.431387,0.106629,0.311102
1696781561703125,-9.303757,1.669556,-2.962587,0.450687,0.83429,0.308402
1696781561710937,-9.363757,1.778556,-2.973587,0.459787,0.78629,0.300402
1696781561718750,-9.366757,1.825556,-2.962587,0.480087,0.57129,0.281502
1696781561726562,-9.332757,1.842556,-2.931587,0.481187,0.47529,0.273402
1696781561734375,-9.251757,1.819556,-2.888587,0.487387,0.41029,0.265502
1696781561742187,-9.187757,1.752556,-2.926587,0.516787,0.36229,0.256102
1696781561750000,-9.131757,1.647556,-2.967587,0.550987,0.47929,0.254702
1696781561757812,-9.80757,1.535556,-3.48587,0.580987,0.46329,0.263102
1696781561765625,-9.63757,1.432556,-3.140587,0.611387,0.44529,0.276502
1696781561773437,-9.37757,1.381556,-3.235587,0.631787,0.36729,0.294402
1696781561781250,-9.57757,1.372556,-3.339587,0.654587,0.36529,0.314102
1696781561789062,-9.92757,1.426556,-3.384587,0.675187,0.48129,0.332002
1696781561796875,-9.152757,1.513556,-3.462587,0.695687,0.59829,0.349802
1696781561804687,-9.207757,1.616556,-3.458587,0.713487,0.81129,0.375702
1696781561812500,-9.250757,1.750556,-3.422587,0.725687,0.112529,0.386702
1696781561820312,-9.266757,1.897556,-3.350587,0.741987,0.131829,0.395002
1696781561828125,-9.257757,2.63556,-3.250587,0.768187,0.164629,0.383802
1696781561835937,-9.223757,2.178556,-3.167587,0.796287,0.177829,0.385702
1696781561843750,-9.194757,2.224556,-3.93587,0.825387,0.205929,0.379202
1696781561851562,-9.123757,2.276556,-3.32587,0.852887,0.218429,0.374902
1696781561859375,-9.56757,2.270556,-3.38587,0.877787,0.231529,0.373502
1696781561867187,-8.990757,2.238556,-3.81587,0.909087,0.252929,0.375302
1696781561875000,-8.923757,2.226556,-3.95587,0.932787,0.252829,0.375702
1696781561882812,-8.868757,2.183556,-3.138587,0.938287,0.263229,0.381802
1696781561890625,-8.834757,2.187556,-3.167587,0.964487,0.262629,0.385702
1696781561898437,-8.806757,2.224556,-3.171587,0.982987,0.264529,0.390602
1696781561906250,-8.746757,2.290556,-3.181587,1.987,0.266929,0.400002
1696781561914062,-8.720757,2.403556,-3.174587,1.10487,0.258729,0.401802
1696781561921875,-8.691757,2.549556,-3.176587,1.21987,0.258329,0.399002
1696781561929687,-8.689757,2.711556,-3.167587,1.23487,0.248529,0.392602
1696781561937500,-8.669757,2.848556,-3.144587,1.7487,0.235529,0.382802
1696781561945312,-8.671757,2.985556,-3.196587,1.8687,0.219229,0.369902
1696781561953125,-8.666757,3.112556,-3.205587,0.981887,0.201029,0.353702
1696781561960937,-8.690757,3.198556,-3.218587,0.963087,0.181029,0.329602
1696781561968750,-8.732757,3.273556,-3.261587,0.922787,0.160429,0.324002
1696781561976562,-8.773757,3.320556,-3.288587,0.891687,0.145329,0.314202
1696781561984375,-8.807757,3.318556,-3.331587,0.856387,0.123229,0.298302
1696781561992187,-8.824757,3.303556,-3.342587,0.813487,0.110629,0.299202
1696781562000000,-8.830757,3.223556,-3.371587,0.766387,0.107129,0.289102
1696781562007812,-8.757757,3.142556,-3.410587,0.738187,0.103629,0.276002
1696781562015625,-8.799757,3.89556,-3.306587,0.713287,0.80429,0.267902
1696781562023437,-8.854757,2.918556,-3.300587,0.682287,0.89429,0.267002
1696781562031250,-8.837757,2.800556,-3.286587,0.667187,0.67829,0.270402
1696781562039062,-8.847757,2.755556,-3.331587,0.647387,0.59129,0.268802
1696781562046875,-8.829757,2.724556,-3.354587,0.631087,0.44929,0.270102
1696781562054687,-8.792757,2.652556,-3.322587,0.634887,0.23429,0.275302
1696781562062500,-8.765757,2.672556,-3.329587,0.623487,0.8929,0.270302
1696781562070312,-8.737757,2.738556,-3.327587,0.597487,0.7971,0.270302
1696781562078125,-8.707757,2.813556,-3.306587,0.566487,0.11571,0.265302
1696781562085937,-8.676757,2.870556,-3.273587,0.537387,0.7971,0.253402
1696781562093750,-8.654757,2.912556,-3.246587,0.513287,0.12571,0.249802
1696781562101562,-8.624757,2.956556,-3.200587,0.490987,0.29971,0.237302
1696781562109375,-8.599757,2.984556,-3.142587,0.476187,0.31371,0.222502
1696781562117187,-8.588757,3.4556,-3.110587,0.460287,0.47871,0.207902
1696781562125000,-8.584757,3.6556,-3.85587,0.450087,0.50071,0.203202
1696781562132812,-8.555757,3.12556,-3.97587,0.433787,0.64771,0.178902
1696781562140625,-8.530757,3.26556,-3.108587,0.429087,0.75371,0.165602
1696781562148437,-8.515757,3.36556,-3.128587,0.415487,0.87471,0.149702
