time,Acceleration X (m/s^2),Acceleration Y (m/s^2),Acceleration Z (m/s^2),Angular Velocity X (rad/s),Angular Velocity Y (rad/s),Angular Velocity Z (rad/s)
1696781609460937,-8.78869,1.971701,-3.727901,-0.024086,,
1696781609468750,-8.77969,1.953701,-3.734901,0.76191,0.14586,0.6391
1696781609476562,-8.78369,1.949701,-3.735901,0.73591,0.23386,0.8391
1696781609484375,-8.78569,1.936701,-3.739901,0.75491,0.29686,0.6691
1696781609492187,-8.79069,1.931701,-3.746901,0.74791,0.22586,0.7991
1696781609500000,-8.78169,1.930701,-3.768901,0.77091,0.20486,0.6091
1696781609515625,-8.79969,1.936701,-3.824901,0.83991,0.17986,0.1709
1696781609523437,-8.78569,1.929701,-3.849901,0.78091,0.16086,0.209
1696781609531250,-8.78869,1.944701,-3.860901,0.74491,0.17986,0.1591
1696781609539062,-8.79769,1.953701,-3.883901,0.75091,0.7886,0.1809
1696781609562500,-8.78269,2.15701,-3.865901,0.73491,0.22686,0.6509
1696781609570312,-8.77169,2.30701,-3.869901,0.71691,0.24386,0.4809
1696781609578125,-8.78569,2.35701,-3.867901,0.71391,0.24586,0.1509
1696781609585937,-8.80569,2.38701,-3.867901,0.76391,0.24486,0.6509
1696781609593750,-8.80969,2.27701,-3.885901,0.74491,0.31286,0.7909
1696781609601562,-8.79869,2.24701,-3.887901,0.74991,0.32486,0.4809
1696781609609375,-8.80369,2.31701,-3.894901,0.71591,0.37486,0.6309
1696781609617187,-8.82369,2.42701,-3.894901,0.76491,0.40686,0.8009
1696781609625000,-8.83269,2.45701,-3.860901,0.74291,0.50886,0.4509
1696781609632812,-8.83269,2.47701,-3.831901,0.85791,0.52286,0.14409
1696781609640625,-8.79069,2.62701,-3.808901,0.100291,0.65086,0.11509
1696781609648437,-8.77669,2.32701,-3.786901,0.112991,0.73286,0.18009
1696781609656250,-8.77369,2.10701,-3.806901,0.131491,0.70286,0.21309
1696781609664062,-8.75269,1.979701,-3.809901,0.140991,0.76886,0.27809
1696781609671875,-8.72369,1.967701,-3.813901,0.153991,0.73186,0.21709
1696781609679687,-8.70769,1.976701,-3.813901,0.172291,0.83386,0.21709
1696781609687500,-8.69069,1.982701,-3.815901,0.188091,0.73586,0.20409
1696781609695312,-8.67169,1.976701,-3.802901,0.192591,0.80286,0.26809
1696781609703125,-8.68369,1.978701,-3.770901,0.196091,0.76886,0.33309
1696781609710937,-8.67669,1.985701,-3.755901,0.200191,0.72386,0.30009
1696781609718750,-8.66069,1.982701,-3.737901,0.206591,0.68786,0.17309
1696781609726562,-8.64569,1.984701,-3.721901,0.221591,0.69986,0.22609
1696781609734375,-8.64069,1.977701,-3.716901,0.231591,0.59186,0.17609
1696781609742187,-8.64969,1.969701,-3.703901,0.249891,0.49786,0.16109
1696781609750000,-8.67169,1.967701,-3.712901,0.254091,0.42586,0.18109
1696781609757812,-8.68769,1.947701,-3.714901,0.273791,0.36386,0.15009
1696781609765625,-8.70769,1.954701,-3.743901,0.275391,0.23286,0.11909
1696781609773437,-8.73969,1.961701,-3.757901,0.282491,0.17886,0.12209
1696781609781250,-8.78469,1.978701,-3.782901,0.295691,0.20086,0.7309
1696781609789062,-8.84069,2.7701,-3.764901,0.299091,0.3486,0.5909
1696781609796875,-8.88169,2.34701,-3.752901,0.301991,0.6786,0.6991
1696781609804687,-8.91569,2.50701,-3.709901,0.300791,0.14486,0.11691
1696781609812500,-8.94969,2.64701,-3.642901,0.301891,0.16386,0.18291
1696781609820312,-8.99969,2.67701,-3.592901,0.295091,0.18086,0.36091
1696781609828125,-9.1969,2.41701,-3.527901,0.287191,0.19586,0.47491
1696781609835937,-9.3869,2.10701,-3.446901,0.275391,0.37786,0.63991
1696781609843750,-9.5169,1.979701,-3.381901,0.255391,0.48586,0.75291
1696781609851562,-9.5169,1.964701,-3.311901,0.237491,0.42386,0.82091
1696781609859375,-9.6969,1.984701,-3.230901,0.203991,0.52286,0.97091
1696781609867187,-9.8769,1.989701,-3.117901,0.155391,0.69986,0.100891
1696781609875000,-9.3869,1.980701,-2.998901,0.107491,0.97986,0.116291
1696781609882812,-8.93969,1.969701,-2.935901,0.52391,0.119186,0.125191
1696781609890625,-8.86069,1.932701,-2.849901,0.4291,0.123586,0.123891
1696781609898437,-8.82169,1.937701,-2.845901,0.51809,0.139086,0.123391
1696781609906250,-8.81969,1.947701,-2.883901,0.93309,0.153186,0.118891
1696781609914062,-8.88569,1.975701,-2.975901,0.113709,0.161386,0.115991
1696781609921875,-9.3669,2.13701,-3.156901,0.129409,0.161286,0.117791
1696781609929687,-9.23769,2.67701,-3.309901,0.121409,0.157886,0.119191
1696781609937500,-9.40169,2.92701,-3.444901,0.104609,0.153286,0.122291
1696781609945312,-9.44569,2.19701,-3.502901,0.95909,0.131286,0.134691
1696781609953125,-9.35769,1.864701,-3.493901,0.91509,0.119986,0.144291
1696781609960937,-9.18369,1.655701,-3.442901,0.90309,0.113486,0.155491
1696781609968750,-8.99569,1.431701,-3.435901,0.97209,0.105786,0.150991
1696781609976562,-8.92769,1.228701,-3.453901,0.91109,0.104286,0.152591
1696781609984375,-8.95669,1.73701,-3.492901,0.74709,0.102386,0.145691
1696781609992187,-9.2869,1.50701,-3.591901,0.61709,0.85686,0.143691
1696781610000000,-9.11469,1.102701,-3.733901,0.52309,0.74786,0.122791
1696781610007812,-9.22269,1.219701,-3.856901,0.37409,0.68086,0.103091
1696781610015625,-9.34769,1.347701,-3.942901,0.20409,0.66386,0.114191
1696781610023437,-9.45069,1.469701,-3.915901,0.1609,0.56586,0.121991
1696781610031250,-9.55569,1.552701,-3.858901,0.209,0.54786,0.136391
1696781610039062,-9.60769,1.602701,-3.851901,0.18291,0.24986,0.174491
1696781610046875,-9.49969,1.576701,-3.872901,0.20391,0.21786,0.213191
1696781610054687,-9.28169,1.464701,-3.845901,0.20491,0.38686,0.236191
1696781610062500,-9.7969,1.292701,-3.804901,0.9991,0.68886,0.258691
1696781610070312,-8.96269,1.173701,-3.737901,0.28109,0.88586,0.267391
1696781610078125,-8.90169,1.141701,-3.692901,0.40909,0.95286,0.267691
1696781610085937,-8.90169,1.154701,-3.602901,0.64309,0.105086,0.258391
1696781610093750,-8.88969,1.252701,-3.539901,0.62709,0.103486,0.255091
1696781610101562,-8.85969,1.317701,-3.516901,0.50309,0.104586,0.233691
1696781610109375,-8.83269,1.335701,-3.410901,0.26309,0.103586,0.238591
1696781610117187,-8.81969,1.355701,-3.286901,0.25409,0.104886,0.223891
1696781610125000,-8.84469,1.384701,-3.286901,0.27409,0.100386,0.217591
1696781610132812,-8.82669,1.337701,-3.361901,0.10909,0.99886,0.217191
1696781610140625,-8.79369,1.239701,-3.347901,0.5991,0.105286,0.201091
1696781610148437,-8.75169,1.154701,-3.372901,0.23791,0.99986,0.202291
1696781610156250,-8.76769,1.28701,-3.444901,0.47191,0.74086,0.201991
1696781610164062,-8.66769,0.958701,-3.428901,0.70891,0.49586,0.196691
1696781610171875,-8.67569,0.902701,-3.372901,0.79091,0.21786,0.189891
1696781610179687,-8.67069,0.896701,-3.408901,0.94591,0.10486,0.191391
1696781610187500,-8.63369,0.953701,-3.393901,0.97991,0.2486,0.175191
1696781610195312,-8.68869,1.9701,-3.489901,0.98591,0.28414,0.144391
1696781610203125,-8.77469,1.86701,-3.579901,0.113491,0.51314,0.121491
1696781610210937,-8.82669,1.211701,-3.631901,0.126291,0.49614,0.110091
1696781610218750,-8.85669,1.291701,-3.719901,0.132191,0.67414,0.114791
1696781610226562,-8.84569,1.309701,-3.757901,0.125291,0.68814,0.127891
1696781610234375,-8.84069,1.257701,-3.843901,0.124591,0.84114,0.127591
1696781610242187,-8.77369,1.263701,-3.854901,0.114991,0.63014,0.138991
1696781610250000,-8.78569,1.321701,-3.872901,0.83991,0.61614,0.137691
1696781610257812,-8.82569,1.344701,-3.908901,0.86291,0.61014,0.134691
1696781610265625,-8.76569,1.316701,-3.845901,0.79491,0.34114,0.140991
1696781610273437,-8.68769,1.262701,-3.840901,0.73991,0.25514,0.146091
1696781610281250,-8.63069,1.190701,-3.856901,0.96991,0.33314,0.149191
1696781610289062,-8.58869,1.130701,-3.809901,0.107891,0.49514,0.147491
1696781610296875,-8.56769,1.60701,-3.780901,0.124191,0.69414,0.143791
1696781610304687,-8.52569,1.62701,-3.728901,0.122691,0.95414,0.135591
1696781610312500,-8.53369,1.49701,-3.757901,0.110191,0.108414,0.127691
1696781610320312,-8.54269,1.43701,-3.785901,0.103791,0.129414,0.126091
1696781610328125,-8.52069,1.60701,-3.857901,0.110291,0.134314,0.114691
1696781610335937,-8.53669,1.93701,-3.897901,0.122191,0.155814,0.96591
1696781610343750,-8.57969,1.92701,-3.922901,0.123691,0.158914,0.91791
1696781610351562,-8.59469,1.79701,-3.956901,0.125791,0.158914,0.72291
1696781610359375,-8.61869,1.26701,-3.965901,0.116491,0.171914,0.64291
1696781610367187,-8.64369,0.993701,-4.3901,0.104791,0.170614,0.48191
1696781610375000,-8.63169,0.941701,-4.12901,0.120991,0.159314,0.39891
1696781610382812,-8.65969,0.891701,-4.16901,0.121391,0.160914,0.18891
1696781610390625,-8.70569,0.834701,-4.88901,0.125691,0.155714,0.17391
1696781610398437,-8.76169,0.791701,-4.127901,0.152291,0.159914,0.16509
1696781610406250,-8.80769,0.774701,-4.181901,0.168091,0.179214,0.34409
1696781610414062,-8.92969,0.762701,-4.269901,0.190991,0.194114,0.59009
1696781610421875,-9.4669,0.764701,-4.345901,0.215791,0.201014,0.82209
1696781610429687,-9.9369,0.751701,-4.409901,0.240091,0.214914,0.93409
1696781610437500,-9.10869,0.727701,-4.480901,0.255391,0.218814,0.102009
1696781610445312,-9.13369,0.758701,-4.575901,0.279091,0.217114,0.113609
1696781610453125,-9.19769,0.799701,-4.625901,0.302491,0.214914,0.137809
1696781610460937,-9.26769,0.845701,-4.618901,0.314791,0.212814,0.153809
1696781610468750,-9.34969,0.891701,-4.589901,0.308791,0.206214,0.171409
1696781610476562,-9.41569,0.931701,-4.474901,0.304791,0.192014,0.173209
1696781610484375,-9.46769,0.958701,-4.343901,0.289891,0.174514,0.176409
1696781610492187,-9.52169,0.979701,-4.203901,0.259891,0.144914,0.183809
1696781610500000,-9.54069,1.9701,-4.97901,0.231091,0.110314,0.189509
1696781610507812,-9.54569,1.49701,-4.25901,0.212091,0.75714,0.198609
1696781610515625,-9.53369,1.46701,-3.982901,0.204191,0.20414,0.193409
1696781610523437,-9.47069,1.23701,-3.868901,0.217991,0.23686,0.186909
1696781610531250,-9.45469,0.983701,-3.823901,0.225791,0.53286,0.194809
1696781610539062,-9.42469,0.913701,-3.748901,0.252691,0.108386,0.187009
1696781610546875,-9.39869,0.865701,-3.674901,0.293891,0.141886,0.188409
1696781610554687,-9.36169,0.815701,-3.600901,0.339591,0.177586,0.184109
1696781610562500,-9.34169,0.784701,-3.584901,0.384391,0.196086,0.187409
1696781610570312,-9.35269,0.778701,-3.521901,0.419591,0.219486,0.177809
1696781610578125,-9.39469,0.761701,-3.420901,0.452091,0.244086,0.168309
1696781610585937,-9.46469,0.795701,-3.323901,0.484891,0.245686,0.160609
1696781610593750,-9.59669,0.908701,-3.179901,0.504691,0.252386,0.143009
1696781610601562,-9.85369,1.47701,-2.989901,0.500691,0.243086,0.109709
1696781610609375,-10.11669,1.196701,-2.735901,0.505891,0.246386,0.69409
1696781610617187,-10.20169,1.332701,-2.435901,0.470691,0.250786,0.17509
1696781610625000,-10.5469,1.410701,-2.167901,0.379691,0.257186,0.46591
1696781610632812,-9.65969,1.453701,-1.998901,0.272391,0.277286,0.91791
1696781610640625,-9.14969,1.498701,-2.73901,0.172091,0.288086,0.118591
1696781610648437,-8.72469,1.578701,-2.341901,0.127791,0.309386,0.122491
1696781610656250,-8.50469,1.652701,-2.685901,0.99491,0.337386,0.105391
1696781610664062,-8.43269,1.662701,-2.958901,0.77391,0.358886,0.94591
1696781610671875,-8.42269,1.589701,-3.176901,0.68491,0.365186,0.86591
1696781610679687,-8.47269,1.454701,-3.347901,0.67291,0.337186,0.89491
1696781610687500,-8.56969,1.309701,-3.449901,0.76591,0.286286,0.111591
1696781610695312,-8.74369,1.239701,-3.467901,0.95391,0.220886,0.123891
1696781610703125,-8.91169,1.170701,-3.442901,0.117891,0.153186,0.158291
1696781610710937,-9.569,1.149701,-3.298901,0.128491,0.90786,0.196391
1696781610718750,-9.14169,1.78701,-3.154901,0.106491,0.30086,0.217191
1696781610726562,-9.21969,1.22701,-2.996901,0.73791,0.4514,0.226891
1696781610734375,-9.24569,0.987701,-2.798901,0.23091,0.7514,0.227591
1696781610742187,-9.24769,0.976701,-2.600901,0.38109,0.26786,0.220491
1696781610750000,-9.18369,1.40701,-2.460901,0.110509,0.85786,0.204091
1696781610757812,-9.6369,1.124701,-2.392901,0.148909,0.142786,0.177391
1696781610765625,-8.95969,1.211701,-2.334901,0.155009,0.178886,0.155091
1696781610773437,-8.89469,1.248701,-2.363901,0.149909,0.187186,0.134191
1696781610781250,-8.88169,1.299701,-2.462901,0.127809,0.162786,0.125791
1696781610789062,-8.93669,1.360701,-2.548901,0.114109,0.132086,0.127191
1696781610796875,-9.3469,1.407701,-2.633901,0.124209,0.105386,0.128491
1696781610804687,-9.12269,1.453701,-2.622901,0.143009,0.87286,0.136591
1696781610812500,-9.25169,1.515701,-2.638901,0.170009,0.77486,0.148191
1696781610820312,-9.30569,1.540701,-2.593901,0.197909,0.80286,0.157991
1696781610828125,-9.34369,1.501701,-2.480901,0.224609,0.88286,0.164691
1696781610835937,-9.39269,1.482701,-2.422901,0.252209,0.93586,0.173391
1696781610843750,-9.43169,1.410701,-2.438901,0.278309,0.105486,0.183691
1696781610851562,-9.44269,1.363701,-2.514901,0.298309,0.105086,0.194991
1696781610859375,-9.46569,1.301701,-2.595901,0.308209,0.111886,0.196891
1696781610867187,-9.51869,1.231701,-2.651901,0.303309,0.124686,0.203291
1696781610875000,-9.57569,1.132701,-2.721901,0.302209,0.126586,0.206591
1696781610882812,-9.61969,1.48701,-2.928901,0.278009,0.124586,0.198091
1696781610890625,-9.59969,0.926701,-3.100901,0.259809,0.141386,0.193291
1696781610898437,-9.57769,0.812701,-3.321901,0.254709,0.148086,0.175591
1696781610906250,-9.52169,0.700701,-3.589901,0.257609,0.159386,0.165991
1696781610914062,-9.42369,0.566701,-3.798901,0.272909,0.152686,0.159591
1696781610921875,-9.33569,0.413701,-3.920901,0.283409,0.136386,0.145091
1696781610929687,-9.37569,0.279701,-3.846901,0.295809,0.129986,0.129191
1696781610937500,-9.52969,0.193701,-3.611901,0.320509,0.128186,0.119691
1696781610945312,-9.71169,0.182701,-3.379901,0.342109,0.139686,0.100691
1696781610953125,-9.81869,0.246701,-3.177901,0.329509,0.156186,0.89391
1696781610960937,-9.84469,0.349701,-3.19901,0.333809,0.175186,0.77091
1696781610968750,-9.76169,0.469701,-2.978901,0.314609,0.185486,0.63491
1696781610976562,-9.55869,0.579701,-3.64901,0.301109,0.202186,0.65191
1696781610984375,-9.35469,0.665701,-3.217901,0.277709,0.208886,0.61891
1696781610992187,-9.22069,0.702701,-3.363901,0.252309,0.213586,0.64691
1696781611000000,-9.18069,0.697701,-3.431901,0.224509,0.223786,0.61391
1696781611007812,-9.22669,0.618701,-3.404901,0.201009,0.231986,0.57891
1696781611015625,-9.30169,0.535701,-3.267901,0.187909,0.230086,0.51191
1696781611023437,-9.36969,0.474701,-3.170901,0.163609,0.224186,0.51091
1696781611031250,-9.45969,0.431701,-3.89901,0.117309,0.197586,0.50191
1696781611039062,-9.53969,0.404701,-3.21901,0.89309,0.179786,0.56291
1696781611046875,-9.55269,0.347701,-2.943901,0.66009,0.158786,0.54391
1696781611054687,-9.44569,0.287701,-2.902901,0.50209,0.140786,0.52491
1696781611062500,-9.26169,0.255701,-2.936901,0.30609,0.125686,0.47091
1696781611070312,-9.8969,0.235701,-3.3901,0.409,0.101086,0.48091
1696781611078125,-8.93669,0.206701,-3.84901,0.34091,0.86586,0.42891
1696781611085937,-8.79269,0.161701,-3.177901,0.65891,0.78286,0.29491
1696781611093750,-8.60769,0.121701,-3.251901,0.100491,0.73486,0.29091
1696781611101562,-8.43669,0.105701,-3.314901,0.128791,0.58986,0.17391
1696781611109375,-8.31969,0.123701,-3.308901,0.169391,0.25086,0.10491
1696781611117187,-8.24469,0.190701,-3.280901,0.193091,0.6714,0.11409
1696781611125000,-8.16269,0.284701,-3.300901,0.210691,0.27914,0.21409
1696781611132812,-8.6969,0.381701,-3.294901,0.226291,0.45514,0.40809
1696781611140625,-8.1469,0.471701,-3.296901,0.227691,0.50114,0.48809
1696781611148437,-7.96669,0.523701,-3.260901,0.206691,0.48814,0.68109
1696781611156250,-7.95969,0.565701,-3.195901,0.175491,0.42114,0.85309
1696781611164062,-8.1869,0.560701,-3.150901,0.145291,0.36814,0.94409
1696781611171875,-8.11969,0.535701,-3.73901,0.107291,0.47214,0.115309
1696781611179687,-8.30469,0.473701,-3.62901,0.79791,0.68414,0.144109
1696781611187500,-8.59369,0.391701,-3.150901,0.64291,0.90714,0.179309
1696781611195312,-8.88969,0.331701,-3.330901,0.53391,0.97614,0.223009
1696781611203125,-9.9669,0.343701,-3.418901,0.57491,0.90714,0.279309
1696781611210937,-9.21269,0.443701,-3.404901,0.58191,0.82414,0.316309
1696781611218750,-9.23069,0.596701,-3.264901,0.47791,0.98514,0.348509
1696781611226562,-9.17869,0.870701,-3.158901,0.20791,0.115414,0.369509
1696781611234375,-9.19769,1.204701,-3.95901,0.31509,0.156114,0.356109
1696781611242187,-9.21369,1.530701,-3.48901,0.80409,0.176114,0.325209
1696781611250000,-9.19069,1.820701,-3.32901,0.131309,0.181214,0.286009
1696781611257812,-9.14169,2.4701,-3.32901,0.197009,0.169814,0.238309
1696781611265625,-9.7269,2.144701,-3.50901,0.271209,0.167114,0.192509
1696781611273437,-9.5269,2.166701,-3.90901,0.344309,0.162514,0.146509
1696781611281250,-8.97969,2.96701,-3.200901,0.404709,0.154514,0.105509
1696781611289062,-8.89769,1.909701,-3.300901,0.443409,0.164314,0.71109
1696781611296875,-8.83369,1.677701,-3.388901,0.465209,0.174514,0.53409
1696781611304687,-8.77069,1.365701,-3.370901,0.473209,0.174714,0.35609
1696781611312500,-8.74069,1.57701,-3.314901,0.482809,0.182814,0.35509
1696781611320312,-8.71869,0.819701,-3.336901,0.504909,0.200414,0.49709
1696781611328125,-8.70069,0.653701,-3.361901,0.487409,0.241114,0.56609
1696781611335937,-8.72569,0.486701,-3.332901,0.475409,0.285514,0.76509
1696781611343750,-8.68169,0.448701,-3.330901,0.469909,0.329814,0.91509
1696781611351562,-8.62869,0.467701,-3.294901,0.482109,0.364014,0.107609
1696781611359375,-8.65669,0.543701,-3.262901,0.492309,0.388714,0.128709
1696781611367187,-8.93369,0.731701,-3.143901,0.494909,0.398314,0.159309
1696781611375000,-9.45769,0.911701,-2.704901,0.496709,0.376714,0.173509
1696781611382812,-9.97269,1.209701,-2.435901,0.496309,0.383714,0.162409
1696781611390625,-10.28869,1.445701,-2.550901,0.511009,0.394914,0.147709
1696781611398437,-10.22169,1.630701,-2.744901,0.535909,0.355914,0.153709
1696781611406250,-10.4269,1.826701,-2.768901,0.541709,0.277614,0.171009
1696781611414062,-10.6469,1.903701,-2.579901,0.513009,0.159214,0.186409
1696781611421875,-10.32469,1.991701,-2.340901,0.474009,0.43214,0.187809
1696781611429687,-10.71469,2.99701,-2.29901,0.380309,0.50886,0.171709
1696781611437500,-11.5269,2.320701,-1.712901,0.277509,0.99586,0.126009
1696781611445312,-10.96269,2.425701,-1.793901,0.211309,0.106586,0.39309
1696781611453125,-10.49069,2.134701,-2.84901,0.164409,0.107886,0.53491
1696781611460937,-10.669,1.647701,-2.174901,0.107809,0.130986,0.96691
1696781611468750,-9.74269,1.155701,-2.215901,0.52109,0.158486,0.84691
1696781611476562,-9.62069,0.547701,-2.301901,0.26609,0.221086,0.34991
1696781611484375,-9.56669,0.118701,-2.517901,0.27309,0.288486,0.33809
1696781611492187,-9.34069,0.26701,-2.738901,0.17491,0.318386,0.96809
1696781611500000,-8.95569,0.102701,-2.877901,0.93491,0.320486,0.144309
1696781611507812,-8.72369,0.409701,-2.972901,0.196791,0.273186,0.187809
1696781611515625,-8.68969,0.828701,-3.118901,0.288591,0.178386,0.200809
1696781611523437,-8.87269,1.303701,-3.370901,0.356591,0.87086,0.216609
1696781611531250,-9.8469,1.800701,-3.620901,0.411591,0.16386,0.242209
1696781611539062,-9.29269,2.283701,-3.941901,0.430791,0.31114,0.242709
1696781611546875,-9.54469,2.588701,-4.176901,0.446191,0.35714,0.246009
1696781611554687,-9.84569,2.728701,-4.133901,0.458191,0.20814,0.237909
1696781611562500,-10.11869,2.641701,-4.112901,0.455391,0.17914,0.233209
1696781611570312,-10.7169,2.392701,-4.130901,0.457291,0.6514,0.242909
1696781611578125,-9.74469,2.145701,-4.158901,0.448291,0.11386,0.258809
1696781611585937,-9.34369,2.90701,-4.79901,0.431991,0.60786,0.264609
1696781611593750,-8.92569,2.115701,-3.887901,0.406791,0.114686,0.268809
1696781611601562,-8.63569,2.113701,-3.597901,0.386991,0.147786,0.260009
1696781611609375,-8.48969,2.253701,-3.444901,0.379991,0.130986,0.265109
1696781611617187,-8.43369,2.445701,-3.423901,0.364591,0.116286,0.273109
1696781611625000,-8.45669,2.592701,-3.477901,0.336391,0.106786,0.290509
1696781611632812,-8.63869,2.626701,-3.500901,0.311291,0.108486,0.301409
1696781611640625,-8.79369,2.566701,-3.475901,0.258191,0.118286,0.313609
1696781611648437,-8.88169,2.501701,-3.376901,0.192391,0.128186,0.328809
1696781611656250,-8.99069,2.398701,-3.259901,0.132291,0.125986,0.339709
1696781611664062,-9.3569,2.255701,-3.88901,0.71091,0.138786,0.332609
1696781611671875,-8.92069,1.961701,-2.928901,0.54391,0.153986,0.322309
1696781611679687,-8.90169,2.47701,-2.692901,0.43591,0.135786,0.317609
1696781611687500,-8.94569,2.100701,-2.642901,0.37391,0.132186,0.298309
1696781611695312,-8.83269,2.86701,-2.624901,0.62791,0.150586,0.275709
1696781611703125,-8.61669,2.42701,-2.646901,0.77791,0.154286,0.244209
1696781611710937,-8.44169,2.57701,-2.696901,0.79191,0.130586,0.218109
1696781611718750,-8.31469,2.102701,-2.777901,0.80791,0.77986,0.192809
1696781611726562,-8.24769,2.120701,-2.856901,0.67391,0.11986,0.174009
1696781611734375,-8.26669,2.99701,-3.2901,0.74791,0.58314,0.151909
1696781611742187,-8.36569,2.69701,-3.113901,0.77791,0.118614,0.141009
1696781611750000,-8.50869,2.36701,-3.300901,0.90091,0.177414,0.128509
1696781611757812,-8.62769,2.2701,-3.367901,0.98891,0.225414,0.124409
1696781611765625,-8.73269,1.966701,-3.469901,0.105291,0.263114,0.118309
1696781611773437,-8.79069,1.935701,-3.572901,0.107191,0.263414,0.113609
1696781611781250,-8.80069,1.996701,-3.710901,0.103191,0.253214,0.103709
1696781611789062,-8.70269,2.54701,-3.885901,0.104291,0.235414,0.76209
1696781611796875,-8.61769,2.104701,-3.982901,0.103191,0.222014,0.55009
1696781611804687,-8.55369,2.176701,-4.65901,0.109791,0.225714,0.40809
1696781611812500,-8.50369,2.306701,-4.104901,0.121591,0.238714,0.10309
1696781611820312,-8.49369,2.357701,-4.108901,0.133691,0.256814,0.15191
1696781611828125,-8.55169,2.360701,-4.81901,0.153791,0.268214,0.24591
1696781611835937,-8.62269,2.315701,-4.74901,0.173591,0.269914,0.53391
1696781611843750,-8.70069,2.245701,-4.27901,0.182891,0.249114,0.78991
1696781611851562,-8.77669,2.199701,-3.950901,0.180491,0.226114,0.103391
1696781611859375,-8.82069,2.167701,-3.838901,0.173291,0.186914,0.137591
1696781611867187,-8.81169,2.153701,-3.705901,0.174391,0.164214,0.161891
1696781611875000,-8.73269,2.121701,-3.608901,0.171991,0.133114,0.183191
1696781611882812,-8.70769,2.125701,-3.518901,0.173391,0.107214,0.200891
1696781611890625,-8.76269,2.146701,-3.381901,0.163791,0.117114,0.213891
1696781611898437,-8.85569,2.208701,-3.225901,0.115891,0.139814,0.235391
1696781611906250,-9.3169,2.266701,-3.61901,0.68591,0.167614,0.250291
1696781611914062,-9.23969,2.340701,-2.926901,0.2791,0.194114,0.263591
1696781611921875,-9.40369,2.349701,-2.969901,0.58809,0.189114,0.269291
1696781611929687,-9.43669,2.336701,-3.83901,0.112209,0.148514,0.278191
1696781611937500,-9.39169,2.314701,-3.214901,0.161109,0.105914,0.269391
1696781611945312,-9.33969,2.288701,-3.277901,0.199709,0.76814,0.260191
1696781611953125,-9.46369,2.286701,-3.155901,0.207809,0.50114,0.236491
1696781611960937,-9.65969,2.322701,-2.957901,0.224009,0.24214,0.202891
1696781611968750,-9.95969,2.409701,-2.752901,0.225209,0.36486,0.166291
1696781611976562,-10.20869,2.509701,-2.478901,0.213009,0.114386,0.112191
1696781611984375,-10.7869,2.424701,-2.268901,0.184009,0.194386,0.75291
1696781611992187,-9.71069,2.163701,-2.36901,0.138109,0.272786,0.54191
1696781612000000,-9.34569,1.779701,-1.699901,0.78909,0.294286,0.55391
1696781612007812,-9.16669,1.384701,-1.440901,0.24309,0.289586,0.61191
1696781612015625,-9.9169,1.236701,-1.537901,0.33891,0.239086,0.60191
1696781612023437,-9.12769,1.383701,-1.892901,0.87591,0.184986,0.63991
1696781612031250,-9.22669,1.669701,-2.278901,0.102691,0.156386,0.46291
1696781612039062,-9.34069,2.49701,-2.703901,0.126991,0.131786,0.26391
1696781612046875,-9.49369,2.395701,-3.34901,0.148791,0.100486,0.6409
1696781612054687,-9.64969,2.688701,-3.270901,0.176291,0.79186,0.31109
1696781612062500,-9.69969,2.893701,-3.421901,0.178891,0.82886,0.32609
1696781612070312,-9.61569,3.27701,-3.525901,0.157691,0.99786,0.38409
1696781612078125,-9.45269,3.51701,-3.644901,0.118191,0.144586,0.46109
1696781612085937,-9.24369,2.939701,-3.671901,0.88991,0.182786,0.48509
1696781612093750,-9.18869,2.732701,-3.554901,0.25191,0.218486,0.67009
1696781612101562,-9.31969,2.483701,-3.363901,0.34609,0.262586,0.67609
1696781612109375,-9.48469,2.209701,-3.36901,0.72409,0.297086,0.78109
1696781612117187,-9.51469,1.983701,-2.750901,0.86309,0.343086,0.105009
1696781612125000,-9.40069,1.866701,-2.586901,0.46609,0.374186,0.129409
1696781612132812,-9.21569,1.794701,-2.557901,0.19991,0.395486,0.159209
1696781612140625,-9.2269,1.736701,-2.658901,0.102291,0.397986,0.167809
1696781612148437,-8.84769,1.729701,-2.800901,0.194191,0.389386,0.174009
1696781612156250,-8.69369,1.802701,-2.964901,0.284591,0.370286,0.171709
1696781612164062,-8.60769,1.880701,-3.34901,0.352491,0.347186,0.171209
1696781612171875,-8.61969,1.956701,-3.57901,0.417791,0.303586,0.163909
1696781612179687,-8.69269,2.10701,-3.54901,0.460991,0.249286,0.163409
1696781612187500,-8.79869,2.74701,-3.131901,0.479291,0.198986,0.157309
1696781612195312,-8.86469,2.113701,-3.194901,0.467591,0.162386,0.149609
1696781612203125,-8.90469,2.193701,-3.219901,0.433191,0.132986,0.155809
1696781612210937,-8.92869,2.284701,-3.243901,0.402691,0.119486,0.163809
1696781612218750,-8.88869,2.386701,-3.180901,0.379791,0.108586,0.158509
1696781612226562,-8.81469,2.469701,-3.119901,0.360291,0.107886,0.158609
1696781612234375,-8.72969,2.534701,-3.88901,0.347791,0.106086,0.148909
1696781612242187,-8.64269,2.568701,-3.76901,0.340591,0.76186,0.141209
1696781612250000,-8.53069,2.582701,-3.88901,0.337591,0.52686,0.137509
1696781612257812,-8.42269,2.574701,-3.140901,0.325491,0.16486,0.141009
1696781612265625,-8.35969,2.571701,-3.225901,0.308691,0.6614,0.142609
1696781612273437,-8.32069,2.534701,-3.304901,0.300391,0.35014,0.149509
1696781612281250,-8.33069,2.488701,-3.372901,0.284091,0.65414,0.155609
1696781612289062,-8.35969,2.413701,-3.412901,0.260991,0.90314,0.152409
1696781612296875,-8.42569,2.365701,-3.444901,0.224491,0.106514,0.144009
1696781612304687,-8.51969,2.338701,-3.437901,0.198191,0.131614,0.124709
1696781612312500,-8.65169,2.280701,-3.372901,0.172391,0.140914,0.122609
1696781612320312,-8.70469,2.228701,-3.266901,0.149091,0.133314,0.106409
1696781612328125,-8.62369,2.209701,-3.187901,0.132891,0.125014,0.91609
1696781612335937,-8.49569,2.215701,-3.189901,0.114091,0.130514,0.64209
1696781612343750,-8.42069,2.281701,-3.205901,0.102191,0.128714,0.39809
1696781612351562,-8.31369,2.374701,-3.207901,0.99391,0.142414,0.14309
1696781612359375,-8.22769,2.440701,-3.277901,0.114291,0.184714,0.11191
1696781612367187,-8.26369,2.523701,-3.392901,0.127491,0.226614,0.22291
1696781612375000,-8.37369,2.611701,-3.518901,0.149591,0.259514,0.34691
1696781612382812,-8.60969,2.641701,-3.626901,0.135591,0.269714,0.53891
1696781612390625,-8.92669,2.641701,-3.673901,0.127791,0.281514,0.74791
1696781612398437,-9.17869,2.610701,-3.588901,0.117891,0.253714,0.89591
1696781612406250,-9.35069,2.526701,-3.450901,0.106891,0.206514,0.93091
1696781612414062,-9.35869,2.400701,-3.336901,0.73591,0.148214,0.92791
1696781612421875,-9.14969,2.230701,-3.295901,0.37891,0.73614,0.99891
1696781612429687,-8.87869,2.117701,-3.295901,0.2109,0.30914,0.105591
1696781612437500,-8.69369,2.99701,-3.257901,0.12309,0.25914,0.136491
1696781612445312,-8.55069,2.161701,-3.225901,0.891,0.34814,0.150391
1696781612453125,-8.49269,2.302701,-3.237901,0.43291,0.64414,0.168991
1696781612460937,-8.52269,2.489701,-3.367901,0.86391,0.91514,0.170191
1696781612468750,-8.60069,2.627701,-3.514901,0.135791,0.98214,0.151791
1696781612476562,-8.74669,2.729701,-3.673901,0.184291,0.124914,0.134591
1696781612484375,-8.90969,2.707701,-3.752901,0.236091,0.111214,0.98891
1696781612492187,-8.99969,2.556701,-3.628901,0.287091,0.81114,0.87491
1696781612500000,-9.5469,2.306701,-3.383901,0.337691,0.36814,0.56591
1696781612507812,-8.92269,1.903701,-2.949901,0.384691,0.12486,0.45191
1696781612515625,-8.72069,1.509701,-2.498901,0.413491,0.31786,0.38291
1696781612523437,-8.52469,1.325701,-2.210901,0.437991,0.50286,0.31891
1696781612531250,-8.27769,1.375701,-2.12901,0.467191,0.52186,0.41391
1696781612539062,-8.6169,1.617701,-2.28901,0.513891,0.16186,0.66391
1696781612546875,-7.95669,1.946701,-2.275901,0.598691,0.47914,0.101891
1696781612554687,-8.6769,2.199701,-2.462901,0.683891,0.119514,0.137691
1696781612562500,-8.42269,2.450701,-2.635901,0.693691,0.185614,0.177091
1696781612570312,-9.4269,2.708701,-2.755901,0.642091,0.225114,0.182291
1696781612578125,-9.96669,2.846701,-2.804901,0.564291,0.264514,0.169991
1696781612585937,-11.8369,2.681701,-2.970901,0.504791,0.292614,0.126791
1696781612593750,-12.11269,2.398701,-3.173901,0.500191,0.294114,0.52591
1696781612601562,-12.81769,2.92701,-3.252901,0.441191,0.247514,0.29909
1696781612609375,-13.2669,1.474701,-3.59901,0.329391,0.98714,0.109809
1696781612617187,-12.59069,0.724701,-2.354901,0.192791,0.79786,0.160209
1696781612625000,-11.34369,0.311701,-1.368901,0.44891,0.243386,0.186309
1696781612632812,-9.97169,0.265701,0.704901,0.113609,0.271186,0.197109
1696781612640625,-8.89569,0.615701,0.569901,0.200309,0.270486,0.207709
1696781612648437,-8.11469,1.279701,0.550901,0.237109,0.297086,0.210109
1696781612656250,-7.70569,1.998701,-1.93901,0.214409,0.308586,0.182809
1696781612664062,-7.30369,2.874701,-1.651901,0.149509,0.337686,0.128709
1696781612671875,-7.18769,3.644701,-2.389901,0.89209,0.321286,0.79509
1696781612679687,-7.35269,4.43701,-3.35901,0.49609,0.319686,0.34809
1696781612687500,-7.69769,3.971701,-3.515901,0.40709,0.273486,0.14591
1696781612695312,-8.17569,3.461701,-3.808901,0.87209,0.219486,0.67991
1696781612703125,-8.79969,2.845701,-4.38901,0.166509,0.167386,0.119691
1696781612710937,-9.65769,2.372701,-4.257901,0.222109,0.109986,0.165091
1696781612718750,-10.74469,2.23701,-4.462901,0.232909,0.49686,0.211691
1696781612726562,-11.73369,1.885701,-4.640901,0.220309,0.34114,0.246291
1696781612734375,-12.8469,1.764701,-4.750901,0.216009,0.89914,0.286091
1696781612742187,-11.49969,1.405701,-4.667901,0.285609,0.91814,0.315891
1696781612750000,-10.49869,0.928701,-4.140901,0.384109,0.44714,0.307591
1696781612757812,-9.67469,0.545701,-3.571901,0.486309,0.18986,0.304391
1696781612765625,-9.6469,0.350701,-3.147901,0.505609,0.71686,0.290591
1696781612773437,-8.76769,0.269701,-2.915901,0.407709,0.74186,0.253591
1696781612781250,-8.70869,0.287701,-2.958901,0.293009,0.64186,0.234991
1696781612789062,-8.73169,0.315701,-3.62901,0.186909,0.65386,0.228691
1696781612796875,-8.77569,0.274701,-3.91901,0.107509,0.85486,0.228091
1696781612804687,-8.86169,0.156701,-2.951901,0.54009,0.108186,0.230791
1696781612812500,-9.1469,0.19701,-2.852901,0.18891,0.95586,0.246091
1696781612820312,-9.6969,0.46299,-2.857901,0.102191,0.64086,0.272191
1696781612828125,-9.6669,0.100299,-2.828901,0.191691,0.28186,0.277291
1696781612835937,-9.6269,0.53299,-2.812901,0.286691,0.2686,0.281191
1696781612843750,-9.2269,0.52701,-2.738901,0.358091,0.20514,0.271891
1696781612851562,-9.769,0.262701,-2.810901,0.388191,0.33314,0.250591
1696781612859375,-8.89869,0.487701,-2.884901,0.398391,0.15614,0.232691
1696781612867187,-8.64269,0.673701,-2.967901,0.408091,0.3914,0.205391
1696781612875000,-8.45169,0.923701,-3.206901,0.410391,0.13414,0.165091
1696781612882812,-8.28469,1.54701,-3.530901,0.390491,0.39314,0.129791
1696781612890625,-8.20169,1.63701,-3.823901,0.376191,0.64114,0.100591
1696781612898437,-8.21169,1.126701,-4.41901,0.375491,0.97714,0.87791
1696781612906250,-8.32869,1.167701,-4.192901,0.374991,0.134214,0.87291
1696781612914062,-8.50369,1.236701,-4.214901,0.379591,0.152314,0.95191
1696781612921875,-8.71969,1.313701,-4.322901,0.385491,0.167114,0.119191
1696781612929687,-8.86469,1.351701,-4.363901,0.376991,0.182014,0.156191
1696781612937500,-8.97869,1.321701,-4.214901,0.359291,0.180614,0.188591
1696781612945312,-9.7869,1.214701,-4.14901,0.320791,0.157714,0.213391
1696781612953125,-9.7669,1.77701,-3.764901,0.273391,0.132014,0.242991
1696781612960937,-9.669,0.916701,-3.552901,0.236591,0.113814,0.254991
1696781612968750,-8.91369,0.737701,-3.393901,0.220891,0.123914,0.269491
1696781612976562,-8.85269,0.557701,-3.316901,0.222391,0.138314,0.258191
1696781612984375,-8.78069,0.431701,-3.366901,0.221791,0.142114,0.249891
1696781612992187,-8.68269,0.353701,-3.445901,0.230891,0.138014,0.217891
1696781613000000,-8.60669,0.342701,-3.535901,0.228891,0.126714,0.177591
1696781613007812,-8.52369,0.374701,-3.607901,0.223191,0.115114,0.145491
1696781613015625,-8.50869,0.427701,-3.636901,0.211291,0.113214,0.100591
1696781613023437,-8.51869,0.474701,-3.614901,0.216791,0.126014,0.60291
1696781613031250,-8.54369,0.526701,-3.568901,0.225491,0.144014,0.32591
1696781613039062,-8.57669,0.597701,-3.469901,0.240891,0.159314,0.17491
1696781613046875,-8.63369,0.647701,-3.404901,0.245291,0.165114,0.8109
1696781613054687,-8.71969,0.694701,-3.356901,0.276491,0.152514,0.37709
1696781613062500,-8.79469,0.729701,-3.399901,0.302791,0.146914,0.60209
1696781613070312,-8.88769,0.806701,-3.528901,0.346591,0.149614,0.84709
1696781613078125,-9.169,0.901701,-3.620901,0.397591,0.154514,0.111209
1696781613085937,-9.10469,1.4701,-3.674901,0.431591,0.136914,0.135909
1696781613093750,-9.17169,1.120701,-3.606901,0.455491,0.125414,0.147409
1696781613101562,-9.20169,1.235701,-3.458901,0.476091,0.103014,0.161409
1696781613109375,-9.16769,1.349701,-3.151901,0.479991,0.88814,0.166409
1696781613117187,-9.10869,1.446701,-2.829901,0.461091,0.79014,0.166209
1696781613125000,-9.3069,1.474701,-2.604901,0.445091,0.60814,0.169009
1696781613132812,-8.94969,1.515701,-2.568901,0.434991,0.49014,0.163809
1696781613140625,-8.93569,1.572701,-2.741901,0.451391,0.75614,0.161109
1696781613148437,-8.98769,1.604701,-3.104901,0.481391,0.108614,0.144109
1696781613156250,-9.4769,1.545701,-3.640901,0.507791,0.139814,0.120509
1696781613164062,-9.7469,1.405701,-4.241901,0.520291,0.144714,0.119009
1696781613171875,-9.26469,1.210701,-4.694901,0.531491,0.116914,0.127109
1696781613179687,-9.75669,0.930701,-4.809901,0.489291,0.82414,0.156909
1696781613187500,-10.39269,0.743701,-4.431901,0.400991,0.58814,0.186009
1696781613195312,-10.88069,1.81701,-3.559901,0.235891,0.77814,0.183009
1696781613203125,-11.15269,1.962701,-2.633901,0.7209,0.128914,0.169309
1696781613210937,-11.13969,2.946701,-1.648901,0.317409,0.80814,0.101109
1696781613218750,-10.83169,3.690701,0.889901,0.604209,0.57586,0.109
1696781613226562,-10.37469,4.55701,0.884901,0.698209,0.203186,0.82691
1696781613234375,-9.68169,3.916701,-1.303901,0.617209,0.392986,0.132991
1696781613242187,-8.97669,3.250701,-1.840901,0.498309,0.522786,0.156891
1696781613250000,-8.64969,2.436701,-2.701901,0.444009,0.529686,0.164591
1696781613257812,-8.77369,1.700701,-3.658901,0.377609,0.463886,0.177691
1696781613265625,-9.15669,1.38701,-4.521901,0.314809,0.373186,0.182391
1696781613273437,-9.49769,0.442701,-5.131901,0.280709,0.299886,0.197791
1696781613281250,-9.70669,0.14701,-5.336901,0.258009,0.217686,0.204891
1696781613289062,-9.74169,0.239299,-5.145901,0.248109,0.124486,0.204091
1696781613296875,-9.54869,0.478299,-4.594901,0.261409,0.62986,0.204191
1696781613304687,-9.16469,0.595299,-3.776901,0.316909,0.5686,0.175391
1696781613312500,-8.95469,0.238299,-3.94901,0.385209,0.66114,0.148391
1696781613320312,-8.94069,0.313701,-2.729901,0.410309,0.91114,0.117591
1696781613328125,-8.94469,0.892701,-2.568901,0.390009,0.64714,0.104691
1696781613335937,-8.94169,1.415701,-2.613901,0.341809,0.30114,0.102891
1696781613343750,-8.83369,1.851701,-2.807901,0.304809,0.12486,0.120491
1696781613351562,-8.65369,2.89701,-3.90901,0.303309,0.49586,0.146291
1696781613359375,-8.50169,2.149701,-3.370901,0.314209,0.95686,0.177591
1696781613367187,-8.45469,2.33701,-3.550901,0.355509,0.114986,0.210291
1696781613375000,-8.46669,1.775701,-3.514901,0.410609,0.137486,0.231991
1696781613382812,-8.56369,1.502701,-3.379901,0.451309,0.156586,0.248491
1696781613390625,-8.71969,1.287701,-3.329901,0.457609,0.135386,0.250091
1696781613398437,-8.91469,1.81701,-3.329901,0.432509,0.121086,0.236891
1696781613406250,-9.4969,0.946701,-3.323901,0.397409,0.102986,0.220191
1696781613414062,-9.14369,0.806701,-3.361901,0.361309,0.62586,0.201991
1696781613421875,-9.22469,0.683701,-3.447901,0.322809,0.28086,0.188291
1696781613429687,-9.28069,0.617701,-3.490901,0.298709,0.6214,0.169991
1696781613437500,-9.28669,0.575701,-3.530901,0.268509,0.32214,0.151791
1696781613445312,-9.31369,0.593701,-3.526901,0.249709,0.51614,0.146691
1696781613453125,-9.31369,0.622701,-3.454901,0.231909,0.53314,0.128691
1696781613460937,-9.31969,0.720701,-3.332901,0.238709,0.47614,0.104991
1696781613468750,-9.32769,0.802701,-3.167901,0.245209,0.50114,0.99791
1696781613476562,-9.31769,0.884701,-3.48901,0.272009,0.33414,0.80991
1696781613484375,-9.26269,0.912701,-2.958901,0.279909,0.28314,0.73191
1696781613492187,-9.13169,0.872701,-2.956901,0.286409,0.34114,0.67991
1696781613500000,-9.469,0.821701,-3.34901,0.275509,0.45414,0.66191
1696781613507812,-8.89569,0.724701,-3.174901,0.270609,0.53314,0.50091
1696781613515625,-8.78269,0.598701,-3.271901,0.274309,0.56214,0.50291
1696781613523437,-8.73569,0.462701,-3.373901,0.272309,0.79314,0.45191
1696781613531250,-8.74269,0.345701,-3.409901,0.277509,0.83814,0.42191
1696781613539062,-8.82569,0.295701,-3.375901,0.275209,0.85614,0.24291
1696781613546875,-8.98069,0.322701,-3.251901,0.276209,0.83914,0.3109
1696781613554687,-9.10869,0.431701,-3.109901,0.272809,0.108114,0.27309
1696781613562500,-9.14469,0.551701,-3.26901,0.254209,0.128214,0.47309
1696781613570312,-9.10569,0.679701,-2.987901,0.248609,0.135814,0.53609
1696781613578125,-9.3369,0.787701,-2.936901,0.248409,0.135914,0.53709
1696781613585937,-8.92369,0.831701,-2.836901,0.266809,0.126414,0.55109
1696781613593750,-8.74869,0.817701,-2.751901,0.285509,0.118414,0.56509
1696781613601562,-8.56469,0.737701,-2.821901,0.315709,0.121314,0.60809
1696781613609375,-8.43769,0.657701,-3.77901,0.322409,0.130114,0.66009
1696781613617187,-8.31569,0.560701,-3.368901,0.300409,0.120414,0.66209
1696781613625000,-8.19869,0.402701,-3.618901,0.286309,0.118614,0.74409
1696781613632812,-8.18369,0.205701,-3.803901,0.252009,0.126414,0.81109
1696781613640625,-8.28269,0.42701,-3.841901,0.221709,0.133014,0.92909
1696781613648437,-8.45869,0.36299,-3.740901,0.190009,0.157314,0.114309
1696781613656250,-8.65369,0.75299,-3.531901,0.178409,0.188014,0.151609
1696781613664062,-8.82569,0.17299,-3.310901,0.164809,0.224214,0.173109
1696781613671875,-8.94469,0.128701,-3.154901,0.157809,0.278314,0.184909
1696781613679687,-8.96969,0.311701,-2.994901,0.163709,0.320714,0.196309
1696781613687500,-8.88969,0.518701,-2.861901,0.183809,0.353114,0.218809
1696781613695312,-8.75769,0.703701,-2.812901,0.206809,0.367714,0.247509
1696781613703125,-8.70469,0.770701,-2.818901,0.235209,0.351814,0.282809
1696781613710937,-8.70769,0.806701,-2.740901,0.267909,0.314814,0.294609
1696781613718750,-8.75769,0.798701,-2.733901,0.309009,0.284714,0.300909
1696781613726562,-9.6669,0.907701,-2.906901,0.323309,0.245214,0.311609
1696781613734375,-9.67369,1.205701,-2.917901,0.286309,0.194114,0.316309
1696781613742187,-10.56369,1.757701,-2.768901,0.236009,0.182714,0.321709
1696781613750000,-11.41069,2.464701,-2.930901,0.196409,0.209414,0.292009
1696781613757812,-11.82069,2.977701,-3.322901,0.154909,0.217014,0.229309
1696781613765625,-11.95669,3.325701,-3.441901,0.110909,0.163214,0.166609
1696781613773437,-12.28269,3.640701,-3.76901,0.92909,0.52114,0.87109
1696781613781250,-12.76569,4.45701,-2.479901,0.106809,0.97686,0.36391
1696781613789062,-12.79269,4.336701,-1.864901,0.124609,0.276986,0.179591
1696781613796875,-11.96069,4.80701,-1.299901,0.93409,0.405386,0.301491
1696781613804687,-10.64869,3.248701,0.829901,0.58309,0.465686,0.403091
1696781613812500,-9.32369,2.294701,0.514901,0.78209,0.517786,0.448691
1696781613820312,-8.22869,1.354701,0.672901,0.167709,0.561886,0.443591
1696781613828125,-7.53169,0.447701,-1.244901,0.277709,0.630386,0.375991
1696781613835937,-7.12969,0.208299,-1.776901,0.331109,0.694586,0.285191
1696781613843750,-7.1169,0.599299,-2.164901,0.295609,0.687986,0.187891
1696781613851562,-7.8469,0.687299,-2.474901,0.214609,0.620886,0.105791
1696781613859375,-7.17269,0.535299,-2.704901,0.105409,0.531786,0.46091
1696781613867187,-7.42969,0.178299,-2.889901,0.3691,0.426986,0.14109
1696781613875000,-7.90269,0.305701,-3.53901,0.102391,0.321186,0.69009
1696781613882812,-8.59669,0.922701,-3.357901,0.183491,0.197586,0.123709
1696781613890625,-9.60769,1.574701,-3.737901,0.254391,0.63586,0.173909
1696781613898437,-10.80769,2.175701,-4.230901,0.318791,0.64114,0.206209
1696781613906250,-11.71769,2.728701,-4.853901,0.372991,0.162514,0.201209
1696781613914062,-12.2069,3.103701,-5.438901,0.430991,0.201814,0.190909
1696781613921875,-11.39169,3.140701,-5.382901,0.426191,0.140714,0.165909
1696781613929687,-10.20469,2.866701,-4.569901,0.345191,0.10786,0.125509
1696781613937500,-9.25069,2.649701,-3.642901,0.231491,0.127686,0.110009
1696781613945312,-8.72169,2.585701,-3.117901,0.158091,0.187686,0.107409
1696781613953125,-8.52369,2.571701,-2.917901,0.151091,0.210186,0.125109
1696781613960937,-8.47769,2.632701,-2.890901,0.154891,0.218586,0.163709
1696781613968750,-8.47169,2.681701,-2.923901,0.123891,0.238786,0.214609
1696781613976562,-8.48569,2.734701,-3.38901,0.77291,0.258586,0.252509
1696781613984375,-8.49769,2.776701,-3.144901,0.4191,0.267686,0.303609
1696781613992187,-8.64169,2.783701,-3.347901,0.40909,0.228786,0.337009
1696781614000000,-8.87069,2.769701,-3.412901,0.62809,0.184886,0.345009
1696781614007812,-9.3669,2.627701,-3.353901,0.71409,0.120686,0.340709
1696781614015625,-9.14969,2.390701,-3.340901,0.54909,0.60386,0.315309
1696781614023437,-9.12869,2.185701,-3.295901,0.4491,0.27486,0.284109
1696781614031250,-8.92669,2.33701,-3.126901,0.38991,0.28586,0.250909
1696781614039062,-8.62569,1.905701,-2.944901,0.35791,0.29086,0.218309
1696781614046875,-8.31169,1.825701,-2.832901,0.35391,0.25786,0.194109
1696781614054687,-8.3869,1.900701,-2.771901,0.43391,0.5886,0.186409
1696781614062500,-7.89769,2.44701,-2.829901,0.55191,0.17514,0.182209
1696781614070312,-7.88369,2.184701,-3.12901,0.78191,0.59514,0.182409
1696781614078125,-7.89669,2.297701,-3.225901,0.106491,0.101814,0.191009
1696781614085937,-8.3969,2.403701,-3.415901,0.119991,0.154414,0.201309
1696781614093750,-8.26269,2.434701,-3.644901,0.107291,0.200014,0.199809
1696781614101562,-8.42269,2.438701,-3.788901,0.81491,0.238114,0.200009
1696781614109375,-8.52869,2.438701,-3.874901,0.27791,0.262414,0.197709
1696781614117187,-8.48969,2.415701,-3.845901,0.40709,0.253114,0.195509
1696781614125000,-8.34769,2.366701,-3.687901,0.109209,0.230514,0.210809
1696781614132812,-8.23869,2.324701,-3.523901,0.140409,0.240214,0.221709
1696781614140625,-8.15369,2.300701,-3.396901,0.144309,0.252014,0.231609
1696781614148437,-8.10569,2.267701,-3.333901,0.108609,0.269714,0.224009
1696781614156250,-8.13169,2.203701,-3.275901,0.30909,0.300214,0.218409
1696781614164062,-8.20669,2.146701,-3.234901,0.16391,0.308814,0.203009
1696781614171875,-8.22869,2.107701,-3.277901,0.56591,0.346314,0.173109
1696781614179687,-8.21569,2.98701,-3.331901,0.95491,0.385914,0.136809
1696781614187500,-8.21969,2.129701,-3.469901,0.130491,0.415014,0.101809
1696781614195312,-8.29769,2.199701,-3.608901,0.157091,0.430214,0.68609
1696781614203125,-8.41669,2.318701,-3.739901,0.184091,0.452914,0.28609
1696781614210937,-8.57569,2.418701,-3.847901,0.202391,0.472814,0.12891
1696781614218750,-8.77269,2.528701,-3.917901,0.172091,0.469814,0.48591
1696781614226562,-8.95369,2.606701,-3.932901,0.139491,0.471414,0.89391
1696781614234375,-9.6269,2.669701,-3.894901,0.92791,0.452414,0.105891
1696781614242187,-9.7669,2.745701,-3.851901,0.36591,0.424514,0.142291
1696781614250000,-9.169,2.801701,-3.765901,0.31009,0.382614,0.167391
1696781614257812,-9.669,2.849701,-3.694901,0.85709,0.347814,0.189491
1696781614265625,-9.9569,2.932701,-3.547901,0.113709,0.330114,0.191391
1696781614273437,-9.28469,2.933701,-3.410901,0.121609,0.323414,0.183491
1696781614281250,-9.60169,2.955701,-3.254901,0.91209,0.308714,0.157491
1696781614289062,-9.86569,2.745701,-3.101901,0.37509,0.255614,0.157491
1696781614296875,-9.63169,2.151701,-2.842901,0.7691,0.166114,0.176691
1696781614304687,-9.44269,1.654701,-2.350901,0.26091,0.85414,0.154691
1696781614312500,-9.73569,1.277701,-2.133901,0.36691,0.80814,0.122191
1696781614320312,-9.93169,1.162701,-2.570901,0.78091,0.113414,0.98891
1696781614328125,-9.80069,1.257701,-3.97901,0.155191,0.125814,0.61091
1696781614335937,-9.49369,1.332701,-3.399901,0.234891,0.122714,0.22991
1696781614343750,-9.22169,1.463701,-3.678901,0.261991,0.132414,0.3291
1696781614351562,-9.7769,1.751701,-3.912901,0.256691,0.124214,0.37009
1696781614359375,-9.269,2.158701,-4.47901,0.250691,0.135414,0.56309
1696781614367187,-8.91869,2.554701,-4.205901,0.239691,0.140214,0.60909
1696781614375000,-8.82469,2.832701,-4.407901,0.234991,0.136914,0.60909
1696781614382812,-8.71469,2.997701,-4.581901,0.214091,0.118714,0.62009
1696781614390625,-8.62569,3.53701,-4.687901,0.187491,0.84614,0.56709
1696781614398437,-8.55269,3.25701,-4.626901,0.128691,0.35514,0.42709
1696781614406250,-8.57869,2.937701,-4.403901,0.54591,0.32186,0.24909
1696781614414062,-8.68669,2.766701,-4.157901,0.20691,0.86986,0.14809
1696781614421875,-8.76669,2.432701,-3.953901,0.47091,0.101886,0.13309
1696781614429687,-8.76069,2.17701,-3.809901,0.112191,0.93486,0.27209
1696781614437500,-8.74569,1.671701,-3.807901,0.187991,0.41586,0.55709
1696781614445312,-8.79469,1.465701,-3.933901,0.266091,0.686,0.87709
1696781614453125,-8.79769,1.399701,-4.93901,0.314991,0.36414,0.117309
1696781614460937,-8.73369,1.467701,-4.165901,0.348091,0.60314,0.154609
1696781614468750,-8.64969,1.592701,-4.237901,0.357891,0.79714,0.178909
1696781614476562,-8.54969,1.781701,-4.271901,0.362791,0.98614,0.194109
1696781614484375,-8.45569,1.990701,-4.295901,0.357891,0.114514,0.203609
1696781614492187,-8.44669,2.236701,-4.324901,0.331991,0.124914,0.203709
1696781614500000,-8.51769,2.448701,-4.335901,0.305191,0.136314,0.198609
1696781614507812,-8.62569,2.603701,-4.279901,0.265191,0.139314,0.185109
1696781614515625,-8.73269,2.686701,-4.218901,0.235891,0.135014,0.173709
1696781614523437,-8.82169,2.677701,-4.166901,0.216691,0.123514,0.168509
1696781614531250,-8.92069,2.640701,-4.103901,0.193191,0.99214,0.160109
1696781614539062,-9.2669,2.565701,-4.22901,0.179791,0.62914,0.154709
1696781614546875,-9.2969,2.470701,-3.914901,0.175691,0.18614,0.134909
1696781614554687,-8.96369,2.382701,-3.795901,0.191191,0.35386,0.133109
1696781614562500,-8.81569,2.266701,-3.592901,0.203491,0.89086,0.121709
1696781614570312,-8.66969,2.100701,-3.435901,0.207891,0.126886,0.127909
1696781614578125,-8.52369,1.988701,-3.264901,0.227591,0.148786,0.135709
1696781614585937,-8.44869,1.918701,-3.158901,0.243091,0.152086,0.129409
1696781614593750,-8.37169,1.923701,-3.39901,0.265791,0.130486,0.131709
1696781614601562,-8.26069,2.10701,-2.953901,0.275091,0.107486,0.117409
1696781614609375,-8.12069,2.104701,-3.7901,0.269391,0.70286,0.96409
1696781614617187,-8.6069,2.302701,-3.221901,0.260591,0.17586,0.88809
1696781614625000,-8.16269,2.501701,-3.518901,0.242691,0.25014,0.55009
1696781614632812,-8.30769,2.702701,-3.811901,0.216191,0.55114,0.19709
1696781614640625,-8.47469,2.873701,-4.20901,0.180091,0.86714,0.9291
1696781614648437,-8.68469,2.990701,-4.209901,0.138591,0.104414,0.22791
1696781614656250,-8.81769,3.701,-4.315901,0.115191,0.94914,0.34291
1696781614664062,-8.94869,2.872701,-4.340901,0.79691,0.50614,0.47991
1696781614671875,-8.98869,2.664701,-4.270901,0.73391,0.1186,0.70691
1696781614679687,-8.94169,2.441701,-4.47901,0.74291,0.61886,0.77691
1696781614687500,-8.85169,2.161701,-3.833901,0.100191,0.111586,0.68291
1696781614695312,-8.79869,1.892701,-3.613901,0.159491,0.151086,0.56691
1696781614703125,-8.79869,1.747701,-3.464901,0.232391,0.162486,0.34891
1696781614710937,-8.81869,1.694701,-3.473901,0.292891,0.165586,0.17891
1696781614718750,-8.75169,1.753701,-3.588901,0.351191,0.180386,0.4391
1696781614726562,-8.51769,1.885701,-3.782901,0.402291,0.188986,0.7291
1696781614734375,-8.20669,2.115701,-3.854901,0.446191,0.187286,0.16391
1696781614742187,-7.91569,2.323701,-3.818901,0.477291,0.187286,0.25691
1696781614750000,-7.75169,2.607701,-3.696901,0.507091,0.165886,0.42891
1696781614757812,-7.84069,2.909701,-3.468901,0.530491,0.138886,0.67091
1696781614765625,-8.6269,3.100701,-3.263901,0.551491,0.136386,0.93791
1696781614773437,-8.18169,3.113701,-3.72901,0.582691,0.133086,0.104691
1696781614781250,-8.32869,3.11701,-2.950901,0.603391,0.123086,0.112291
1696781614789062,-8.47369,2.816701,-2.871901,0.615391,0.126586,0.115591
1696781614796875,-8.53069,2.577701,-2.795901,0.613891,0.146086,0.117291
1696781614804687,-8.61069,2.377701,-2.692901,0.618391,0.159886,0.143491
1696781614812500,-8.81469,2.214701,-2.723901,0.642291,0.152786,0.162191
1696781614820312,-9.13469,2.103701,-2.856901,0.690291,0.131786,0.182591
1696781614828125,-9.62569,2.7701,-3.43901,0.684791,0.87286,0.175791
1696781614835937,-10.42469,1.943701,-3.234901,0.656391,0.55886,0.145091
1696781614843750,-11.44269,1.657701,-3.396901,0.619791,0.32986,0.104991
1696781614851562,-12.41969,1.329701,-3.590901,0.575391,0.14186,0.21891
1696781614859375,-13.26469,0.858701,-3.782901,0.515291,0.30586,0.95109
1696781614867187,-13.33069,0.338701,-3.906901,0.423691,0.91386,0.225809
1696781614875000,-12.3069,0.25299,-3.634901,0.328891,0.198086,0.310909
1696781614882812,-10.11969,0.231701,-2.819901,0.249291,0.273486,0.349709
1696781614890625,-8.83269,0.897701,-2.46901,0.169691,0.306086,0.371209
1696781614898437,-8.14269,1.760701,-1.649901,0.52691,0.378086,0.361109
1696781614906250,-7.61769,2.830701,-1.664901,0.37491,0.405286,0.290109
1696781614914062,-7.35669,3.995701,-1.898901,0.88291,0.387686,0.206709
1696781614921875,-7.26269,5.23701,-2.504901,0.128191,0.369786,0.112009
1696781614929687,-7.31469,5.511701,-3.3901,0.172491,0.393786,0.31909
1696781614937500,-7.44369,5.404701,-3.136901,0.138391,0.409586,0.36091
1696781614945312,-7.61569,4.916701,-3.66901,0.27409,0.405586,0.108791
1696781614953125,-7.71869,4.164701,-2.965901,0.256509,0.395386,0.182291
1696781614960937,-7.78169,3.303701,-2.820901,0.461909,0.380086,0.258691
1696781614968750,-7.91969,2.496701,-2.665901,0.637609,0.357186,0.310691
1696781614976562,-8.23869,1.861701,-2.629901,0.744909,0.325186,0.325791
1696781614984375,-8.92969,1.508701,-2.721901,0.790509,0.284386,0.324591
1696781614992187,-9.80469,1.406701,-2.919901,0.777909,0.257586,0.301391
1696781615000000,-10.54569,1.358701,-3.221901,0.720109,0.211186,0.271691
1696781615007812,-10.94769,1.213701,-3.627901,0.676409,0.137186,0.254391
1696781615015625,-10.89969,0.967701,-4.187901,0.630709,0.43486,0.235191
1696781615023437,-10.51969,0.658701,-4.629901,0.614809,0.7114,0.231491
1696781615031250,-10.14169,0.379701,-4.699901,0.607109,0.6086,0.223491
1696781615039062,-9.82669,0.208701,-4.456901,0.576309,0.26486,0.207491
1696781615046875,-9.58269,0.240701,-4.213901,0.516109,0.35986,0.200191
1696781615054687,-9.40869,0.379701,-4.53901,0.394709,0.38386,0.203991
1696781615062500,-9.27369,0.479701,-3.848901,0.242909,0.46786,0.213591
1696781615070312,-9.13469,0.490701,-3.611901,0.123109,0.54486,0.228091
1696781615078125,-9.1369,0.535701,-3.433901,0.25509,0.56686,0.246591
1696781615085937,-8.97569,0.535701,-3.224901,0.52691,0.54986,0.266591
1696781615093750,-9.5469,0.585701,-3.77901,0.107491,0.23786,0.288191
1696781615101562,-9.11669,0.635701,-2.976901,0.143591,0.15286,0.308591
1696781615109375,-9.16969,0.731701,-2.936901,0.158391,0.7214,0.327791
1696781615117187,-9.16269,0.851701,-2.899901,0.167891,0.12314,0.333991
1696781615125000,-9.6269,0.913701,-2.877901,0.152391,0.686,0.329391
1696781615132812,-8.96469,0.967701,-2.888901,0.131291,0.5486,0.297391
1696781615140625,-8.84169,1.7701,-2.926901,0.107691,0.8486,0.250791
1696781615148437,-8.67769,1.49701,-3.84901,0.63791,0.10886,0.206491
1696781615156250,-8.53369,1.36701,-3.278901,0.8491,0.23786,0.161891
1696781615164062,-8.43069,0.941701,-3.465901,0.17809,0.1914,0.125191
1696781615171875,-8.39869,0.860701,-3.625901,0.30909,0.10314,0.99391
1696781615179687,-8.42769,0.845701,-3.746901,0.29109,0.11914,0.87991
1696781615187500,-8.50669,0.880701,-3.947901,0.26809,0.25214,0.74891
1696781615195312,-8.66169,1.37701,-4.133901,0.38691,0.26414,0.71091
1696781615203125,-8.92969,1.188701,-4.228901,0.129491,0.31014,0.71691
1696781615210937,-9.4269,1.404701,-4.300901,0.188991,0.24914,0.99891
1696781615218750,-9.8469,1.514701,-4.190901,0.246091,0.3686,0.154591
1696781615226562,-8.94969,1.461701,-3.865901,0.265791,0.50786,0.193291
1696781615234375,-8.71569,1.363701,-3.501901,0.220991,0.63786,0.222891
1696781615242187,-8.55069,1.274701,-3.217901,0.157991,0.63486,0.247691
1696781615250000,-8.41269,1.181701,-2.974901,0.76391,0.84486,0.253591
1696781615257812,-8.28369,1.118701,-2.784901,0.24491,0.72086,0.248891
1696781615265625,-8.14969,1.72701,-2.688901,0.23209,0.51586,0.230291
1696781615273437,-8.2769,1.22701,-2.681901,0.40509,0.14686,0.196691
1696781615281250,-7.94869,0.969701,-2.766901,0.30309,0.23714,0.160391
1696781615289062,-7.92469,0.923701,-2.969901,0.14209,0.57414,0.110291
1696781615296875,-7.96669,0.830701,-3.240901,0.33291,0.85314,0.51391
1696781615304687,-8.9369,0.747701,-3.505901,0.74991,0.119514,0.13591
1696781615312500,-8.34769,0.755701,-3.694901,0.102691,0.143814,0.28809
1696781615320312,-8.72069,0.783701,-3.861901,0.126591,0.160114,0.43709
1696781615328125,-9.6969,0.842701,-3.949901,0.160891,0.175814,0.66509
1696781615335937,-9.35669,0.904701,-3.949901,0.181891,0.166214,0.81309
1696781615343750,-9.54169,0.980701,-3.825901,0.190091,0.140014,0.95809
1696781615351562,-9.67869,1.84701,-3.582901,0.189491,0.117414,0.124809
1696781615359375,-9.74769,1.212701,-3.264901,0.187691,0.94114,0.142209
1696781615367187,-9.70669,1.336701,-2.971901,0.198891,0.71014,0.166209
1696781615375000,-9.59169,1.418701,-2.726901,0.225791,0.38414,0.172909
1696781615382812,-9.42269,1.411701,-2.645901,0.266291,0.43114,0.168509
1696781615390625,-9.30469,1.339701,-2.791901,0.317491,0.70514,0.159409
1696781615398437,-9.56169,1.245701,-3.39901,0.355791,0.105314,0.152209
1696781615406250,-10.5069,1.163701,-3.226901,0.347791,0.130114,0.129809
1696781615414062,-10.34069,1.141701,-3.147901,0.295691,0.105814,0.111409
1696781615421875,-10.23669,1.275701,-2.818901,0.194591,0.48714,0.90509
1696781615429687,-9.99669,1.585701,-2.426901,0.87891,0.18886,0.78809
1696781615437500,-9.84169,2.26701,-2.178901,0.25891,0.45686,0.62209
1696781615445312,-9.76569,2.493701,-2.137901,0.691,0.55886,0.22909
1696781615453125,-9.65369,2.788701,-2.320901,0.25391,0.50586,0.15291
1696781615460937,-9.46269,2.692701,-2.703901,0.70191,0.62186,0.35891
1696781615468750,-9.25569,2.354701,-3.63901,0.72191,0.90186,0.63591
1696781615476562,-9.11369,1.899701,-3.442901,0.73091,0.131086,0.86491
1696781615484375,-9.5169,1.383701,-3.827901,0.71191,0.145586,0.104291
1696781615492187,-9.6969,0.935701,-4.205901,0.82691,0.138686,0.110291
1696781615500000,-9.13169,0.643701,-4.357901,0.88491,0.93386,0.108591
1696781615507812,-9.17069,0.511701,-4.303901,0.58591,0.41086,0.113491
1696781615515625,-9.24469,0.528701,-4.32901,0.4091,0.19586,0.113891
1696781615523437,-9.32969,0.649701,-3.634901,0.60209,0.27686,0.109791
1696781615531250,-9.33569,0.856701,-3.156901,0.126309,0.42286,0.121991
1696781615539062,-9.23869,1.132701,-2.739901,0.171809,0.50386,0.117691
1696781615546875,-9.20369,1.506701,-2.440901,0.217409,0.68686,0.102391
1696781615554687,-9.16969,1.880701,-2.345901,0.229009,0.50086,0.100491
1696781615562500,-9.3269,2.185701,-2.539901,0.234709,0.26186,0.107091
1696781615570312,-8.78369,2.371701,-2.935901,0.261309,0.6086,0.131291
1696781615578125,-8.52969,2.393701,-3.421901,0.286509,0.21814,0.147491
1696781615585937,-8.40869,2.258701,-3.784901,0.336909,0.43414,0.173591
1696781615593750,-8.39169,2.61701,-3.962901,0.378609,0.62814,0.196691
1696781615601562,-8.54769,1.768701,-4.41901,0.394809,0.93014,0.204391
1696781615609375,-8.79269,1.492701,-4.43901,0.374509,0.112514,0.204091
1696781615617187,-9.7869,1.254701,-4.122901,0.329909,0.129214,0.204891
1696781615625000,-9.29469,1.112701,-4.156901,0.256409,0.137014,0.199291
1696781615632812,-9.45269,1.26701,-4.86901,0.184609,0.144414,0.174491
1696781615640625,-9.54869,1.7701,-3.830901,0.138309,0.146214,0.154491
1696781615648437,-9.57969,0.956701,-3.476901,0.117009,0.130314,0.139691
1696781615656250,-9.46869,0.909701,-3.131901,0.116309,0.116514,0.131991
1696781615664062,-9.24269,0.830701,-2.864901,0.119909,0.104714,0.135491
1696781615671875,-9.369,0.748701,-2.780901,0.123609,0.100314,0.122391
1696781615679687,-8.76169,0.689701,-2.852901,0.97009,0.101714,0.112491
1696781615687500,-8.56769,0.633701,-3.23901,0.91709,0.97014,0.99491
1696781615695312,-8.41469,0.593701,-3.226901,0.78309,0.108514,0.71791
1696781615703125,-8.33069,0.531701,-3.440901,0.72709,0.113614,0.47391
1696781615710937,-8.34269,0.472701,-3.620901,0.39709,0.129414,0.21291
1696781615718750,-8.46669,0.433701,-3.710901,0.14009,0.158014,0.8709
1696781615726562,-8.68369,0.435701,-3.735901,0.8891,0.184814,0.37609
1696781615734375,-8.91969,0.445701,-3.717901,0.50091,0.204014,0.70309
1696781615742187,-9.7569,0.456701,-3.636901,0.81491,0.219214,0.101809
1696781615750000,-9.15169,0.451701,-3.508901,0.101691,0.231814,0.114809
1696781615757812,-9.12769,0.472701,-3.309901,0.106091,0.230614,0.139209
1696781615765625,-9.6069,0.525701,-3.176901,0.84391,0.219214,0.153409
1696781615773437,-8.95869,0.579701,-3.19901,0.63891,0.210714,0.169109
1696781615781250,-8.85569,0.653701,-2.940901,0.29591,0.204114,0.184809
1696781615789062,-8.76969,0.764701,-2.965901,0.4891,0.209214,0.191109
1696781615796875,-8.76069,0.902701,-3.68901,0.2991,0.207114,0.203709
1696781615804687,-8.81569,1.76701,-3.149901,0.20509,0.209014,0.193809
1696781615812500,-8.92369,1.259701,-3.223901,0.43509,0.209414,0.192209
1696781615820312,-9.3869,1.438701,-3.273901,0.66109,0.215614,0.182109
1696781615828125,-9.6969,1.556701,-3.372901,0.74509,0.218814,0.167509
1696781615835937,-9.2469,1.558701,-3.516901,0.91909,0.207814,0.143209
1696781615843750,-8.91069,1.445701,-3.626901,0.96909,0.186714,0.126909
1696781615851562,-8.78169,1.250701,-3.676901,0.99509,0.163414,0.110409
1696781615859375,-8.69669,0.985701,-3.688901,0.119309,0.136714,0.108109
1696781615867187,-8.68369,0.730701,-3.622901,0.126209,0.112814,0.113009
1696781615875000,-8.72769,0.517701,-3.548901,0.127809,0.119414,0.109809
1696781615882812,-8.82169,0.322701,-3.458901,0.112109,0.137014,0.126109
1696781615890625,-8.87569,0.239701,-3.407901,0.87309,0.152814,0.145509
1696781615898437,-8.97369,0.242701,-3.355901,0.71509,0.174814,0.165609
1696781615906250,-9.5669,0.303701,-3.294901,0.55909,0.182414,0.186609
1696781615914062,-9.6869,0.443701,-3.168901,0.42709,0.197114,0.212609
1696781615921875,-9.6869,0.598701,-2.985901,0.60009,0.207514,0.237009
1696781615929687,-8.93969,0.703701,-2.760901,0.85209,0.210314,0.257509
1696781615937500,-8.81969,0.788701,-2.614901,0.125509,0.228214,0.286109
1696781615945312,-8.78069,0.756701,-2.542901,0.189709,0.221414,0.307709
1696781615953125,-9.4769,0.960701,-2.703901,0.215209,0.167614,0.354009
1696781615960937,-9.71569,1.332701,-2.550901,0.185509,0.50814,0.409709
1696781615968750,-10.69969,2.13701,-2.81901,0.187709,0.77186,0.429609
1696781615976562,-11.95369,3.325701,-2.110901,0.184209,0.180186,0.401509
1696781615984375,-13.29969,4.746701,-2.499901,0.127709,0.227486,0.279309
1696781615992187,-14.12369,6.91701,-2.838901,0.65009,0.262086,0.78809
1696781616000000,-13.84369,7.65701,-2.912901,0.56909,0.299586,0.158591
1696781616007812,-12.21569,6.855701,-2.754901,0.51309,0.342286,0.377591
1696781616015625,-10.32169,5.190701,-2.46901,0.15809,0.396286,0.513091
1696781616023437,-9.4769,3.136701,-1.261901,0.104509,0.477786,0.543691
1696781616031250,-8.27169,1.536701,-1.224901,0.231809,0.605586,0.505791
1696781616039062,-7.55569,0.307701,-1.729901,0.286309,0.726886,0.447691
1696781616046875,-7.12369,0.650299,-2.276901,0.249409,0.759486,0.358691
1696781616054687,-6.99869,-1.158299,-2.847901,0.187709,0.694886,0.248191
1696781616062500,-6.92369,-1.191299,-3.295901,0.126609,0.598586,0.141891
1696781616070312,-6.82369,0.840299,-3.529901,0.59409,0.477886,0.37091
1696781616078125,-6.83769,0.236299,-3.598901,0.7091,0.365386,0.44909
1696781616085937,-7.26169,0.338701,-3.675901,0.71291,0.233786,0.118809
1696781616093750,-8.17469,0.802701,-3.755901,0.163291,0.128786,0.178909
1696781616101562,-9.19669,1.163701,-3.847901,0.221191,0.40686,0.222109
1696781616109375,-10.17369,1.531701,-4.68901,0.238291,0.38114,0.245509
1696781616117187,-10.86169,2.5701,-4.511901,0.254191,0.123014,0.249409
1696781616125000,-11.18669,2.558701,-4.982901,0.262791,0.165414,0.215809
1696781616132812,-11.6169,3.33701,-5.184901,0.280591,0.134714,0.154709
1696781616140625,-10.38969,3.324701,-4.923901,0.297091,0.49714,0.81709
1696781616148437,-9.46069,3.461701,-4.380901,0.300291,0.27086,0.29609
1696781616156250,-8.75469,3.412701,-4.36901,0.305891,0.51586,0.8609
1696781616164062,-8.39369,3.305701,-3.781901,0.298091,0.53186,0.8509
1696781616171875,-8.21269,3.231701,-3.624901,0.248591,0.48186,0.32209
1696781616179687,-8.26969,3.165701,-3.470901,0.167991,0.54386,0.60409
1696781616187500,-8.19969,2.945701,-3.270901,0.66691,0.87086,0.96009
1696781616195312,-8.32169,3.142701,-3.92901,0.51709,0.97086,0.146109
1696781616203125,-8.67669,3.134701,-3.96901,0.143209,0.132786,0.186909
1696781616210937,-8.83869,2.875701,-3.56901,0.197009,0.191986,0.203409
1696781616218750,-8.90469,2.598701,-3.72901,0.225509,0.223986,0.221009
1696781616226562,-8.86269,2.272701,-3.110901,0.234209,0.219686,0.220609
1696781616234375,-8.77069,1.951701,-3.158901,0.224109,0.174186,0.191809
1696781616242187,-8.63469,1.632701,-3.262901,0.214709,0.119786,0.157009
1696781616250000,-8.47669,1.396701,-3.230901,0.161209,0.52286,0.124409
1696781616257812,-8.30369,1.297701,-3.210901,0.120009,0.4014,0.115109
1696781616265625,-8.13369,1.314701,-3.269901,0.73909,0.25314,0.132009
1696781616273437,-7.98469,1.455701,-3.343901,0.19109,0.40414,0.165209
1696781616281250,-7.93869,1.685701,-3.356901,0.17691,0.48414,0.199509
1696781616289062,-8.569,1.917701,-3.343901,0.49691,0.61214,0.232109
1696781616296875,-8.11869,2.105701,-3.302901,0.79791,0.78714,0.261509
1696781616304687,-8.26669,2.250701,-3.187901,0.116491,0.114814,0.271909
1696781616312500,-8.46969,2.419701,-3.122901,0.117791,0.160214,0.275209
1696781616320312,-8.67269,2.602701,-3.68901,0.96491,0.178714,0.270509
1696781616328125,-8.82269,2.746701,-3.31901,0.61291,0.182014,0.244309
1696781616335937,-8.83369,2.831701,-3.34901,0.14891,0.178814,0.209909
1696781616343750,-8.75169,2.805701,-3.88901,0.11809,0.171214,0.182309
1696781616351562,-8.64969,2.719701,-3.151901,0.22009,0.159714,0.153009
1696781616359375,-8.56269,2.631701,-3.225901,0.30409,0.161314,0.133609
1696781616367187,-8.47369,2.563701,-3.311901,0.26109,0.181014,0.108009
1696781616375000,-8.40269,2.492701,-3.376901,0.24109,0.184014,0.82009
1696781616382812,-8.33969,2.444701,-3.424901,0.16009,0.212314,0.58409
1696781616390625,-8.31869,2.392701,-3.396901,0.709,0.238814,0.18509
1696781616398437,-8.32069,2.361701,-3.369901,0.5209,0.257514,0.13291
1696781616406250,-8.36069,2.357701,-3.345901,0.8709,0.278714,0.30991
1696781616414062,-8.37869,2.364701,-3.322901,0.20209,0.296814,0.59991
1696781616421875,-8.45569,2.386701,-3.334901,0.24909,0.315814,0.87691
1696781616429687,-8.59769,2.430701,-3.338901,0.28809,0.331414,0.109791
1696781616437500,-8.72869,2.452701,-3.331901,0.43809,0.332914,0.134291
1696781616445312,-8.80569,2.477701,-3.302901,0.74309,0.316714,0.165291
1696781616453125,-8.84169,2.496701,-3.198901,0.85709,0.285814,0.186591
1696781616460937,-8.98169,2.558701,-3.50901,0.94409,0.274014,0.194991
1696781616468750,-9.22069,2.584701,-2.914901,0.86409,0.233514,0.203091
1696781616476562,-9.33069,2.435701,-2.854901,0.67609,0.154414,0.218191
1696781616484375,-9.32169,2.255701,-2.791901,0.30209,0.69614,0.231091
1696781616492187,-9.33069,1.998701,-2.782901,0.21009,0.3414,0.246291
1696781616500000,-9.49969,1.770701,-2.854901,0.10391,0.25786,0.252491
1696781616507812,-9.88269,1.634701,-2.908901,0.33391,0.17186,0.242191
1696781616515625,-10.24669,1.493701,-3.140901,0.92991,0.6814,0.222191
1696781616523437,-10.33369,1.436701,-3.464901,0.163791,0.30214,0.185491
1696781616531250,-10.18069,1.433701,-3.766901,0.216691,0.47914,0.133191
1696781616539062,-10.6669,1.614701,-4.901,0.252091,0.65414,0.77991
1696781616546875,-9.91869,1.937701,-4.259901,0.232391,0.47214,0.36491
1696781616554687,-9.73269,2.300701,-4.448901,0.205691,0.10286,0.11491
1696781616562500,-9.63569,2.647701,-4.635901,0.205991,0.63886,0.8491
1696781616570312,-9.57769,2.859701,-4.756901,0.204091,0.114686,0.5691
1696781616578125,-9.43669,2.875701,-4.732901,0.193391,0.169186,0.14491
1696781616585937,-9.29069,2.742701,-4.606901,0.158191,0.241386,0.18691
1696781616593750,-9.7169,2.570701,-4.401901,0.86991,0.326186,0.28091
1696781616601562,-8.87169,2.414701,-4.216901,0.0,0.401486,0.37791
1696781616609375,-8.70869,2.314701,-4.74901,0.73909,0.439086,0.35691
1696781616617187,-8.66969,2.255701,-3.917901,0.106909,0.466686,0.39391
1696781616625000,-8.65169,2.105701,-3.739901,0.92809,0.453786,0.31191
1696781616632812,-8.62669,1.800701,-3.744901,0.32409,0.409386,0.23591
1696781616640625,-8.53269,1.557701,-3.728901,0.62891,0.344086,0.5409
1696781616648437,-8.45269,1.347701,-3.705901,0.133191,0.273686,0.35809
1696781616656250,-8.48769,1.243701,-3.724901,0.202991,0.215286,0.80409
1696781616664062,-8.64969,1.291701,-3.721901,0.255291,0.140586,0.110309
1696781616671875,-8.78169,1.392701,-3.687901,0.303791,0.99486,0.140409
1696781616679687,-8.86669,1.500701,-3.649901,0.328891,0.61386,0.168609
1696781616687500,-8.86469,1.631701,-3.617901,0.329191,0.32086,0.181709
1696781616695312,-8.81969,1.810701,-3.548901,0.312091,0.24086,0.196009
1696781616703125,-8.81369,2.8701,-3.437901,0.280991,0.28186,0.199909
1696781616710937,-8.79369,2.187701,-3.320901,0.229391,0.42886,0.212109
1696781616718750,-8.79669,2.351701,-3.248901,0.203191,0.47386,0.207209
1696781616726562,-8.78969,2.458701,-3.192901,0.187391,0.49086,0.211709
1696781616734375,-8.82569,2.509701,-3.164901,0.204791,0.52286,0.210409
1696781616742187,-8.82869,2.491701,-3.162901,0.236891,0.45086,0.198209
1696781616750000,-8.82469,2.407701,-3.160901,0.269191,0.53686,0.195109
1696781616757812,-8.79569,2.273701,-3.144901,0.300591,0.53486,0.181109
1696781616765625,-8.76469,2.175701,-3.115901,0.327291,0.48386,0.171809
1696781616773437,-8.79169,2.152701,-3.99901,0.336791,0.50986,0.166609
1696781616781250,-8.82069,2.181701,-3.68901,0.355391,0.52586,0.155509
1696781616789062,-8.82669,2.234701,-3.18901,0.350891,0.69986,0.136309
1696781616796875,-8.85569,2.263701,-2.987901,0.352891,0.81786,0.108609
1696781616804687,-8.89469,2.255701,-2.919901,0.337191,0.108986,0.79509
1696781616812500,-8.89669,2.279701,-2.806901,0.315191,0.113786,0.77609
1696781616820312,-8.83469,2.339701,-2.723901,0.282391,0.122386,0.49509
1696781616828125,-8.81769,2.431701,-2.667901,0.258891,0.120586,0.38109
1696781616835937,-8.79969,2.533701,-2.689901,0.250891,0.112286,0.26809
1696781616843750,-8.80769,2.660701,-2.764901,0.231591,0.107386,0.12009
1696781616851562,-8.85969,2.755701,-2.885901,0.224291,0.101786,0.8591
1696781616859375,-8.91169,2.802701,-3.67901,0.216991,0.89886,0.16491
1696781616867187,-8.98969,2.751701,-3.250901,0.213891,0.66186,0.34491
1696781616875000,-9.5769,2.645701,-3.374901,0.214591,0.46086,0.34191
1696781616882812,-9.16569,2.547701,-3.484901,0.203091,0.54486,0.36091
1696781616890625,-9.28169,2.459701,-3.489901,0.196091,0.71486,0.28491
1696781616898437,-9.31669,2.376701,-3.356901,0.197491,0.119686,0.12291
1696781616906250,-9.27369,2.361701,-3.243901,0.180791,0.184286,0.4509
1696781616914062,-9.16469,2.299701,-3.201901,0.179091,0.238186,0.10509
1696781616921875,-9.12569,2.281701,-3.149901,0.199591,0.266186,0.25109
1696781616929687,-9.8169,2.277701,-3.146901,0.228491,0.291886,0.28709
1696781616937500,-8.91269,2.295701,-3.84901,0.264891,0.312286,0.20609
1696781616945312,-8.72869,2.343701,-2.924901,0.307191,0.312186,0.13109
1696781616953125,-8.54969,2.387701,-2.737901,0.338591,0.290886,0.8709
1696781616960937,-8.36369,2.418701,-2.516901,0.357391,0.292586,0.4109
1696781616968750,-8.22069,2.475701,-2.304901,0.373491,0.267586,0.8191
1696781616976562,-8.8969,2.522701,-2.185901,0.376491,0.228186,0.28791
1696781616984375,-7.95969,2.571701,-2.182901,0.402691,0.184086,0.57291
1696781616992187,-7.84969,2.592701,-2.241901,0.420091,0.136186,0.80791
1696781617000000,-7.82769,2.622701,-2.365901,0.425991,0.72386,0.110891
1696781617007812,-7.82569,2.629701,-2.480901,0.398491,0.26586,0.149691
1696781617015625,-7.87469,2.625701,-2.615901,0.374891,0.31014,0.181691
1696781617023437,-8.3269,2.643701,-2.761901,0.354991,0.78914,0.195891
1696781617031250,-8.28869,2.640701,-2.941901,0.345391,0.116514,0.205491
1696781617039062,-8.65069,2.617701,-3.121901,0.359891,0.137814,0.201891
1696781617046875,-9.5369,2.563701,-3.297901,0.381391,0.148714,0.192191
1696781617054687,-9.33569,2.454701,-3.414901,0.414991,0.147214,0.177191
1696781617062500,-9.45469,2.274701,-3.435901,0.457291,0.117814,0.175191
1696781617070312,-9.52769,2.107701,-3.304901,0.492691,0.86214,0.168791
1696781617078125,-9.80969,2.14701,-3.153901,0.502091,0.53214,0.152891
1696781617085937,-10.51869,1.912701,-2.906901,0.537891,0.23914,0.104191
1696781617093750,-11.63169,1.650701,-2.579901,0.556191,0.2414,0.46091
1696781617101562,-12.67269,1.269701,-2.374901,0.529691,0.62086,0.12509
1696781617109375,-13.269,0.782701,-2.237901,0.452791,0.177986,0.81909
1696781617117187,-12.5669,0.222701,-2.156901,0.332291,0.299486,0.150409
1696781617125000,-10.24269,0.75299,-1.812901,0.231291,0.370686,0.198309
1696781617132812,-8.77469,0.320701,-1.337901,0.175491,0.309486,0.240409
1696781617140625,-7.97369,1.173701,-1.8901,0.142691,0.255686,0.246709
1696781617148437,-7.68369,2.144701,0.856901,0.115091,0.258186,0.229009
1696781617156250,-7.64869,3.84701,-1.25901,0.117691,0.247186,0.169109
1696781617164062,-7.61269,3.842701,-1.425901,0.99691,0.248086,0.106309
1696781617171875,-7.52269,4.404701,-2.29901,0.65191,0.243186,0.47809
1696781617179687,-7.69169,4.703701,-2.461901,0.6791,0.253986,0.609
1696781617187500,-8.15869,4.679701,-2.650901,0.118209,0.237486,0.44391
1696781617195312,-8.63469,4.208701,-2.648901,0.314209,0.230786,0.94991
1696781617203125,-8.99269,3.384701,-2.545901,0.478109,0.238386,0.148391
1696781617210937,-9.28969,2.530701,-2.644901,0.593009,0.219886,0.186591
1696781617218750,-9.72969,1.787701,-2.897901,0.632009,0.185086,0.207591
1696781617226562,-10.39369,1.398701,-3.115901,0.595809,0.150686,0.210191
1696781617234375,-11.2969,1.247701,-3.300901,0.513409,0.113186,0.189591
1696781617242187,-11.25569,1.231701,-3.514901,0.397009,0.49786,0.170191
1696781617250000,-11.3069,1.219701,-3.814901,0.288009,0.49714,0.150591
1696781617257812,-10.53769,1.95701,-4.59901,0.214409,0.149814,0.137491
1696781617265625,-10.5969,0.886701,-4.197901,0.175409,0.183914,0.140191
1696781617273437,-9.77869,0.747701,-4.278901,0.153309,0.223214,0.144491
1696781617281250,-9.68569,0.663701,-4.300901,0.122309,0.241214,0.169791
1696781617289062,-9.63869,0.657701,-4.206901,0.98309,0.240314,0.193391
1696781617296875,-9.61569,0.678701,-4.64901,0.90909,0.208514,0.226091
1696781617304687,-9.50369,0.691701,-3.839901,0.99709,0.154714,0.263591
1696781617312500,-9.39669,0.761701,-3.589901,0.106109,0.97714,0.270391
1696781617320312,-9.22069,0.858701,-3.271901,0.94009,0.50414,0.286691
1696781617328125,-9.12069,0.901701,-2.884901,0.76709,0.26114,0.292991
1696781617335937,-9.5469,0.975701,-2.411901,0.48909,0.1886,0.296191
1696781617343750,-8.93169,1.25701,-1.958901,0.32609,0.24886,0.323591
1696781617351562,-8.70269,1.93701,-1.620901,0.5091,0.53286,0.350991
1696781617359375,-8.52369,1.88701,-1.415901,0.82091,0.67686,0.367791
1696781617367187,-8.45469,0.996701,-1.280901,0.193191,0.79486,0.361791
1696781617375000,-8.40269,0.802701,-1.226901,0.297791,0.88886,0.350791
1696781617382812,-8.39569,0.666701,-1.355901,0.355491,0.74686,0.338891
1696781617390625,-8.39669,0.609701,-1.720901,0.371491,0.27686,0.312791
1696781617398437,-8.59769,0.629701,-2.159901,0.390991,0.15314,0.263591
1696781617406250,-8.88069,0.685701,-2.600901,0.379991,0.66814,0.221791
1696781617414062,-9.16969,0.769701,-3.64901,0.359491,0.114514,0.187791
1696781617421875,-9.35669,0.900701,-3.359901,0.343491,0.158914,0.160091
1696781617429687,-9.55669,1.33701,-3.595901,0.320991,0.188814,0.148691
1696781617437500,-9.66469,1.191701,-3.681901,0.283891,0.189814,0.154191
1696781617445312,-9.72969,1.387701,-3.620901,0.240591,0.168214,0.163091
1696781617453125,-9.63769,1.474701,-3.435901,0.204791,0.124714,0.176491
1696781617460937,-9.45569,1.485701,-3.212901,0.169391,0.85214,0.191791
1696781617468750,-9.16769,1.350701,-3.14901,0.120091,0.39514,0.208791
1696781617476562,-8.85669,1.125701,-2.830901,0.96491,0.6914,0.212491
1696781617484375,-8.60569,0.877701,-2.796901,0.74991,0.7214,0.210991
1696781617492187,-8.41069,0.628701,-2.877901,0.75191,0.21814,0.194791
1696781617500000,-8.27669,0.386701,-3.44901,0.98191,0.46314,0.158891
1696781617507812,-8.20269,0.126701,-3.224901,0.130291,0.70414,0.110091
1696781617515625,-8.14469,0.96299,-3.333901,0.187391,0.99014,0.49891
1696781617523437,-8.11969,0.192299,-3.353901,0.237691,0.132414,0.22309
1696781617531250,-8.7169,0.192299,-3.328901,0.277491,0.149414,0.95109
1696781617539062,-8.5569,0.115299,-3.314901,0.314491,0.184014,0.168509
1696781617546875,-8.14069,0.30701,-3.285901,0.346291,0.232214,0.223609
1696781617554687,-8.41969,0.229701,-3.296901,0.391991,0.294614,0.265109
1696781617562500,-8.78569,0.488701,-3.325901,0.448891,0.354814,0.285409
1696781617570312,-9.17169,0.729701,-3.352901,0.489991,0.394214,0.281409
1696781617578125,-9.53969,0.978701,-3.320901,0.521791,0.402814,0.269109
1696781617585937,-9.82569,1.174701,-3.269901,0.534591,0.384314,0.247909
1696781617593750,-9.88469,1.325701,-3.196901,0.548691,0.343914,0.227109
1696781617601562,-9.81169,1.413701,-3.136901,0.537691,0.291114,0.203809
1696781617609375,-10.1869,1.396701,-3.81901,0.517191,0.242514,0.182409
1696781617617187,-10.61069,1.452701,-2.906901,0.463291,0.208414,0.155909
1696781617625000,-11.18469,1.667701,-2.646901,0.417191,0.158114,0.119709
1696781617632812,-11.37569,2.83701,-2.297901,0.346691,0.92414,0.97209
1696781617640625,-11.10969,2.624701,-1.874901,0.227391,0.18386,0.40409
1696781617648437,-10.70969,3.109701,-1.459901,0.93391,0.109886,0.24791
1696781617656250,-10.47069,3.313701,-1.454901,0.30091,0.138686,0.75491
1696781617664062,-10.22569,3.15701,-1.725901,0.43991,0.173186,0.133691
1696781617671875,-9.92869,2.422701,-2.13901,0.39491,0.238486,0.177691
1696781617679687,-9.73769,1.736701,-2.435901,0.41691,0.277886,0.203791
1696781617687500,-9.62569,1.139701,-2.877901,0.77991,0.287186,0.222591
1696781617695312,-9.49469,0.703701,-3.213901,0.112691,0.289386,0.243491
1696781617703125,-9.30169,0.375701,-3.415901,0.131991,0.302186,0.244791
1696781617710937,-9.13069,0.107701,-3.470901,0.140991,0.298986,0.254391
1696781617718750,-8.98969,0.130299,-3.454901,0.127691,0.288586,0.255791
1696781617726562,-8.89069,0.277299,-3.303901,0.104091,0.254786,0.233491
1696781617734375,-8.84069,0.323299,-3.166901,0.69291,0.205586,0.196391
1696781617742187,-8.75969,0.206299,-3.4901,0.21291,0.137286,0.161191
1696781617750000,-8.67669,0.140701,-2.837901,0.8609,0.61986,0.117491
1696781617757812,-8.66169,0.623701,-2.810901,0.37709,0.1714,0.91591
1696781617765625,-8.75769,1.106701,-2.974901,0.51909,0.46414,0.75091
1696781617773437,-8.90969,1.469701,-3.246901,0.29409,0.66114,0.61691
1696781617781250,-8.99269,1.633701,-3.516901,0.23009,0.74214,0.56791
1696781617789062,-9.169,1.655701,-3.671901,0.2909,0.67514,0.58291
1696781617796875,-9.4869,1.631701,-3.721901,0.17109,0.57714,0.61691
1696781617804687,-9.9769,1.574701,-3.671901,0.32909,0.38414,0.81291
1696781617812500,-9.10969,1.504701,-3.593901,0.41809,0.13514,0.94591
1696781617820312,-9.10369,1.433701,-3.451901,0.50709,0.1486,0.115991
1696781617828125,-9.6269,1.401701,-3.282901,0.48609,0.15686,0.120591
1696781617835937,-8.92269,1.335701,-3.52901,0.45909,0.20486,0.139991
1696781617843750,-8.72169,1.229701,-2.820901,0.50509,0.21786,0.155991
1696781617851562,-8.55969,1.92701,-2.683901,0.49309,0.2614,0.170391
1696781617859375,-8.43069,0.915701,-2.631901,0.38909,0.25014,0.171991
1696781617867187,-8.45569,0.760701,-2.699901,0.28709,0.67814,0.164991
1696781617875000,-8.62569,0.612701,-2.859901,0.2209,0.121414,0.161191
1696781617882812,-8.89569,0.489701,-3.50901,0.22791,0.162614,0.131491
1696781617890625,-9.14669,0.411701,-3.226901,0.27291,0.196914,0.84391
1696781617898437,-9.19769,0.340701,-3.386901,0.41491,0.205314,0.30791
1696781617906250,-9.5969,0.285701,-3.481901,0.32291,0.189914,0.20309
1696781617914062,-8.89969,0.305701,-3.537901,0.42591,0.171614,0.71809
1696781617921875,-8.78869,0.352701,-3.523901,0.60991,0.156814,0.123609
1696781617929687,-8.76469,0.452701,-3.465901,0.95791,0.157814,0.165609
1696781617937500,-8.78869,0.561701,-3.436901,0.146291,0.180414,0.187209
1696781617945312,-8.82369,0.752701,-3.429901,0.177391,0.208514,0.213809
1696781617953125,-8.95369,0.973701,-3.352901,0.197091,0.231814,0.219209
1696781617960937,-9.12269,1.167701,-3.239901,0.208291,0.232814,0.202909
1696781617968750,-9.28669,1.305701,-3.127901,0.194391,0.234814,0.193209
1696781617976562,-9.33269,1.395701,-3.7901,0.175591,0.209814,0.163609
1696781617984375,-9.24969,1.411701,-2.899901,0.152291,0.184314,0.140809
1696781617992187,-9.18169,1.397701,-2.901901,0.134291,0.153114,0.122609
1696781618000000,-9.16069,1.292701,-2.944901,0.107491,0.120714,0.107709
1696781618007812,-9.13669,1.203701,-2.978901,0.65691,0.91014,0.93909
1696781618015625,-9.14969,1.163701,-3.120901,0.36091,0.99414,0.93709
1696781618023437,-9.20469,1.122701,-3.228901,0.4609,0.91414,0.90009
1696781618031250,-9.26169,1.43701,-3.278901,0.61209,0.110914,0.91009
1696781618039062,-9.30669,1.12701,-3.305901,0.116409,0.118314,0.92509
1696781618046875,-9.33269,0.968701,-3.300901,0.180509,0.111114,0.86509
1696781618054687,-9.30069,0.948701,-3.201901,0.224109,0.106614,0.79609
1696781618062500,-9.25269,0.905701,-3.68901,0.262609,0.76714,0.78809
1696781618070312,-9.16169,0.813701,-2.873901,0.294409,0.50714,0.63709
1696781618078125,-9.69,0.704701,-2.652901,0.297309,0.49314,0.54109
1696781618085937,-8.87369,0.622701,-2.541901,0.270509,0.47914,0.46509
1696781618093750,-8.73469,0.552701,-2.557901,0.233809,0.75114,0.40309
1696781618101562,-8.68669,0.468701,-2.724901,0.177809,0.100114,0.46309
1696781618109375,-8.58869,0.391701,-3.10901,0.135209,0.119814,0.45309
1696781618117187,-8.49869,0.354701,-3.282901,0.95409,0.134514,0.63709
1696781618125000,-8.54669,0.273701,-3.411901,0.75109,0.145514,0.83109
1696781618132812,-8.59369,0.227701,-3.413901,0.70209,0.162414,0.115909
1696781618140625,-8.77669,0.292701,-3.388901,0.95209,0.186514,0.139709
1696781618148437,-8.89169,0.473701,-3.312901,0.141809,0.209314,0.161909
1696781618156250,-9.2969,0.740701,-3.267901,0.220809,0.215114,0.189609
1696781618164062,-9.30769,1.99701,-3.208901,0.280309,0.173314,0.224509
1696781618171875,-9.82369,1.469701,-2.937901,0.306809,0.99314,0.267109
1696781618179687,-10.54169,1.979701,-2.570901,0.355909,0.38514,0.280409
1696781618187500,-11.19769,2.519701,-2.423901,0.406309,0.186,0.252409
1696781618195312,-11.51969,2.861701,-2.400901,0.459409,0.61886,0.188709
1696781618203125,-11.43469,3.9701,-2.443901,0.481009,0.165486,0.129309
1696781618210937,-11.34569,3.92701,-2.311901,0.479909,0.255486,0.70609
1696781618218750,-11.26169,3.29701,-2.43901,0.465309,0.356786,0.15391
1696781618226562,-11.22069,2.738701,-1.727901,0.375309,0.394186,0.129091
1696781618234375,-11.3669,2.295701,-1.507901,0.244809,0.337786,0.242991
1696781618242187,-10.57069,1.647701,-1.591901,0.108409,0.247886,0.329491
1696781618250000,-9.91269,0.929701,-2.93901,0.36409,0.191786,0.377991
1696781618257812,-9.23669,0.278701,-2.625901,0.34209,0.229786,0.386491
1696781618265625,-8.62369,0.288299,-2.992901,0.73809,0.293186,0.346891
1696781618273437,-8.11769,0.715299,-3.272901,0.90009,0.321786,0.257291
1696781618281250,-7.77669,0.957299,-3.441901,0.84309,0.357386,0.138591
1696781618289062,-7.56569,0.954299,-3.488901,0.49909,0.340786,0.41091
1696781618296875,-7.39069,0.618299,-3.342901,0.491,0.313386,0.38609
1696781618304687,-7.27669,0.189299,-3.62901,0.80991,0.250886,0.82109
1696781618312500,-7.28769,0.231701,-2.794901,0.215391,0.154586,0.110109
1696781618320312,-7.48069,0.659701,-2.666901,0.368791,0.93186,0.116909
1696781618328125,-7.84869,1.77701,-2.559901,0.497491,0.73586,0.107209
1696781618335937,-8.31969,1.412701,-2.609901,0.581891,0.53686,0.73009
1696781618343750,-8.83269,1.748701,-2.825901,0.630591,0.45786,0.25109
1696781618351562,-9.30469,2.64701,-3.189901,0.659391,0.42086,0.45291
1696781618359375,-9.77769,2.266701,-3.520901,0.678991,0.35186,0.94891
1696781618367187,-10.26169,2.338701,-3.797901,0.676891,0.25286,0.123891
1696781618375000,-10.69369,2.344701,-4.90901,0.648291,0.12486,0.117791
1696781618382812,-10.72369,2.280701,-4.466901,0.630691,0.8914,0.85491
1696781618390625,-10.36969,2.202701,-4.815901,0.577891,0.50714,0.26491
1696781618398437,-9.90169,2.170701,-4.982901,0.492491,0.79714,0.33709
1696781618406250,-9.56269,2.165701,-4.834901,0.368791,0.71914,0.92109
1696781618414062,-9.26369,2.183701,-4.419901,0.229791,0.11714,0.114409
1696781618421875,-9.3169,2.301701,-3.948901,0.118891,0.53186,0.129009
1696781618429687,-8.95469,2.376701,-3.480901,0.55991,0.97886,0.163209
1696781618437500,-9.6769,2.467701,-3.72901,0.13691,0.107986,0.183409
1696781618445312,-9.23369,2.522701,-2.759901,0.13209,0.125386,0.210709
1696781618453125,-9.33569,2.467701,-2.433901,0.39709,0.149186,0.214609
1696781618460937,-9.44769,2.328701,-2.228901,0.64209,0.150186,0.204909
1696781618468750,-9.52269,2.66701,-2.230901,0.97509,0.150386,0.204409
1696781618476562,-9.39869,1.906701,-2.334901,0.91509,0.150386,0.190009
1696781618484375,-9.37969,1.981701,-2.460901,0.108009,0.172586,0.186809
1696781618492187,-9.39169,1.861701,-2.822901,0.102609,0.202086,0.162409
1696781618500000,-9.29769,1.743701,-3.111901,0.71409,0.218986,0.122009
1696781618507812,-9.11269,1.595701,-3.431901,0.26009,0.206986,0.87409
1696781618515625,-8.93569,1.493701,-3.582901,0.17091,0.185986,0.62109
1696781618523437,-8.70169,1.453701,-3.602901,0.36691,0.124786,0.43709
1696781618531250,-8.63769,1.399701,-3.600901,0.52691,0.55986,0.36409
1696781618539062,-8.65169,1.428701,-3.537901,0.22891,0.16986,0.39409
1696781618546875,-8.76469,1.477701,-3.485901,0.11109,0.2386,0.66509
1696781618554687,-8.82469,1.566701,-3.368901,0.36809,0.1986,0.88909
1696781618562500,-8.83869,1.584701,-3.284901,0.33709,0.10914,0.90609
1696781618570312,-8.85669,1.558701,-3.205901,0.30009,0.20814,0.103709
1696781618578125,-8.89669,1.539701,-3.199901,0.17809,0.25414,0.106909
1696781618585937,-8.90569,1.505701,-3.212901,0.2291,0.34414,0.112509
1696781618593750,-8.79069,1.530701,-3.237901,0.26491,0.36914,0.112409
1696781618601562,-8.62969,1.598701,-3.208901,0.59891,0.30714,0.108109
1696781618609375,-8.47869,1.674701,-3.237901,0.92091,0.30514,0.95509
1696781618617187,-8.34769,1.778701,-3.235901,0.140591,0.35514,0.76809
1696781618625000,-8.21269,1.925701,-3.156901,0.174891,0.52014,0.53209
1696781618632812,-8.12869,2.37701,-3.34901,0.175191,0.78014,0.12909
1696781618640625,-8.11669,2.123701,-2.948901,0.173691,0.106414,0.22191
1696781618648437,-8.20569,2.218701,-2.908901,0.155391,0.130714,0.52991
1696781618656250,-8.32269,2.257701,-3.25901,0.124491,0.170014,0.101491
1696781618664062,-8.37169,2.205701,-3.169901,0.81691,0.180314,0.150091
1696781618671875,-8.34069,2.111701,-3.298901,0.37691,0.176914,0.202391
1696781618679687,-8.31969,2.40701,-3.417901,0.409,0.174314,0.254191
1696781618687500,-8.36369,1.963701,-3.536901,0.47009,0.183914,0.282191
1696781618695312,-8.49069,1.898701,-3.590901,0.68409,0.197714,0.298191
1696781618703125,-8.65369,1.831701,-3.556901,0.92809,0.209614,0.298291
1696781618710937,-8.92169,1.818701,-3.423901,0.112409,0.218214,0.291791
1696781618718750,-9.31369,1.913701,-3.54901,0.142809,0.197814,0.265191
1696781618726562,-9.65269,2.34701,-2.626901,0.156509,0.171514,0.239791
1696781618734375,-9.75769,1.712701,-2.241901,0.148509,0.129214,0.234991
1696781618742187,-10.7869,1.213701,-1.724901,0.109809,0.81314,0.226991
1696781618750000,-10.81369,0.806701,-1.393901,0.74909,0.77714,0.196091
1696781618757812,-11.18869,0.463701,-1.731901,0.57109,0.51314,0.158991
1696781618765625,-10.75369,0.245701,-2.544901,0.32409,0.10686,0.105791
1696781618773437,-10.8869,0.159701,-3.59901,0.18391,0.76486,0.55791
1696781618781250,-9.63969,0.350701,-3.163901,0.43491,0.113186,0.15691
1696781618789062,-9.39769,0.843701,-3.177901,0.99691,0.110786,0.21709
1696781618796875,-9.24369,1.459701,-3.271901,0.197291,0.80986,0.62009
1696781618804687,-9.14969,2.32701,-3.514901,0.293991,0.22086,0.84509
1696781618812500,-9.9769,2.482701,-3.910901,0.377391,0.41514,0.90709
1696781618820312,-9.6869,2.778701,-4.308901,0.442591,0.87614,0.95209
1696781618828125,-9.269,2.876701,-4.542901,0.434891,0.91414,0.71209
1696781618835937,-8.91669,2.807701,-4.606901,0.367491,0.71314,0.47409
1696781618843750,-8.83069,2.634701,-4.351901,0.254591,0.42614,0.17109
1696781618851562,-8.79769,2.403701,-4.99901,0.112591,0.47614,0.11891
1696781618859375,-8.86669,2.210701,-3.885901,0.18209,0.19814,0.18591
1696781618867187,-9.3869,2.28701,-3.559901,0.93609,0.29386,0.1109
1696781618875000,-9.19869,1.736701,-3.226901,0.102809,0.67386,0.34509
1696781618882812,-9.15269,1.361701,-2.994901,0.76909,0.96886,0.71709
1696781618890625,-8.92969,1.75701,-3.23901,0.4809,0.70386,0.101909
1696781618898437,-8.76569,0.960701,-3.215901,0.93691,0.27286,0.132009
1696781618906250,-8.77469,0.940701,-3.368901,0.179491,0.18614,0.154409
1696781618914062,-8.91269,0.966701,-3.483901,0.246291,0.64614,0.168509
1696781618921875,-8.99869,1.45701,-3.534901,0.274091,0.82114,0.173509
1696781618929687,-9.3269,1.178701,-3.586901,0.282891,0.110514,0.172509
1696781618937500,-9.669,1.369701,-3.665901,0.305591,0.146714,0.179609
1696781618945312,-9.569,1.570701,-3.739901,0.302991,0.190914,0.188009
1696781618953125,-9.5369,1.784701,-3.784901,0.285691,0.215414,0.191109
1696781618960937,-9.11269,1.971701,-3.741901,0.275091,0.238314,0.197609
1696781618968750,-9.16569,2.77701,-3.671901,0.258491,0.245714,0.206709
1696781618976562,-9.18669,2.106701,-3.671901,0.235491,0.237914,0.208209
1696781618984375,-9.15869,2.50701,-3.687901,0.229691,0.234914,0.214709
1696781618992187,-9.15769,1.970701,-3.680901,0.234191,0.224914,0.214609
1696781619000000,-9.14269,1.881701,-3.608901,0.218691,0.215414,0.211309
1696781619007812,-9.14369,1.799701,-3.484901,0.204391,0.194014,0.214109
1696781619015625,-9.14069,1.741701,-3.340901,0.207191,0.181114,0.194809
1696781619023437,-9.12169,1.686701,-3.153901,0.206791,0.158114,0.189709
1696781619031250,-9.9569,1.644701,-2.958901,0.190291,0.136614,0.176409
1696781619039062,-9.5469,1.621701,-2.805901,0.170191,0.114914,0.159609
1696781619046875,-9.769,1.593701,-2.660901,0.150291,0.100714,0.146609
1696781619054687,-8.85969,1.587701,-2.631901,0.134491,0.96214,0.125609
1696781619062500,-8.72569,1.645701,-2.759901,0.117991,0.96014,0.102709
1696781619070312,-8.67269,1.754701,-2.935901,0.105591,0.102914,0.88309
1696781619078125,-8.70169,1.846701,-3.75901,0.84891,0.99814,0.75109
1696781619085937,-8.74069,1.904701,-3.201901,0.57591,0.109614,0.50709
1696781619093750,-8.72969,1.964701,-3.304901,0.30191,0.112614,0.38909
1696781619101562,-8.73269,1.955701,-3.460901,0.8791,0.124514,0.34109
1696781619109375,-8.78869,1.993701,-3.633901,0.8509,0.119614,0.30709
1696781619117187,-8.87769,2.43701,-3.772901,0.19109,0.103614,0.29009
1696781619125000,-8.98169,2.82701,-3.854901,0.29309,0.80514,0.17309
1696781619132812,-9.369,2.94701,-3.815901,0.36509,0.40714,0.19909
1696781619140625,-8.98569,2.69701,-3.730901,0.48409,0.16814,0.11909
1696781619148437,-9.69,2.10701,-3.710901,0.25709,0.15086,0.27709
1696781619156250,-8.99569,1.988701,-3.656901,0.2491,0.47886,0.39009
1696781619164062,-8.94869,1.969701,-3.588901,0.40091,0.90386,0.44009
1696781619171875,-8.80569,1.911701,-3.489901,0.87591,0.103186,0.43109
1696781619179687,-8.63269,1.900701,-3.399901,0.147191,0.90186,0.39009
1696781619187500,-8.39469,1.899701,-3.243901,0.204791,0.82386,0.38009
1696781619195312,-8.24869,1.945701,-3.99901,0.251991,0.77186,0.24209
1696781619203125,-8.28569,2.19701,-2.998901,0.301591,0.48186,0.15109
1696781619210937,-8.33369,2.62701,-2.894901,0.328491,0.45986,0.11691
1696781619218750,-8.30969,2.117701,-2.822901,0.347891,0.53086,0.19891
1696781619226562,-8.29969,2.168701,-2.806901,0.340791,0.42486,0.32491
1696781619234375,-8.24769,2.185701,-2.829901,0.326791,0.43086,0.58691
1696781619242187,-8.23869,2.154701,-2.843901,0.326291,0.29686,0.95591
1696781619250000,-8.33469,2.136701,-2.854901,0.307891,0.10286,0.129691
1696781619257812,-8.54869,2.148701,-2.847901,0.276391,0.21114,0.158791
1696781619265625,-8.96969,2.190701,-2.847901,0.212091,0.36214,0.172191
1696781619273437,-9.59569,2.148701,-2.764901,0.122691,0.34514,0.166891
1696781619281250,-10.29869,1.924701,-2.827901,0.37491,0.5714,0.143591
1696781619289062,-10.70269,1.613701,-3.18901,0.8609,0.25386,0.99191
1696781619296875,-10.96269,1.299701,-3.131901,0.53009,0.43686,0.30591
1696781619304687,-11.39269,1.11701,-2.818901,0.117009,0.65086,0.58809
1696781619312500,-11.97669,0.692701,-2.426901,0.219109,0.116486,0.169909
1696781619320312,-12.22769,0.359701,-2.44901,0.290309,0.219986,0.255209
1696781619328125,-11.61469,0.133701,-1.877901,0.308409,0.298986,0.330109
1696781619335937,-10.32769,0.177701,-1.780901,0.298609,0.376186,0.373209
1696781619343750,-9.13269,0.642701,-1.686901,0.239609,0.438686,0.374909
1696781619351562,-8.29169,1.328701,-1.476901,0.121709,0.436586,0.354009
1696781619359375,-7.83669,2.49701,-1.374901,0.7309,0.409186,0.294009
1696781619367187,-7.68069,2.860701,-1.401901,0.97691,0.376286,0.203609
1696781619375000,-7.79169,3.613701,-1.596901,0.187991,0.345586,0.99009
1696781619382812,-8.15169,4.101701,-2.27901,0.226691,0.299286,0.5609
1696781619390625,-8.43769,4.93701,-2.526901,0.222891,0.270386,0.82491
1696781619398437,-8.47869,3.741701,-2.790901,0.130491,0.235786,0.155891
1696781619406250,-8.55069,3.279701,-2.950901,0.52009,0.176286,0.208991
1696781619414062,-8.75069,2.740701,-3.164901,0.253909,0.87086,0.241191
1696781619421875,-9.11169,2.194701,-3.347901,0.416209,0.9686,0.242391
1696781619429687,-9.60569,1.731701,-3.624901,0.543009,0.36214,0.237091
1696781619437500,-10.25669,1.446701,-3.899901,0.629709,0.37314,0.212591
1696781619445312,-10.77869,1.312701,-4.68901,0.655609,0.10186,0.169591
1696781619453125,-10.97569,1.277701,-4.104901,0.654309,0.67486,0.108691
1696781619460937,-10.73069,1.134701,-4.129901,0.617409,0.109986,0.72991
1696781619468750,-10.15869,0.887701,-4.100901,0.564209,0.126486,0.70891
1696781619476562,-9.55969,0.685701,-3.944901,0.487609,0.125086,0.71691
1696781619484375,-9.24569,0.550701,-3.751901,0.385609,0.79186,0.91091
1696781619492187,-9.15869,0.482701,-3.595901,0.277109,0.10286,0.116691
1696781619500000,-9.23669,0.414701,-3.476901,0.174609,0.40214,0.160391
1696781619507812,-9.29469,0.393701,-3.431901,0.89509,0.61314,0.201291
1696781619515625,-9.20969,0.438701,-3.366901,0.36609,0.61614,0.240791
1696781619523437,-9.11069,0.546701,-3.312901,0.5909,0.51514,0.253591
1696781619531250,-9.5269,0.711701,-3.276901,0.291,0.36914,0.258391
1696781619539062,-8.99869,0.897701,-3.152901,0.21891,0.41314,0.251791
1696781619546875,-8.99669,1.41701,-3.188901,0.5691,0.72814,0.235491
1696781619554687,-9.1569,1.132701,-3.71901,0.1309,0.41314,0.232791
1696781619562500,-8.93469,1.249701,-2.990901,0.2909,0.37914,0.224791
1696781619570312,-8.84569,1.316701,-3.82901,0.1009,0.10314,0.218391
1696781619578125,-8.78669,1.262701,-3.93901,0.19991,0.614,0.203591
1696781619585937,-8.64869,1.209701,-3.152901,0.27891,0.2886,0.190791
1696781619593750,-8.51569,1.174701,-3.300901,0.46191,0.11114,0.171391
1696781619601562,-8.46769,1.115701,-3.418901,0.73791,0.40714,0.152991
1696781619609375,-8.44369,1.66701,-3.566901,0.88791,0.68814,0.139691
1696781619617187,-8.48569,0.997701,-3.699901,0.95291,0.96414,0.124891
1696781619625000,-8.62669,0.964701,-3.841901,0.99691,0.117314,0.121691
1696781619632812,-8.81269,0.945701,-3.956901,0.81691,0.124414,0.123191
1696781619640625,-8.98869,0.983701,-3.976901,0.72591,0.113214,0.120091
1696781619648437,-9.9769,1.13701,-3.884901,0.62691,0.81814,0.114091
1696781619656250,-9.9769,1.29701,-3.701901,0.63491,0.46414,0.110791
1696781619664062,-9.2869,1.57701,-3.483901,0.78091,0.29214,0.103091
1696781619671875,-8.88769,1.115701,-3.287901,0.97191,0.24414,0.96391
1696781619679687,-8.71769,1.177701,-3.138901,0.122091,0.25814,0.97791
1696781619687500,-8.57169,1.283701,-3.46901,0.124591,0.24714,0.87791
1696781619695312,-8.49369,1.344701,-3.21901,0.119491,0.29414,0.91191
1696781619703125,-8.40869,1.376701,-3.3901,0.98891,0.37314,0.85091
1696781619710937,-8.32969,1.375701,-2.999901,0.62691,0.56714,0.80591
1696781619718750,-8.24169,1.347701,-3.71901,0.27291,0.75014,0.74291
1696781619726562,-8.21169,1.286701,-3.181901,0.0,0.80514,0.62991
1696781619734375,-8.20069,1.188701,-3.276901,0.25109,0.107814,0.39191
1696781619742187,-8.21069,1.60701,-3.363901,0.23809,0.127714,0.8291
1696781619750000,-8.26569,0.981701,-3.390901,0.16809,0.138914,0.33709
1696781619757812,-8.35269,0.942701,-3.449901,0.2291,0.152514,0.71409
1696781619765625,-8.51069,0.969701,-3.546901,0.21191,0.156814,0.102109
1696781619773437,-8.74569,1.88701,-3.586901,0.65391,0.181014,0.126809
1696781619781250,-9.169,1.218701,-3.582901,0.100191,0.192114,0.148109
1696781619789062,-9.20369,1.321701,-3.485901,0.122391,0.201914,0.158109
1696781619796875,-9.31869,1.387701,-3.334901,0.128591,0.192214,0.151809
1696781619804687,-9.37369,1.451701,-3.122901,0.126991,0.179114,0.151609
1696781619812500,-9.41969,1.491701,-2.908901,0.107291,0.158414,0.156409
1696781619820312,-9.49369,1.485701,-2.649901,0.88091,0.132214,0.144709
1696781619828125,-9.57469,1.516701,-2.350901,0.63391,0.113814,0.131109
1696781619835937,-9.56569,1.649701,-1.982901,0.13591,0.88314,0.117809
1696781619843750,-9.53369,1.926701,-1.687901,0.33109,0.59814,0.113509
1696781619851562,-9.54969,2.325701,-1.556901,0.82909,0.41014,0.92109
1696781619859375,-9.55869,2.767701,-1.603901,0.100909,0.34314,0.75609
1696781619867187,-9.63769,3.56701,-1.822901,0.97409,0.52914,0.47109
1696781619875000,-9.76069,3.71701,-2.130901,0.98709,0.61114,0.1291
1696781619882812,-9.73869,2.783701,-2.421901,0.108409,0.31414,0.51791
1696781619890625,-9.53369,2.304701,-2.734901,0.108409,0.7086,0.88791
1696781619898437,-9.32069,1.767701,-3.79901,0.102609,0.40586,0.118391
1696781619906250,-9.22569,1.286701,-3.489901,0.95009,0.51986,0.129691
1696781619914062,-9.20169,0.913701,-3.895901,0.41309,0.30686,0.123991
1696781619921875,-9.27769,0.625701,-4.246901,0.28691,0.36514,0.112891
1696781619929687,-9.52769,0.454701,-4.577901,0.109991,0.128314,0.96691
1696781619937500,-9.71669,0.494701,-4.715901,0.152691,0.188314,0.68591
1696781619945312,-9.78569,0.595701,-4.591901,0.125191,0.209614,0.44591
1696781619953125,-9.90169,0.810701,-4.287901,0.42891,0.218014,0.16391
1696781619960937,-10.11269,1.116701,-3.933901,0.61209,0.168414,0.6009
1696781619968750,-10.27969,1.438701,-3.516901,0.153609,0.88514,0.15809
1696781619976562,-10.30969,1.765701,-3.43901,0.228609,0.26186,0.9109
1696781619984375,-10.13169,2.28701,-2.577901,0.286209,0.173286,0.10291
1696781619992187,-9.68869,2.159701,-2.158901,0.319709,0.290686,0.27391
1696781620000000,-9.8469,2.68701,-1.976901,0.338109,0.318886,0.47391
1696781620007812,-8.62269,1.854701,-2.115901,0.329909,0.246486,0.73991
1696781620015625,-8.53369,1.638701,-2.577901,0.301809,0.119086,0.89091
1696781620023437,-8.72169,1.412701,-3.118901,0.273109,0.19386,0.92891
1696781620031250,-8.96569,1.177701,-3.647901,0.245009,0.53314,0.91691
1696781620039062,-9.20969,1.39701,-4.181901,0.196509,0.98714,0.81391
1696781620046875,-9.44569,0.994701,-4.667901,0.111209,0.131314,0.67191
1696781620054687,-9.64069,0.968701,-4.917901,0.1209,0.126014,0.43491
1696781620062500,-9.72569,0.947701,-4.760901,0.89391,0.94314,0.21991
1696781620070312,-9.64969,0.957701,-4.323901,0.129691,0.49314,0.18191
1696781620078125,-9.59969,1.81701,-3.897901,0.166391,0.7814,0.19891
1696781620085937,-9.56869,1.218701,-3.485901,0.207491,0.11286,0.36991
1696781620093750,-9.55169,1.280701,-3.95901,0.218691,0.36186,0.66291
1696781620101562,-9.48169,1.279701,-2.827901,0.207391,0.73286,0.100291
1696781620109375,-9.24469,1.225701,-2.604901,0.166491,0.117886,0.128691
1696781620117187,-8.92669,1.133701,-2.489901,0.116391,0.153286,0.143891
1696781620125000,-8.61669,1.19701,-2.453901,0.91891,0.169086,0.147291
1696781620132812,-8.33869,0.924701,-2.503901,0.91391,0.146886,0.132891
1696781620140625,-8.18369,0.811701,-2.636901,0.109991,0.108186,0.119791
1696781620148437,-8.11469,0.683701,-2.841901,0.153891,0.42486,0.89591
1696781620156250,-8.19369,0.567701,-3.116901,0.191591,0.1386,0.49991
1696781620164062,-8.33969,0.507701,-3.370901,0.224291,0.38014,0.13791
1696781620171875,-8.50969,0.505701,-3.582901,0.257591,0.65314,0.22009
1696781620179687,-8.62569,0.582701,-3.677901,0.283291,0.68014,0.70609
1696781620187500,-8.70969,0.663701,-3.674901,0.299991,0.63214,0.101509
1696781620195312,-8.79669,0.771701,-3.620901,0.298191,0.52814,0.133309
1696781620203125,-8.88069,0.933701,-3.496901,0.284591,0.34714,0.163609
1696781620210937,-8.94169,1.140701,-3.298901,0.261791,0.7014,0.187509
1696781620218750,-8.96969,1.331701,-3.90901,0.221491,0.17086,0.191909
1696781620226562,-8.93869,1.481701,-2.912901,0.191791,0.36686,0.201109
1696781620234375,-8.88669,1.587701,-2.737901,0.170991,0.46586,0.194309
1696781620242187,-8.87969,1.625701,-2.617901,0.134591,0.53186,0.188909
1696781620250000,-8.94969,1.622701,-2.575901,0.106991,0.35586,0.175609
1696781620257812,-9.2269,1.678701,-2.581901,0.85091,0.22086,0.153009
1696781620265625,-9.9769,1.761701,-2.633901,0.55791,0.4714,0.130609
1696781620273437,-9.15869,1.791701,-2.705901,0.13991,0.35314,0.113909
1696781620281250,-9.15569,1.735701,-2.822901,0.29809,0.49014,0.86309
1696781620289062,-9.9869,1.632701,-2.890901,0.92509,0.59014,0.82409
1696781620296875,-8.99269,1.520701,-2.976901,0.145809,0.78714,0.77109
1696781620304687,-8.91269,1.399701,-3.79901,0.176809,0.95414,0.72209
1696781620312500,-8.84269,1.244701,-3.158901,0.193609,0.118514,0.75509
1696781620320312,-8.80069,1.22701,-3.235901,0.186009,0.134614,0.75609
1696781620328125,-8.86969,0.783701,-3.255901,0.190509,0.138014,0.78809
1696781620335937,-9.5769,0.604701,-3.181901,0.194909,0.126814,0.77209
1696781620343750,-9.16869,0.522701,-3.68901,0.197409,0.126314,0.70509
1696781620351562,-9.19769,0.505701,-3.8901,0.176509,0.141114,0.77309
1696781620359375,-9.17969,0.538701,-3.24901,0.149009,0.138914,0.82209
1696781620367187,-9.8669,0.612701,-3.1901,0.110909,0.148914,0.86009
1696781620375000,-8.91269,0.711701,-2.949901,0.73109,0.155214,0.100909
1696781620382812,-8.78169,0.765701,-2.789901,0.69209,0.147414,0.112409
1696781620390625,-8.72169,0.815701,-2.629901,0.47009,0.147014,0.141509
1696781620398437,-8.66769,0.837701,-2.456901,0.33509,0.144614,0.162309
1696781620406250,-8.62669,0.825701,-2.393901,0.37909,0.134514,0.191109
1696781620414062,-8.75469,0.765701,-2.550901,0.23909,0.121814,0.230109
1696781620421875,-9.28869,0.895701,-2.749901,0.28491,0.51014,0.281709
1696781620429687,-10.40769,1.311701,-2.500901,0.111791,0.40686,0.307909
1696781620437500,-11.88669,2.335701,-2.309901,0.166391,0.114886,0.280309
1696781620445312,-13.50369,3.684701,-2.490901,0.208891,0.135186,0.166609
1696781620453125,-14.48569,5.140701,-2.852901,0.230091,0.114786,0.26391
1696781620460937,-13.88369,6.428701,-3.92901,0.205191,0.74686,0.197091
1696781620468750,-11.71669,6.570701,-3.49901,0.144991,0.70186,0.342491
1696781620476562,-9.55769,5.31701,-2.377901,0.47491,0.104886,0.444091
1696781620484375,-8.35469,3.128701,-1.459901,0.130409,0.173586,0.441891
1696781620492187,-7.82969,1.691701,-1.57901,0.286709,0.304086,0.405791
1696781620500000,-7.56569,0.603701,-1.213901,0.335109,0.425586,0.347691
1696781620507812,-7.42069,0.153299,-1.724901,0.340309,0.482786,0.294891
1696781620515625,-7.33169,0.700299,-2.337901,0.292009,0.470486,0.207391
1696781620523437,-7.19569,0.889299,-2.783901,0.195809,0.428486,0.112591
1696781620531250,-6.97669,0.675299,-3.58901,0.78309,0.349886,0.26591
1696781620539062,-6.84069,0.192299,-3.276901,0.48291,0.263886,0.31609
1696781620546875,-7.4869,0.356701,-3.442901,0.192891,0.136386,0.76209
1696781620554687,-7.71169,0.894701,-3.571901,0.316791,0.12286,0.115509
1696781620562500,-8.70769,1.387701,-3.674901,0.405191,0.69314,0.126709
1696781620570312,-9.82969,1.823701,-3.840901,0.432191,0.118514,0.119409
1696781620578125,-10.82569,2.175701,-4.155901,0.441891,0.172514,0.116709
1696781620585937,-11.37569,2.561701,-4.639901,0.435791,0.220114,0.110509
1696781620593750,-11.34669,3.701,-5.119901,0.378691,0.239114,0.119309
1696781620601562,-10.76969,3.336701,-5.247901,0.289791,0.200514,0.116709
1696781620609375,-9.79769,3.397701,-4.770901,0.168391,0.104114,0.113009
1696781620617187,-9.9969,3.477701,-4.200901,0.54991,0.56814,0.103409
1696781620625000,-8.76969,3.510701,-3.862901,0.25391,0.44114,0.96609
1696781620632812,-8.60369,3.415701,-3.624901,0.22691,0.26914,0.104109
1696781620640625,-8.50269,3.276701,-3.471901,0.6691,0.6186,0.118009
1696781620648437,-8.44969,3.9701,-3.311901,0.31509,0.61486,0.156109
1696781620656250,-8.48669,2.801701,-3.171901,0.78109,0.99186,0.189109
1696781620664062,-8.55869,2.516701,-3.137901,0.144909,0.127086,0.228409
1696781620671875,-8.56969,2.365701,-3.77901,0.190309,0.139586,0.263609
1696781620679687,-8.81269,2.227701,-3.97901,0.199309,0.129786,0.281309
1696781620687500,-8.93969,1.996701,-3.97901,0.195609,0.131986,0.269809
1696781620695312,-8.92569,1.783701,-3.95901,0.182609,0.129886,0.265309
1696781620703125,-8.86369,1.567701,-3.36901,0.155109,0.139786,0.241309
1696781620710937,-8.66569,1.419701,-2.960901,0.119409,0.129986,0.220809
1696781620718750,-8.51469,1.417701,-2.976901,0.87309,0.109086,0.200209
1696781620726562,-8.36869,1.546701,-2.983901,0.44709,0.77886,0.197809
1696781620734375,-8.27069,1.722701,-2.967901,0.7891,0.36686,0.198909
1696781620742187,-8.24369,1.910701,-2.971901,0.65991,0.4086,0.201309
1696781620750000,-8.27969,2.79701,-2.984901,0.112991,0.16914,0.201909
1696781620757812,-8.36069,2.222701,-3.54901,0.133091,0.26614,0.194109
1696781620765625,-8.46369,2.359701,-3.160901,0.148691,0.57614,0.189609
1696781620773437,-8.58669,2.452701,-3.266901,0.143791,0.79014,0.172009
1696781620781250,-8.72469,2.481701,-3.311901,0.120291,0.110114,0.165509
1696781620789062,-8.80269,2.475701,-3.354901,0.92191,0.136614,0.149309
1696781620796875,-8.83169,2.449701,-3.448901,0.61491,0.158514,0.136509
1696781620804687,-8.78469,2.435701,-3.538901,0.45291,0.169814,0.126609
1696781620812500,-8.66269,2.412701,-3.619901,0.52091,0.181714,0.122209
1696781620820312,-8.47969,2.363701,-3.685901,0.76591,0.181214,0.120609
1696781620828125,-8.29769,2.343701,-3.710901,0.103791,0.183814,0.117409
1696781620835937,-8.19369,2.317701,-3.741901,0.129591,0.207114,0.116409
1696781620843750,-8.20969,2.321701,-3.748901,0.152191,0.243514,0.107509
1696781620851562,-8.21069,2.361701,-3.660901,0.169491,0.268214,0.93409
1696781620859375,-8.19969,2.386701,-3.543901,0.179391,0.290514,0.78909
1696781620867187,-8.16369,2.399701,-3.401901,0.177191,0.310014,0.61109
1696781620875000,-8.14069,2.376701,-3.246901,0.177091,0.313614,0.35509
1696781620882812,-8.19169,2.344701,-3.165901,0.178191,0.340114,0.1291
1696781620890625,-8.23469,2.320701,-3.113901,0.163391,0.328814,0.35291
1696781620898437,-8.29669,2.259701,-3.183901,0.133391,0.335614,0.54891
1696781620906250,-8.37769,2.280701,-3.331901,0.115591,0.335714,0.85691
1696781620914062,-8.51969,2.318701,-3.523901,0.99591,0.347114,0.95491
1696781620921875,-8.77269,2.408701,-3.640901,0.98991,0.373914,0.95091
1696781620929687,-9.12269,2.522701,-3.660901,0.100491,0.396514,0.85391
1696781620937500,-9.44269,2.552701,-3.642901,0.113891,0.402514,0.85391
1696781620945312,-9.55169,2.449701,-3.563901,0.128491,0.386714,0.93191
1696781620953125,-9.64869,2.348701,-3.410901,0.150091,0.342214,0.85291
1696781620960937,-9.78969,2.173701,-3.259901,0.141791,0.302814,0.84091
1696781620968750,-9.93769,1.998701,-3.239901,0.134091,0.278214,0.71491
1696781620976562,-10.21069,1.951701,-3.207901,0.145591,0.261514,0.29691
1696781620984375,-10.39969,1.956701,-3.257901,0.172091,0.237314,0.9409
1696781620992187,-10.26569,1.983701,-3.444901,0.178191,0.212014,0.46109
1696781621000000,-9.98769,2.165701,-3.536901,0.202191,0.174014,0.91109
1696781621007812,-9.68269,2.400701,-3.568901,0.202391,0.136414,0.105409
1696781621015625,-9.39169,2.620701,-3.619901,0.182091,0.113314,0.127509
1696781621023437,-9.18569,2.807701,-3.637901,0.158791,0.92314,0.127209
1696781621031250,-9.4169,2.904701,-3.666901,0.129291,0.63314,0.120409
1696781621039062,-8.96769,2.905701,-3.761901,0.99391,0.32414,0.115109
1696781621046875,-8.88569,2.873701,-3.869901,0.64591,0.0,0.103209
1696781621054687,-8.80269,2.755701,-3.815901,0.20191,0.59986,0.93709
1696781621062500,-8.64569,2.619701,-3.599901,0.28709,0.107286,0.86409
1696781621070312,-8.52269,2.506701,-3.345901,0.50509,0.165786,0.84309
1696781621078125,-8.44869,2.361701,-3.106901,0.27109,0.200186,0.87609
1696781621085937,-8.48469,2.233701,-2.935901,0.6291,0.216386,0.99209
1696781621093750,-8.66469,2.87701,-2.899901,0.69191,0.215086,0.117609
1696781621101562,-8.76269,1.900701,-3.9901,0.145891,0.212586,0.150509
1696781621109375,-8.75169,1.758701,-3.154901,0.213691,0.191486,0.161009
1696781621117187,-8.72169,1.704701,-3.295901,0.260491,0.151986,0.186209
1696781621125000,-8.74369,1.665701,-3.458901,0.302991,0.106286,0.188609
1696781621132812,-8.80169,1.663701,-3.591901,0.326591,0.66986,0.179509
1696781621140625,-8.84969,1.724701,-3.683901,0.328291,0.32386,0.165309
1696781621148437,-8.92469,1.851701,-3.833901,0.331091,0.2086,0.161209
1696781621156250,-8.96969,2.38701,-3.944901,0.326491,0.19914,0.146309
1696781621164062,-9.1269,2.203701,-4.11901,0.310991,0.28314,0.144609
1696781621171875,-9.2169,2.378701,-4.22901,0.284591,0.25214,0.147609
1696781621179687,-8.99269,2.511701,-3.951901,0.261791,0.8314,0.151809
1696781621187500,-8.91969,2.603701,-3.831901,0.239891,0.22486,0.143409
1696781621195312,-8.82569,2.648701,-3.716901,0.220691,0.35686,0.139809
1696781621203125,-8.72969,2.649701,-3.570901,0.205191,0.49886,0.123609
1696781621210937,-8.62569,2.610701,-3.444901,0.205991,0.55186,0.116909
1696781621218750,-8.57069,2.540701,-3.383901,0.211991,0.53386,0.92909
1696781621226562,-8.51569,2.499701,-3.342901,0.216991,0.54586,0.80309
1696781621234375,-8.48169,2.452701,-3.383901,0.210191,0.64286,0.54309
1696781621242187,-8.42469,2.385701,-3.374901,0.201991,0.75486,0.33309
1696781621250000,-8.42169,2.351701,-3.419901,0.191691,0.62586,0.909
1696781621257812,-8.44869,2.359701,-3.462901,0.174791,0.69386,0.28491
1696781621265625,-8.49469,2.406701,-3.516901,0.153191,0.70186,0.55891
1696781621273437,-8.52969,2.526701,-3.518901,0.131291,0.63086,0.83191
1696781621281250,-8.53869,2.624701,-3.497901,0.114791,0.61586,0.109291
1696781621289062,-8.56869,2.724701,-3.484901,0.97791,0.57086,0.137091
1696781621296875,-8.63269,2.798701,-3.475901,0.82291,0.54986,0.154791
1696781621304687,-8.68069,2.841701,-3.471901,0.41891,0.56986,0.179691
1696781621312500,-8.65369,2.852701,-3.516901,0.11591,0.53586,0.205791
1696781621320312,-8.64769,2.845701,-3.540901,0.20709,0.26686,0.220191
1696781621328125,-8.66169,2.795701,-3.561901,0.43909,0.14186,0.241591
1696781621335937,-8.61869,2.727701,-3.599901,0.73309,0.2614,0.246591
1696781621343750,-8.54269,2.608701,-3.608901,0.81409,0.1014,0.256291
1696781621351562,-8.48869,2.495701,-3.561901,0.80009,0.10514,0.251491
1696781621359375,-8.50469,2.375701,-3.525901,0.74509,0.15814,0.239991
1696781621367187,-8.52569,2.262701,-3.486901,0.42509,0.4514,0.225091
1696781621375000,-8.57869,2.183701,-3.491901,0.5809,0.286,0.208491
1696781621382812,-8.70669,2.198701,-3.547901,0.28891,0.386,0.196791
1696781621390625,-8.80169,2.217701,-3.626901,0.80091,0.1786,0.176691
1696781621398437,-8.82369,2.224701,-3.678901,0.138491,0.17486,0.170091
1696781621406250,-8.80569,2.224701,-3.628901,0.204491,0.45486,0.151791
1696781621414062,-8.74269,2.186701,-3.550901,0.253291,0.53986,0.130491
1696781621421875,-8.60569,2.157701,-3.457901,0.301091,0.71686,0.116991
1696781621429687,-8.47869,2.122701,-3.320901,0.352691,0.70486,0.101991
1696781621437500,-8.39569,2.98701,-3.230901,0.392591,0.68686,0.90091
1696781621445312,-8.30669,2.77701,-3.201901,0.436191,0.72386,0.83391
1696781621453125,-8.21069,2.69701,-3.160901,0.486691,0.60986,0.69791
1696781621460937,-8.10469,2.85701,-3.151901,0.519691,0.43086,0.70891
1696781621468750,-8.14569,2.112701,-3.228901,0.545791,0.4186,0.81791
1696781621476562,-8.22569,2.185701,-3.372901,0.553291,0.10514,0.96191
1696781621484375,-8.50269,2.249701,-3.538901,0.542591,0.28814,0.108891
1696781621492187,-8.95369,2.353701,-3.646901,0.520791,0.43814,0.115391
1696781621500000,-9.44169,2.456701,-3.610901,0.463191,0.38914,0.91991
1696781621507812,-10.9769,2.315701,-3.583901,0.397491,0.27314,0.70291
1696781621515625,-10.59969,1.969701,-3.606901,0.394291,0.414,0.27291
1696781621523437,-10.94569,1.632701,-3.509901,0.394591,0.6286,0.53309
1696781621531250,-11.42969,1.292701,-3.176901,0.360091,0.59186,0.157109
1696781621539062,-12.13469,0.779701,-2.944901,0.341791,0.138086,0.275609
1696781621546875,-12.29569,0.247701,-2.821901,0.423191,0.196986,0.398909
1696781621554687,-11.77369,0.26299,-2.776901,0.587191,0.191386,0.529709
1696781621562500,-10.75869,0.17701,-2.724901,0.731791,0.154286,0.613709
1696781621570312,-9.50569,0.654701,-2.742901,0.809891,0.132086,0.633809
1696781621578125,-8.48269,1.659701,-2.805901,0.837591,0.175886,0.600109
1696781621585937,-7.67469,2.608701,-2.950901,0.835891,0.248886,0.514409
1696781621593750,-7.20469,3.480701,-2.948901,0.810091,0.334286,0.398709
1696781621601562,-7.17169,4.366701,-2.871901,0.718591,0.339786,0.265709
1696781621609375,-7.53669,5.20701,-3.10901,0.593391,0.317986,0.132209
1696781621617187,-7.87569,5.304701,-3.113901,0.462391,0.315186,0.17191
1696781621625000,-8.13169,5.88701,-3.10901,0.291191,0.353086,0.141591
1696781621632812,-8.32469,4.653701,-2.672901,0.32691,0.382386,0.233591
1696781621640625,-8.48869,4.110701,-2.398901,0.228909,0.354186,0.291291
1696781621648437,-8.32369,3.397701,-1.979901,0.445209,0.341786,0.322491
1696781621656250,-7.86069,2.443701,-1.505901,0.622009,0.320286,0.312991
1696781621664062,-7.47369,1.495701,-1.201901,0.744409,0.275986,0.259291
1696781621671875,-7.62569,0.857701,-1.332901,0.827209,0.181586,0.172691
1696781621679687,-8.28669,0.609701,-1.960901,0.805909,0.99986,0.83191
1696781621687500,-9.18269,0.678701,-2.665901,0.717109,0.29686,0.609
1696781621695312,-10.18169,0.818701,-3.406901,0.593909,0.28214,0.66609
1696781621703125,-10.95969,0.909701,-4.142901,0.475509,0.94014,0.113909
1696781621710937,-11.17569,0.992701,-4.746901,0.384809,0.177014,0.105709
1696781621718750,-10.97169,0.984701,-5.241901,0.314709,0.254214,0.50709
1696781621726562,-10.61869,0.836701,-5.557901,0.232209,0.284214,0.17191
1696781621734375,-10.12569,0.675701,-5.586901,0.127209,0.297114,0.80491
1696781621742187,-9.71769,0.450701,-5.345901,0.36509,0.282214,0.147391
1696781621750000,-9.46769,0.287701,-4.868901,0.21191,0.231314,0.203691
1696781621757812,-9.39669,0.319701,-4.598901,0.46891,0.166114,0.247191
1696781621765625,-9.30169,0.544701,-4.379901,0.57291,0.97514,0.262091
1696781621773437,-9.20069,0.866701,-4.100901,0.92991,0.50014,0.263591
1696781621781250,-9.5469,1.287701,-3.798901,0.113291,0.12414,0.265191
1696781621789062,-8.90769,1.665701,-3.534901,0.120391,0.7686,0.265491
1696781621796875,-8.72569,1.975701,-3.241901,0.117291,0.27186,0.265591
1696781621804687,-8.57669,2.219701,-3.34901,0.114091,0.18986,0.273591
1696781621812500,-8.53369,2.327701,-3.2901,0.110891,0.886,0.283191
1696781621820312,-8.42469,2.272701,-3.901,0.91791,0.18686,0.301191
1696781621828125,-8.31069,2.24701,-2.982901,0.64091,0.32786,0.309391
1696781621835937,-8.24569,1.752701,-3.140901,0.2409,0.42586,0.324791
1696781621843750,-8.23069,1.505701,-3.327901,0.66109,0.39086,0.309291
1696781621851562,-8.38369,1.235701,-3.401901,0.107009,0.28086,0.292191
1696781621859375,-8.60169,1.38701,-3.586901,0.147809,0.7014,0.277591
1696781621867187,-8.75169,0.894701,-3.832901,0.174309,0.31114,0.250491
1696781621875000,-8.95869,0.741701,-3.949901,0.177909,0.53214,0.223291
1696781621882812,-9.7269,0.724701,-3.971901,0.167109,0.63414,0.195491
1696781621890625,-9.18769,0.780701,-3.929901,0.136009,0.58014,0.175991
1696781621898437,-9.26569,0.876701,-3.877901,0.82109,0.46514,0.152891
1696781621906250,-9.26169,1.16701,-3.784901,0.16509,0.31414,0.149091
1696781621914062,-9.14169,1.125701,-3.640901,0.36591,0.214,0.147091
1696781621921875,-8.93869,1.197701,-3.408901,0.73191,0.23886,0.149891
1696781621929687,-8.78069,1.306701,-3.312901,0.68891,0.37786,0.148791
1696781621937500,-8.64469,1.375701,-3.280901,0.50091,0.39386,0.148991
1696781621945312,-8.49369,1.375701,-3.266901,0.26991,0.29186,0.150691
1696781621953125,-8.29969,1.329701,-3.284901,0.1009,0.27386,0.146091
1696781621960937,-8.13569,1.307701,-3.323901,0.41409,0.14486,0.125591
1696781621968750,-8.2969,1.314701,-3.408901,0.54509,0.3614,0.93291
1696781621976562,-8.2369,1.325701,-3.480901,0.52109,0.26414,0.59291
1696781621984375,-8.10469,1.324701,-3.593901,0.51609,0.71914,0.28391
1696781621992187,-8.20469,1.284701,-3.699901,0.35409,0.91414,0.10391
1696781622000000,-8.31069,1.174701,-3.757901,0.22009,0.103114,0.7709
1696781622007812,-8.43569,1.91701,-3.787901,0.24009,0.115014,0.22509
1696781622015625,-8.61469,1.54701,-3.793901,0.23809,0.127914,0.38709
1696781622023437,-8.80369,1.40701,-3.778901,0.22409,0.103014,0.56109
1696781622031250,-8.95869,1.27701,-3.703901,0.24109,0.92714,0.84809
1696781622039062,-9.3069,1.21701,-3.597901,0.13091,0.88214,0.101609
1696781622046875,-9.3969,1.44701,-3.449901,0.41791,0.56114,0.119009
1696781622054687,-9.1569,1.103701,-3.323901,0.83191,0.41514,0.134009
1696781622062500,-9.7969,1.197701,-3.217901,0.127591,0.44814,0.149109
1696781622070312,-9.30169,1.247701,-3.140901,0.162491,0.51714,0.138409
1696781622078125,-9.67469,1.293701,-3.3901,0.186991,0.54614,0.136909
1696781622085937,-10.2169,1.461701,-2.748901,0.170691,0.31814,0.114009
1696781622093750,-10.19269,1.740701,-2.417901,0.134291,0.24986,0.89209
1696781622101562,-10.19569,2.118701,-2.117901,0.93391,0.68086,0.63909
1696781622109375,-10.7569,2.502701,-1.915901,0.54991,0.98986,0.34309
1696781622117187,-9.91569,2.779701,-1.896901,0.35791,0.98586,0.2891
1696781622125000,-9.70569,2.883701,-2.34901,0.29891,0.84086,0.36891
1696781622132812,-9.39769,2.797701,-2.304901,0.22791,0.79786,0.70291
1696781622140625,-9.15069,2.572701,-2.572901,0.23391,0.60386,0.94491
1696781622148437,-9.5269,2.234701,-2.818901,0.14291,0.46286,0.114091
1696781622156250,-9.10569,1.864701,-3.183901,0.42191,0.8486,0.140891
1696781622164062,-9.24869,1.540701,-3.579901,0.83191,0.45514,0.149691
1696781622171875,-9.45669,1.287701,-4.14901,0.135791,0.83614,0.153491
1696781622179687,-9.64069,1.137701,-4.280901,0.176191,0.80214,0.159491
1696781622187500,-9.70669,1.45701,-4.381901,0.181091,0.60614,0.153091
1696781622195312,-9.68269,1.73701,-4.241901,0.129991,0.18614,0.147291
1696781622203125,-9.68969,1.211701,-3.987901,0.42291,0.9286,0.124391
1696781622210937,-9.78069,1.452701,-3.719901,0.42809,0.56886,0.114591
1696781622218750,-9.87969,1.740701,-3.365901,0.131409,0.103086,0.111191
1696781622226562,-9.81669,2.19701,-2.951901,0.205609,0.166486,0.134991
1696781622234375,-9.52169,2.158701,-2.487901,0.288109,0.238086,0.168591
1696781622242187,-9.12169,2.115701,-2.97901,0.364409,0.295286,0.194091
1696781622250000,-8.81369,1.997701,-1.994901,0.402109,0.282186,0.199291
1696781622257812,-8.67269,1.855701,-2.239901,0.388709,0.217986,0.196891
1696781622265625,-8.80469,1.688701,-2.710901,0.358909,0.149886,0.181791
1696781622273437,-8.90869,1.425701,-3.151901,0.348309,0.95286,0.179391
1696781622281250,-8.88169,1.148701,-3.575901,0.353309,0.56586,0.169791
1696781622289062,-8.88669,0.939701,-3.960901,0.335509,0.7386,0.167591
1696781622296875,-9.4569,0.842701,-4.303901,0.278109,0.59814,0.150191
1696781622304687,-9.33269,0.828701,-4.532901,0.187009,0.99514,0.124391
1696781622312500,-9.57569,0.852701,-4.611901,0.106009,0.82214,0.98191
1696781622320312,-9.67769,0.855701,-4.455901,0.45509,0.48114,0.74891
1696781622328125,-9.63669,0.851701,-4.120901,0.22009,0.3586,0.72291
1696781622335937,-9.54969,0.860701,-3.753901,0.2309,0.56886,0.65591
1696781622343750,-9.44069,0.841701,-3.386901,0.5391,0.92786,0.70591
1696781622351562,-9.32369,0.811701,-3.118901,0.17691,0.117386,0.73791
1696781622359375,-9.18369,0.762701,-2.926901,0.25691,0.122186,0.73691
1696781622367187,-9.769,0.724701,-2.805901,0.45991,0.122386,0.68691
1696781622375000,-8.74669,0.684701,-2.742901,0.54091,0.128986,0.52591
1696781622382812,-8.49169,0.651701,-2.724901,0.92091,0.96286,0.45491
1696781622390625,-8.28269,0.637701,-2.800901,0.136491,0.55486,0.34991
1696781622398437,-8.18569,0.629701,-2.944901,0.192091,0.14386,0.29091
1696781622406250,-8.21469,0.620701,-3.147901,0.245591,0.35914,0.18591
1696781622414062,-8.26369,0.581701,-3.334901,0.293291,0.75314,0.7991
1696781622421875,-8.30769,0.531701,-3.530901,0.322091,0.98114,0.13409
1696781622429687,-8.38669,0.510701,-3.656901,0.341391,0.117614,0.33109
1696781622437500,-8.48169,0.546701,-3.683901,0.347191,0.107714,0.78309
1696781622445312,-8.56569,0.601701,-3.694901,0.331891,0.97514,0.121409
1696781622453125,-8.63469,0.715701,-3.647901,0.312491,0.81314,0.151809
1696781622460937,-8.68569,0.821701,-3.548901,0.290691,0.70814,0.202809
1696781622468750,-8.67569,0.922701,-3.410901,0.268791,0.64814,0.238309
1696781622476562,-8.66369,1.29701,-3.273901,0.235591,0.56114,0.261709
1696781622484375,-8.68669,1.166701,-3.163901,0.216191,0.59914,0.274709
1696781622492187,-8.76769,1.334701,-3.16901,0.180091,0.59414,0.298309
1696781622500000,-8.84769,1.533701,-2.897901,0.155191,0.61114,0.307709
1696781622507812,-8.93269,1.710701,-2.820901,0.134191,0.52714,0.299209
1696781622515625,-8.98969,1.862701,-2.786901,0.132491,0.52714,0.289509
1696781622523437,-8.95469,1.929701,-2.705901,0.126491,0.33714,0.271809
1696781622531250,-8.89869,1.931701,-2.696901,0.108591,0.38614,0.247409
1696781622539062,-8.85469,1.861701,-2.750901,0.91691,0.63814,0.220309
1696781622546875,-8.85569,1.773701,-2.847901,0.62091,0.92814,0.187609
1696781622554687,-8.90369,1.667701,-2.948901,0.30491,0.143714,0.160209
1696781622562500,-8.95969,1.519701,-3.113901,0.0,0.158314,0.140509
1696781622570312,-9.7869,1.366701,-3.172901,0.36009,0.173314,0.125809
1696781622578125,-9.22069,1.288701,-3.223901,0.71609,0.188614,0.116109
1696781622585937,-9.25269,1.286701,-3.275901,0.105309,0.184814,0.117009
1696781622593750,-9.21669,1.261701,-3.273901,0.123109,0.182214,0.118709
1696781622601562,-9.14169,1.247701,-3.230901,0.118809,0.199814,0.123509
1696781622609375,-9.4169,1.159701,-3.79901,0.136309,0.193014,0.129609
1696781622617187,-8.88069,1.70701,-2.879901,0.156509,0.162014,0.142109
1696781622625000,-8.73869,0.931701,-2.636901,0.167309,0.138914,0.167509
1696781622632812,-8.55969,0.808701,-2.433901,0.171009,0.117614,0.210909
1696781622640625,-8.48269,0.636701,-2.334901,0.169009,0.104214,0.249409
1696781622648437,-8.69169,0.617701,-2.620901,0.155209,0.71514,0.304209
1696781622656250,-9.68669,0.910701,-2.785901,0.60909,0.27586,0.375209
1696781622664062,-11.39169,1.843701,-2.354901,0.10091,0.146486,0.382109
1696781622671875,-13.47269,3.545701,-2.251901,0.26391,0.203286,0.264309
1696781622679687,-15.13869,5.646701,-2.712901,0.44991,0.118586,0.11509
1696781622687500,-14.99669,7.519701,-3.456901,0.57691,0.35514,0.239791
1696781622695312,-12.45169,7.910701,-4.8901,0.71291,0.121114,0.429291
1696781622703125,-9.58069,6.359701,-3.405901,0.36091,0.125314,0.568091
1696781622710937,-7.98169,3.851701,-2.168901,0.174009,0.1214,0.598791
1696781622718750,-7.27269,1.722701,-1.413901,0.395609,0.193486,0.564091
1696781622726562,-7.5369,0.366701,-1.400901,0.493209,0.370786,0.498891
1696781622734375,-6.93569,0.403299,-1.720901,0.474409,0.472086,0.426791
1696781622742187,-6.93769,0.851299,-2.335901,0.399909,0.473086,0.345591
1696781622750000,-6.93869,-1.80299,-2.858901,0.306109,0.428786,0.258591
1696781622757812,-6.97369,-1.23299,-3.144901,0.245109,0.377286,0.173891
1696781622765625,-7.6569,0.770299,-3.161901,0.173109,0.303286,0.98091
