time,Acceleration X (m/s^2),Acceleration Y (m/s^2),Acceleration Z (m/s^2),Angular Velocity X (rad/s),Angular Velocity Y (rad/s),Angular Velocity Z (rad/s)
1702331997304687,-8.98508,1.14812,3.718608,-0.276431,,
1702331997312500,-9.1908,1.14212,3.731608,0.281331,0.12342,0.134375
1702331997320312,-9.5608,1.9412,3.718608,0.282931,0.7742,0.131175
1702331997328125,-9.7208,1.5812,3.774608,0.289031,0.1258,0.127975
1702331997335937,-9.9808,1.2812,3.826608,0.292831,0.11858,0.111575
1702331997343750,-9.12308,1.3712,3.824608,0.288231,0.8558,0.108375
1702331997359375,-9.15008,1.8012,3.729608,0.286831,0.21958,0.108275
1702331997367187,-9.12708,1.11712,3.768608,0.284831,0.29358,0.114875
1702331997375000,-9.8508,1.15712,3.847608,0.282831,0.23358,0.116775
1702331997382812,-9.6608,1.14712,3.830608,0.280631,0.28758,0.113075
1702331997406250,-9.18008,0.98512,3.952608,0.284231,0.63658,0.109375
1702331997414062,-9.21108,0.93712,4.62608,0.282431,0.71058,0.107875
1702331997421875,-9.16508,0.86212,4.74608,0.283731,0.80058,0.109675
1702331997429687,-9.8008,0.82112,4.101608,0.261531,0.77958,0.111675
1702331997437500,-8.95308,0.82412,4.58608,0.244831,0.81558,0.122675
1702331997445312,-8.84108,0.84012,3.981608,0.214631,0.75658,0.121675
1702331997453125,-8.77608,0.86112,3.848608,0.208731,0.60258,0.115175
1702331997460937,-8.80108,0.85312,3.778608,0.189831,0.43958,0.117075
1702331997468750,-8.76908,0.82812,3.878608,0.202531,0.43058,0.92975
1702331997476562,-8.71208,0.80212,3.999608,0.217031,0.56058,0.76575
1702331997484375,-8.65608,0.76312,4.26608,0.225031,0.53858,0.60475
1702331997492187,-8.67308,0.72212,3.925608,0.228231,0.58758,0.58775
1702331997500000,-8.74308,0.70012,3.966608,0.218531,0.70758,0.57475
1702331997507812,-8.73208,0.71412,4.103608,0.201831,0.81358,0.49275
1702331997515625,-8.68308,0.74612,4.256608,0.178131,0.77858,0.52875
1702331997523437,-8.69208,0.81112,4.207608,0.162631,0.54158,0.49775
1702331997531250,-8.81108,0.88312,4.8608,0.145031,0.25858,0.50375
1702331997539062,-8.93008,0.93412,3.921608,0.132831,0.39458,0.45375
1702331997546875,-9.708,0.93512,4.15608,0.110931,0.71658,0.43875
1702331997554687,-9.1208,0.86012,4.110608,0.111331,0.70258,0.30975
1702331997562500,-9.2208,0.76312,4.38608,0.100231,0.49058,0.31175
1702331997570312,-9.5708,0.69012,3.959608,0.86131,0.45758,0.29775
1702331997578125,-9.1908,0.72112,4.35608,0.70831,0.59358,0.24875
1702331997585937,-8.91008,0.79612,4.148608,0.55231,0.82058,0.20075
1702331997593750,-8.80008,0.80112,4.155608,0.42531,0.71758,0.17275
1702331997601562,-8.72908,0.82212,4.47608,0.36131,0.55058,0.12675
1702331997609375,-8.70708,0.88612,4.13608,0.34731,0.50158,0.2975
1702331997617187,-8.73408,0.98812,4.58608,0.17531,0.49858,0.3225
1702331997625000,-8.72308,1.2912,4.99608,0.22731,0.45958,0.8325
1702331997632812,-8.76108,1.7012,4.53608,0.30831,0.29058,0.11825
1702331997640625,-8.81108,1.10812,4.6608,0.35331,0.28458,0.11725
1702331997648437,-8.80608,1.9712,3.968608,0.32531,0.30958,0.11825
1702331997656250,-8.79008,1.3712,4.11608,0.24631,0.42158,0.8525
1702331997664062,-8.77008,1.2012,4.76608,0.28931,0.40758,0.13125
1702331997671875,-8.82708,1.6312,4.110608,0.25431,0.29058,0.4825
1702331997679687,-8.94008,1.8912,4.108608,0.33331,0.25758,0.9725
1702331997687500,-9.6708,1.6912,4.112608,0.13431,0.26258,0.24225
1702331997695312,-9.17808,0.97412,4.130608,0.10431,0.26258,0.27425
1702331997703125,-9.24608,0.84412,4.110608,0.1131,0.32858,0.30625
1702331997710937,-9.22408,0.71512,4.40608,0.10169,0.24158,0.28625
1702331997718750,-9.16008,0.65212,4.60608,0.12669,0.43258,0.35525
1702331997726562,-9.5008,0.66412,4.119608,0.12569,0.51458,0.33925
1702331997734375,-8.94208,0.69012,4.74608,0.23569,0.50858,0.44925
1702331997742187,-8.85108,0.74912,4.42608,0.39269,0.57158,0.46425
1702331997750000,-8.76208,0.79212,4.121608,0.59769,0.63258,0.44425
1702331997757812,-8.73008,0.79212,4.123608,0.64269,0.62658,0.39825
1702331997765625,-8.76808,0.75912,3.993608,0.64369,0.50658,0.44425
1702331997773437,-8.79508,0.73712,3.929608,0.87769,0.42758,0.49025
1702331997781250,-8.76508,0.71912,3.943608,0.87469,0.35058,0.55525
1702331997789062,-8.72508,0.72712,3.963608,0.88869,0.48158,0.60525
1702331997796875,-8.69808,0.75612,4.13608,0.87069,0.53058,0.70225
1702331997804687,-8.69408,0.77112,3.990608,0.98069,0.64258,0.70125
1702331997812500,-8.75108,0.80512,3.963608,0.112669,0.63258,0.64825
1702331997820312,-8.82108,0.85012,3.959608,0.122069,0.60858,0.55225
1702331997828125,-8.84008,0.88612,3.943608,0.139569,0.53758,0.53225
1702331997835937,-8.82008,0.89412,3.903608,0.138169,0.51258,0.57925
1702331997843750,-8.80608,0.88612,3.862608,0.139369,0.28058,0.61225
1702331997851562,-8.84408,0.88112,3.817608,0.137969,0.27558,0.64325
1702331997859375,-8.87608,0.89512,3.826608,0.129869,0.25858,0.77325
1702331997867187,-8.89308,0.94212,3.887608,0.137569,0.41958,0.82225
1702331997875000,-8.91108,0.97112,3.860608,0.140669,0.43558,0.82125
1702331997882812,-8.97608,0.99512,3.815608,0.159269,0.23058,0.83625
1702331997890625,-9.1008,1.212,3.826608,0.170469,0.13058,0.80125
1702331997898437,-8.99508,1.5712,3.898608,0.189369,0.8158,0.81425
1702331997906250,-8.97908,1.13412,3.982608,0.170769,0.4858,0.70325
1702331997914062,-9.1108,1.20812,3.957608,0.159469,0.2542,0.73825
1702331997921875,-9.9008,1.24312,3.905608,0.145469,0.1442,0.80325
1702331997929687,-9.16108,1.18812,3.869608,0.135769,0.2842,0.86925
1702331997937500,-9.21008,1.11112,3.860608,0.139369,0.12142,0.89825
1702331997945312,-9.17908,1.4712,3.914608,0.126569,0.12742,0.80525
1702331997953125,-9.7708,0.95012,3.918608,0.120469,0.17842,0.78925
1702331997960937,-8.96308,0.88612,3.826608,0.114169,0.6142,0.72625
1702331997968750,-8.90808,0.84312,3.778608,0.124769,0.1742,0.69625
1702331997976562,-8.92208,0.82512,3.779608,0.132969,0.16558,0.70925
1702331997984375,-8.94908,0.82812,3.844608,0.137869,0.27458,0.69225
1702331997992187,-9.308,0.82912,3.914608,0.140869,0.35958,0.64425
1702331998000000,-9.6708,0.87212,3.954608,0.147169,0.32458,0.69125
1702331998007812,-9.6708,0.88512,3.943608,0.151969,0.29158,0.65825
1702331998015625,-9.4008,0.89812,3.918608,0.158269,0.34058,0.64225
1702331998023437,-9.508,0.92212,3.894608,0.156769,0.43658,0.61025
1702331998031250,-8.95308,0.92812,3.896608,0.157969,0.55658,0.64425
1702331998039062,-8.91708,0.95612,3.945608,0.157769,0.60858,0.67725
1702331998046875,-8.90408,0.97212,3.999608,0.149669,0.66558,0.68125
1702331998054687,-8.89808,1.912,4.6608,0.154369,0.69258,0.74325
1702331998062500,-8.90008,0.99512,3.993608,0.148369,0.79958,0.72725
1702331998070312,-8.85708,0.97112,3.972608,0.152969,0.74158,0.67925
1702331998078125,-8.83008,0.97012,3.927608,0.143769,0.54258,0.67825
1702331998085937,-8.84808,1.812,3.867608,0.137769,0.47458,0.59725
1702331998093750,-8.86508,1.6212,3.828608,0.139069,0.38458,0.63125
1702331998101562,-8.89008,1.10612,3.864608,0.137969,0.48858,0.53225
1702331998109375,-8.88208,1.13312,3.855608,0.139669,0.49158,0.45225
1702331998117187,-8.88908,1.16812,3.804608,0.133469,0.49158,0.42025
1702331998125000,-8.90108,1.20412,3.797608,0.128869,0.53758,0.38825
1702331998132812,-8.86308,1.21012,3.858608,0.119569,0.54058,0.29325
1702331998140625,-8.87408,1.21012,3.903608,0.113269,0.49158,0.29325
1702331998148437,-8.91208,1.21312,3.968608,0.99069,0.39558,0.34325
1702331998156250,-8.93508,1.19512,4.9608,0.90369,0.40958,0.34025
1702331998164062,-8.92308,1.16712,3.961608,0.82169,0.30858,0.29525
1702331998171875,-8.93208,1.15812,3.889608,0.68169,0.25858,0.28025
1702331998179687,-8.95008,1.16912,3.853608,0.63469,0.26158,0.23325
1702331998187500,-8.94108,1.19112,3.844608,0.65169,0.26158,0.15225
1702331998195312,-8.88308,1.19212,3.828608,0.49669,0.25958,0.12025
1702331998203125,-8.85108,1.17912,3.795608,0.43269,0.29458,0.12225
1702331998210937,-8.83308,1.15812,3.777608,0.44969,0.25658,0.15325
1702331998218750,-8.83908,1.14812,3.779608,0.41869,0.27858,0.5825
1702331998226562,-8.85308,1.17212,3.810608,0.41969,0.24858,0.3875
1702331998234375,-8.88508,1.19912,3.840608,0.36169,0.14258,0.12175
1702331998242187,-8.91908,1.21612,3.810608,0.21669,0.8758,0.6875
1702331998250000,-8.95508,1.23812,3.772608,0.1369,0.758,0.11575
1702331998257812,-8.97808,1.26312,3.795608,0.14031,0.4858,0.13175
1702331998265625,-8.96108,1.28612,3.871608,0.33931,0.11958,0.19575
1702331998273437,-8.94508,1.28212,3.932608,0.43731,0.14658,0.19175
1702331998281250,-8.92908,1.24812,3.925608,0.57531,0.26658,0.19175
1702331998289062,-8.92808,1.18412,3.898608,0.56131,0.28858,0.23975
1702331998296875,-8.92908,1.11112,3.921608,0.54431,0.27558,0.35175
1702331998304687,-8.90308,1.5812,3.943608,0.40331,0.25958,0.33775
1702331998312500,-8.85308,1.1712,3.941608,0.40331,0.17758,0.32175
1702331998320312,-8.84608,1.812,3.876608,0.38631,0.4958,0.37075
1702331998328125,-8.88008,1.3512,3.844608,0.37331,0.10358,0.33675
1702331998335937,-8.89708,1.9812,3.876608,0.35831,0.18558,0.35275
1702331998343750,-8.93408,1.16412,3.925608,0.35631,0.25658,0.30675
1702331998351562,-8.97708,1.20312,3.972608,0.34331,0.28358,0.35175
1702331998359375,-8.98808,1.17612,4.608,0.43531,0.24258,0.28875
1702331998367187,-8.99008,1.13912,3.995608,0.56431,0.29358,0.20575
1702331998375000,-8.96908,1.10112,4.2608,0.59431,0.26158,0.22175
1702331998382812,-8.95508,1.7812,4.9608,0.60831,0.23958,0.20675
1702331998390625,-8.93708,1.4712,4.6608,0.62431,0.25558,0.22275
1702331998398437,-8.89808,1.4512,3.957608,0.58031,0.28558,0.31675
1702331998406250,-8.86908,1.3912,3.909608,0.51331,0.19658,0.36875
1702331998414062,-8.83608,1.4112,3.910608,0.44731,0.12258,0.32275
1702331998421875,-8.81708,1.4812,3.921608,0.42131,0.18558,0.35175
1702331998429687,-8.81108,1.6712,3.914608,0.48231,0.26158,0.35175
1702331998437500,-8.83608,1.5912,3.907608,0.43631,0.21258,0.28875
1702331998445312,-8.86708,1.3712,3.894608,0.49731,0.24258,0.30375
1702331998453125,-8.89608,1.2912,3.921608,0.53331,0.31358,0.20475
1702331998460937,-8.86008,1.2212,3.966608,0.46931,0.26158,0.23875
1702331998468750,-8.81708,1.3712,3.952608,0.46831,0.10058,0.27175
1702331998476562,-8.85608,1.3912,3.914608,0.51231,0.4058,0.20975
1702331998484375,-8.93608,1.5012,3.885608,0.53431,0.7258,0.18975
1702331998492187,-8.99608,1.8112,3.896608,0.54531,0.7858,0.20775
1702331998500000,-9.8,1.11312,3.936608,0.61131,0.13558,0.22075
1702331998507812,-8.94908,1.11612,3.959608,0.57831,0.17958,0.20575
1702331998515625,-8.90208,1.10812,3.923608,0.57631,0.23658,0.22375
1702331998523437,-8.91808,1.11112,3.867608,0.51131,0.8658,0.24275
1702331998531250,-8.91608,1.13512,3.844608,0.38931,0.20758,0.20975
1702331998539062,-8.90308,1.15312,3.878608,0.35631,0.15858,0.22675
1702331998546875,-8.90708,1.15112,3.873608,0.34331,0.13058,0.19275
1702331998554687,-8.90908,1.12912,3.837608,0.36031,0.5458,0.20875
1702331998562500,-8.93208,1.10312,3.812608,0.34931,0.1858,0.20575
1702331998570312,-8.94908,1.9212,3.860608,0.35931,0.8158,0.16075
1702331998578125,-8.93708,1.7912,3.936608,0.39531,0.15758,0.15775
1702331998585937,-8.91908,1.5612,3.932608,0.50231,0.19258,0.7875
1702331998593750,-8.89308,1.1812,3.943608,0.44331,0.15758,0.9175
1702331998601562,-8.89908,0.99212,3.952608,0.35131,0.14358,0.2775
1702331998609375,-8.89908,0.97412,3.950608,0.33731,0.22258,0.5225
1702331998617187,-8.88608,0.99812,3.957608,0.17731,0.16858,0.0
1702331998625000,-8.86608,1.912,3.914608,0.12831,0.5058,0.1425
1702331998632812,-8.86208,1.3612,3.817608,0.931,0.6458,0.6525
1702331998640625,-8.86108,1.8612,3.799608,0.7369,0.6758,0.6025
1702331998648437,-8.87208,1.11712,3.826608,0.12069,0.2158,0.2825
1702331998656250,-8.88408,1.13512,3.849608,0.15469,0.342,0.5825
1702331998664062,-8.96808,1.14512,3.826608,0.15269,0.10142,0.17025
1702331998671875,-9.5508,1.14012,3.822608,0.11969,0.6342,0.18825
1702331998679687,-9.12008,1.12512,3.851608,0.13569,0.1742,0.20425
1702331998687500,-9.11308,1.11712,3.880608,0.14469,0.17358,0.27225
1702331998695312,-9.5408,1.9412,3.889608,0.12769,0.20558,0.30525
1702331998703125,-8.99808,1.8012,3.923608,0.14469,0.23558,0.28825
1702331998710937,-8.97208,1.5912,3.891608,0.9569,0.25458,0.30625
1702331998718750,-8.96308,1.4312,3.889608,0.14569,0.24958,0.28825
1702331998726562,-8.95208,1.3412,3.905608,0.22569,0.22758,0.30225
1702331998734375,-8.93808,1.1712,3.866608,0.28569,0.25258,0.28725
1702331998742187,-8.90908,1.4112,3.817608,0.39469,0.22258,0.27025
1702331998750000,-8.90008,1.4712,3.785608,0.44169,0.15758,0.30125
1702331998757812,-8.92608,1.5312,3.795608,0.47869,0.20658,0.28125
1702331998765625,-8.93408,1.8112,3.855608,0.37469,0.29858,0.30625
1702331998773437,-8.92208,1.12012,3.900608,0.35069,0.29358,0.28425
1702331998781250,-8.93608,1.14512,3.903608,0.28469,0.28558,0.30325
1702331998789062,-8.90008,1.16212,3.896608,0.30169,0.29858,0.28625
1702331998796875,-8.88608,1.16212,3.907608,0.26869,0.28758,0.30425
1702331998804687,-8.88608,1.12212,3.903608,0.34869,0.17058,0.28625
1702331998812500,-8.93208,1.4512,3.853608,0.20969,0.13258,0.30225
1702331998820312,-8.97108,0.97912,3.848608,0.16169,0.18458,0.28725
1702331998828125,-8.93708,0.95412,3.878608,0.25469,0.23358,0.30325
1702331998835937,-8.94008,0.96512,3.864608,0.17969,0.16258,0.28525
1702331998843750,-8.94908,0.97012,3.821608,0.16069,0.24958,0.30425
1702331998851562,-8.97408,1.412,3.783608,0.19269,0.23358,0.27125
1702331998859375,-9.2208,1.5312,3.824608,0.22169,0.38658,0.27325
1702331998867187,-9.3208,1.8212,3.860608,0.27269,0.33958,0.30125
1702331998875000,-9.4108,1.8912,3.826608,0.36569,0.29358,0.33325
1702331998882812,-9.4908,1.6912,3.828608,0.34469,0.40258,0.35225
1702331998890625,-9.5708,1.2112,3.819608,0.23469,0.41558,0.41825
1702331998898437,-9.5708,0.98712,3.813608,0.25269,0.45658,0.44825
1702331998906250,-9.9308,0.97912,3.808608,0.21869,0.47858,0.46625
1702331998914062,-9.11808,0.96512,3.799608,0.23769,0.46758,0.47925
1702331998921875,-9.11308,0.95212,3.828608,0.20469,0.51958,0.49725
1702331998929687,-9.9008,0.93012,3.882608,0.26669,0.57458,0.45025
1702331998937500,-9.4408,0.87312,3.873608,0.39269,0.51958,0.49525
1702331998945312,-9.1708,0.83312,3.835608,0.39069,0.55458,0.56025
1702331998953125,-9.308,0.83312,3.853608,0.45369,0.60458,0.54425
1702331998960937,-8.97008,0.86112,3.885608,0.56269,0.71858,0.54425
1702331998968750,-8.92308,0.90012,3.894608,0.56469,0.64558,0.57325
1702331998976562,-8.86508,0.92612,3.842608,0.62669,0.50358,0.55725
1702331998984375,-8.83208,0.93912,3.759608,0.61169,0.45458,0.54025
1702331998992187,-8.83008,0.95412,3.734608,0.51869,0.46758,0.55725
1702331999000000,-8.83008,0.95212,3.783608,0.43669,0.50558,0.60825
1702331999007812,-8.87008,0.95312,3.826608,0.37669,0.43758,0.55925
1702331999015625,-8.92908,0.96512,3.810608,0.37569,0.39058,0.55925
1702331999023437,-8.98508,0.96812,3.810608,0.48369,0.31758,0.52725
1702331999031250,-9.4308,0.95812,3.806608,0.64669,0.24458,0.41025
1702331999039062,-9.10208,0.95812,3.799608,0.63369,0.23958,0.37625
1702331999046875,-9.9508,0.94112,3.804608,0.63369,0.21258,0.29725
1702331999054687,-9.6308,0.91812,3.790608,0.58769,0.22058,0.36025
1702331999062500,-9.5608,0.90512,3.833608,0.47269,0.26658,0.36525
1702331999070312,-9.2408,0.88012,3.903608,0.39569,0.37558,0.36525
1702331999078125,-8.96908,0.82412,3.936608,0.42669,0.45758,0.38225
1702331999085937,-8.94808,0.77512,3.948608,0.44269,0.41158,0.31725
1702331999093750,-8.93008,0.75012,3.966608,0.61469,0.39458,0.31525
1702331999101562,-8.88708,0.70212,3.954608,0.64969,0.23958,0.34425
1702331999109375,-8.85708,0.70212,3.930608,0.69469,0.26158,0.36125
1702331999117187,-8.83708,0.70912,3.880608,0.73969,0.25058,0.34625
1702331999125000,-8.80608,0.74112,3.844608,0.77269,0.28058,0.29625
1702331999132812,-8.75508,0.79012,3.821608,0.77069,0.31858,0.28225
1702331999140625,-8.72408,0.82212,3.810608,0.72969,0.28958,0.27925
1702331999148437,-8.71508,0.82712,3.774608,0.63169,0.36258,0.29925
1702331999156250,-8.71708,0.81112,3.767608,0.61269,0.45258,0.28525
1702331999164062,-8.71508,0.82012,3.826608,0.58369,0.53958,0.31625
1702331999171875,-8.73608,0.83812,3.903608,0.50369,0.50958,0.38225
1702331999179687,-8.81708,0.86112,3.918608,0.44469,0.27158,0.39525
1702331999187500,-8.95608,0.84112,3.873608,0.46469,0.758,0.34425
1702331999195312,-9.3908,0.79112,3.822608,0.43469,0.1142,0.31125
1702331999203125,-9.1808,0.73912,3.808608,0.38769,0.10058,0.29525
1702331999210937,-8.93408,0.69012,3.849608,0.43169,0.30458,0.28225
1702331999218750,-8.82608,0.57812,3.855608,0.55369,0.21758,0.26725
1702331999226562,-8.77008,0.47112,3.781608,0.77369,0.2158,0.27925
1702331999234375,-8.78608,0.29112,3.691608,0.126669,0.39242,0.18825
1702331999242187,-8.91708,0.6912,3.598608,0.184769,0.81742,0.27625
1702331999250000,-9.14408,0.10888,3.702608,0.253469,0.89842,0.42925
1702331999257812,-9.21008,0.17288,4.55608,0.291669,0.47642,0.81425
1702331999265625,-9.12308,0.12888,4.380608,0.321969,0.17942,0.116925
1702331999273437,-9.108,0.212,4.395608,0.343369,0.42342,0.148825
1702331999281250,-8.87708,0.24212,4.181608,0.356969,0.84742,0.184025
1702331999289062,-8.74108,0.45212,4.26608,0.382169,0.112042,0.202625
1702331999296875,-8.58808,0.45912,3.893608,0.394569,0.119642,0.205825
1702331999304687,-8.61108,0.34612,3.788608,0.422869,0.115242,0.210225
1702331999312500,-8.73508,0.21212,3.618608,0.446069,0.132742,0.219625
1702331999320312,-8.89108,0.8812,3.438608,0.502669,0.169242,0.234725
1702331999328125,-9.4108,0.8012,3.504608,0.546169,0.168642,0.242425
1702331999335937,-9.19708,0.14912,3.828608,0.575269,0.144142,0.266525
1702331999343750,-9.23808,0.23412,4.93608,0.580669,0.147842,0.287725
1702331999351562,-9.17308,0.32812,4.82608,0.574669,0.170542,0.303525
1702331999359375,-9.3308,0.33912,3.837608,0.593269,0.187942,0.314625
1702331999367187,-8.98308,0.23412,3.585608,0.634169,0.213342,0.326625
1702331999375000,-9.8408,0.11812,3.479608,0.694569,0.201342,0.348825
1702331999382812,-9.24008,0.5612,3.585608,0.748869,0.170142,0.369425
1702331999390625,-9.38708,0.2788,3.672608,0.801169,0.131942,0.395025
1702331999398437,-9.37708,0.12588,3.790608,0.864869,0.103342,0.425025
1702331999406250,-9.32608,0.22188,3.801608,0.920669,0.96442,0.450325
1702331999414062,-9.24808,0.29988,3.760608,0.978069,0.92342,0.464425
1702331999421875,-9.15308,0.31888,3.717608,1.45169,0.87642,0.483025
1702331999429687,-9.6108,0.34288,3.746608,1.101369,0.69542,0.489025
1702331999437500,-9.5708,0.32388,3.828608,1.173369,0.75542,0.510525
1702331999445312,-9.8908,0.28088,3.796608,1.221269,0.76642,0.537525
1702331999453125,-9.13208,0.25788,3.650608,1.267969,0.80442,0.562725
1702331999460937,-9.14408,0.21788,3.530608,1.319169,0.70642,0.584825
1702331999468750,-9.15208,0.12888,3.420608,1.385969,0.70042,0.606825
1702331999476562,-9.18808,0.0,3.377608,1.443469,0.66742,0.627125
1702331999484375,-9.21908,0.10012,3.330608,1.489969,0.58542,0.650925
1702331999492187,-9.25608,0.17412,3.303608,1.530469,0.31242,0.663425
1702331999500000,-9.30308,0.17612,3.333608,1.575569,0.8542,0.680825
1702331999507812,-9.29308,0.12312,3.355608,1.625269,0.1742,0.693325
1702331999515625,-9.26508,0.4512,3.344608,1.678469,0.2958,0.704025
1702331999523437,-9.23008,0.2788,3.303608,1.717069,0.2158,0.716625
1702331999531250,-9.22008,0.14588,3.188608,1.765569,0.0,0.733725
1702331999539062,-9.24508,0.22688,3.71608,1.802569,0.6058,0.741625
1702331999546875,-9.25808,0.30088,3.8608,1.851269,0.7958,0.756925
1702331999554687,-9.32908,0.32588,3.3608,1.904069,0.4242,0.774225
1702331999562500,-9.36608,0.39288,2.940608,1.952769,0.14842,0.784725
1702331999570312,-9.42708,0.37088,2.846608,1.993069,0.4058,0.786125
1702331999578125,-9.44608,0.31788,2.760608,2.47669,0.26458,0.800125
1702331999585937,-9.38808,0.28788,2.652608,2.105469,0.22958,0.815625
1702331999593750,-9.37008,0.27688,2.544608,2.163069,0.25158,0.826325
1702331999601562,-9.38508,0.30788,2.427608,2.217369,0.19158,0.846725
1702331999609375,-9.42308,0.32688,2.411608,2.267569,0.9458,0.846125
1702331999617187,-9.51308,0.30988,2.415608,2.336269,0.2958,0.864725
1702331999625000,-9.56108,0.33688,2.427608,2.374069,0.3242,0.878525
1702331999632812,-9.62308,0.38588,2.332608,2.401969,0.2442,0.881625
1702331999640625,-9.70308,0.39788,2.179608,2.426569,0.242,0.895925
1702331999648437,-9.73008,0.42688,2.93608,2.451469,0.4358,0.906925
1702331999656250,-9.77708,0.44188,1.972608,2.496469,0.5142,0.924125
1702331999664062,-9.85208,0.39188,1.873608,2.527769,0.13942,0.938225
1702331999671875,-9.94808,0.36788,1.796608,2.561769,0.19342,0.947625
1702331999679687,-9.98008,0.39588,1.771608,2.604169,0.1742,0.945625
1702331999687500,-10.1808,0.41588,1.735608,2.631069,0.9458,0.937225
1702331999695312,-9.99208,0.50488,1.711608,2.668669,0.45058,0.935425
1702331999703125,-9.88908,0.55488,1.722608,2.701269,0.57058,0.935225
1702331999710937,-9.87108,0.58688,1.620608,2.702969,0.53258,0.941525
1702331999718750,-9.88308,0.54688,1.481608,2.704669,0.31458,0.950925
1702331999726562,-9.88108,0.50688,1.402608,2.702169,0.29658,0.969025
1702331999734375,-9.95808,0.46988,1.292608,2.727369,0.27942,0.986025
1702331999742187,-10.3908,0.29788,1.220608,2.753269,0.29342,-1.18025
1702331999750000,-10.1708,0.1088,1.323608,2.749969,0.25342,-1.37325
1702331999757812,-10.5608,0.20812,1.418608,2.744769,0.18042,-1.47225
1702331999765625,-10.10508,0.29012,1.418608,2.754569,0.14742,-1.56625
1702331999773437,-10.11908,0.31312,1.382608,2.740369,0.35258,-1.29825
1702331999781250,-10.13408,0.39012,1.285608,2.715269,0.102158,-1.14425
1702331999789062,-10.16008,0.37512,1.294608,2.707869,0.107458,0.983925
1702331999796875,-10.36508,0.28612,1.218608,2.729369,0.62358,0.934925
1702331999804687,-10.53308,0.21312,1.44608,2.745069,0.80158,0.934825
1702331999812500,-10.51108,0.25712,1.47608,2.726769,0.175258,0.947125
1702331999820312,-10.32308,0.15812,0.977608,2.729769,0.195958,0.956825
1702331999828125,-10.7408,0.18312,1.80608,2.714369,0.180958,0.955225
1702331999835937,-9.92008,0.30112,0.992608,2.660469,0.145858,0.975125
1702331999843750,-9.86108,0.39512,0.900608,2.644169,0.183958,0.988625
1702331999851562,-9.86808,0.49912,1.74608,2.617969,0.205258,0.987225
1702331999859375,-9.98008,0.64912,1.110608,2.568069,0.193458,0.981125
1702331999867187,-9.93308,0.84212,1.265608,2.544569,0.181458,0.967025
1702331999875000,-9.88108,0.91012,1.436608,2.543369,0.174658,0.955625
1702331999882812,-9.90008,0.84412,1.520608,2.517169,0.179358,0.934925
1702331999890625,-9.96008,0.81112,1.385608,2.494269,0.172258,0.917225
1702331999898437,-10.5308,0.68612,1.270608,2.460069,0.197758,0.880825
1702331999906250,-10.19008,0.71712,1.123608,2.453969,0.220958,0.861725
1702331999914062,-10.9308,0.67612,1.193608,2.447769,0.261658,0.847525
1702331999921875,-9.91508,0.81312,1.222608,2.430769,0.276758,0.828525
1702331999929687,-9.65108,0.92012,1.335608,2.397869,0.308458,0.808225
1702331999937500,-9.56308,0.73712,1.423608,2.368169,0.311658,0.802125
1702331999945312,-9.52208,0.72312,1.344608,2.346269,0.308358,0.799125
1702331999953125,-9.50808,0.77712,1.159608,2.310769,0.273858,0.813525
1702331999960937,-9.46608,0.83212,0.997608,2.282369,0.248158,0.820225
1702331999968750,-9.47008,0.81712,1.162608,2.263969,0.231758,0.805725
1702331999976562,-9.42408,0.86712,1.459608,2.220669,0.176858,0.808925
1702331999984375,-9.66308,0.94612,1.511608,2.186169,0.136958,0.807525
1702331999992187,-9.91408,1.19012,1.594608,2.162369,0.157058,0.804825
1702332000000000,-10.4408,1.30312,1.705608,2.107569,0.207258,0.791225
1702332000007812,-9.93208,1.47012,1.736608,2.41969,0.213758,0.780725
1702332000015625,-9.77408,1.53312,1.781608,2.5369,0.206758,0.742225
1702332000023437,-9.58908,1.63912,1.876608,1.968669,0.176758,0.716425
1702332000031250,-9.57208,1.57912,1.829608,1.937969,0.126258,0.695525
1702332000039062,-9.55908,1.48912,1.808608,1.897369,0.139158,0.662425
1702332000046875,-9.54508,1.43712,1.788608,1.837069,0.156058,0.633925
1702332000054687,-9.54608,1.33512,1.880608,1.796869,0.157758,0.606925
1702332000062500,-9.77408,1.29212,1.811608,1.764469,0.128858,0.579725
1702332000070312,-9.90208,1.12312,1.815608,1.727569,0.131658,0.552625
1702332000078125,-9.93308,0.94612,1.871608,1.683669,0.170858,0.542125
1702332000085937,-9.66908,0.83712,2.38608,1.659069,0.184858,0.524525
1702332000093750,-9.56708,0.84112,1.930608,1.622969,0.163558,0.507425
1702332000101562,-9.42608,0.87412,1.934608,1.595369,0.160858,0.499425
1702332000109375,-9.34408,0.78012,2.13608,1.595369,0.141958,0.489725
1702332000117187,-9.25508,0.73612,2.166608,1.570469,0.153158,0.483525
1702332000125000,-9.27008,0.80812,2.376608,1.548669,0.127258,0.477225
1702332000132812,-9.35408,0.83312,2.335608,1.512869,0.108858,0.479025
1702332000140625,-9.33808,0.67612,2.312608,1.510869,0.122458,0.487325
1702332000148437,-9.42408,0.58412,2.254608,1.490569,0.139358,0.493925
1702332000156250,-9.42808,0.69712,2.400608,1.480969,0.149458,0.495825
1702332000164062,-9.47808,0.59212,2.540608,1.471469,0.88558,0.498925
1702332000171875,-9.54308,0.59012,2.360608,1.453069,0.58458,0.497225
1702332000179687,-9.46608,0.65812,2.385608,1.454769,0.100258,0.489225
1702332000187500,-9.41808,0.77412,2.472608,1.440969,0.95358,0.476525
1702332000195312,-9.42508,0.85812,2.537608,1.432869,0.75958,0.465525
1702332000203125,-9.37108,0.91612,2.644608,1.425269,0.71358,0.478225
1702332000210937,-9.30208,0.95212,2.698608,1.385969,0.84058,0.483525
1702332000218750,-9.32208,1.10412,2.583608,1.352569,0.84458,0.495325
1702332000226562,-9.31508,1.24312,2.520608,1.303769,0.84658,0.500725
1702332000234375,-9.33308,1.28312,2.446608,1.267969,0.74558,0.497825
1702332000242187,-9.41408,1.12712,2.427608,1.241569,0.90858,0.483725
1702332000250000,-9.43008,1.14712,2.391608,1.218469,0.90658,0.467725
1702332000257812,-9.22708,1.37912,2.434608,1.180969,0.118258,0.453825
1702332000265625,-9.37708,1.31312,2.542608,1.203469,0.97558,0.427625
1702332000273437,-9.42108,1.43312,2.743608,1.197469,0.100658,0.418025
1702332000281250,-9.44908,1.33212,2.887608,1.158569,0.103658,0.407125
1702332000289062,-9.45608,1.31612,2.946608,1.155469,0.129858,0.396025
1702332000296875,-9.40808,1.47812,3.85608,1.125669,0.138558,0.383625
1702332000304687,-9.38208,1.40512,3.74608,1.95769,0.132758,0.376025
1702332000312500,-9.42008,1.48912,3.164608,1.61769,0.127058,0.369725
1702332000320312,-9.17008,1.78512,3.67608,1.6869,0.123158,0.352825
1702332000328125,-9.31108,1.83812,3.34608,0.973569,0.138558,0.311025
1702332000335937,-9.54808,1.77712,3.196608,0.947169,0.154958,0.293725
1702332000343750,-9.57208,1.60012,3.367608,0.914569,0.139158,0.274725
1702332000351562,-9.52408,1.50812,3.385608,0.873069,0.138058,0.250725
1702332000359375,-9.44908,1.35412,3.407608,0.830669,0.171358,0.235425
1702332000367187,-9.33008,1.21912,3.412608,0.809369,0.165958,0.216125
1702332000375000,-9.19108,1.21812,3.360608,0.771569,0.165358,0.203825
1702332000382812,-9.24408,1.1912,3.312608,0.742169,0.155258,0.192725
1702332000390625,-9.33108,0.96012,3.312608,0.712569,0.173258,0.178725
1702332000398437,-9.19708,0.90512,3.276608,0.683169,0.189058,0.167725
1702332000406250,-9.8908,0.73912,3.378608,0.664369,0.197858,0.152025
1702332000414062,-9.2808,0.69212,3.407608,0.648969,0.192658,0.144025
1702332000421875,-9.11208,0.50512,3.591608,0.637969,0.173858,0.139325
1702332000429687,-9.10208,0.43412,3.607608,0.624169,0.150658,0.136025
1702332000437500,-8.98908,0.27512,3.582608,0.608469,0.157458,0.129825
1702332000445312,-8.91108,0.27312,3.573608,0.621269,0.157258,0.123125
1702332000453125,-8.87208,0.24412,3.618608,0.630769,0.158858,0.116625
1702332000460937,-8.93008,0.35412,3.625608,0.652669,0.147758,0.117925
1702332000468750,-8.88308,0.36412,3.636608,0.668169,0.152658,0.127525
1702332000476562,-8.73408,0.45012,3.724608,0.679469,0.137358,0.125525
1702332000484375,-8.90308,0.48012,3.625608,0.658869,0.123158,0.129025
1702332000492187,-8.94508,0.41512,3.441608,0.666669,0.130458,0.143325
1702332000500000,-8.96808,0.64912,3.296608,0.669569,0.132358,0.148225
1702332000507812,-9.2508,0.80312,3.197608,0.684769,0.137558,0.165925
1702332000515625,-9.19008,0.74312,3.281608,0.704969,0.134558,0.172125
1702332000523437,-9.23808,0.81512,3.321608,0.693569,0.151358,0.177425
1702332000531250,-9.15008,0.90912,3.366608,0.685769,0.174358,0.169525
1702332000539062,-9.13308,0.97512,3.412608,0.692669,0.163458,0.161125
1702332000546875,-9.10108,1.9912,3.468608,0.671069,0.153658,0.145125
1702332000554687,-9.11208,1.22712,3.508608,0.661769,0.143858,0.143525
1702332000562500,-9.15008,1.25312,3.580608,0.631869,0.132358,0.126425
1702332000570312,-9.10808,1.24512,3.682608,0.593269,0.132658,0.120025
1702332000578125,-9.1608,1.26212,3.689608,0.558569,0.124858,0.125325
1702332000585937,-8.91208,1.21312,3.675608,0.526269,0.120258,0.120525
1702332000593750,-8.77808,1.22612,3.635608,0.486069,0.98658,0.103025
1702332000601562,-8.66108,1.26012,3.533608,0.434369,0.80858,0.101925
1702332000609375,-8.64008,1.35512,3.506608,0.381269,0.79158,0.96025
1702332000617187,-8.73408,1.45712,3.461608,0.327769,0.73258,0.93525
1702332000625000,-8.85708,1.54912,3.486608,0.263969,0.72458,0.84425
1702332000632812,-8.97708,1.63512,3.594608,0.211069,0.85458,0.62525
1702332000640625,-9.4008,1.64512,3.786608,0.159769,0.117958,0.34125
1702332000648437,-9.7708,1.66612,3.869608,0.113369,0.126558,0.2275
1702332000656250,-9.18408,1.73812,3.845608,0.61069,0.127658,0.42175
1702332000664062,-9.32808,1.79812,3.761608,0.2731,0.115158,0.70475
1702332000671875,-9.42108,1.81712,3.682608,0.63531,0.111758,0.85975
1702332000679687,-9.42008,1.80012,3.752608,0.113331,0.91858,0.93775
1702332000687500,-9.36708,1.69512,3.815608,0.174731,0.76058,0.86475
1702332000695312,-9.33308,1.51212,3.711608,0.229231,0.73858,0.95675
1702332000703125,-9.23808,1.34012,3.473608,0.269431,0.56958,0.106875
1702332000710937,-9.10308,1.20712,3.283608,0.312031,0.55758,0.104575
1702332000718750,-9.1308,1.5712,3.261608,0.343031,0.54158,0.120375
1702332000726562,-8.96108,0.90512,3.263608,0.372531,0.47258,0.128275
1702332000734375,-8.98008,0.79412,3.225608,0.389431,0.35258,0.129975
1702332000742187,-9.3708,0.73212,3.195608,0.408631,0.25058,0.132675
1702332000750000,-9.9308,0.68812,3.206608,0.410231,0.46658,0.142075
1702332000757812,-9.6508,0.67212,3.294608,0.406831,0.51358,0.151875
1702332000765625,-9.3708,0.62612,3.413608,0.397731,0.54058,0.153275
1702332000773437,-9.6908,0.50912,3.506608,0.391231,0.63758,0.166275
1702332000781250,-9.12208,0.43012,3.531608,0.391031,0.61558,0.163175
1702332000789062,-9.15808,0.40412,3.499608,0.385331,0.48958,0.143875
1702332000796875,-9.21208,0.40012,3.474608,0.380531,0.25358,0.129675
1702332000804687,-9.26508,0.35412,3.528608,0.360531,0.24058,0.115275
1702332000812500,-9.26208,0.27412,3.596608,0.346431,0.25158,0.107575
1702332000820312,-9.15008,0.18012,3.555608,0.326431,0.27858,0.107475
1702332000828125,-9.7408,0.9012,3.420608,0.315531,0.13058,0.99675
1702332000835937,-9.6508,0.6512,3.258608,0.310331,0.3558,0.95275
1702332000843750,-9.608,0.5312,3.242608,0.301431,0.14458,0.94975
1702332000851562,-8.94108,0.7412,3.359608,0.282731,0.20758,0.85575
1702332000859375,-8.88608,0.13512,3.425608,0.284231,0.22158,0.83975
1702332000867187,-8.87608,0.21012,3.445608,0.273131,0.21558,0.80975
1702332000875000,-8.92808,0.21212,3.420608,0.260931,0.24058,0.79275
1702332000882812,-9.2608,0.14412,3.445608,0.241831,0.28758,0.92475
1702332000890625,-9.14208,0.13312,3.506608,0.233831,0.31858,0.94175
1702332000898437,-9.23608,0.10112,3.544608,0.234131,0.27158,0.82875
1702332000906250,-9.26708,0.4212,3.539608,0.226631,0.20758,0.71675
1702332000914062,-9.29108,0.1588,3.503608,0.214331,0.13958,0.52575
1702332000921875,-9.29208,0.8188,3.436608,0.192331,0.16658,0.46475
1702332000929687,-9.33908,0.11788,3.396608,0.169831,0.18458,0.47075
1702332000937500,-9.38908,0.11888,3.436608,0.143531,0.24158,0.43875
1702332000945312,-9.32608,0.7288,3.571608,0.118931,0.36758,0.45475
1702332000953125,-9.22108,0.2788,3.643608,0.90431,0.29458,0.39575
1702332000960937,-9.11408,0.2112,3.578608,0.81231,0.27458,0.26775
1702332000968750,-9.7408,0.4912,3.474608,0.64431,0.24958,0.18775
1702332000976562,-9.9308,0.8712,3.434608,0.42231,0.23958,0.12775
1702332000984375,-9.8408,0.12012,3.477608,0.15831,0.17658,0.175
1702332000992187,-9.7608,0.13812,3.522608,0.6531,0.11158,0.2925
1702332001000000,-9.6708,0.13812,3.501608,0.10469,0.17658,0.12425
1702332001007812,-9.4008,0.13312,3.465608,0.29269,0.25658,0.15425
1702332001015625,-9.3708,0.11312,3.470608,0.51269,0.20758,0.15125
1702332001023437,-9.4808,0.9312,3.447608,0.66669,0.8758,0.16825
1702332001031250,-9.3408,0.7512,3.422608,0.88669,0.6858,0.16425
1702332001039062,-9.2708,0.8212,3.398608,0.110269,0.9042,0.29125
1702332001046875,-9.2808,0.10812,3.362608,0.115469,0.21542,0.30325
1702332001054687,-9.4908,0.17912,3.312608,0.121669,0.26442,0.31825
1702332001062500,-9.13608,0.26912,3.272608,0.132869,0.27242,0.36425
1702332001070312,-9.28308,0.33812,3.265608,0.137169,0.28642,0.50925
1702332001078125,-9.32408,0.36312,3.317608,0.139869,0.25942,0.54425
1702332001085937,-9.33608,0.41312,3.368608,0.137869,0.9042,0.61125
1702332001093750,-9.35508,0.47012,3.432608,0.139869,0.2542,0.65625
1702332001101562,-9.34208,0.53012,3.492608,0.144269,0.1858,0.57825
1702332001109375,-9.26908,0.57812,3.580608,0.153769,0.10058,0.54525
1702332001117187,-9.19608,0.64312,3.637608,0.165069,0.20858,0.47825
1702332001125000,-9.11808,0.70212,3.673608,0.147469,0.21858,0.46625
1702332001132812,-9.9408,0.78112,3.630608,0.141569,0.9858,0.38425
1702332001140625,-9.10508,0.87512,3.547608,0.122569,0.2158,0.40325
1702332001148437,-9.10708,0.89712,3.520608,0.98869,0.2358,0.47125
1702332001156250,-9.13908,0.90412,3.504608,0.77469,0.3642,0.42225
1702332001164062,-9.16508,0.88712,3.472608,0.61469,0.2542,0.37825
1702332001171875,-9.12608,0.82612,3.402608,0.47269,0.12158,0.39725
1702332001179687,-9.5408,0.77112,3.371608,0.30769,0.13858,0.29825
1702332001187500,-9.3108,0.76012,3.339608,0.13169,0.21458,0.25525
1702332001195312,-9.4908,0.75212,3.348608,0.7169,0.16258,0.19025
1702332001203125,-9.6208,0.71412,3.391608,0.9931,0.12658,0.15825
1702332001210937,-9.8608,0.68812,3.416608,0.6931,0.12958,0.17525
1702332001218750,-9.9808,0.72612,3.463608,0.14731,0.17858,0.16025
1702332001226562,-9.7608,0.74912,3.529608,0.9831,0.26858,0.17425
1702332001234375,-9.7808,0.73412,3.553608,0.16031,0.11058,0.11125
1702332001242187,-9.10008,0.73212,3.506608,0.30231,0.25758,0.9725
1702332001250000,-9.11608,0.73912,3.508608,0.45931,0.19758,0.5125
1702332001257812,-9.15308,0.76012,3.533608,0.56531,0.9158,0.3425
1702332001265625,-9.14108,0.77812,3.558608,0.64831,0.6858,0.6925
1702332001273437,-9.11408,0.77312,3.502608,0.77231,0.0,0.8625
1702332001281250,-9.11708,0.76112,3.405608,0.86031,0.7842,0.5125
1702332001289062,-9.15008,0.77112,3.351608,0.94131,0.3058,0.5775
1702332001296875,-9.14608,0.78612,3.418608,0.108131,0.11558,0.16775
1702332001304687,-9.13108,0.80612,3.554608,0.110831,0.17358,0.26575
1702332001312500,-9.13108,0.79912,3.581608,0.121731,0.17058,0.26575
1702332001320312,-9.11708,0.79712,3.565608,0.132731,0.12358,0.28075
1702332001328125,-9.10608,0.76812,3.538608,0.132531,0.9158,0.36175
1702332001335937,-9.9308,0.71712,3.517608,0.131231,0.16558,0.39075
1702332001343750,-9.8608,0.67012,3.538608,0.121631,0.19558,0.47375
1702332001351562,-9.8608,0.63412,3.558608,0.126131,0.20658,0.45775
1702332001359375,-9.9108,0.58012,3.555608,0.131331,0.15658,0.46975
1702332001367187,-9.9008,0.53512,3.506608,0.123631,0.10458,0.34275
1702332001375000,-9.16908,0.52112,3.456608,0.123331,0.11358,0.37675
1702332001382812,-9.25408,0.49812,3.425608,0.112431,0.3658,0.37775
1702332001390625,-9.27608,0.48212,3.411608,0.104631,0.8058,0.29875
1702332001398437,-9.25108,0.47312,3.407608,0.87631,0.5058,0.23575
1702332001406250,-9.18608,0.47712,3.380608,0.78031,0.5158,0.31775
1702332001414062,-9.11008,0.47312,3.337608,0.69031,0.5358,0.17275
1702332001421875,-9.6908,0.45112,3.299608,0.63031,0.7458,0.12275
1702332001429687,-9.5308,0.45312,3.314608,0.60331,0.11258,0.4075
1702332001437500,-9.9808,0.44912,3.339608,0.56731,0.10258,0.6075
1702332001445312,-9.8008,0.43312,3.362608,0.34931,0.13758,0.4575
1702332001453125,-9.6408,0.41512,3.384608,0.36331,0.15158,0.9475
1702332001460937,-9.6608,0.40412,3.369608,0.17431,0.19858,0.12975
1702332001468750,-9.6608,0.42212,3.355608,0.8331,0.12458,0.8075
1702332001476562,-9.10508,0.44712,3.375608,0.11331,0.15458,0.9675
1702332001484375,-9.13008,0.49612,3.427608,0.131,0.4858,0.5175
1702332001492187,-9.14608,0.52712,3.436608,0.2131,0.2242,0.3125
1702332001500000,-9.21408,0.53912,3.371608,0.2869,0.12942,0.6025
1702332001507812,-9.28408,0.54312,3.312608,0.2031,0.11042,0.7725
1702332001515625,-9.34508,0.52112,3.335608,0.12731,0.2358,0.14125
1702332001523437,-9.38208,0.49112,3.378608,0.9931,0.142,0.15825
1702332001531250,-9.43108,0.45312,3.380608,0.11531,0.958,0.27025
1702332001539062,-9.49208,0.43912,3.344608,0.3631,0.2342,0.25325
1702332001546875,-9.51308,0.42212,3.335608,0.769,0.6958,0.19125
1702332001554687,-9.50308,0.45012,3.362608,0.10069,0.11558,0.25425
1702332001562500,-9.44608,0.51112,3.432608,0.15169,0.20658,0.20425
1702332001570312,-9.33808,0.56812,3.490608,0.24369,0.26158,0.17225
1702332001578125,-9.21108,0.59212,3.484608,0.19869,0.43658,0.12425
1702332001585937,-9.13008,0.61812,3.409608,0.13369,0.41158,0.7825
1702332001593750,-9.8308,0.61912,3.321608,0.14869,0.46358,0.4725
1702332001601562,-9.5608,0.65212,3.306608,0.13269,0.39758,0.11125
1702332001609375,-9.2708,0.64912,3.321608,0.11769,0.31058,0.17425
1702332001617187,-9.708,0.63512,3.301608,0.9831,0.20358,0.20625
1702332001625000,-8.96208,0.62312,3.274608,0.531,0.15458,0.26925
1702332001632812,-8.93908,0.59512,3.245608,0.2531,0.13158,0.30425
1702332001640625,-8.95408,0.54112,3.254608,0.13331,0.20858,0.28925
1702332001648437,-8.96208,0.47312,3.283608,0.10131,0.28758,0.28825
1702332001656250,-8.96708,0.40412,3.362608,0.3869,0.27658,0.25625
1702332001664062,-9.3608,0.33212,3.396608,0.14769,0.27958,0.20725
1702332001671875,-9.14108,0.30712,3.387608,0.35669,0.28358,0.20125
1702332001679687,-9.19808,0.33512,3.407608,0.43069,0.23158,0.18725
1702332001687500,-9.24308,0.37612,3.429608,0.55269,0.20658,0.23625
1702332001695312,-9.26608,0.42112,3.438608,0.64669,0.18758,0.29825
1702332001703125,-9.24208,0.46612,3.389608,0.63369,0.6158,0.37625
1702332001710937,-9.24908,0.48912,3.314608,0.64469,0.2058,0.45825
1702332001718750,-9.25208,0.51112,3.299608,0.63269,0.6158,0.44025
1702332001726562,-9.23608,0.52612,3.357608,0.61269,0.16558,0.49125
1702332001734375,-9.23208,0.52412,3.405608,0.56569,0.19758,0.52425
1702332001742187,-9.24808,0.51912,3.403608,0.63369,0.16558,0.55225
1702332001750000,-9.24808,0.51212,3.385608,0.58869,0.17958,0.47125
1702332001757812,-9.24808,0.51112,3.375608,0.64769,0.16058,0.40925
1702332001765625,-9.22808,0.53212,3.414608,0.77569,0.14158,0.34225
1702332001773437,-9.18508,0.54512,3.438608,0.72669,0.16558,0.29625
1702332001781250,-9.12608,0.59712,3.441608,0.69969,0.17158,0.27825
1702332001789062,-9.9008,0.65012,3.432608,0.68169,0.20958,0.29625
1702332001796875,-9.11808,0.68612,3.403608,0.57369,0.25358,0.28025
1702332001804687,-9.12708,0.68312,3.391608,0.43469,0.23158,0.29625
1702332001812500,-9.10208,0.67312,3.398608,0.38269,0.24458,0.28425
1702332001820312,-9.9808,0.62212,3.387608,0.33169,0.18958,0.30325
1702332001828125,-9.14008,0.56212,3.348608,0.30569,0.9758,0.28425
1702332001835937,-9.17208,0.54512,3.319608,0.19369,0.11558,0.33425
1702332001843750,-9.20108,0.54812,3.278608,0.12969,0.8558,0.33525
1702332001851562,-9.22608,0.55712,3.267608,0.14869,0.11358,0.28525
1702332001859375,-9.24908,0.58612,3.272608,0.13369,0.7758,0.30125
1702332001867187,-9.24508,0.61912,3.294608,0.14769,0.9958,0.28625
1702332001875000,-9.23208,0.65712,3.303608,0.11769,0.9958,0.18925
1702332001882812,-9.23408,0.67512,3.283608,0.10169,0.14858,0.22225
1702332001890625,-9.24108,0.66412,3.283608,0.5531,0.13458,0.17625
1702332001898437,-9.23908,0.65212,3.290608,0.17631,0.4258,0.20625
1702332001906250,-9.21108,0.63612,3.285608,0.22431,0.4458,0.19225
1702332001914062,-9.15708,0.64212,3.303608,0.28731,0.5042,0.17625
1702332001921875,-9.14408,0.64412,3.310608,0.37931,0.9742,0.6425
1702332001929687,-9.17108,0.65212,3.294608,0.35031,0.12142,0.1725
1702332001937500,-9.19808,0.63412,3.288608,0.39331,0.8342,0.1625
1702332001945312,-9.19508,0.62112,3.317608,0.52231,0.958,0.4375
1702332001953125,-9.19708,0.60812,3.328608,0.58031,0.6442,0.7775
1702332001960937,-9.22908,0.62012,3.285608,0.64631,0.2342,0.10775
1702332001968750,-9.22008,0.63512,3.285608,0.61231,0.5058,0.9275
1702332001976562,-9.17108,0.64712,3.306608,0.62831,0.3142,0.7775
1702332001984375,-9.12108,0.64412,3.339608,0.73931,0.5558,0.10675
1702332001992187,-9.10308,0.65312,3.344608,0.85131,0.3742,0.8875
1702332002000000,-9.12408,0.65512,3.355608,0.81731,0.4542,0.4275
1702332002007812,-9.14008,0.66412,3.376608,0.86031,0.6942,0.9275
1702332002015625,-9.14108,0.65412,3.418608,0.85031,0.5342,0.10475
1702332002023437,-9.13908,0.63312,3.420608,0.87831,0.8142,0.9075
1702332002031250,-9.15408,0.61212,3.387608,0.89531,0.9442,0.5775
1702332002039062,-9.16708,0.57612,3.335608,0.86331,0.12742,0.7475
1702332002046875,-9.20008,0.55112,3.319608,0.85431,0.6542,0.2275
1702332002054687,-9.22308,0.53312,3.319608,0.86731,0.4042,0.775
1702332002062500,-9.25008,0.53312,3.305608,0.85231,0.2442,0.4025
1702332002070312,-9.25008,0.56012,3.285608,0.86831,0.4158,0.825
1702332002078125,-9.21808,0.63912,3.294608,0.83731,0.2458,0.2425
1702332002085937,-9.13008,0.77512,3.285608,0.99431,0.258,0.13725
1702332002093750,-9.6808,0.85412,3.155608,0.130831,0.22442,0.20425
1702332002101562,-9.10508,0.91912,3.2608,0.155831,0.27742,0.23825
1702332002109375,-9.25008,0.98112,2.984608,0.160431,0.15942,0.11125
1702332002117187,-9.39408,0.98812,3.94608,0.169531,0.18258,0.11175
1702332002125000,-9.35608,1.512,3.261608,0.205531,0.31058,0.15575
1702332002132812,-9.27308,0.99212,3.319608,0.228831,0.5058,0.20275
1702332002140625,-9.25508,0.99212,3.306608,0.236331,0.3642,0.21975
1702332002148437,-9.25408,0.94612,3.396608,0.234931,0.23658,0.42575
1702332002156250,-9.17208,0.87312,3.515608,0.237631,0.40958,0.57075
1702332002164062,-9.7308,0.84312,3.472608,0.257631,0.34458,0.73075
1702332002171875,-9.8508,0.88512,3.371608,0.260031,0.22458,0.94275
1702332002179687,-9.9508,0.99812,3.337608,0.277231,0.19758,0.105275
1702332002187500,-9.11208,1.3712,3.344608,0.288031,0.9142,0.113275
1702332002195312,-9.14108,1.5012,3.277608,0.314031,0.47942,0.116775
1702332002203125,-9.19608,1.9512,3.146608,0.351531,0.63842,0.122775
1702332002210937,-9.21708,1.19812,3.47608,0.383231,0.56542,0.123775
1702332002218750,-9.22908,1.32412,2.979608,0.417331,0.64242,0.120475
1702332002226562,-9.29008,1.39412,2.979608,0.445731,0.68342,0.123275
1702332002234375,-9.32208,1.39812,2.998608,0.500031,0.67842,0.132575
1702332002242187,-9.35108,1.36812,3.29608,0.553631,0.52342,0.136475
1702332002250000,-9.29208,1.34312,3.38608,0.606731,0.42842,0.147175
1702332002257812,-9.21508,1.32412,3.13608,0.644031,0.50842,0.161275
1702332002265625,-9.14308,1.30812,3.31608,0.676731,0.62042,0.173875
1702332002273437,-9.7108,1.30212,3.105608,0.706531,0.47042,0.183075
1702332002281250,-9.1908,1.29712,3.173608,0.738731,0.52742,0.200675
1702332002289062,-9.1608,1.28812,3.200608,0.782831,0.57942,0.216075
1702332002296875,-9.4808,1.24812,3.211608,0.821031,0.63142,0.225875
1702332002304687,-9.11508,1.14112,3.227608,0.853931,0.71842,0.242975
1702332002312500,-9.22308,1.112,3.238608,0.897331,0.77042,0.260375
1702332002320312,-9.26308,0.86512,3.227608,0.937031,0.83842,0.276675
1702332002328125,-9.37508,0.77612,3.139608,0.971531,0.90942,0.295375
1702332002335937,-9.45108,0.72012,3.47608,0.998331,0.84542,0.290175
1702332002343750,-9.39708,0.73312,3.62608,-1.12831,0.70342,0.294475
1702332002351562,-9.39708,0.73712,3.110608,-1.39631,0.67142,0.286075
1702332002359375,-9.36808,0.73212,3.90608,-1.61231,0.71542,0.282975
1702332002367187,-9.28408,0.72212,3.38608,-1.83331,0.80542,0.288975
1702332002375000,-9.15908,0.72412,2.950608,-1.101831,0.80842,0.295275
1702332002382812,-9.3008,0.72712,2.925608,-1.119431,0.81442,0.299675
1702332002390625,-9.7708,0.70112,2.925608,-1.128631,0.88242,0.302875
1702332002398437,-9.11808,0.70812,3.51608,-1.139431,0.80342,0.307675
1702332002406250,-9.27108,0.62712,3.143608,-1.158431,0.85542,0.318375
1702332002414062,-9.38108,0.61612,3.258608,-1.162931,0.71342,0.323275
1702332002421875,-9.43108,0.59612,3.310608,-1.177931,0.54342,0.342675
1702332002429687,-9.43308,0.59512,3.294608,-1.182331,0.39042,0.345975
1702332002437500,-9.41508,0.59412,3.258608,-1.189231,0.27642,0.345375
1702332002445312,-9.40008,0.61312,3.202608,-1.198231,0.30042,0.350375
1702332002453125,-9.36708,0.56612,3.161608,-1.210931,0.26842,0.345375
1702332002460937,-9.31508,0.48512,3.31608,-1.222031,0.23842,0.332375
1702332002468750,-9.25708,0.37812,2.920608,-1.226731,0.33742,0.333975
1702332002476562,-9.22808,0.29712,2.776608,-1.229931,0.51442,0.329175
1702332002484375,-9.26108,0.24112,2.684608,-1.228731,0.45742,0.327275
1702332002492187,-9.28708,0.18012,2.574608,-1.232831,0.55242,0.326075
1702332002500000,-9.40808,0.17212,2.605608,-1.230231,0.49342,0.322575
1702332002507812,-9.49308,0.25512,2.648608,-1.243031,0.34642,0.314175
1702332002515625,-9.57408,0.30512,2.720608,-1.252631,0.23242,0.309175
1702332002523437,-9.65308,0.32612,2.823608,-1.243231,0.21542,0.307675
1702332002531250,-9.75208,0.27912,2.810608,-1.239931,0.13842,0.310975
1702332002539062,-9.75208,0.27712,2.778608,-1.240131,0.18058,0.325075
1702332002546875,-9.66808,0.24712,2.738608,-1.235031,0.32058,0.336575
1702332002554687,-9.53608,0.23512,2.713608,-1.222231,0.47958,0.341575
1702332002562500,-9.34808,0.15912,2.637608,-1.206231,0.49158,0.351575
1702332002570312,-9.24608,0.13812,2.556608,-1.204731,0.54358,0.353175
1702332002578125,-9.20808,0.13012,2.481608,-1.203031,0.52458,0.354875
1702332002585937,-9.23508,0.16912,2.501608,-1.186431,0.63558,0.351375
1702332002593750,-9.35008,0.18612,2.630608,-1.197231,0.72558,0.346575
1702332002601562,-9.42808,0.25212,2.718608,-1.205431,0.69558,0.335075
1702332002609375,-9.47808,0.27912,2.817608,-1.210431,0.74658,0.326875
1702332002617187,-9.45808,0.30112,2.841608,-1.232431,0.76258,0.321775
1702332002625000,-9.35608,0.35912,2.900608,-1.234031,0.72058,0.305875
1702332002632812,-9.33108,0.35912,2.837608,-1.249731,0.59558,0.312075
1702332002640625,-9.31208,0.35012,2.756608,-1.268531,0.53458,0.318175
1702332002648437,-9.26008,0.30312,2.708608,-1.260731,0.52458,0.326275
1702332002656250,-9.18008,0.20412,2.778608,-1.256831,0.45158,0.345875
1702332002664062,-9.21108,0.6212,2.799608,-1.256331,0.19058,0.362275
1702332002671875,-9.30608,0.3588,2.744608,-1.257531,0.2242,0.373675
1702332002679687,-9.42908,0.12488,2.720608,-1.252831,0.3542,0.380175
1702332002687500,-9.52508,0.14188,2.711608,-1.247731,0.4342,0.380475
1702332002695312,-9.62708,0.12188,2.652608,-1.241531,0.13842,0.382175
1702332002703125,-9.65608,0.8188,2.576608,-1.227531,0.20558,0.388475
1702332002710937,-9.63408,0.4388,2.656608,-1.229731,0.43158,0.386275
1702332002718750,-9.58308,0.688,2.603608,-1.209031,0.50858,0.396275
1702332002726562,-9.47808,0.488,2.618608,-1.216431,0.53658,0.409275
1702332002734375,-9.34508,0.1112,2.569608,-1.218131,0.39758,0.410775
1702332002742187,-9.17308,0.1712,2.594608,-1.219231,0.41358,0.406375
1702332002750000,-9.7608,0.3112,2.713608,-1.225831,0.56658,0.404375
1702332002757812,-9.408,0.2312,2.817608,-1.232031,0.41558,0.398075
1702332002765625,-9.7108,0.712,2.803608,-1.229131,0.9658,0.393275
1702332002773437,-9.19008,0.1312,2.783608,-1.208531,0.23042,0.390475
1702332002781250,-9.36708,0.1088,2.771608,-1.207031,0.29342,0.390475
1702332002789062,-9.56008,0.8788,2.740608,-1.199231,0.26642,0.380975
1702332002796875,-9.62608,0.14588,2.814608,-1.185331,0.19842,0.377775
1702332002804687,-9.57808,0.21388,2.830608,-1.182331,0.13242,0.371375
1702332002812500,-9.50908,0.29888,2.814608,-1.168431,0.16542,0.361875
1702332002820312,-9.43908,0.32288,2.778608,-1.149531,0.22342,0.350975
1702332002828125,-9.41308,0.39388,2.857608,-1.135831,0.8342,0.350875
1702332002835937,-9.32108,0.42588,2.816608,-1.126331,0.10242,0.349375
1702332002843750,-9.25808,0.42988,2.807608,-1.108931,0.5358,0.344875
1702332002851562,-9.27508,0.43788,2.875608,-1.90731,0.11558,0.343075
1702332002859375,-9.25308,0.40888,2.897608,-1.71831,0.3642,0.332175
1702332002867187,-9.24908,0.38888,2.855608,-1.53031,0.47642,0.322975
1702332002875000,-9.24508,0.39688,2.837608,-1.27631,0.51942,0.320375
1702332002882812,-9.24708,0.38088,2.877608,-1.6131,0.33142,0.318675
1702332002890625,-9.25608,0.39588,2.913608,0.981131,0.41042,0.314075
1702332002898437,-9.25608,0.37388,2.949608,0.957531,0.48042,0.308075
1702332002906250,-9.24108,0.35388,2.934608,0.943431,0.52642,0.309775
1702332002914062,-9.20608,0.30588,2.929608,0.918231,0.49942,0.308575
1702332002921875,-9.22908,0.23688,2.985608,0.896631,0.42542,0.306975
1702332002929687,-9.28708,0.23588,3.8608,0.866931,0.58842,0.297775
1702332002937500,-9.34608,0.25688,2.976608,0.843731,0.65742,0.278775
1702332002945312,-9.35708,0.28388,2.985608,0.823231,0.66542,0.266275
1702332002953125,-9.30008,0.30688,2.967608,0.803231,0.71242,0.251975
1702332002960937,-9.28408,0.34988,2.958608,0.781231,0.71742,0.245875
1702332002968750,-9.27408,0.44488,2.992608,0.757531,0.68942,0.244675
1702332002976562,-9.24308,0.53188,2.992608,0.729831,0.69442,0.241475
1702332002984375,-9.20208,0.54588,3.10608,0.701631,0.67542,0.243275
1702332002992187,-9.20208,0.52788,2.996608,0.661031,0.60642,0.246875
1702332003000000,-9.23108,0.56288,3.51608,0.632631,0.57542,0.248875
1702332003007812,-9.24908,0.54888,3.51608,0.605731,0.65942,0.257375
1702332003015625,-9.25908,0.53788,3.21608,0.582131,0.51642,0.254375
1702332003023437,-9.27008,0.51788,2.976608,0.563631,0.50542,0.257575
1702332003031250,-9.24308,0.47988,3.1608,0.540531,0.39142,0.243175
1702332003039062,-9.23608,0.40088,2.967608,0.521631,0.54142,0.238775
1702332003046875,-9.26408,0.31888,2.884608,0.507431,0.72642,0.226275
1702332003054687,-9.27508,0.19888,2.826608,0.493831,0.75442,0.211775
1702332003062500,-9.37208,0.15288,2.796608,0.470531,0.101742,0.189675
1702332003070312,-9.55908,0.12788,2.765608,0.439231,0.134442,0.177275
1702332003078125,-9.68208,0.6788,2.884608,0.433331,0.113442,0.162775
1702332003085937,-9.72708,0.3688,2.932608,0.420831,0.87042,0.146875
1702332003093750,-9.71808,0.8388,2.833608,0.405431,0.49042,0.148375
1702332003101562,-9.65608,0.13088,2.760608,0.393431,0.22542,0.135275
1702332003109375,-9.57308,0.14088,2.751608,0.381131,0.2558,0.141575
1702332003117187,-9.44208,0.13788,2.801608,0.359731,0.23058,0.134975
1702332003125000,-9.27008,0.9688,2.823608,0.359831,0.40758,0.133275
1702332003132812,-9.15408,0.10188,2.915608,0.355531,0.54958,0.136175
1702332003140625,-9.13708,0.13388,2.990608,0.347131,0.41858,0.131975
1702332003148437,-9.18008,0.9788,3.40608,0.340931,0.27658,0.130375
1702332003156250,-9.30008,0.4488,3.105608,0.341031,0.22458,0.122375
1702332003164062,-9.42608,0.612,3.150608,0.341131,0.28958,0.115875
1702332003171875,-9.51708,0.4512,3.159608,0.344631,0.24258,0.102875
1702332003179687,-9.50808,0.6212,3.123608,0.350831,0.25358,0.96475
1702332003187500,-9.44108,0.1812,3.42608,0.340731,0.17958,0.94475
1702332003195312,-9.41508,0.1188,2.945608,0.333631,0.11458,0.106275
1702332003203125,-9.38308,0.3688,2.875608,0.320931,0.12858,0.106475
1702332003210937,-9.35108,0.5288,2.835608,0.294231,0.14558,0.111675
1702332003218750,-9.33308,0.7088,2.808608,0.280031,0.12758,0.111875
1702332003226562,-9.29608,0.15888,2.767608,0.256431,0.15758,0.113775
1702332003234375,-9.25408,0.23488,2.720608,0.235831,0.11758,0.109475
1702332003242187,-9.24508,0.29088,2.673608,0.212431,0.1442,0.95275
1702332003250000,-9.27008,0.32488,2.636608,0.194531,0.458,0.85275
1702332003257812,-9.29308,0.32888,2.654608,0.172931,0.5958,0.78875
1702332003265625,-9.30708,0.31588,2.654608,0.147831,0.17958,0.66475
1702332003273437,-9.34508,0.28188,2.623608,0.130531,0.11458,0.66675
1702332003281250,-9.43608,0.22888,2.569608,0.101031,0.258,0.55675
1702332003289062,-9.54008,0.16288,2.560608,0.79731,0.8842,0.33175
1702332003296875,-9.63608,0.7788,2.596608,0.59331,0.0,0.20775
1702332003304687,-9.70908,0.988,2.636608,0.36231,0.4858,0.3175
1702332003312500,-9.76308,0.488,2.636608,0.25431,0.17958,0.1625
1702332003320312,-9.78108,0.3288,2.600608,0.11831,0.28558,0.11425
1702332003328125,-9.69908,0.6788,2.582608,0.6869,0.47958,0.16125
1702332003335937,-9.53908,0.8588,2.612608,0.24169,0.62158,0.17525
1702332003343750,-9.36808,0.9088,2.625608,0.39869,0.62458,0.7725
1702332003351562,-9.27408,0.8988,2.632608,0.45169,0.54858,0.2525
1702332003359375,-9.23908,0.5288,2.619608,0.62569,0.23858,0.2125
1702332003367187,-9.25108,0.1688,2.639608,0.64069,0.11558,0.2675
1702332003375000,-9.25608,0.2512,2.659608,0.71869,0.10158,0.4275
1702332003382812,-9.25908,0.6512,2.704608,0.90769,0.8058,0.1475
1702332003390625,-9.24108,0.9812,2.738608,0.109369,0.5058,0.8125
1702332003398437,-9.25508,0.11812,2.736608,0.120069,0.6142,0.17625
1702332003406250,-9.26608,0.12512,2.709608,0.124969,0.23442,0.26925
1702332003414062,-9.29108,0.11612,2.641608,0.137269,0.37342,0.31725
1702332003421875,-9.31508,0.9912,2.582608,0.135369,0.34342,0.49525
1702332003429687,-9.35408,0.9712,2.537608,0.135469,0.42842,0.52625
1702332003437500,-9.41208,0.11412,2.533608,0.143369,0.47742,0.50825
1702332003445312,-9.46908,0.13512,2.567608,0.163369,0.43642,0.54025
1702332003453125,-9.49308,0.14412,2.623608,0.164969,0.32442,0.52425
1702332003460937,-9.48708,0.15112,2.645608,0.160169,0.22642,0.54225
1702332003468750,-9.46508,0.15612,2.659608,0.157469,0.17142,0.54025
1702332003476562,-9.48308,0.17712,2.637608,0.163569,0.23142,0.52425
1702332003484375,-9.48308,0.19312,2.652608,0.162069,0.16342,0.44425
1702332003492187,-9.48408,0.19912,2.657608,0.151169,0.12242,0.54125
1702332003500000,-9.47408,0.17912,2.648608,0.160069,0.12842,0.55925
1702332003507812,-9.40408,0.17412,2.691608,0.164569,0.0,0.68825
1702332003515625,-9.32308,0.16812,2.745608,0.166469,0.3842,0.60525
1702332003523437,-9.25608,0.16412,2.790608,0.172769,0.25142,0.66725
1702332003531250,-9.24908,0.16912,2.774608,0.186869,0.33042,0.68225
1702332003539062,-9.27608,0.17812,2.803608,0.188669,0.46642,0.71225
1702332003546875,-9.31308,0.20112,2.835608,0.194669,0.52642,0.76025
1702332003554687,-9.32108,0.21512,2.864608,0.203669,0.53242,0.74625
1702332003562500,-9.34208,0.23212,2.855608,0.207469,0.67642,0.70925
1702332003570312,-9.35408,0.25012,2.792608,0.216869,0.73942,0.69225
1702332003578125,-9.34708,0.27312,2.792608,0.213569,0.76642,0.69325
1702332003585937,-9.34308,0.29012,2.805608,0.215169,0.77942,0.64525
1702332003593750,-9.33408,0.30112,2.736608,0.213869,0.75542,0.64325
1702332003601562,-9.35708,0.30612,2.646608,0.210669,0.70642,0.62825
1702332003609375,-9.42508,0.31812,2.574608,0.217069,0.59342,0.59525
1702332003617187,-9.49408,0.33912,2.555608,0.219769,0.58642,0.64525
1702332003625000,-9.58108,0.37712,2.583608,0.212369,0.42242,0.67625
1702332003632812,-9.65708,0.39712,2.564608,0.216169,0.25642,0.73025
1702332003640625,-9.68108,0.37512,2.542608,0.204969,0.7642,0.79725
1702332003648437,-9.63208,0.36312,2.515608,0.200569,0.12558,0.78025
1702332003656250,-9.55308,0.36212,2.531608,0.198469,0.23158,0.84825
1702332003664062,-9.47208,0.35412,2.524608,0.201469,0.32958,0.86425
1702332003671875,-9.41408,0.34412,2.560608,0.190669,0.32758,0.83225
1702332003679687,-9.39608,0.35912,2.594608,0.184569,0.20658,0.87925
1702332003687500,-9.44508,0.38312,2.632608,0.173269,0.958,0.85125
1702332003695312,-9.48008,0.41212,2.709608,0.164169,0.3458,0.83425
1702332003703125,-9.47408,0.44512,2.761608,0.155069,0.4558,0.78525
1702332003710937,-9.40608,0.48212,2.792608,0.137469,0.13558,0.75725
1702332003718750,-9.34208,0.51412,2.806608,0.139669,0.17158,0.69025
1702332003726562,-9.29708,0.51812,2.785608,0.142369,0.13058,0.77225
1702332003734375,-9.28608,0.51512,2.747608,0.134869,0.7258,0.78625
1702332003742187,-9.28108,0.50012,2.758608,0.139269,0.16258,0.72425
1702332003750000,-9.26708,0.42812,2.788608,0.130169,0.2658,0.70625
1702332003757812,-9.23508,0.37912,2.788608,0.127469,0.1142,0.62425
1702332003765625,-9.24508,0.33112,2.722608,0.135169,0.2958,0.54525
1702332003773437,-9.28408,0.28512,2.686608,0.135169,0.3242,0.52925
1702332003781250,-9.37408,0.24812,2.677608,0.143269,0.5742,0.54225
1702332003789062,-9.46608,0.22812,2.639608,0.146269,0.29442,0.52625
1702332003796875,-9.52208,0.22912,2.637608,0.145969,0.22642,0.59225
1702332003804687,-9.53308,0.24412,2.634608,0.146269,0.11742,0.54325
1702332003812500,-9.51608,0.27112,2.630608,0.141069,0.7942,0.64225
1702332003820312,-9.46908,0.30512,2.639608,0.139569,0.1742,0.67425
1702332003828125,-9.42708,0.36312,2.659608,0.142369,0.2242,0.64425
1702332003835937,-9.40608,0.41312,2.693608,0.136369,0.4742,0.64325
1702332003843750,-9.39508,0.43012,2.725608,0.122369,0.10242,0.70725
1702332003851562,-9.37908,0.44212,2.740608,0.118969,0.8042,0.74125
1702332003859375,-9.36108,0.43612,2.722608,0.113269,0.4058,0.62725
1702332003867187,-9.35208,0.42412,2.686608,0.112569,0.1242,0.72725
1702332003875000,-9.34008,0.37912,2.659608,0.111469,0.1258,0.62825
1702332003882812,-9.31208,0.32712,2.655608,0.114569,0.4742,0.58025
1702332003890625,-9.30008,0.28012,2.668608,0.113369,0.8542,0.51425
1702332003898437,-9.33108,0.26612,2.668608,0.114669,0.9042,0.43625
1702332003906250,-9.39408,0.25112,2.659608,0.132269,0.24542,0.44725
1702332003914062,-9.45508,0.24512,2.650608,0.135469,0.31042,0.43025
1702332003921875,-9.54008,0.23512,2.655608,0.131169,0.36542,0.36425
1702332003929687,-9.57608,0.22512,2.670608,0.129269,0.29742,0.47925
1702332003937500,-9.59208,0.22712,2.670608,0.130669,0.21342,0.48025
1702332003953125,-9.59908,0.26612,2.715608,0.120969,0.10358,0.43625
1702332003960937,-9.58108,0.28212,2.713608,0.113269,0.25658,0.48425
1702332003968750,-9.56408,0.31112,2.704608,0.114569,0.29758,0.48625
1702332003976562,-9.58208,0.34912,2.677608,0.103369,0.34558,0.56825
1702332003984375,-9.60708,0.36912,2.661608,0.93969,0.38958,0.61725
1702332003992187,-9.61508,0.39212,2.662608,0.100469,0.40358,0.55125
1702332004000000,-9.61708,0.40512,2.684608,0.87869,0.53358,0.53725
1702332004007812,-9.60608,0.41312,2.691608,0.83369,0.60758,0.56925
1702332004015625,-9.56308,0.40212,2.711608,0.70369,0.73258,0.55825
1702332004023437,-9.52408,0.37712,2.711608,0.62169,0.82258,0.56125
1702332004031250,-9.50108,0.34012,2.693608,0.54369,0.84158,0.51425
1702332004039062,-9.46008,0.28812,2.668608,0.59169,0.102258,0.41825
1702332004046875,-9.39408,0.25812,2.686608,0.56369,0.107758,0.40025
1702332004054687,-9.35608,0.22112,2.711608,0.58069,0.114258,0.30425
1702332004062500,-9.34108,0.18812,2.704608,0.57869,0.110158,0.30525
1702332004070312,-9.33208,0.16412,2.699608,0.60969,0.105558,0.28925
1702332004078125,-9.33608,0.14412,2.729608,0.62769,0.104758,0.30325
