time,Acceleration X (m/s^2),Acceleration Y (m/s^2),Acceleration Z (m/s^2),Angular Velocity X (rad/s),Angular Velocity Y (rad/s),Angular Velocity Z (rad/s)
1696781866476562,-9.831388,-1.745525,-0.158674,,,
1696781866484375,-9.774388,-1.800525,0.480839,0.54406,0.155574,0.399462
1696781866492187,-9.733388,-1.834525,0.483839,0.39006,0.151974,0.405762
1696781866500000,-9.671388,-1.881525,0.508839,0.28206,0.156474,0.404062
1696781866507812,-9.616388,-1.929525,0.517839,0.8506,0.144374,0.402562
1696781866515625,-9.622388,-1.991525,0.504839,0.5094,0.140574,0.399462
1696781866531250,-9.589388,-2.38525,0.518839,0.29294,0.112374,0.384262
1696781866539062,-9.593388,-2.71525,0.518839,0.48894,0.95974,0.370362
1696781866546875,-9.632388,-2.84525,0.504839,0.60594,0.80274,0.354862
1696781866554687,-9.713388,-2.81525,0.490839,0.64894,0.67974,0.344062
1696781866578125,-9.796388,-2.156525,0.452839,0.82394,0.49374,0.305062
1696781866585937,-9.819388,-2.171525,0.433839,0.94294,0.38274,0.289562
1696781866593750,-9.850388,-2.173525,0.397839,0.100194,0.39674,0.283162
1696781866601562,-9.868388,-2.177525,0.372839,0.98794,0.51074,0.276762
1696781866609375,-9.909388,-2.192525,0.370839,0.99894,0.55974,0.263962
1696781866617187,-9.918388,-2.201525,0.365839,0.102994,0.60374,0.256062
1696781866625000,-9.856388,-2.217525,0.352839,0.104394,0.65074,0.248062
1696781866632812,-9.809388,-2.270525,0.342839,0.100794,0.53174,0.232562
1696781866640625,-9.801388,-2.305525,0.324839,0.97794,0.47474,0.224962
1696781866648437,-9.776388,-2.314525,0.345839,0.94594,0.38774,0.215662
1696781866656250,-9.731388,-2.322525,0.347839,0.89394,0.25474,0.203362
1696781866664062,-9.665388,-2.345525,0.352839,0.77294,0.18374,0.195762
1696781866671875,-9.678388,-2.339525,0.309839,0.72894,0.426,0.197962
1696781866679687,-9.762388,-2.312525,0.270839,0.73994,0.12826,0.180862
1696781866687500,-9.733388,-2.297525,0.284839,0.72194,0.11526,0.166662
1696781866695312,-9.665388,-2.324525,0.279839,0.73494,0.18726,0.155862
1696781866703125,-9.603388,-2.342525,0.225839,0.61094,0.29226,0.143662
1696781866710937,-9.602388,-2.371525,0.120839,0.47294,0.51426,0.136462
1696781866718750,-9.669388,-2.373525,0.29839,0.36094,0.55726,0.130062
1696781866726562,-9.706388,-2.341525,0.22839,0.19094,0.57726,0.114562
1696781866734375,-9.697388,-2.326525,0.54839,0.25194,0.62626,0.119362
1696781866742187,-9.724388,-2.317525,0.38839,0.6694,0.57526,0.109962
1696781866750000,-9.765388,-2.264525,0.6839,0.2206,0.59426,0.110062
1696781866757812,-9.791388,-2.213525,0.41161,0.806,0.44126,0.108162
1696781866765625,-9.764388,-2.211525,0.39161,0.4094,0.27526,0.109362
1696781866773437,-9.709388,-2.222525,0.2161,0.10394,0.12126,0.120062
1696781866781250,-9.659388,-2.275525,0.14161,0.8794,0.5126,0.121362
1696781866789062,-9.544388,-2.354525,0.64161,0.2894,0.11526,0.129462
1696781866796875,-9.483388,-2.408525,0.120161,0.1606,0.9626,0.132562
1696781866804687,-9.567388,-2.444525,0.166161,0.2106,0.25826,0.131162
1696781866812500,-9.682388,-2.433525,0.146161,0.24606,0.21926,0.140762
1696781866820312,-9.777388,-2.436525,0.52161,0.10706,0.10126,0.148262
1696781866828125,-9.902388,-2.417525,0.0,0.194,0.1926,0.152762
1696781866835937,-9.963388,-2.389525,0.74839,0.2506,0.31874,0.156762
1696781866843750,-9.895388,-2.413525,0.124839,0.11194,0.50274,0.156262
1696781866851562,-9.808388,-2.438525,0.120839,0.31194,0.52874,0.154562
1696781866859375,-9.737388,-2.522525,0.161839,0.40294,0.72674,0.147762
1696781866867187,-9.612388,-2.559525,0.177839,0.67394,0.68474,0.136662
1696781866875000,-9.594388,-2.582525,0.157839,0.68694,0.64574,0.125762
1696781866882812,-9.503388,-2.628525,0.166839,0.65194,0.65774,0.103662
1696781866890625,-9.421388,-2.671525,0.148839,0.72494,0.56274,0.81862
1696781866898437,-9.404388,-2.702525,0.100839,0.73894,0.47074,0.69562
1696781866906250,-9.440388,-2.703525,0.109839,0.70794,0.46074,0.54062
1696781866914062,-9.556388,-2.655525,0.111839,0.70494,0.52674,0.44362
1696781866921875,-9.586388,-2.651525,0.148839,0.71894,0.56274,0.42662
1696781866929687,-9.604388,-2.655525,0.152839,0.70494,0.76274,0.39062
1696781866937500,-9.649388,-2.658525,0.120839,0.71994,0.69174,0.34562
1696781866945312,-9.690388,-2.644525,0.114839,0.70594,0.84474,0.38962
1696781866953125,-9.751388,-2.658525,0.132839,0.88894,0.93374,0.51162
1696781866960937,-9.808388,-2.662525,0.182839,0.87694,0.114074,0.63262
1696781866968750,-9.862388,-2.670525,0.216839,0.94094,0.131174,0.73862
1696781866976562,-9.857388,-2.699525,0.216839,0.96094,0.143474,0.90862
1696781866984375,-9.821388,-2.731525,0.241839,0.102294,0.157674,0.103062
1696781866992187,-9.795388,-2.762525,0.273839,0.110194,0.170674,0.105962
1696781867000000,-9.756388,-2.791525,0.301839,0.119794,0.182174,0.113562
1696781867007812,-9.709388,-2.817525,0.351839,0.125594,0.201074,0.109862
1696781867015625,-9.677388,-2.825525,0.389839,0.123894,0.197674,0.106762
1696781867023437,-9.665388,-2.831525,0.424839,0.134594,0.195074,0.95762
1696781867031250,-9.629388,-2.834525,0.455839,0.148294,0.196174,0.92562
1696781867039062,-9.570388,-2.857525,0.474839,0.149394,0.187674,0.80062
1696781867046875,-9.531388,-2.875525,0.497839,0.164794,0.183474,0.75462
1696781867054687,-9.512388,-2.891525,0.499839,0.170794,0.171474,0.74162
1696781867062500,-9.501388,-2.895525,0.504839,0.176694,0.155774,0.65062
1696781867070312,-9.501388,-2.918525,0.499839,0.181094,0.145874,0.68262
1696781867078125,-9.498388,-2.927525,0.485839,0.186994,0.121674,0.57762
1696781867085937,-9.558388,-2.913525,0.481839,0.185094,0.104974,0.53362
1696781867093750,-9.621388,-2.881525,0.471839,0.187994,0.100974,0.42462
1696781867101562,-9.634388,-2.907525,0.474839,0.195594,0.98274,0.30062
1696781867109375,-9.603388,-2.953525,0.435839,0.191894,0.81874,0.20762
1696781867117187,-9.579388,-2.977525,0.397839,0.194894,0.66974,0.738
1696781867125000,-9.572388,-2.959525,0.342839,0.182394,0.56574,0.12938
1696781867132812,-9.607388,-2.948525,0.271839,0.166594,0.46674,0.26938
1696781867140625,-9.596388,-2.911525,0.212839,0.166494,0.37374,0.42338
1696781867148437,-9.551388,-2.877525,0.178839,0.152494,0.22474,0.48338
1696781867156250,-9.528388,-2.819525,0.141839,0.135094,0.10674,0.68438
1696781867164062,-9.542388,-2.756525,0.86839,0.108994,0.2374,0.75938
1696781867171875,-9.497388,-2.692525,0.34839,0.94994,0.17226,0.102038
1696781867179687,-9.466388,-2.643525,0.9161,0.83794,0.17426,0.120838
1696781867187500,-9.536388,-2.540525,0.68161,0.58894,0.24726,0.147238
1696781867195312,-9.644388,-2.447525,0.102161,0.43294,0.24826,0.162938
1696781867203125,-9.624388,-2.405525,0.123161,0.41694,0.8326,0.174238
1696781867210937,-9.664388,-2.372525,0.134161,0.38994,0.2574,0.180538
1696781867218750,-9.786388,-2.343525,0.130161,0.20294,0.5574,0.177638
1696781867226562,-9.860388,-2.297525,0.87161,0.14894,0.19774,0.154238
1696781867234375,-9.879388,-2.297525,0.55161,0.10494,0.53674,0.150138
1696781867242187,-9.830388,-2.340525,0.18161,0.12494,0.59374,0.129838
1696781867250000,-9.721388,-2.410525,0.17839,0.19194,0.102274,0.105738
1696781867257812,-9.684388,-2.429525,0.60839,0.5894,0.102074,0.78938
1696781867265625,-9.716388,-2.413525,0.88839,0.2906,0.112574,0.66438
1696781867273437,-9.757388,-2.381525,0.145839,0.1794,0.121274,0.58838
1696781867281250,-9.753388,-2.386525,0.236839,0.1106,0.145574,0.50038
1696781867289062,-9.701388,-2.385525,0.336839,0.3806,0.158974,0.47038
1696781867296875,-9.678388,-2.347525,0.406839,0.2306,0.163874,0.48738
1696781867304687,-9.660388,-2.314525,0.459839,0.606,0.175474,0.47338
1696781867312500,-9.574388,-2.333525,0.486839,0.16394,0.205274,0.49738
1696781867320312,-9.483388,-2.360525,0.539839,0.25594,0.209774,0.52938
1696781867328125,-9.424388,-2.368525,0.596839,0.39294,0.221574,0.51738
1696781867335937,-9.388388,-2.369525,0.641839,0.43694,0.227974,0.61438
1696781867343750,-9.434388,-2.374525,0.680839,0.54094,0.241274,0.68138
1696781867351562,-9.567388,-2.325525,0.734839,0.54294,0.254074,0.76138
1696781867359375,-9.678388,-2.271525,0.816839,0.69894,0.278474,0.79738
1696781867367187,-9.681388,-2.270525,0.912839,0.88194,0.322274,0.79438
1696781867375000,-9.642388,-2.315525,0.949839,0.106694,0.333574,0.76538
1696781867382812,-9.660388,-2.337525,0.949839,0.100594,0.331974,0.76538
1696781867390625,-9.692388,-2.332525,0.951839,0.106594,0.333574,0.78138
1696781867398437,-9.719388,-2.307525,1.10839,0.122194,0.348774,0.66038
1696781867406250,-9.762388,-2.284525,1.78839,0.120894,0.362174,0.64638
1696781867414062,-9.798388,-2.277525,1.156839,0.139494,0.368474,0.58538
1696781867421875,-9.862388,-2.266525,1.197839,0.145394,0.375874,0.52638
1696781867429687,-9.855388,-2.268525,1.242839,0.162294,0.383974,0.51338
1696781867437500,-9.785388,-2.319525,1.317839,0.168494,0.389574,0.39038
1696781867445312,-9.748388,-2.384525,1.370839,0.174494,0.388174,0.34338
1696781867453125,-9.713388,-2.432525,1.418839,0.170094,0.386674,0.28038
1696781867460937,-9.675388,-2.450525,1.481839,0.168394,0.374874,0.32438
1696781867468750,-9.615388,-2.499525,1.516839,0.171794,0.359574,0.24138
1696781867476562,-9.553388,-2.523525,1.543839,0.159294,0.321474,0.18638
1696781867484375,-9.526388,-2.533525,1.566839,0.145294,0.278474,0.12938
1696781867492187,-9.538388,-2.523525,1.582839,0.144994,0.235874,0.21438
1696781867500000,-9.544388,-2.516525,1.571839,0.123694,0.209274,0.19038
1696781867507812,-9.503388,-2.514525,1.566839,0.115994,0.179074,0.15138
1696781867515625,-9.444388,-2.515525,1.534839,0.98994,0.145574,0.19038
1696781867523437,-9.447388,-2.515525,1.461839,0.90994,0.108974,0.18238
1696781867531250,-9.479388,-2.492525,1.370839,0.73894,0.67574,0.17338
1696781867539062,-9.486388,-2.488525,1.313839,0.68994,0.55874,0.21838
1696781867546875,-9.429388,-2.497525,1.261839,0.67394,0.28974,0.19638
1696781867554687,-9.384388,-2.502525,1.213839,0.52194,0.274,0.20438
1696781867562500,-9.464388,-2.463525,1.133839,0.27594,0.22426,0.18238
1696781867570312,-9.521388,-2.388525,1.51839,0.22994,0.42426,0.13038
1696781867578125,-9.509388,-2.346525,1.3839,0.21494,0.45326,0.6738
1696781867585937,-9.527388,-2.332525,0.951839,0.18494,0.50226,0.3438
1696781867593750,-9.588388,-2.300525,0.917839,0.6194,0.61826,0.4738
1696781867601562,-9.614388,-2.269525,0.862839,0.1694,0.69526,0.8062
1696781867609375,-9.558388,-2.247525,0.823839,0.12494,0.72726,0.15862
1696781867617187,-9.489388,-2.261525,0.798839,0.7994,0.77726,0.17562
1696781867625000,-9.498388,-2.261525,0.757839,0.4894,0.86026,0.19362
1696781867632812,-9.605388,-2.215525,0.723839,0.3394,0.97826,0.21262
1696781867640625,-9.697388,-2.163525,0.725839,0.20294,0.89326,0.28762
1696781867648437,-9.697388,-2.163525,0.752839,0.38494,0.77726,0.29862
1696781867656250,-9.726388,-2.201525,0.782839,0.58394,0.76626,0.28162
1696781867664062,-9.716388,-2.233525,0.778839,0.69394,0.65526,0.27962
1696781867671875,-9.670388,-2.297525,0.753839,0.73894,0.60326,0.27762
1696781867679687,-9.636388,-2.306525,0.750839,0.76494,0.62726,0.7362
1696781867687500,-9.679388,-2.254525,0.782839,0.68994,0.54526,0.4162
1696781867695312,-9.698388,-2.212525,0.821839,0.89994,0.40426,0.16738
1696781867703125,-9.664388,-2.206525,0.839839,0.94194,0.36426,0.40438
1696781867710937,-9.606388,-2.189525,0.861839,0.90694,0.21326,0.54938
1696781867718750,-9.607388,-2.144525,0.886839,0.87394,0.15926,0.84838
1696781867726562,-9.693388,-2.78525,0.902839,0.93294,0.19926,0.95738
1696781867734375,-9.769388,-1.999525,0.943839,0.103694,0.19226,0.114738
1696781867742187,-9.801388,-1.925525,0.995839,0.117594,0.4974,0.126238
1696781867750000,-9.802388,-1.883525,1.38839,0.117194,0.4974,0.134138
1696781867757812,-9.799388,-1.830525,1.36839,0.115594,0.7074,0.129538
1696781867765625,-9.742388,-1.808525,1.22839,0.129594,0.8074,0.131138
1696781867773437,-9.660388,-1.798525,0.995839,0.137394,0.3074,0.123238
1696781867781250,-9.578388,-1.803525,1.4839,0.134494,0.11826,0.111738
1696781867789062,-9.561388,-1.803525,0.966839,0.129794,0.36426,0.105038
1696781867796875,-9.595388,-1.792525,0.913839,0.126894,0.49426,0.93738
1696781867804687,-9.631388,-1.798525,0.868839,0.129894,0.68826,0.77738
1696781867812500,-9.700388,-1.780525,0.826839,0.115894,0.76126,0.69738
1696781867820312,-9.724388,-1.761525,0.792839,0.117894,0.90126,0.66138
1696781867828125,-9.759388,-1.759525,0.774839,0.113294,0.97826,0.56538
1696781867835937,-9.757388,-1.766525,0.747839,0.102594,0.100626,0.48638
1696781867843750,-9.717388,-1.777525,0.719839,0.98394,0.115526,0.37138
1696781867851562,-9.679388,-1.820525,0.669839,0.94094,0.111026,0.15338
1696781867859375,-9.616388,-1.882525,0.604839,0.83794,0.117526,0.2438
1696781867867187,-9.561388,-1.959525,0.529839,0.70394,0.127526,0.27662
1696781867875000,-9.515388,-2.33525,0.465839,0.63094,0.133126,0.52962
1696781867882812,-9.537388,-2.115525,0.406839,0.34294,0.138226,0.73662
1696781867890625,-9.463388,-2.201525,0.361839,0.22594,0.141926,0.100462
1696781867898437,-9.410388,-2.273525,0.308839,0.1694,0.140426,0.128862
1696781867906250,-9.471388,-2.303525,0.245839,0.33006,0.143826,0.152762
1696781867914062,-9.553388,-2.273525,0.236839,0.50706,0.137626,0.179462
1696781867921875,-9.612388,-2.270525,0.210839,0.53606,0.125426,0.185562
1696781867929687,-9.671388,-2.271525,0.201839,0.67106,0.98426,0.183462
1696781867937500,-9.723388,-2.228525,0.247839,0.82406,0.92826,0.184962
1696781867945312,-9.771388,-2.203525,0.276839,0.84906,0.67726,0.190862
1696781867953125,-9.780388,-2.221525,0.247839,0.73006,0.64426,0.187562
1696781867960937,-9.766388,-2.246525,0.249839,0.95806,0.38726,0.185562
1696781867968750,-9.686388,-2.298525,0.247839,0.88006,0.27226,0.183662
1696781867976562,-9.575388,-2.345525,0.229839,0.97606,0.30126,0.178962
1696781867984375,-9.570388,-2.380525,0.215839,0.100406,0.27026,0.180562
1696781867992187,-9.677388,-2.343525,0.208839,0.115506,0.23226,0.183762
1696781868000000,-9.745388,-2.306525,0.254839,0.107806,0.9926,0.183362
1696781868007812,-9.740388,-2.314525,0.304839,0.104406,0.526,0.181762
1696781868015625,-9.685388,-2.352525,0.322839,0.101506,0.13574,0.187562
1696781868023437,-9.576388,-2.404525,0.322839,0.99706,0.20874,0.201562
1696781868031250,-9.588388,-2.391525,0.288839,0.106006,0.14374,0.200162
1696781868039062,-9.744388,-2.364525,0.286839,0.108906,0.2774,0.205162
1696781868046875,-9.818388,-2.397525,0.297839,0.95106,0.874,0.209862
1696781868054687,-9.774388,-2.471525,0.329839,0.87306,0.14274,0.212662
1696781868062500,-9.754388,-2.509525,0.338839,0.98006,0.9374,0.211262
1696781868070312,-9.772388,-2.480525,0.311839,0.89006,0.3826,0.217662
1696781868078125,-9.779388,-2.468525,0.281839,0.78106,0.4426,0.216162
1696781868085937,-9.758388,-2.502525,0.279839,0.69306,0.1126,0.209662
1696781868093750,-9.733388,-2.509525,0.313839,0.64506,0.3474,0.209562
1696781868101562,-9.749388,-2.511525,0.297839,0.52506,0.6826,0.206562
1696781868109375,-9.733388,-2.523525,0.250839,0.41806,0.0,0.210962
1696781868117187,-9.681388,-2.562525,0.266839,0.22106,0.4874,0.212262
1696781868125000,-9.628388,-2.588525,0.289839,0.13806,0.526,0.225062
1696781868132812,-9.623388,-2.631525,0.284839,0.4594,0.3926,0.232862
1696781868140625,-9.588388,-2.651525,0.257839,0.15194,0.2426,0.231162
1696781868148437,-9.500388,-2.702525,0.243839,0.39494,0.6126,0.232662
1696781868156250,-9.422388,-2.788525,0.237839,0.60594,0.16326,0.232662
1696781868164062,-9.359388,-2.871525,0.216839,0.71294,0.35426,0.231462
1696781868171875,-9.306388,-2.938525,0.214839,0.69894,0.37326,0.233162
1696781868179687,-9.303388,-3.14525,0.164839,0.74294,0.57626,0.228862
1696781868187500,-9.338388,-3.80525,0.112839,0.72494,0.79826,0.221462
1696781868195312,-9.363388,-3.127525,0.121839,0.73894,0.78126,0.219862
1696781868203125,-9.387388,-3.160525,0.117839,0.87394,0.85326,0.211962
1696781868210937,-9.473388,-3.170525,0.96839,0.73594,0.87126,0.204262
1696781868218750,-9.552388,-3.173525,0.78839,0.73294,0.74726,0.177362
1696781868226562,-9.616388,-3.166525,0.51839,0.71294,0.62026,0.151862
1696781868234375,-9.657388,-3.138525,0.35839,0.75594,0.52826,0.132862
1696781868242187,-9.671388,-3.136525,0.55839,0.72194,0.41926,0.107462
1696781868250000,-9.714388,-3.93525,0.53839,0.71694,0.36226,0.79062
1696781868257812,-9.706388,-3.71525,0.37839,0.69994,0.15226,0.58262
1696781868265625,-9.683388,-3.58525,0.21839,0.77594,0.13926,0.51862
1696781868273437,-9.658388,-3.56525,0.28839,0.83394,0.6326,0.34362
1696781868281250,-9.645388,-3.56525,0.46839,0.78494,0.2026,0.12362
1696781868289062,-9.675388,-3.43525,0.46839,0.71894,0.3826,0.3338
1696781868296875,-9.736388,-2.999525,0.50839,0.68894,0.3974,0.12838
1696781868304687,-9.784388,-2.941525,0.77839,0.70194,0.13574,0.27238
1696781868312500,-9.814388,-2.904525,0.98839,0.68894,0.14574,0.33438
1696781868320312,-9.801388,-2.871525,0.132839,0.67094,0.19474,0.42938
1696781868328125,-9.770388,-2.827525,0.130839,0.66894,0.34874,0.46538
1696781868335937,-9.729388,-2.794525,0.132839,0.57994,0.49974,0.46738
1696781868343750,-9.701388,-2.773525,0.129839,0.65294,0.50174,0.50138
1696781868351562,-9.647388,-2.740525,0.136839,0.65494,0.54974,0.48538
1696781868359375,-9.608388,-2.716525,0.145839,0.62594,0.59974,0.48538
1696781868367187,-9.595388,-2.678525,0.148839,0.67194,0.58274,0.45438
1696781868375000,-9.598388,-2.649525,0.161839,0.64094,0.56574,0.46938
1696781868382812,-9.612388,-2.627525,0.168839,0.69994,0.65374,0.45738
1696781868390625,-9.585388,-2.609525,0.181839,0.68594,0.66874,0.47238
1696781868398437,-9.580388,-2.620525,0.168839,0.62794,0.61674,0.40638
1696781868406250,-9.619388,-2.602525,0.156839,0.58094,0.62674,0.33038
1696781868414062,-9.619388,-2.588525,0.150839,0.67394,0.63674,0.36138
1696781868421875,-9.583388,-2.598525,0.138839,0.67294,0.65474,0.37738
1696781868429687,-9.630388,-2.577525,0.163839,0.58294,0.73674,0.40938
1696781868437500,-9.655388,-2.561525,0.163839,0.49094,0.68874,0.39238
1696781868445312,-9.635388,-2.550525,0.145839,0.55194,0.75274,0.44138
1696781868453125,-9.615388,-2.573525,0.141839,0.53694,0.82274,0.41138
1696781868460937,-9.583388,-2.553525,0.179839,0.44594,0.85674,0.44238
1696781868468750,-9.594388,-2.535525,0.202839,0.43194,0.97074,0.47538
1696781868476562,-9.606388,-2.531525,0.204839,0.46094,0.105874,0.46338
1696781868484375,-9.606388,-2.524525,0.229839,0.38594,0.112474,0.47938
1696781868492187,-9.597388,-2.526525,0.250839,0.40094,0.114474,0.44838
1696781868500000,-9.565388,-2.536525,0.270839,0.46094,0.111074,0.44838
1696781868507812,-9.552388,-2.520525,0.286839,0.41794,0.120974,0.41838
1696781868515625,-9.552388,-2.538525,0.277839,0.46494,0.119974,0.27738
1696781868523437,-9.527388,-2.559525,0.309839,0.45094,0.135374,0.24938
1696781868531250,-9.492388,-2.583525,0.316839,0.46694,0.124974,0.24638
1696781868539062,-9.473388,-2.599525,0.341839,0.45294,0.125074,0.21538
1696781868546875,-9.478388,-2.615525,0.350839,0.53094,0.123574,0.10438
1696781868554687,-9.507388,-2.651525,0.362839,0.60494,0.137174,0.14138
1696781868562500,-9.548388,-2.654525,0.409839,0.65394,0.142274,0.3138
1696781868570312,-9.550388,-2.677525,0.455839,0.71694,0.135874,0.7862
1696781868578125,-9.516388,-2.734525,0.460839,0.70094,0.145174,0.16962
1696781868585937,-9.492388,-2.762525,0.458839,0.72094,0.142074,0.34462
1696781868593750,-9.506388,-2.764525,0.471839,0.73694,0.147274,0.39062
1696781868601562,-9.521388,-2.779525,0.490839,0.80194,0.155374,0.43662
1696781868609375,-9.534388,-2.811525,0.519839,0.89294,0.152374,0.51462
1696781868617187,-9.518388,-2.851525,0.551839,0.96894,0.162374,0.51162
1696781868625000,-9.497388,-2.883525,0.558839,0.98394,0.167574,0.54162
1696781868632812,-9.493388,-2.892525,0.571839,0.116694,0.172774,0.60062
1696781868640625,-9.504388,-2.894525,0.615839,0.118294,0.168974,0.55562
1696781868648437,-9.472388,-2.913525,0.647839,0.121394,0.182474,0.55162
1696781868656250,-9.422388,-2.947525,0.718839,0.124494,0.180274,0.50562
1696781868664062,-9.432388,-2.969525,0.722839,0.138194,0.169874,0.52262
1696781868671875,-9.472388,-2.960525,0.745839,0.130394,0.168674,0.52262
1696781868679687,-9.469388,-2.984525,0.763839,0.142594,0.178274,0.48862
1696781868687500,-9.423388,-3.23525,0.795839,0.146894,0.171274,0.39462
1696781868695312,-9.388388,-3.41525,0.832839,0.147194,0.167574,0.42862
1696781868703125,-9.364388,-3.48525,0.838839,0.137594,0.152774,0.36862
1696781868710937,-9.373388,-3.50525,0.822839,0.140694,0.144174,0.35462
1696781868718750,-9.375388,-3.55525,0.825839,0.145294,0.140774,0.38662
1696781868726562,-9.370388,-3.52525,0.861839,0.140794,0.140374,0.32462
1696781868734375,-9.393388,-3.61525,0.891839,0.148294,0.140474,0.33962
1696781868742187,-9.427388,-3.59525,0.898839,0.145194,0.147474,0.35362
1696781868750000,-9.431388,-3.67525,0.932839,0.161994,0.147974,0.22762
1696781868757812,-9.429388,-3.69525,0.930839,0.171194,0.161074,0.19362
1696781868765625,-9.440388,-3.67525,0.971839,0.166394,0.167774,0.9662
1696781868773437,-9.413388,-3.77525,0.973839,0.176894,0.175574,0.0
1696781868781250,-9.372388,-3.89525,1.839,0.185794,0.183674,0.9638
1696781868789062,-9.354388,-3.77525,1.7839,0.191894,0.180974,0.23738
1696781868796875,-9.338388,-3.66525,1.7839,0.196294,0.180374,0.36338
1696781868804687,-9.303388,-3.54525,1.36839,0.210894,0.179674,0.56938
1696781868812500,-9.291388,-3.61525,1.48839,0.225794,0.178174,0.82038
1696781868820312,-9.330388,-3.58525,1.66839,0.240694,0.167074,0.100838
1696781868828125,-9.366388,-3.26525,1.75839,0.247994,0.153774,0.127138
1696781868835937,-9.454388,-3.16525,1.89839,0.264294,0.149274,0.150738
1696781868843750,-9.562388,-2.981525,1.82839,0.278894,0.136474,0.174238
1696781868851562,-9.616388,-2.947525,1.116839,0.299994,0.130574,0.185238
1696781868859375,-9.629388,-2.944525,1.114839,0.316694,0.122574,0.200738
1696781868867187,-9.616388,-2.951525,1.91839,0.327094,0.105374,0.208338
1696781868875000,-9.609388,-2.953525,1.64839,0.345194,0.99374,0.219338
1696781868882812,-9.575388,-2.963525,1.34839,0.356894,0.80474,0.230138
1696781868890625,-9.503388,-2.993525,1.16839,0.377894,0.62874,0.242538
1696781868898437,-9.485388,-2.987525,0.977839,0.391294,0.36674,0.256138
1696781868906250,-9.478388,-2.980525,0.941839,0.401594,0.23974,0.274738
1696781868914062,-9.469388,-2.955525,0.900839,0.406094,0.18474,0.282538
1696781868921875,-9.515388,-2.912525,0.863839,0.414694,0.5926,0.300938
1696781868929687,-9.544388,-2.896525,0.841839,0.431494,0.12426,0.316438
1696781868937500,-9.519388,-2.871525,0.786839,0.426594,0.18026,0.333538
1696781868945312,-9.450388,-2.843525,0.745839,0.432394,0.15226,0.347838
1696781868953125,-9.398388,-2.824525,0.704839,0.418394,0.26726,0.352238
1696781868960937,-9.424388,-2.775525,0.599839,0.407194,0.35326,0.369338
1696781868968750,-9.488388,-2.709525,0.537839,0.404094,0.36026,0.383438
1696781868976562,-9.528388,-2.666525,0.510839,0.404994,0.33226,0.407138
1696781868984375,-9.555388,-2.614525,0.487839,0.403494,0.29026,0.421238
1696781868992187,-9.583388,-2.534525,0.473839,0.380594,0.20326,0.426038
1696781869000000,-9.602388,-2.491525,0.443839,0.379094,0.19126,0.433738
1696781869007812,-9.604388,-2.454525,0.368839,0.380694,0.9426,0.437038
1696781869015625,-9.635388,-2.379525,0.322839,0.372794,0.13526,0.432438
1696781869023437,-9.715388,-2.288525,0.288839,0.372894,0.17126,0.433838
1696781869031250,-9.773388,-2.230525,0.274839,0.374494,0.1926,0.432638
1696781869039062,-9.803388,-2.176525,0.281839,0.385294,0.6274,0.429738
1696781869046875,-9.823388,-2.103525,0.290839,0.385094,0.13374,0.431638
1696781869054687,-9.857388,-2.52525,0.292839,0.397594,0.22874,0.430138
1696781869062500,-9.861388,-2.27525,0.274839,0.405394,0.25974,0.427038
1696781869070312,-9.841388,-1.999525,0.281839,0.423694,0.38974,0.430638
1696781869078125,-9.840388,-1.995525,0.292839,0.444894,0.39274,0.421538
1696781869085937,-9.842388,-1.990525,0.305839,0.455794,0.45974,0.415438
1696781869093750,-9.855388,-1.975525,0.328839,0.459194,0.52874,0.404538
1696781869101562,-9.881388,-1.961525,0.337839,0.474594,0.59574,0.398438
1696781869109375,-9.883388,-1.943525,0.342839,0.476294,0.65174,0.384538
1696781869117187,-9.865388,-1.923525,0.374839,0.479694,0.82074,0.375338
1696781869125000,-9.845388,-1.908525,0.390839,0.478294,0.88774,0.375438
1696781869132812,-9.830388,-1.900525,0.414839,0.479694,0.88074,0.363138
1696781869140625,-9.836388,-1.861525,0.424839,0.481594,0.92774,0.359938
1696781869148437,-9.828388,-1.837525,0.449839,0.478594,0.103174,0.355438
1696781869156250,-9.819388,-1.803525,0.458839,0.487994,0.114874,0.351038
1696781869164062,-9.792388,-1.807525,0.455839,0.489194,0.110074,0.352638
1696781869171875,-9.753388,-1.793525,0.458839,0.480394,0.103574,0.341238
1696781869179687,-9.714388,-1.767525,0.453839,0.478794,0.102474,0.336638
1696781869187500,-9.684388,-1.754525,0.442839,0.468494,0.104574,0.325538
1696781869195312,-9.678388,-1.725525,0.455839,0.454694,0.99974,0.323838
1696781869203125,-9.637388,-1.699525,0.458839,0.458094,0.91874,0.307938
1696781869210937,-9.610388,-1.676525,0.453839,0.444494,0.76774,0.305738
1696781869218750,-9.592388,-1.657525,0.428839,0.426194,0.71274,0.291538
1696781869226562,-9.595388,-1.624525,0.419839,0.413894,0.61974,0.285038
1696781869234375,-9.607388,-1.588525,0.421839,0.404894,0.52474,0.273838
1696781869242187,-9.632388,-1.556525,0.416839,0.385194,0.41174,0.268638
1696781869250000,-9.637388,-1.531525,0.414839,0.369994,0.34774,0.265238
1696781869257812,-9.660388,-1.516525,0.386839,0.359394,0.27574,0.247838
1696781869265625,-9.724388,-1.457525,0.366839,0.350594,0.26474,0.233538
1696781869273437,-9.848388,-1.380525,0.372839,0.332194,0.23874,0.228738
1696781869281250,-10.12388,-1.297525,0.384839,0.330894,0.25674,0.222438
1696781869289062,-10.125388,-1.249525,0.397839,0.323394,0.25974,0.217638
1696781869296875,-10.103388,-1.243525,0.392839,0.320494,0.46874,0.207138
1696781869304687,-10.39388,-1.277525,0.363839,0.315894,0.51974,0.208838
1696781869312500,-10.1388,-1.282525,0.347839,0.305294,0.45574,0.203938
1696781869320312,-10.6388,-1.255525,0.326839,0.285494,0.46374,0.197538
1696781869328125,-10.8388,-1.237525,0.299839,0.288494,0.46474,0.196038
1696781869335937,-9.952388,-1.232525,0.331839,0.274894,0.43674,0.188038
1696781869343750,-9.921388,-1.210525,0.335839,0.264194,0.34174,0.183038
1696781869351562,-9.943388,-1.185525,0.329839,0.249094,0.34074,0.184438
1696781869359375,-9.966388,-1.174525,0.328839,0.238294,0.33074,0.181338
1696781869367187,-9.946388,-1.178525,0.331839,0.243094,0.38174,0.173538
1696781869375000,-9.850388,-1.190525,0.345839,0.223594,0.38674,0.165538
1696781869382812,-9.759388,-1.213525,0.315839,0.215994,0.31974,0.165238
1696781869390625,-9.762388,-1.189525,0.256839,0.197594,0.7374,0.159938
1696781869398437,-9.821388,-1.152525,0.222839,0.184094,0.974,0.151738
1696781869406250,-9.790388,-1.131525,0.267839,0.187094,0.3174,0.145638
1696781869414062,-9.808388,-1.141525,0.297839,0.182594,0.1474,0.145538
1696781869421875,-9.856388,-1.105525,0.317839,0.166094,0.826,0.126538
1696781869429687,-9.831388,-1.83525,0.308839,0.161694,0.11274,0.122038
1696781869437500,-9.815388,-1.100525,0.278839,0.157194,0.15674,0.106538
1696781869445312,-9.830388,-1.64525,0.294839,0.166494,0.14374,0.94038
1696781869453125,-9.861388,-1.47525,0.306839,0.165294,0.22674,0.87738
1696781869460937,-9.881388,-1.85525,0.308839,0.162394,0.29774,0.80038
1696781869468750,-9.874388,-1.85525,0.315839,0.150394,0.36974,0.75438
1696781869476562,-9.854388,-1.112525,0.335839,0.153294,0.32074,0.73838
1696781869484375,-9.862388,-1.119525,0.306839,0.144494,0.32674,0.59538
1696781869492187,-9.874388,-1.132525,0.310839,0.139994,0.27974,0.51538
1696781869500000,-9.856388,-1.135525,0.331839,0.135394,0.23374,0.48338
1696781869507812,-9.828388,-1.135525,0.331839,0.127994,0.22074,0.37238
1696781869515625,-9.855388,-1.152525,0.326839,0.122194,0.25674,0.29338
1696781869523437,-9.855388,-1.143525,0.345839,0.117794,0.27374,0.27738
1696781869531250,-9.898388,-1.145525,0.344839,0.116094,0.36174,0.28038
1696781869539062,-9.936388,-1.142525,0.347839,0.113394,0.27674,0.18238
1696781869546875,-9.900388,-1.165525,0.345839,0.114694,0.44874,0.21938
1696781869554687,-9.900388,-1.192525,0.349839,0.99494,0.41974,0.17038
1696781869562500,-9.980388,-1.178525,0.333839,0.94894,0.37174,0.16938
1696781869570312,-9.982388,-1.188525,0.313839,0.90394,0.47174,0.18638
1696781869578125,-9.976388,-1.215525,0.315839,0.94994,0.38274,0.21538
1696781869585937,-9.944388,-1.249525,0.327839,0.73694,0.40874,0.12138
1696781869593750,-9.879388,-1.248525,0.340839,0.66194,0.36374,0.4138
1696781869601562,-9.975388,-1.215525,0.294839,0.46094,0.13274,0.6738
1696781869609375,-10.59388,-1.157525,0.276839,0.45994,0.11674,0.8238
1696781869617187,-9.989388,-1.146525,0.306839,0.44794,0.30074,0.5438
1696781869625000,-9.923388,-1.176525,0.313839,0.46194,0.31274,0.16438
1696781869632812,-9.918388,-1.166525,0.276839,0.38694,0.10974,0.12738
1696781869640625,-9.941388,-1.115525,0.208839,0.29294,0.2974,0.14138
1696781869648437,-9.958388,-1.61525,0.180839,0.38594,0.4574,0.9538
1696781869656250,-9.933388,-1.55525,0.167839,0.49294,0.6174,0.6438
1696781869664062,-9.897388,-1.55525,0.180839,0.55294,0.12426,0.4538
1696781869671875,-9.850388,-1.45525,0.155839,0.48994,0.13426,0.3038
1696781869679687,-9.823388,-1.45525,0.119839,0.44394,0.11826,0.4538
1696781869687500,-9.812388,-1.28525,0.62839,0.59694,0.20226,0.162
1696781869695312,-9.798388,-1.45525,0.32839,0.67494,0.25126,0.12862
1696781869703125,-9.787388,-1.68525,0.28839,0.68994,0.29826,0.15962
1696781869710937,-9.766388,-1.104525,0.7839,0.72194,0.39626,0.28762
1696781869718750,-9.759388,-1.136525,0.24161,0.53894,0.43426,0.43062
1696781869726562,-9.749388,-1.157525,0.69161,0.45194,0.58526,0.54562
1696781869734375,-9.765388,-1.196525,0.105161,0.34494,0.64026,0.68762
1696781869742187,-9.798388,-1.228525,0.153161,0.22594,0.78526,0.84962
1696781869750000,-9.813388,-1.281525,0.176161,0.12494,0.79226,0.108662
1696781869757812,-9.851388,-1.323525,0.223161,0.14606,0.91426,0.131162
1696781869765625,-9.885388,-1.356525,0.269161,0.45006,0.104926,0.151962
1696781869773437,-9.877388,-1.419525,0.317161,0.67706,0.97026,0.162962
1696781869781250,-9.872388,-1.478525,0.362161,0.87206,0.104926,0.174262
1696781869789062,-9.915388,-1.480525,0.362161,0.123606,0.97026,0.185362
1696781869796875,-9.935388,-1.491525,0.371161,0.134406,0.99826,0.187062
1696781869804687,-9.925388,-1.515525,0.401161,0.153806,0.88026,0.188562
1696781869812500,-9.941388,-1.531525,0.391161,0.179906,0.79126,0.183862
1696781869820312,-10.11388,-1.519525,0.387161,0.204206,0.85126,0.190362
1696781869828125,-10.66388,-1.502525,0.387161,0.219406,0.64826,0.185362
1696781869835937,-10.66388,-1.514525,0.394161,0.225706,0.61026,0.183662
1696781869843750,-10.75388,-1.514525,0.389161,0.257906,0.55426,0.177462
1696781869851562,-10.125388,-1.504525,0.380161,0.271506,0.53626,0.175962
1696781869859375,-10.150388,-1.502525,0.394161,0.287006,0.43126,0.171062
1696781869867187,-10.132388,-1.497525,0.410161,0.296006,0.43526,0.166462
1696781869875000,-9.996388,-1.544525,0.403161,0.305506,0.30026,0.153562
1696781869882812,-9.864388,-1.565525,0.410161,0.322006,0.24926,0.152162
1696781869890625,-9.912388,-1.525525,0.435161,0.342206,0.26726,0.136562
1696781869898437,-9.987388,-1.477525,0.417161,0.340706,0.13426,0.133162
1696781869906250,-9.951388,-1.462525,0.378161,0.323606,0.23274,0.133762
1696781869914062,-9.878388,-1.496525,0.316161,0.317306,0.49974,0.133162
1696781869921875,-10.8388,-1.441525,0.246161,0.318906,0.58074,0.125162
1696781869929687,-10.275388,-1.325525,0.178161,0.309906,0.83074,0.118262
1696781869937500,-10.343388,-1.268525,0.32161,0.262106,0.140574,0.115262
1696781869945312,-10.234388,-1.312525,0.96839,0.225606,0.171474,0.104862
1696781869953125,-10.107388,-1.366525,0.160839,0.209006,0.189774,0.99562
1696781869960937,-10.44388,-1.340525,0.176839,0.195706,0.195674,0.78862
1696781869968750,-9.984388,-1.338525,0.208839,0.166506,0.207674,0.70662
1696781869976562,-9.856388,-1.386525,0.288839,0.129906,0.217574,0.51462
1696781869984375,-9.786388,-1.414525,0.400839,0.111806,0.225674,0.46462
1696781869992187,-9.766388,-1.381525,0.461839,0.110606,0.200174,0.39062
1696781870000000,-9.694388,-1.365525,0.486839,0.88306,0.179374,0.26662
1696781870007812,-9.585388,-1.371525,0.541839,0.74506,0.180274,0.20362
1696781870015625,-9.554388,-1.372525,0.593839,0.54806,0.166874,0.26762
1696781870023437,-9.600388,-1.351525,0.627839,0.39706,0.148074,0.27062
1696781870031250,-9.649388,-1.332525,0.616839,0.18206,0.140574,0.25562
1696781870039062,-9.576388,-1.344525,0.621839,0.2906,0.140274,0.28662
1696781870046875,-9.490388,-1.379525,0.614839,0.12194,0.130374,0.33362
1696781870054687,-9.463388,-1.408525,0.582839,0.19694,0.114874,0.30562
1696781870062500,-9.440388,-1.411525,0.520839,0.18094,0.96774,0.35562
1696781870070312,-9.467388,-1.397525,0.473839,0.25894,0.79974,0.46962
1696781870078125,-9.552388,-1.374525,0.470839,0.39494,0.68174,0.48562
1696781870085937,-9.633388,-1.370525,0.486839,0.45694,0.63174,0.54962
1696781870093750,-9.663388,-1.363525,0.488839,0.53094,0.47874,0.53662
1696781870101562,-9.704388,-1.345525,0.468839,0.62094,0.31074,0.53962
1696781870109375,-9.758388,-1.322525,0.452839,0.71494,0.20474,0.55762
1696781870117187,-9.810388,-1.298525,0.456839,0.76194,0.28474,0.52462
1696781870125000,-9.879388,-1.305525,0.454839,0.98694,0.21574,0.49262
1696781870132812,-9.949388,-1.321525,0.449839,0.98794,0.23274,0.52362
1696781870140625,-9.971388,-1.336525,0.404839,0.110894,0.926,0.49762
1696781870148437,-9.989388,-1.376525,0.347839,0.121494,0.2526,0.52762
1696781870156250,-9.974388,-1.416525,0.315839,0.124794,0.7626,0.57662
1696781870164062,-9.970388,-1.444525,0.288839,0.138294,0.25726,0.67262
1696781870171875,-9.951388,-1.497525,0.229839,0.144594,0.25626,0.75062
1696781870179687,-9.873388,-1.556525,0.170839,0.146294,0.33426,0.89362
1696781870187500,-9.760388,-1.638525,0.115839,0.152194,0.41326,0.98862
1696781870195312,-9.651388,-1.721525,0.47839,0.146594,0.63326,0.107362
1696781870203125,-9.551388,-1.778525,0.22161,0.144794,0.79826,0.109262
1696781870210937,-9.480388,-1.835525,0.77161,0.143294,0.81326,0.112362
1696781870218750,-9.495388,-1.868525,0.140161,0.121894,0.104926,0.106862
1696781870226562,-9.616388,-1.861525,0.213161,0.109294,0.117026,0.89862
1696781870234375,-9.736388,-1.846525,0.238161,0.95494,0.122526,0.77562
1696781870242187,-9.790388,-1.875525,0.250161,0.91894,0.122626,0.61762
1696781870250000,-9.801388,-1.885525,0.291161,0.63094,0.112526,0.53962
1696781870257812,-9.795388,-1.877525,0.325161,0.50494,0.122326,0.46362
1696781870265625,-9.857388,-1.814525,0.380161,0.36494,0.122826,0.29162
1696781870273437,-10.50388,-1.717525,0.405161,0.15094,0.106126,0.16462
1696781870281250,-10.142388,-1.661525,0.378161,0.11994,0.84226,0.9662
1696781870289062,-10.115388,-1.654525,0.355161,0.1294,0.74226,0.3262
1696781870296875,-10.56388,-1.674525,0.371161,0.12806,0.67026,0.3238
1696781870304687,-9.993388,-1.667525,0.394161,0.27806,0.59826,0.4562
1696781870312500,-9.993388,-1.629525,0.417161,0.39706,0.61126,0.12662
1696781870320312,-10.2388,-1.593525,0.392161,0.45506,0.50626,0.23462
1696781870328125,-10.25388,-1.567525,0.323161,0.40606,0.42826,0.46762
1696781870335937,-10.70388,-1.559525,0.271161,0.40106,0.21026,0.55862
1696781870343750,-10.84388,-1.554525,0.230161,0.36506,0.2026,0.74362
1696781870351562,-10.88388,-1.579525,0.162161,0.12006,0.26774,0.84462
1696781870359375,-10.56388,-1.610525,0.123161,0.2206,0.45374,0.99762
1696781870367187,-9.908388,-1.686525,0.73161,0.16194,0.67474,0.110162
1696781870375000,-9.750388,-1.780525,0.52161,0.25494,0.70674,0.114762
1696781870382812,-9.698388,-1.778525,0.47161,0.28694,0.69974,0.106962
1696781870390625,-9.737388,-1.760525,0.6161,0.41894,0.77474,0.83062
1696781870398437,-9.732388,-1.767525,0.63839,0.63194,0.91874,0.76362
1696781870406250,-9.700388,-1.798525,0.139839,0.70494,0.97674,0.55762
1696781870414062,-9.676388,-1.834525,0.171839,0.71994,0.91874,0.44962
1696781870421875,-9.661388,-1.846525,0.189839,0.69794,0.83174,0.23062
1696781870429687,-9.636388,-1.852525,0.191839,0.67794,0.83074,0.10362
1696781870437500,-9.663388,-1.849525,0.205839,0.69194,0.73974,0.438
1696781870445312,-9.697388,-1.864525,0.221839,0.64594,0.64074,0.1462
1696781870453125,-9.705388,-1.883525,0.219839,0.64794,0.65274,0.1638
1696781870460937,-9.717388,-1.899525,0.200839,0.60094,0.58974,0.0
1696781870468750,-9.696388,-1.905525,0.191839,0.48194,0.54174,0.8162
1696781870476562,-9.707388,-1.919525,0.155839,0.45094,0.51174,0.14462
1696781870484375,-9.773388,-1.920525,0.114839,0.40794,0.39874,0.27362
1696781870492187,-9.868388,-1.921525,0.86839,0.28694,0.40874,0.39962
1696781870500000,-9.911388,-1.918525,0.64839,0.22794,0.44874,0.54062
1696781870507812,-9.890388,-1.947525,0.80839,0.23194,0.58474,0.63262
1696781870515625,-9.858388,-1.981525,0.46839,0.21594,0.47274,0.72862
1696781870523437,-9.876388,-2.8525,0.5839,0.12794,0.56474,0.86862
1696781870531250,-9.844388,-2.28525,0.2839,0.18894,0.58074,0.88362
1696781870539062,-9.811388,-2.68525,0.21839,0.22394,0.61374,0.97762
1696781870546875,-9.818388,-2.82525,0.35839,0.20894,0.63374,0.102462
1696781870554687,-9.818388,-2.79525,0.55839,0.19294,0.69774,0.96062
1696781870562500,-9.816388,-2.82525,0.57839,0.16094,0.83674,0.94062
1696781870570312,-9.782388,-2.85525,0.100839,0.23594,0.98374,0.85862
1696781870578125,-9.746388,-2.87525,0.130839,0.25394,0.111274,0.80962
1696781870585937,-9.737388,-2.81525,0.132839,0.37294,0.110674,0.68262
1696781870593750,-9.730388,-2.59525,0.130839,0.41594,0.118474,0.53962
1696781870601562,-9.726388,-2.41525,0.185839,0.47694,0.124874,0.49062
1696781870609375,-9.759388,-2.10525,0.241839,0.64194,0.127974,0.42462
1696781870617187,-9.813388,-1.956525,0.273839,0.68694,0.133874,0.29862
1696781870625000,-9.782388,-1.945525,0.305839,0.77794,0.140174,0.23362
1696781870632812,-9.771388,-1.950525,0.323839,0.89694,0.137874,0.10762
1696781870640625,-9.760388,-1.939525,0.328839,0.81794,0.126074,0.3162
1696781870648437,-9.719388,-1.935525,0.355839,0.93994,0.122374,0.1562
1696781870656250,-9.703388,-1.976525,0.335839,0.104394,0.120874,0.4562
1696781870664062,-9.697388,-1.992525,0.340839,0.111094,0.104874,0.8262
1696781870671875,-9.699388,-2.18525,0.326839,0.101694,0.97374,0.14662
1696781870679687,-9.680388,-2.66525,0.312839,0.103394,0.78574,0.16662
1696781870687500,-9.694388,-2.86525,0.317839,0.95794,0.64274,0.31162
1696781870695312,-9.739388,-2.99525,0.287839,0.94394,0.48974,0.33162
1696781870703125,-9.766388,-2.121525,0.258839,0.95694,0.41174,0.37862
1696781870710937,-9.745388,-2.146525,0.246839,0.81894,0.29174,0.32062
1696781870718750,-9.702388,-2.164525,0.221839,0.71094,0.19074,0.26062
1696781870726562,-9.706388,-2.162525,0.185839,0.55694,0.12474,0.19962
1696781870734375,-9.763388,-2.152525,0.151839,0.41794,0.2926,0.9462
1696781870742187,-9.778388,-2.128525,0.137839,0.30794,0.4274,0.4462
1696781870750000,-9.803388,-2.96525,0.132839,0.20094,0.2326,0.3162
1696781870757812,-9.809388,-2.85525,0.126839,0.12394,0.2074,0.10938
1696781870765625,-9.814388,-2.58525,0.107839,0.4506,0.13874,0.20538
1696781870773437,-9.833388,-2.24525,0.110839,0.3006,0.10374,0.22038
1696781870781250,-9.845388,-1.984525,0.130839,0.2906,0.34274,0.19438
1696781870789062,-9.829388,-1.951525,0.164839,0.4406,0.44374,0.21238
1696781870796875,-9.782388,-1.947525,0.162839,0.2606,0.51274,0.11938
1696781870804687,-9.778388,-1.916525,0.141839,0.4406,0.44574,0.16538
1696781870812500,-9.792388,-1.858525,0.168839,0.15794,0.57874,0.5938
1696781870820312,-9.808388,-1.824525,0.200839,0.21794,0.59474,0.7538
1696781870828125,-9.809388,-1.802525,0.211839,0.32494,0.65674,0.12438
1696781870835937,-9.814388,-1.796525,0.220839,0.42894,0.68074,0.4938
1696781870843750,-9.804388,-1.791525,0.218839,0.49294,0.75474,0.12838
1696781870851562,-9.770388,-1.800525,0.237839,0.64694,0.80274,0.9838
1696781870859375,-9.775388,-1.809525,0.237839,0.72094,0.70074,0.11238
1696781870867187,-9.795388,-1.788525,0.257839,0.73894,0.79974,0.9838
1696781870875000,-9.781388,-1.802525,0.280839,0.90694,0.96574,0.8838
1696781870882812,-9.759388,-1.823525,0.307839,0.107294,0.94674,0.12038
1696781870890625,-9.754388,-1.838525,0.294839,0.119694,0.92674,0.7338
1696781870898437,-9.772388,-1.842525,0.314839,0.118194,0.94174,0.10438
1696781870906250,-9.808388,-1.827525,0.348839,0.133494,0.105874,0.6138
1696781870914062,-9.819388,-1.833525,0.382839,0.136494,0.102274,0.10838
1696781870921875,-9.794388,-1.869525,0.403839,0.144294,0.113974,0.4738
1696781870929687,-9.742388,-1.901525,0.403839,0.147494,0.121074,0.2862
1696781870937500,-9.724388,-1.906525,0.417839,0.151894,0.112574,0.1462
1696781870945312,-9.769388,-1.894525,0.428839,0.153694,0.114874,0.17062
1696781870953125,-9.739388,-1.908525,0.455839,0.150894,0.121574,0.20162
1696781870960937,-9.682388,-1.920525,0.460839,0.164594,0.119874,0.24762
1696781870968750,-9.655388,-1.918525,0.476839,0.149394,0.121974,0.26362
1696781870976562,-9.637388,-1.920525,0.483839,0.158594,0.114974,0.28062
1696781870984375,-9.635388,-1.929525,0.490839,0.144694,0.113474,0.23462
1696781870992187,-9.598388,-1.950525,0.508839,0.142994,0.101574,0.17462
1696781871000000,-9.550388,-1.983525,0.506839,0.144694,0.94074,0.11462
1696781871007812,-9.518388,-1.991525,0.504839,0.144294,0.89174,0.5162
1696781871015625,-9.518388,-1.987525,0.503839,0.142394,0.66974,0.6938
1696781871023437,-9.548388,-1.982525,0.506839,0.143794,0.73374,0.14938
1696781871031250,-9.598388,-1.968525,0.510839,0.142194,0.64574,0.22538
1696781871039062,-9.648388,-1.954525,0.517839,0.128294,0.72874,0.33638
1696781871046875,-9.709388,-1.937525,0.503839,0.118894,0.60974,0.42838
1696781871054687,-9.750388,-1.950525,0.467839,0.118694,0.49174,0.47338
1696781871062500,-9.777388,-1.948525,0.458839,0.109594,0.45974,0.45538
1696781871070312,-9.783388,-1.972525,0.444839,0.95794,0.20874,0.46438
1696781871078125,-9.767388,-1.996525,0.408839,0.92894,0.9074,0.42938
1696781871085937,-9.824388,-1.992525,0.360839,0.69594,0.15226,0.40838
1696781871093750,-9.865388,-1.982525,0.301839,0.52894,0.31426,0.32538
1696781871101562,-9.855388,-2.26525,0.239839,0.45394,0.43426,0.32138
1696781871109375,-9.887388,-2.50525,0.176839,0.25594,0.43826,0.19538
1696781871117187,-9.973388,-2.25525,0.144839,0.4906,0.59926,0.17338
1696781871125000,-10.35388,-2.525,0.77839,0.3506,0.62326,0.3338
1696781871132812,-10.44388,-2.6525,0.50839,0.16906,0.45326,0.438
1696781871140625,-9.987388,-1.988525,0.30839,0.25606,0.40026,0.10662
1696781871148437,-9.935388,-1.980525,0.7839,0.31806,0.38226,0.7462
1696781871156250,-9.881388,-1.967525,0.24161,0.45306,0.34626,0.12262
1696781871164062,-9.827388,-1.934525,0.44161,0.43806,0.26326,0.10462
1696781871171875,-9.785388,-1.912525,0.47161,0.41206,0.12326,0.5262
1696781871179687,-9.748388,-1.918525,0.24161,0.30406,0.13226,0.938
1696781871187500,-9.708388,-1.923525,0.2839,0.30306,0.2826,0.3462
1696781871195312,-9.692388,-1.890525,0.1161,0.33406,0.1974,0.2838
1696781871203125,-9.684388,-1.882525,0.4161,0.38206,0.7826,0.5838
1696781871210937,-9.668388,-1.891525,0.13161,0.30606,0.4626,0.4438
1696781871218750,-9.672388,-1.891525,0.13161,0.27606,0.10026,0.10538
1696781871226562,-9.712388,-1.890525,0.4839,0.27406,0.8826,0.13638
1696781871234375,-9.744388,-1.887525,0.31161,0.27506,0.24026,0.14838
1696781871242187,-9.792388,-1.889525,0.43161,0.27906,0.33926,0.17938
1696781871250000,-9.842388,-1.867525,0.70161,0.27706,0.34626,0.25638
1696781871257812,-9.890388,-1.856525,0.84161,0.28106,0.36326,0.33538
1696781871265625,-9.906388,-1.844525,0.84161,0.27806,0.22926,0.29038
1696781871273437,-9.923388,-1.851525,0.77161,0.27706,0.19626,0.29038
1696781871281250,-9.957388,-1.839525,0.86161,0.27506,0.14726,0.27538
1696781871289062,-9.940388,-1.840525,0.90161,0.21706,0.12826,0.29338
1696781871296875,-9.887388,-1.863525,0.88161,0.12506,0.1026,0.26538
1696781871304687,-9.844388,-1.876525,0.92161,0.3006,0.13774,0.22038
1696781871312500,-9.865388,-1.850525,0.61161,0.9306,0.19474,0.19138
1696781871320312,-9.902388,-1.825525,0.29161,0.4606,0.32674,0.21038
1696781871328125,-9.856388,-1.829525,0.9839,0.14194,0.57374,0.16838
1696781871335937,-9.844388,-1.821525,0.48839,0.23494,0.57274,0.12138
1696781871343750,-9.833388,-1.787525,0.80839,0.20294,0.64874,0.27938
1696781871351562,-9.752388,-1.789525,0.120839,0.38394,0.85274,0.27138
1696781871359375,-9.691388,-1.803525,0.136839,0.47594,0.94274,0.42938
1696781871367187,-9.745388,-1.771525,0.159839,0.42794,0.90974,0.47638
1696781871375000,-9.784388,-1.751525,0.195839,0.53394,0.92374,0.50838
1696781871382812,-9.705388,-1.765525,0.232839,0.68494,0.108774,0.57638
1696781871390625,-9.616388,-1.797525,0.244839,0.68694,0.98274,0.57338
1696781871398437,-9.590388,-1.817525,0.214839,0.60494,0.77574,0.52338
1696781871406250,-9.623388,-1.816525,0.164839,0.56094,0.62674,0.45738
1696781871414062,-9.711388,-1.812525,0.155839,0.62294,0.53974,0.43938
1696781871421875,-9.847388,-1.801525,0.164839,0.54994,0.55274,0.43738
1696781871429687,-9.961388,-1.782525,0.184839,0.45694,0.64674,0.37738
1696781871437500,-9.918388,-1.787525,0.180839,0.40094,0.71974,0.18938
1696781871445312,-9.860388,-1.855525,0.150839,0.46094,0.72474,0.12838
1696781871453125,-9.858388,-1.884525,0.109839,0.40294,0.71074,0.1638
1696781871460937,-9.840388,-1.852525,0.109839,0.40494,0.82974,0.4362
1696781871468750,-9.828388,-1.841525,0.130839,0.43694,0.91074,0.2662
1696781871476562,-9.845388,-1.848525,0.161839,0.43394,0.91474,0.962
1696781871484375,-9.858388,-1.812525,0.202839,0.26694,0.91374,0.3538
1696781871492187,-9.872388,-1.819525,0.209839,0.43294,0.102974,0.7138
1696781871500000,-9.856388,-1.853525,0.234839,0.41794,0.102574,0.13338
1696781871507812,-9.792388,-1.880525,0.273839,0.41794,0.100774,0.14838
1696781871515625,-9.709388,-1.917525,0.273839,0.44794,0.98374,0.24138
1696781871523437,-9.687388,-1.971525,0.232839,0.24394,0.90774,0.31938
1696781871531250,-9.659388,-1.969525,0.205839,0.21394,0.64874,0.40638
1696781871539062,-9.630388,-1.956525,0.212839,0.17994,0.52774,0.51438
1696781871546875,-9.607388,-1.992525,0.189839,0.3606,0.43174,0.55838
1696781871554687,-9.652388,-1.987525,0.153839,0.26706,0.27774,0.69438
1696781871562500,-9.766388,-1.945525,0.107839,0.52706,0.12974,0.73638
1696781871570312,-9.798388,-1.895525,0.125839,0.52406,0.21174,0.70538
1696781871578125,-9.803388,-1.877525,0.121839,0.54106,0.9474,0.70338
1696781871585937,-9.860388,-1.879525,0.73839,0.77106,0.4326,0.60638
1696781871593750,-9.920388,-1.823525,0.38839,0.84606,0.2874,0.52838
1696781871601562,-9.902388,-1.782525,0.11839,0.76806,0.6174,0.46638
1696781871609375,-9.927388,-1.768525,0.0,0.90206,0.21374,0.45238
1696781871617187,-10.22388,-1.704525,0.13161,0.102306,0.18474,0.38738
1696781871625000,-10.14388,-1.671525,0.29161,0.102306,0.25574,0.35838
1696781871632812,-9.917388,-1.677525,0.41161,0.96106,0.49274,0.30138
1696781871640625,-9.878388,-1.661525,0.61161,0.100206,0.40874,0.20338
1696781871648437,-9.879388,-1.624525,0.79161,0.103406,0.39474,0.20438
1696781871656250,-9.856388,-1.600525,0.61161,0.100306,0.51174,0.20638
1696781871664062,-9.877388,-1.595525,0.20161,0.97106,0.59574,0.17738
1696781871671875,-9.918388,-1.579525,0.36839,0.85206,0.61174,0.22638
1696781871679687,-9.902388,-1.557525,0.113839,0.74106,0.86074,0.16838
1696781871687500,-9.850388,-1.594525,0.134839,0.55606,0.101374,0.6338
1696781871695312,-9.883388,-1.601525,0.163839,0.38506,0.107374,0.4938
1696781871703125,-9.972388,-1.579525,0.202839,0.29506,0.121574,0.2462
1696781871710937,-9.952388,-1.559525,0.288839,0.12606,0.132974,0.3662
1696781871718750,-9.875388,-1.569525,0.393839,0.18094,0.143574,0.1438
1696781871726562,-9.788388,-1.592525,0.423839,0.27194,0.147874,0.10938
1696781871734375,-9.704388,-1.600525,0.453839,0.32894,0.144174,0.23538
1696781871742187,-9.641388,-1.594525,0.434839,0.43194,0.146474,0.45638
1696781871750000,-9.655388,-1.570525,0.455839,0.44494,0.137274,0.61138
1696781871757812,-9.680388,-1.549525,0.498839,0.48794,0.132774,0.82938
1696781871765625,-9.666388,-1.526525,0.562839,0.67094,0.127874,0.100138
1696781871773437,-9.624388,-1.528525,0.598839,0.69394,0.119974,0.109638
1696781871781250,-9.653388,-1.529525,0.592839,0.69494,0.105574,0.120138
1696781871789062,-9.696388,-1.495525,0.587839,0.67994,0.98874,0.116838
1696781871796875,-9.712388,-1.491525,0.594839,0.77094,0.100774,0.110738
1696781871804687,-9.727388,-1.524525,0.607839,0.97294,0.96074,0.91938
1696781871812500,-9.779388,-1.568525,0.605839,0.93094,0.91774,0.71338
1696781871820312,-9.810388,-1.574525,0.603839,0.88894,0.79274,0.45838
1696781871828125,-9.781388,-1.590525,0.569839,0.93894,0.66974,0.15838
1696781871835937,-9.741388,-1.625525,0.512839,0.95894,0.66774,0.4638
1696781871843750,-9.705388,-1.652525,0.501839,0.96294,0.57874,0.23762
1696781871851562,-9.653388,-1.695525,0.469839,0.86794,0.55774,0.31462
1696781871859375,-9.637388,-1.721525,0.439839,0.69994,0.39674,0.39762
1696781871867187,-9.654388,-1.768525,0.394839,0.71694,0.27774,0.44862
1696781871875000,-9.725388,-1.772525,0.360839,0.50194,0.13574,0.49862
1696781871882812,-9.811388,-1.759525,0.353839,0.45794,0.22274,0.56062
1696781871890625,-9.845388,-1.761525,0.401839,0.47394,0.33774,0.54262
1696781871898437,-9.874388,-1.780525,0.394839,0.35194,0.32374,0.54362
1696781871906250,-9.910388,-1.795525,0.362839,0.20194,0.41074,0.57462
1696781871914062,-9.910388,-1.771525,0.337839,0.18694,0.44674,0.62062
1696781871921875,-9.890388,-1.798525,0.328839,0.21694,0.56874,0.64862
1696781871929687,-9.898388,-1.809525,0.328839,0.14094,0.51374,0.58862
1696781871937500,-9.916388,-1.825525,0.332839,0.1306,0.60174,0.53962
1696781871945312,-9.918388,-1.837525,0.319839,0.3906,0.61574,0.58862
1696781871953125,-9.887388,-1.843525,0.303839,0.5706,0.51974,0.60462
1696781871960937,-9.841388,-1.848525,0.319839,0.19206,0.57674,0.69862
1696781871968750,-9.826388,-1.862525,0.307839,0.20906,0.47974,0.71562
1696781871976562,-9.832388,-1.865525,0.266839,0.29906,0.44574,0.73362
1696781871984375,-9.843388,-1.856525,0.255839,0.35906,0.38274,0.81362
1696781871992187,-9.835388,-1.857525,0.246839,0.31506,0.31574,0.79962
1696781872000000,-9.805388,-1.870525,0.241839,0.25406,0.28074,0.79962
1696781872007812,-9.812388,-1.870525,0.223839,0.27206,0.17574,0.70762
1696781872015625,-9.839388,-1.843525,0.200839,0.36306,0.14474,0.72462
1696781872023437,-9.864388,-1.807525,0.207839,0.30306,0.15674,0.64562
1696781872031250,-9.855388,-1.813525,0.214839,0.25606,0.13274,0.56862
1696781872039062,-9.812388,-1.805525,0.235839,0.25806,0.18174,0.51962
1696781872046875,-9.819388,-1.790525,0.214839,0.25906,0.16374,0.45662
1696781872054687,-9.842388,-1.778525,0.209839,0.18206,0.27874,0.43862
1696781872062500,-9.760388,-1.792525,0.203839,0.4506,0.42674,0.40262
1696781872070312,-9.631388,-1.839525,0.219839,0.3106,0.40774,0.34062
1696781872078125,-9.644388,-1.827525,0.205839,0.2794,0.30374,0.29462
1696781872085937,-9.726388,-1.781525,0.196839,0.12194,0.38174,0.27762
1696781872093750,-9.795388,-1.772525,0.221839,0.22594,0.42974,0.18062
1696781872101562,-9.856388,-1.758525,0.264839,0.28594,0.58174,0.17662
1696781872109375,-9.869388,-1.755525,0.319839,0.37994,0.65274,0.6662
1696781872117187,-9.857388,-1.741525,0.328839,0.49694,0.74074,0.3062
1696781872125000,-9.807388,-1.730525,0.339839,0.48194,0.87474,0.438
1696781872132812,-9.759388,-1.713525,0.350839,0.64994,0.108174,0.15038
1696781872140625,-9.735388,-1.698525,0.350839,0.70794,0.116674,0.23238
1696781872148437,-9.769388,-1.684525,0.389839,0.69494,0.118074,0.21538
1696781872156250,-9.775388,-1.665525,0.439839,0.74594,0.129174,0.20038
1696781872164062,-9.806388,-1.655525,0.446839,0.75594,0.129874,0.21938
1696781872171875,-9.839388,-1.683525,0.453839,0.83594,0.129974,0.7738
1696781872179687,-9.827388,-1.726525,0.494839,0.96094,0.137174,0.10862
1696781872187500,-9.826388,-1.763525,0.517839,0.95094,0.136074,0.31362
1696781872195312,-9.833388,-1.788525,0.526839,0.96594,0.131774,0.42362
1696781872203125,-9.808388,-1.838525,0.533839,0.95394,0.130874,0.62862
1696781872210937,-9.789388,-1.876525,0.542839,0.101494,0.124674,0.73862
1696781872218750,-9.807388,-1.907525,0.560839,0.98594,0.121874,0.86462
1696781872226562,-9.806388,-1.942525,0.572839,0.95994,0.123474,0.94462
1696781872234375,-9.783388,-1.972525,0.595839,0.94294,0.125274,0.92762
1696781872242187,-9.753388,-2.15525,0.608839,0.77494,0.115974,0.99362
1696781872250000,-9.732388,-2.41525,0.620839,0.71594,0.112174,0.96462
1696781872257812,-9.702388,-2.73525,0.625839,0.73194,0.109074,0.102762
1696781872265625,-9.698388,-2.96525,0.629839,0.71194,0.90974,0.99862
1696781872273437,-9.680388,-2.96525,0.636839,0.66494,0.82374,0.93862
1696781872281250,-9.652388,-2.128525,0.615839,0.52594,0.73974,0.86262
1696781872289062,-9.586388,-2.167525,0.609839,0.49394,0.63774,0.80162
1696781872296875,-9.666388,-2.130525,0.584839,0.41494,0.43174,0.69762
1696781872304687,-9.750388,-2.75525,0.558839,0.35294,0.34174,0.57462
1696781872312500,-9.650388,-2.119525,0.568839,0.39694,0.30874,0.55862
1696781872320312,-9.613388,-2.159525,0.506839,0.28894,0.17274,0.49962
1696781872328125,-9.675388,-2.133525,0.452839,0.8894,0.10926,0.49162
1696781872335937,-9.739388,-2.109525,0.379839,0.13694,0.15526,0.38462
1696781872343750,-9.790388,-2.114525,0.349839,0.23894,0.5326,0.30062
1696781872351562,-9.860388,-2.113525,0.354839,0.2594,0.6526,0.31862
1696781872359375,-9.913388,-2.94525,0.335839,0.606,0.6726,0.23962
1696781872367187,-9.947388,-2.65525,0.292839,0.2306,0.8126,0.23962
1696781872375000,-9.949388,-2.62525,0.244839,0.3606,0.126,0.22362
1696781872382812,-9.950388,-2.51525,0.219839,0.2106,0.0,0.20762
1696781872390625,-9.981388,-2.19525,0.199839,0.3506,0.4774,0.22262
1696781872398437,-9.986388,-2.5525,0.187839,0.1906,0.14674,0.18962
1696781872406250,-9.964388,-2.9525,0.198839,0.11406,0.14974,0.10962
1696781872414062,-9.895388,-2.11525,0.194839,0.12706,0.32974,0.6062
1696781872421875,-9.825388,-2.25525,0.187839,0.26306,0.29674,0.6262
1696781872429687,-9.794388,-1.995525,0.203839,0.25106,0.30074,0.4562
1696781872437500,-9.742388,-1.984525,0.205839,0.26406,0.38074,0.2862
1696781872445312,-9.758388,-1.951525,0.235839,0.28006,0.53774,0.5662
1696781872453125,-9.787388,-1.907525,0.260839,0.12906,0.65474,0.3562
1696781872460937,-9.771388,-1.877525,0.298839,0.3506,0.76674,0.3362
1696781872468750,-9.784388,-1.861525,0.328839,0.3406,0.81374,0.262
1696781872476562,-9.792388,-1.819525,0.367839,0.10394,0.106574,0.438
1696781872484375,-9.758388,-1.804525,0.419839,0.23894,0.117474,0.14938
1696781872492187,-9.690388,-1.810525,0.455839,0.40494,0.128874,0.21638
1696781872500000,-9.660388,-1.803525,0.496839,0.48394,0.136674,0.21738
1696781872507812,-9.639388,-1.780525,0.530839,0.58694,0.138374,0.28238
1696781872515625,-9.600388,-1.782525,0.565839,0.74094,0.139574,0.28338
1696781872523437,-9.581388,-1.805525,0.610839,0.87594,0.135074,0.44038
1696781872531250,-9.593388,-1.794525,0.665839,0.95094,0.137274,0.39538
1696781872539062,-9.607388,-1.797525,0.708839,0.98094,0.133974,0.37938
1696781872546875,-9.613388,-1.825525,0.711839,0.116794,0.131874,0.26838
1696781872554687,-9.620388,-1.841525,0.729839,0.118294,0.136274,0.12938
1696781872562500,-9.655388,-1.853525,0.749839,0.130994,0.129374,0.2962
1696781872570312,-9.680388,-1.871525,0.777839,0.143594,0.127974,0.20162
1696781872578125,-9.689388,-1.902525,0.797839,0.143594,0.130474,0.31062
1696781872585937,-9.741388,-1.915525,0.804839,0.159194,0.137274,0.44962
1696781872593750,-9.754388,-1.939525,0.818839,0.171594,0.137274,0.55962
1696781872601562,-9.729388,-1.987525,0.843839,0.168294,0.139574,0.57362
1696781872609375,-9.703388,-2.43525,0.850839,0.171794,0.139774,0.71462
1696781872617187,-9.648388,-2.75525,0.868839,0.174894,0.143474,0.79262
1696781872625000,-9.620388,-2.99525,0.893839,0.182694,0.138074,0.80962
1696781872632812,-9.636388,-2.129525,0.907839,0.191694,0.139874,0.80762
1696781872640625,-9.583388,-2.156525,0.937839,0.194994,0.141174,0.80862
1696781872648437,-9.507388,-2.204525,0.964839,0.194594,0.143374,0.80562
1696781872656250,-9.458388,-2.232525,0.971839,0.194594,0.129674,0.77762
1696781872664062,-9.449388,-2.238525,0.987839,0.194694,0.114174,0.78262
1696781872671875,-9.469388,-2.226525,0.989839,0.194494,0.105274,0.67462
1696781872679687,-9.476388,-2.236525,0.996839,0.192394,0.81474,0.52162
1696781872687500,-9.417388,-2.252525,1.12839,0.193794,0.71574,0.53862
1696781872695312,-9.419388,-2.247525,0.994839,0.189194,0.50774,0.45062
1696781872703125,-9.561388,-2.215525,0.953839,0.168594,0.19074,0.28462
1696781872710937,-9.681388,-2.168525,0.934839,0.168694,0.1674,0.27362
1696781872718750,-9.671388,-2.213525,0.923839,0.175994,0.8626,0.18062
1696781872726562,-9.675388,-2.277525,0.875839,0.162394,0.35826,0.17262
1696781872734375,-9.752388,-2.258525,0.784839,0.137894,0.61426,0.30462
1696781872742187,-9.804388,-2.246525,0.730839,0.128694,0.69726,0.30762
1696781872750000,-9.786388,-2.291525,0.673839,0.127394,0.76126,0.40362
1696781872757812,-9.746388,-2.344525,0.627839,0.109194,0.90326,0.54962
1696781872765625,-9.737388,-2.373525,0.557839,0.92494,0.118626,0.60362
1696781872773437,-9.773388,-2.406525,0.461839,0.71294,0.134326,0.74962
1696781872781250,-9.849388,-2.418525,0.393839,0.46894,0.148626,0.84862
1696781872789062,-9.849388,-2.445525,0.391839,0.45494,0.143526,0.86362
1696781872796875,-9.806388,-2.488525,0.395839,0.22694,0.139326,0.94262
1696781872804687,-9.799388,-2.506525,0.359839,0.2694,0.130226,0.90962
1696781872812500,-9.797388,-2.490525,0.304839,0.12506,0.120226,0.83062
1696781872820312,-9.770388,-2.455525,0.254839,0.23206,0.95626,0.65362
1696781872828125,-9.727388,-2.440525,0.256839,0.23406,0.84226,0.54062
1696781872835937,-9.698388,-2.398525,0.265839,0.26806,0.83226,0.33662
1696781872843750,-9.694388,-2.356525,0.247839,0.45606,0.75326,0.8462
1696781872851562,-9.672388,-2.311525,0.215839,0.53406,0.76426,0.16538
1696781872859375,-9.641388,-2.274525,0.204839,0.55306,0.70926,0.21538
1696781872867187,-9.653388,-2.225525,0.194839,0.58606,0.65026,0.42038
1696781872875000,-9.688388,-2.191525,0.174839,0.61906,0.76526,0.41838
1696781872882812,-9.706388,-2.146525,0.162839,0.61806,0.73826,0.49638
1696781872890625,-9.727388,-2.112525,0.139839,0.64806,0.80326,0.44738
1696781872898437,-9.725388,-2.90525,0.112839,0.51006,0.78826,0.41738
1696781872906250,-9.737388,-2.70525,0.82839,0.58706,0.86726,0.36838
1696781872914062,-9.764388,-2.55525,0.67839,0.53906,0.90326,0.35138
1696781872921875,-9.803388,-2.36525,0.34839,0.51006,0.87926,0.25938
1696781872929687,-9.841388,-2.23525,0.23839,0.50306,0.78026,0.13338
1696781872937500,-9.844388,-2.28525,0.5839,0.33706,0.67726,0.10638
1696781872945312,-9.869388,-2.50525,0.17161,0.32006,0.75626,0.5162
1696781872953125,-9.891388,-2.65525,0.42161,0.36406,0.73226,0.17662
1696781872960937,-9.897388,-2.92525,0.53161,0.32906,0.57926,0.28462
1696781872968750,-9.867388,-2.134525,0.51161,0.23506,0.47726,0.37562
1696781872976562,-9.801388,-2.178525,0.48161,0.29406,0.35226,0.49862
1696781872984375,-9.765388,-2.212525,0.57161,0.23206,0.36726,0.57762
1696781872992187,-9.767388,-2.180525,0.71161,0.27606,0.16626,0.55762
1696781873000000,-9.760388,-2.160525,0.33161,0.15206,0.10074,0.56662
1696781873007812,-9.774388,-2.151525,0.10839,0.4794,0.27874,0.54662
1696781873015625,-9.762388,-2.160525,0.58839,0.1506,0.40874,0.38762
1696781873023437,-9.756388,-2.147525,0.60839,0.16394,0.45374,0.24262
1696781873031250,-9.777388,-2.106525,0.85839,0.22694,0.59574,0.16262
1696781873039062,-9.759388,-2.87525,0.114839,0.57594,0.71974,0.4662
1696781873046875,-9.705388,-2.103525,0.167839,0.72494,0.83174,0.8238
1696781873054687,-9.671388,-2.95525,0.212839,0.72394,0.94574,0.19538
1696781873062500,-9.646388,-2.80525,0.233839,0.90494,0.93974,0.27538
1696781873070312,-9.624388,-2.74525,0.244839,0.108594,0.100374,0.32538
1696781873078125,-9.669388,-2.55525,0.262839,0.127094,0.96074,0.35638
1696781873085937,-9.703388,-2.34525,0.315839,0.139194,0.93574,0.45038
1696781873093750,-9.710388,-2.37525,0.342839,0.151294,0.105774,0.40738
1696781873101562,-9.725388,-2.65525,0.356839,0.176094,0.115074,0.34738
1696781873109375,-9.752388,-2.92525,0.365839,0.185394,0.115374,0.25438
1696781873117187,-9.752388,-2.121525,0.367839,0.189894,0.119074,0.19338
1696781873125000,-9.742388,-2.164525,0.381839,0.193094,0.114074,0.12938
1696781873132812,-9.721388,-2.204525,0.395839,0.193394,0.128074,0.638
1696781873140625,-9.718388,-2.226525,0.420839,0.192194,0.113174,0.12362
1696781873148437,-9.737388,-2.247525,0.420839,0.188894,0.112474,0.20062
1696781873156250,-9.771388,-2.262525,0.431839,0.169294,0.118074,0.27962
1696781873164062,-9.807388,-2.266525,0.454839,0.170894,0.119674,0.27962
1696781873171875,-9.783388,-2.299525,0.468839,0.169494,0.121374,0.31062
1696781873179687,-9.742388,-2.322525,0.479839,0.169494,0.116574,0.34362
1696781873187500,-9.740388,-2.345525,0.472839,0.151194,0.108674,0.37762
1696781873195312,-9.736388,-2.336525,0.475839,0.143394,0.103374,0.28462
1696781873203125,-9.699388,-2.354525,0.486839,0.138994,0.97174,0.39662
1696781873210937,-9.687388,-2.370525,0.493839,0.123594,0.101674,0.22462
1696781873218750,-9.669388,-2.354525,0.500839,0.114194,0.90074,0.17962
1696781873226562,-9.673388,-2.346525,0.475839,0.97594,0.70674,0.7762
1696781873234375,-9.672388,-2.341525,0.457839,0.87894,0.62874,0.0
1696781873242187,-9.661388,-2.345525,0.447839,0.70794,0.56074,0.12438
1696781873250000,-9.663388,-2.332525,0.445839,0.58494,0.52874,0.16938
1696781873257812,-9.674388,-2.307525,0.425839,0.40094,0.36074,0.21138
1696781873265625,-9.684388,-2.282525,0.381839,0.33694,0.30374,0.39838
1696781873273437,-9.719388,-2.245525,0.338839,0.14894,0.9374,0.42538
1696781873281250,-9.769388,-2.205525,0.331839,0.3306,0.12174,0.54938
1696781873289062,-9.804388,-2.139525,0.301839,0.2206,0.19174,0.61538
1696781873296875,-9.843388,-2.68525,0.278839,0.18906,0.8774,0.65838
1696781873304687,-9.860388,-1.988525,0.262839,0.29706,0.14174,0.69038
1696781873312500,-9.852388,-1.919525,0.228839,0.28106,0.17574,0.69138
1696781873320312,-9.880388,-1.870525,0.193839,0.29906,0.19274,0.73938
1696781873328125,-9.890388,-1.782525,0.177839,0.28306,0.15374,0.78438
1696781873335937,-9.906388,-1.741525,0.200839,0.18606,0.31574,0.75538
1696781873343750,-9.913388,-1.712525,0.202839,0.11006,0.48574,0.72938
1696781873351562,-9.893388,-1.682525,0.207839,0.3406,0.48674,0.69838
1696781873359375,-9.884388,-1.657525,0.209839,0.1806,0.55174,0.71538
1696781873367187,-9.892388,-1.608525,0.216839,0.13794,0.60074,0.60638
1696781873375000,-9.906388,-1.572525,0.245839,0.34894,0.66474,0.67338
1696781873382812,-9.872388,-1.575525,0.295839,0.59294,0.87774,0.69538
1696781873390625,-9.838388,-1.574525,0.325839,0.65494,0.94574,0.65038
1696781873398437,-9.850388,-1.571525,0.345839,0.80694,0.104274,0.70138
1696781873406250,-9.831388,-1.583525,0.348839,0.106694,0.110274,0.73538
1696781873414062,-9.784388,-1.581525,0.405839,0.115794,0.128374,0.78638
1696781873421875,-9.709388,-1.598525,0.459839,0.133994,0.134474,0.86838
1696781873429687,-9.693388,-1.596525,0.469839,0.153794,0.133674,0.93138
1696781873437500,-9.718388,-1.609525,0.475839,0.159694,0.139874,0.104338
1696781873445312,-9.722388,-1.620525,0.519839,0.174994,0.159574,0.109538
1696781873453125,-9.699388,-1.620525,0.589839,0.193594,0.160974,0.100238
1696781873460937,-9.643388,-1.653525,0.626839,0.190294,0.160074,0.95638
1696781873468750,-9.626388,-1.706525,0.610839,0.190594,0.146774,0.84238
1696781873476562,-9.675388,-1.734525,0.587839,0.189494,0.143674,0.68338
1696781873484375,-9.700388,-1.766525,0.601839,0.207894,0.142574,0.51338
1696781873492187,-9.751388,-1.803525,0.633839,0.210994,0.142774,0.46638
1696781873500000,-9.803388,-1.845525,0.654839,0.211294,0.151574,0.34238
1696781873507812,-9.805388,-1.887525,0.663839,0.208594,0.154074,0.17038
1696781873515625,-9.763388,-1.930525,0.649839,0.190394,0.163174,0.9238
1696781873523437,-9.722388,-1.977525,0.647839,0.195194,0.163174,0.1338
1696781873531250,-9.733388,-2.24525,0.652839,0.190894,0.170674,0.12662
1696781873539062,-9.755388,-2.51525,0.652839,0.187694,0.164474,0.18962
1696781873546875,-9.734388,-2.81525,0.670839,0.182094,0.172874,0.25262
1696781873554687,-9.684388,-2.118525,0.711839,0.169894,0.173374,0.30062
1696781873562500,-9.726388,-2.117525,0.704839,0.169994,0.166674,0.33362
1696781873570312,-9.710388,-2.171525,0.736839,0.168794,0.176874,0.41062
1696781873578125,-9.627388,-2.239525,0.769839,0.170494,0.180274,0.45762
1696781873585937,-9.659388,-2.250525,0.787839,0.168694,0.172474,0.50462
1696781873593750,-9.693388,-2.258525,0.814839,0.170494,0.174174,0.56762
1696781873601562,-9.670388,-2.310525,0.837839,0.174794,0.175874,0.51862
1696781873609375,-9.592388,-2.365525,0.867839,0.171794,0.175774,0.50362
1696781873617187,-9.485388,-2.413525,0.894839,0.170094,0.173674,0.41062
1696781873625000,-9.482388,-2.453525,0.926839,0.172894,0.168074,0.26962
1696781873632812,-9.547388,-2.488525,0.912839,0.170994,0.160874,0.12962
1696781873640625,-9.515388,-2.490525,0.928839,0.167694,0.151574,0.7138
1696781873648437,-9.461388,-2.514525,0.954839,0.168894,0.150974,0.24438
1696781873656250,-9.445388,-2.516525,0.954839,0.168394,0.141674,0.47838
1696781873664062,-9.404388,-2.510525,0.983839,0.152794,0.151074,0.74638
1696781873671875,-9.373388,-2.484525,0.997839,0.141694,0.138474,0.99338
1696781873679687,-9.440388,-2.385525,0.999839,0.124294,0.135874,0.132238
1696781873687500,-9.652388,-2.259525,1.28839,0.117794,0.128174,0.157038
1696781873695312,-9.821388,-2.206525,1.73839,0.115694,0.134674,0.177738
1696781873703125,-9.857388,-2.188525,1.76839,0.117194,0.128774,0.188538
1696781873710937,-9.829388,-2.188525,1.55839,0.105094,0.115674,0.185038
1696781873718750,-9.770388,-2.227525,1.26839,0.86694,0.89574,0.176538
1696781873726562,-9.823388,-2.204525,0.950839,0.67994,0.56874,0.171138
1696781873734375,-9.928388,-2.151525,0.909839,0.39194,0.34674,0.153138
1696781873742187,-10.26388,-2.112525,0.893839,0.40994,0.28174,0.142038
1696781873750000,-10.96388,-2.97525,0.873839,0.22994,0.23774,0.129138
1696781873757812,-10.74388,-2.82525,0.859839,0.4506,0.9774,0.120938
1696781873765625,-10.53388,-2.53525,0.813839,0.11906,0.9974,0.114538
1696781873773437,-10.36388,-2.29525,0.727839,0.28906,0.9174,0.112938
1696781873781250,-9.957388,-2.12525,0.711839,0.28606,0.926,0.103238
1696781873789062,-9.839388,-1.994525,0.715839,0.33406,0.12274,0.116038
1696781873796875,-9.730388,-1.972525,0.718839,0.44006,0.6874,0.120438
1696781873804687,-9.675388,-1.931525,0.674839,0.57906,0.826,0.118738
1696781873812500,-9.594388,-1.905525,0.642839,0.64106,0.2526,0.121838
1696781873820312,-9.510388,-1.891525,0.629839,0.76606,0.7726,0.135838
1696781873828125,-9.474388,-1.880525,0.635839,0.76806,0.19926,0.144938
1696781873835937,-9.463388,-1.849525,0.615839,0.81306,0.26626,0.143138
1696781873843750,-9.477388,-1.795525,0.578839,0.95406,0.46726,0.152038
1696781873851562,-9.518388,-1.756525,0.531839,0.93906,0.49026,0.161438
1696781873859375,-9.550388,-1.745525,0.519839,0.98606,0.59126,0.164238
1696781873867187,-9.598388,-1.693525,0.501839,0.103206,0.60926,0.168938
1696781873875000,-9.650388,-1.635525,0.485839,0.103406,0.65526,0.165838
1696781873882812,-9.697388,-1.622525,0.464839,0.104606,0.64226,0.164138
1696781873890625,-9.756388,-1.597525,0.439839,0.103206,0.68626,0.156238
1696781873898437,-9.813388,-1.565525,0.425839,0.104606,0.68326,0.149938
1696781873906250,-9.836388,-1.547525,0.439839,0.86206,0.54926,0.144138
1696781873914062,-9.888388,-1.544525,0.423839,0.95206,0.58426,0.143938
1696781873921875,-9.920388,-1.523525,0.414839,0.90406,0.53126,0.134638
1696781873929687,-9.936388,-1.516525,0.421839,0.82506,0.44426,0.122338
1696781873937500,-9.966388,-1.514525,0.409839,0.76406,0.40626,0.114638
1696781873945312,-9.965388,-1.493525,0.425839,0.72906,0.40726,0.101938
1696781873953125,-9.948388,-1.501525,0.436839,0.54706,0.28626,0.96138
1696781873960937,-9.927388,-1.503525,0.432839,0.45206,0.20026,0.83838
1696781873968750,-9.914388,-1.479525,0.452839,0.34506,0.21926,0.82238
1696781873976562,-9.925388,-1.483525,0.457839,0.20606,0.22026,0.76038
1696781873984375,-9.884388,-1.509525,0.455839,0.5506,0.12126,0.78038
1696781873992187,-9.821388,-1.525525,0.457839,0.11294,0.6026,0.82938
1696781874000000,-9.818388,-1.556525,0.434839,0.18894,0.15926,0.76538
1696781874007812,-9.820388,-1.572525,0.411839,0.15694,0.14126,0.81338
1696781874015625,-9.809388,-1.583525,0.405839,0.29494,0.19426,0.76538
1696781874023437,-9.819388,-1.621525,0.380839,0.41894,0.41526,0.68238
1696781874031250,-9.828388,-1.666525,0.334839,0.35594,0.42326,0.62038
1696781874039062,-9.848388,-1.680525,0.293839,0.22094,0.40626,0.58738
1696781874046875,-9.875388,-1.714525,0.252839,0.22094,0.50426,0.55438
1696781874054687,-9.906388,-1.724525,0.230839,0.26694,0.54026,0.55338
1696781874062500,-9.879388,-1.749525,0.184839,0.20594,0.47826,0.66338
1696781874070312,-9.845388,-1.734525,0.191839,0.906,0.33826,0.69738
1696781874078125,-9.911388,-1.739525,0.159839,0.3906,0.49126,0.69338
1696781874085937,-9.909388,-1.710525,0.91839,0.17806,0.47026,0.72438
1696781874093750,-9.910388,-1.677525,0.86839,0.31706,0.39926,0.77338
1696781874101562,-9.950388,-1.672525,0.56839,0.31506,0.35226,0.78938
1696781874109375,-9.910388,-1.666525,0.61839,0.50006,0.23526,0.91638
1696781874117187,-9.883388,-1.632525,0.50839,0.68206,0.16526,0.91638
1696781874125000,-9.922388,-1.571525,0.20839,0.80306,0.5374,0.96638
1696781874132812,-9.989388,-1.504525,0.49839,0.83306,0.19074,0.93838
1696781874140625,-10.64388,-1.470525,0.29839,0.77006,0.29874,0.78438
1696781874148437,-9.987388,-1.422525,0.85839,0.78306,0.65074,0.80738
1696781874156250,-9.958388,-1.400525,0.167839,0.76506,0.93674,0.79838
1696781874164062,-9.920388,-1.380525,0.154839,0.65506,0.106774,0.73738
1696781874171875,-9.909388,-1.376525,0.206839,0.64106,0.120774,0.71038
1696781874179687,-9.975388,-1.331525,0.252839,0.51806,0.133774,0.72938
1696781874187500,-9.982388,-1.293525,0.370839,0.37906,0.165674,0.72238
1696781874195312,-10.1388,-1.271525,0.436839,0.28606,0.173774,0.70838
1696781874203125,-9.953388,-1.254525,0.474839,0.13406,0.193674,0.72938
1696781874210937,-9.845388,-1.278525,0.518839,0.3394,0.220374,0.76838
1696781874218750,-9.785388,-1.278525,0.582839,0.18894,0.229874,0.73938
1696781874226562,-9.781388,-1.249525,0.659839,0.29594,0.232674,0.80338
1696781874234375,-9.772388,-1.261525,0.716839,0.59994,0.238374,0.90038
1696781874242187,-9.765388,-1.246525,0.775839,0.70394,0.243174,0.98138
1696781874250000,-9.776388,-1.229525,0.853839,0.79694,0.251674,0.117038
1696781874257812,-9.833388,-1.213525,0.900839,0.105294,0.249174,0.128238
1696781874265625,-9.854388,-1.220525,0.946839,0.118594,0.258474,0.149038
1696781874273437,-9.810388,-1.243525,1.30839,0.135494,0.273074,0.150938
1696781874281250,-9.815388,-1.261525,1.53839,0.148994,0.267274,0.161938
1696781874289062,-9.828388,-1.265525,1.85839,0.157894,0.263074,0.177538
1696781874296875,-9.832388,-1.249525,1.112839,0.171794,0.260874,0.175938
1696781874304687,-9.840388,-1.245525,1.155839,0.171294,0.251274,0.177538
1696781874312500,-9.862388,-1.261525,1.199839,0.183494,0.242674,0.175838
1696781874320312,-9.884388,-1.267525,1.217839,0.186894,0.232474,0.167638
1696781874328125,-9.880388,-1.296525,1.244839,0.189894,0.217874,0.156438
1696781874335937,-9.845388,-1.337525,1.229839,0.191394,0.197774,0.152838
1696781874343750,-9.799388,-1.359525,1.224839,0.190094,0.189474,0.144738
1696781874351562,-9.758388,-1.398525,1.236839,0.185494,0.163174,0.133138
1696781874359375,-9.757388,-1.432525,1.200839,0.175194,0.138074,0.121438
1696781874367187,-9.766388,-1.444525,1.183839,0.167394,0.130274,0.116538
1696781874375000,-9.832388,-1.425525,1.181839,0.155194,0.115574,0.113038
1696781874382812,-9.838388,-1.433525,1.188839,0.141794,0.112374,0.104838
1696781874390625,-9.800388,-1.455525,1.199839,0.141594,0.101174,0.100038
1696781874398437,-9.739388,-1.449525,1.186839,0.118494,0.91774,0.99838
1696781874406250,-9.712388,-1.422525,1.147839,0.115394,0.78174,0.104138
1696781874414062,-9.686388,-1.397525,1.103839,0.99694,0.60174,0.110138
1696781874421875,-9.664388,-1.361525,1.113839,0.85894,0.51874,0.111338
1696781874429687,-9.698388,-1.325525,1.124839,0.67394,0.48674,0.119038
1696781874437500,-9.708388,-1.263525,1.142839,0.68794,0.44974,0.126838
1696781874445312,-9.706388,-1.206525,1.146839,0.65794,0.42774,0.134538
1696781874453125,-9.709388,-1.162525,1.121839,0.61094,0.32274,0.143638
1696781874460937,-9.706388,-1.97525,1.112839,0.51694,0.19074,0.146538
1696781874468750,-9.696388,-1.54525,1.94839,0.47394,0.11974,0.144638
1696781874476562,-9.712388,0.979525,1.98839,0.43994,0.10774,0.146238
1696781874484375,-9.746388,0.939525,1.87839,0.42194,0.4326,0.152338
1696781874492187,-9.746388,0.918525,1.48839,0.53094,0.21526,0.147138
1696781874500000,-9.723388,0.913525,1.25839,0.56294,0.31926,0.145238
1696781874507812,-9.747388,0.884525,0.993839,0.42394,0.49826,0.141738
1696781874515625,-9.747388,0.873525,0.936839,0.51594,0.64426,0.125838
1696781874523437,-9.751388,0.873525,0.909839,0.47094,0.74226,0.120838
1696781874531250,-9.797388,0.875525,0.852839,0.47094,0.85626,0.114338
1696781874539062,-9.851388,0.887525,0.788839,0.45794,0.98526,0.96738
1696781874546875,-9.883388,0.882525,0.747839,0.39694,0.106526,0.91838
1696781874554687,-9.897388,0.893525,0.702839,0.35194,0.112426,0.79238
1696781874562500,-9.921388,0.910525,0.640839,0.29294,0.114026,0.72838
1696781874570312,-9.932388,0.928525,0.604839,0.24694,0.110026,0.65038
1696781874578125,-9.927388,0.950525,0.572839,0.22094,0.101526,0.57238
1696781874585937,-9.891388,0.951525,0.531839,0.26594,0.94326,0.51238
1696781874593750,-9.900388,0.971525,0.488839,0.20694,0.91026,0.49638
1696781874601562,-9.957388,0.950525,0.479839,0.16094,0.92426,0.46538
1696781874609375,-9.981388,0.915525,0.474839,0.21394,0.69626,0.42038
1696781874617187,-9.959388,0.932525,0.490839,0.19394,0.52026,0.44238
1696781874625000,-9.947388,0.935525,0.483839,0.21394,0.52726,0.42438
1696781874632812,-9.966388,0.934525,0.449839,0.16494,0.52126,0.44138
1696781874640625,-9.964388,0.902525,0.438839,0.18094,0.49126,0.47338
1696781874648437,-9.964388,0.875525,0.451839,0.32094,0.24226,0.46338
1696781874656250,-9.978388,0.840525,0.465839,0.33494,0.10426,0.43638
1696781874664062,-10.1388,0.837525,0.501839,0.47394,0.874,0.45438
1696781874671875,-9.981388,0.835525,0.497839,0.44394,0.6074,0.43938
1696781874679687,-9.958388,0.807525,0.465839,0.57994,0.7574,0.45738
1696781874687500,-9.908388,0.831525,0.472839,0.70594,0.16974,0.44238
1696781874695312,-9.901388,0.834525,0.476839,0.68894,0.6874,0.45638
1696781874703125,-9.937388,0.835525,0.488839,0.76594,0.3474,0.42438
1696781874710937,-9.931388,0.865525,0.488839,0.94694,0.13574,0.44538
1696781874718750,-9.932388,0.867525,0.497839,0.93294,0.16574,0.46038
1696781874726562,-9.928388,0.879525,0.506839,0.94694,0.25274,0.44738
1696781874734375,-9.960388,0.869525,0.499839,0.93194,0.16774,0.46138
1696781874742187,-10.4388,0.854525,0.460839,0.97594,0.27274,0.44938
1696781874750000,-9.973388,0.869525,0.488839,0.102494,0.31574,0.46438
1696781874757812,-9.989388,0.889525,0.467839,0.108394,0.21774,0.43238
1696781874765625,-10.3388,0.889525,0.449839,0.93294,0.15874,0.30438
1696781874773437,-10.10388,0.878525,0.433839,0.91794,0.19274,0.30538
1696781874781250,-10.11388,0.908525,0.426839,0.94894,0.15474,0.33538
1696781874789062,-9.988388,0.946525,0.401839,0.93694,0.20674,0.25738
1696781874796875,-10.34388,0.935525,0.394839,0.70794,0.19674,0.22438
1696781874804687,-10.388,0.942525,0.367839,0.70894,0.25074,0.16238
1696781874812500,-9.929388,0.974525,0.360839,0.67794,0.24974,0.19338
1696781874820312,-9.893388,0.952525,0.342839,0.49594,0.20174,0.19138
1696781874828125,-9.932388,0.909525,0.337839,0.43194,0.15374,0.23738
1696781874835937,-9.939388,0.891525,0.347839,0.35594,0.20174,0.30038
1696781874843750,-9.940388,0.890525,0.344839,0.33694,0.17074,0.34838
1696781874851562,-9.965388,0.874525,0.346839,0.16694,0.11974,0.45638
1696781874859375,-9.935388,0.894525,0.305839,0.4594,0.13974,0.44038
1696781874867187,-9.898388,0.944525,0.255839,0.2894,0.2174,0.45338
1696781874875000,-9.921388,0.947525,0.246839,0.3106,0.9626,0.43338
1696781874882812,-9.961388,0.940525,0.274839,0.4506,0.1974,0.45138
1696781874890625,-9.995388,0.938525,0.308839,0.6006,0.3874,0.43638
1696781874898437,-10.27388,0.890525,0.319839,0.24206,0.2374,0.44938
1696781874906250,-10.57388,0.856525,0.299839,0.25806,0.7574,0.43538
1696781874914062,-10.44388,0.846525,0.312839,0.6006,0.32674,0.45938
1696781874921875,-10.40388,0.828525,0.333839,0.2706,0.50974,0.44638
1696781874929687,-10.63388,0.799525,0.371839,0.4506,0.62974,0.49738
1696781874937500,-10.39388,0.771525,0.401839,0.194,0.83074,0.50238
1696781874945312,-10.388,0.766525,0.410839,0.3494,0.93074,0.45638
1696781874953125,-10.7388,0.730525,0.451839,0.17194,0.96674,0.64538
1696781874960937,-9.994388,0.700525,0.473839,0.30894,0.113874,0.57338
1696781874968750,-9.958388,0.685525,0.553839,0.41594,0.130174,0.63938
1696781874976562,-9.946388,0.666525,0.592839,0.57094,0.130674,0.70138
1696781874984375,-9.952388,0.636525,0.605839,0.62794,0.132374,0.78238
1696781874992187,-9.918388,0.616525,0.635839,0.79594,0.145474,0.78638
1696781875000000,-9.872388,0.650525,0.697839,0.105494,0.161274,0.88538
1696781875007812,-9.842388,0.679525,0.731839,0.113094,0.154374,0.88438
1696781875015625,-9.854388,0.666525,0.724839,0.120794,0.142774,0.80438
1696781875023437,-9.874388,0.639525,0.742839,0.128494,0.144374,0.77338
1696781875031250,-9.868388,0.653525,0.770839,0.146794,0.144174,0.75938
1696781875039062,-9.856388,0.693525,0.801839,0.160494,0.142174,0.77538
1696781875046875,-9.810388,0.723525,0.797839,0.160394,0.140974,0.69738
1696781875054687,-9.828388,0.714525,0.804839,0.160494,0.140774,0.72838
1696781875062500,-9.942388,0.661525,0.779839,0.161994,0.135574,0.72738
1696781875070312,-9.961388,0.672525,0.810839,0.166394,0.139174,0.72938
1696781875078125,-9.919388,0.744525,0.824839,0.180394,0.145574,0.68338
1696781875085937,-9.914388,0.775525,0.806839,0.171194,0.137474,0.64938
1696781875093750,-9.926388,0.814525,0.768839,0.166894,0.139274,0.58638
1696781875101562,-9.979388,0.832525,0.779839,0.168294,0.146674,0.52638
1696781875109375,-9.987388,0.896525,0.809839,0.168594,0.143074,0.49338
1696781875117187,-9.960388,0.929525,0.843839,0.167194,0.145874,0.30638
1696781875125000,-9.984388,0.937525,0.827839,0.161194,0.139574,0.22638
1696781875132812,-10.18388,0.948525,0.809839,0.144594,0.140174,0.13038
1696781875140625,-9.990388,0.983525,0.820839,0.143294,0.144974,0.13038
1696781875148437,-9.992388,-1.33525,0.854839,0.144494,0.147074,0.14838
1696781875156250,-9.958388,-1.49525,0.852839,0.137094,0.153674,0.13238
1696781875164062,-9.937388,-1.58525,0.882839,0.119194,0.149574,0.4262
1696781875171875,-9.979388,-1.29525,0.850839,0.120494,0.137074,0.16962
1696781875179687,-9.952388,-1.7525,0.802839,0.118994,0.147074,0.11962
1696781875187500,-9.928388,-1.60525,0.884839,0.123594,0.159674,0.2362
1696781875195312,-9.987388,-1.105525,0.886839,0.115794,0.149974,0.2562
1696781875203125,-9.993388,-1.77525,0.887839,0.96194,0.154874,0.1938
1696781875210937,-9.969388,-1.76525,0.907839,0.94494,0.164974,0.8538
1696781875218750,-9.959388,-1.53525,0.934839,0.97494,0.168974,0.24238
1696781875226562,-9.930388,-1.42525,1.839,0.80494,0.175574,0.40038
1696781875234375,-9.851388,-1.37525,0.975839,0.69494,0.185474,0.55938
1696781875242187,-9.786388,-1.11525,1.5839,0.67694,0.189774,0.76438
1696781875250000,-9.843388,0.966525,1.9839,0.51794,0.167474,0.97838
1696781875257812,-9.916388,0.947525,0.998839,0.50094,0.170174,0.113538
1696781875265625,-9.880388,0.914525,1.37839,0.48694,0.174574,0.121438
1696781875273437,-9.868388,0.882525,1.57839,0.43194,0.176474,0.143738
1696781875281250,-9.881388,0.885525,1.82839,0.43394,0.170774,0.146538
1696781875289062,-9.827388,0.774525,1.4839,0.41994,0.165274,0.151038
1696781875296875,-9.842388,0.721525,1.88839,0.40094,0.181574,0.171838
1696781875304687,-9.918388,0.721525,1.118839,0.62994,0.172274,0.174838
1696781875312500,-9.915388,0.644525,1.118839,0.67394,0.174374,0.173538
1696781875320312,-9.890388,0.631525,1.184839,0.79794,0.192374,0.172338
1696781875328125,-9.880388,0.630525,1.186839,0.93094,0.190374,0.185138
1696781875335937,-9.823388,0.567525,1.223839,0.90294,0.194374,0.195938
1696781875343750,-9.753388,0.563525,1.261839,0.106994,0.197274,0.199238
1696781875351562,-9.714388,0.555525,1.277839,0.120594,0.201974,0.204238
1696781875359375,-9.728388,0.569525,1.330839,0.132894,0.202374,0.193338
1696781875367187,-9.674388,0.557525,1.366839,0.149894,0.204474,0.174738
1696781875375000,-9.697388,0.493525,1.400839,0.160794,0.192474,0.168138
1696781875382812,-9.759388,0.448525,1.400839,0.166994,0.187874,0.155538
1696781875390625,-9.764388,0.417525,1.450839,0.191594,0.204374,0.149738
1696781875398437,-9.746388,0.431525,1.502839,0.211294,0.200774,0.151438
1696781875406250,-9.714388,0.463525,1.521839,0.214294,0.192374,0.149738
1696781875414062,-9.636388,0.479525,1.514839,0.212994,0.193574,0.151138
1696781875421875,-9.582388,0.457525,1.514839,0.220594,0.191874,0.149638
1696781875429687,-9.626388,0.416525,1.523839,0.215994,0.186874,0.151138
1696781875437500,-9.740388,0.384525,1.557839,0.214094,0.178574,0.158838
1696781875445312,-9.846388,0.363525,1.586839,0.232294,0.164474,0.160238
1696781875453125,-9.910388,0.362525,1.568839,0.233694,0.157774,0.161738
1696781875460937,-9.898388,0.373525,1.582839,0.223394,0.154674,0.153638
1696781875468750,-9.930388,0.352525,1.586839,0.217194,0.134674,0.151538
1696781875476562,-9.980388,0.307525,1.554839,0.214094,0.112774,0.151038
1696781875484375,-9.969388,0.332525,1.520839,0.192494,0.113474,0.152638
1696781875492187,-9.954388,0.419525,1.509839,0.186194,0.85174,0.150438
1696781875500000,-10.3388,0.465525,1.493839,0.166394,0.55274,0.144838
1696781875507812,-10.41388,0.520525,1.427839,0.154194,0.50574,0.143138
1696781875515625,-9.961388,0.602525,1.380839,0.125194,0.44774,0.138138
1696781875523437,-9.936388,0.633525,1.357839,0.92994,0.18674,0.135838
1696781875531250,-9.956388,0.642525,1.300839,0.57894,0.3826,0.128838
1696781875539062,-9.968388,0.635525,1.277839,0.33394,0.11726,0.130038
1696781875546875,-9.977388,0.628525,1.238839,0.2894,0.5726,0.125338
1696781875554687,-9.949388,0.614525,1.241839,0.30506,0.17526,0.130938
1696781875562500,-9.916388,0.591525,1.207839,0.53606,0.22126,0.137038
1696781875570312,-9.815388,0.534525,1.184839,0.75006,0.2026,0.148338
1696781875578125,-9.747388,0.486525,1.218839,0.99606,0.8326,0.154338
1696781875585937,-9.699388,0.431525,1.138839,0.104506,0.20326,0.165038
1696781875593750,-9.659388,0.369525,1.120839,0.125906,0.31826,0.167838
1696781875601562,-9.704388,0.289525,1.81839,0.130406,0.46026,0.176738
1696781875609375,-9.725388,0.213525,1.49839,0.150106,0.59226,0.173138
1696781875617187,-9.652388,0.127525,1.19839,0.151706,0.60426,0.168438
1696781875625000,-9.919388,0.47525,1.82839,0.153406,0.92626,0.144338
1696781875632812,-10.71388,0.52475,0.850839,0.151306,0.131026,0.121338
1696781875640625,-9.848388,0.97475,0.870839,0.153006,0.85926,0.136538
1696781875648437,-9.877388,0.67475,0.889839,0.130306,0.101726,0.142638
1696781875656250,-9.989388,0.137475,0.845839,0.146806,0.105826,0.126738
1696781875664062,-10.80388,0.235475,0.818839,0.137506,0.119526,0.120138
1696781875671875,-10.118388,0.236475,0.715839,0.108106,0.116626,0.109238
1696781875679687,-10.99388,0.246475,0.724839,0.90006,0.99326,0.103738
1696781875687500,-10.99388,0.266475,0.720839,0.79306,0.94226,0.99238
1696781875695312,-10.120388,0.295475,0.681839,0.63506,0.78826,0.79138
1696781875703125,-10.146388,0.333475,0.656839,0.40806,0.64126,0.84438
1696781875710937,-10.120388,0.338475,0.660839,0.14306,0.42726,0.73938
1696781875718750,-10.139388,0.380475,0.708839,0.11594,0.28026,0.72838
1696781875726562,-10.160388,0.434475,0.717839,0.38094,0.1974,0.61038
1696781875734375,-10.79388,0.421475,0.753839,0.68594,0.28874,0.55738
1696781875742187,-9.942388,0.402475,0.783839,0.102694,0.53774,0.40638
1696781875750000,-9.863388,0.419475,0.813839,0.125794,0.55774,0.22038
1696781875757812,-9.823388,0.402475,0.801839,0.160894,0.52574,0.8138
1696781875765625,-9.780388,0.361475,0.831839,0.201494,0.61874,0.15162
1696781875773437,-9.767388,0.332475,0.909839,0.236394,0.61974,0.22662
1696781875781250,-9.759388,0.309475,0.961839,0.259994,0.56474,0.43262
1696781875789062,-9.789388,0.297475,0.968839,0.279594,0.51774,0.49362
1696781875796875,-9.783388,0.297475,0.963839,0.308594,0.46574,0.57062
1696781875804687,-9.735388,0.290475,1.23839,0.331694,0.51474,0.67862
1696781875812500,-9.725388,0.274475,1.50839,0.359094,0.34074,0.69562
1696781875820312,-9.729388,0.207475,1.39839,0.381994,0.20674,0.79062
1696781875828125,-9.746388,0.97475,1.25839,0.407594,0.13574,0.75862
1696781875835937,-9.787388,0.34525,1.41839,0.413694,0.9174,0.61862
1696781875843750,-9.831388,0.145525,1.35839,0.412094,0.174,0.52762
1696781875851562,-9.836388,0.266525,1.5839,0.408794,0.12726,0.54462
1696781875859375,-9.882388,0.347525,0.999839,0.389094,0.21026,0.54862
1696781875867187,-9.959388,0.384525,0.978839,0.379894,0.17526,0.53262
1696781875875000,-10.15388,0.428525,0.990839,0.361394,0.18426,0.54962
1696781875882812,-10.112388,0.454525,1.10839,0.353894,0.10026,0.53262
1696781875890625,-10.160388,0.481525,1.31839,0.340194,0.0,0.71762
1696781875898437,-10.146388,0.523525,1.45839,0.313394,0.30674,0.79362
1696781875906250,-10.136388,0.572525,1.40839,0.296794,0.46474,0.88562
1696781875914062,-10.63388,0.624525,1.47839,0.274194,0.82574,0.92562
1696781875921875,-10.48388,0.673525,1.50839,0.251694,0.98074,0.97162
1696781875929687,-10.55388,0.704525,1.66839,0.218194,0.112174,0.95562
1696781875937500,-9.960388,0.760525,1.107839,0.183594,0.134474,0.98562
1696781875945312,-9.860388,0.840525,1.96839,0.157694,0.135174,0.103462
1696781875953125,-9.821388,0.877525,1.105839,0.109994,0.131274,0.95862
1696781875960937,-9.822388,0.925525,1.98839,0.75094,0.126674,0.96262
1696781875968750,-9.861388,0.940525,1.121839,0.36994,0.134174,0.94862
1696781875976562,-9.949388,0.935525,1.173839,0.1106,0.139674,0.90262
1696781875984375,-10.9388,0.922525,1.216839,0.48906,0.131074,0.85862
1696781875992187,-10.88388,0.887525,1.228839,0.100406,0.137374,0.95562
1696781876000000,-10.145388,0.836525,1.198839,0.144406,0.134474,0.94462
1696781876007812,-10.146388,0.823525,1.196839,0.188806,0.132474,0.96262
1696781876015625,-10.143388,0.846525,1.184839,0.233006,0.137274,0.104262
1696781876023437,-10.110388,0.831525,1.166839,0.261906,0.131874,0.117062
1696781876031250,-10.53388,0.796525,1.155839,0.304406,0.134374,0.122062
1696781876039062,-9.984388,0.751525,1.136839,0.339806,0.130174,0.116062
1696781876046875,-9.964388,0.681525,1.132839,0.364206,0.114774,0.107262
1696781876054687,-9.972388,0.617525,1.102839,0.369006,0.110174,0.107262
1696781876062500,-9.930388,0.561525,1.90839,0.385806,0.109874,0.94862
1696781876070312,-9.863388,0.493525,1.143839,0.392006,0.104674,0.90362
1696781876078125,-9.837388,0.413525,1.179839,0.390806,0.79274,0.84562
1696781876085937,-9.849388,0.285525,1.177839,0.377006,0.79774,0.73562
1696781876093750,-9.883388,0.188525,1.165839,0.356406,0.79474,0.57562
1696781876101562,-9.854388,0.121525,1.183839,0.321406,0.79874,0.46362
1696781876109375,-9.805388,0.50525,1.215839,0.286506,0.67974,0.27562
1696781876117187,-9.794388,0.0,1.217839,0.250206,0.59774,0.10262
1696781876125000,-9.784388,0.47475,1.194839,0.204906,0.41474,0.3838
1696781876132812,-9.743388,0.100475,1.210839,0.153306,0.31274,0.19638
1696781876140625,-9.705388,0.135475,1.223839,0.107906,0.11574,0.28938
1696781876148437,-9.686388,0.174475,1.225839,0.65506,0.2626,0.33738
1696781876156250,-9.704388,0.193475,1.191839,0.6206,0.21126,0.41538
1696781876164062,-9.773388,0.229475,1.168839,0.42294,0.35726,0.47938
1696781876171875,-9.796388,0.236475,1.191839,0.86294,0.31726,0.54638
1696781876179687,-9.770388,0.218475,1.212839,0.142694,0.35326,0.65838
1696781876187500,-9.761388,0.187475,1.193839,0.183794,0.43026,0.67538
1696781876195312,-9.748388,0.136475,1.130839,0.220694,0.50426,0.59638
1696781876203125,-9.759388,0.105475,1.105839,0.263394,0.54726,0.58238
1696781876210937,-9.739388,0.64475,1.110839,0.306094,0.58526,0.50638
1696781876218750,-9.713388,0.19475,1.153839,0.313994,0.55326,0.44438
1696781876226562,-9.761388,0.10475,1.128839,0.345594,0.72326,0.44438
1696781876234375,-9.763388,0.0,1.69839,0.362394,0.71326,0.49238
1696781876242187,-9.758388,0.74525,1.110839,0.375894,0.54626,0.54538
1696781876250000,-9.788388,0.151525,1.126839,0.388294,0.56526,0.49738
1696781876257812,-9.830388,0.190525,1.121839,0.385494,0.58226,0.44938
1696781876265625,-9.862388,0.239525,1.74839,0.387094,0.58126,0.40238
1696781876273437,-9.918388,0.312525,1.44839,0.386894,0.57226,0.30938
1696781876281250,-9.968388,0.421525,1.47839,0.368794,0.37126,0.37538
1696781876289062,-9.987388,0.550525,1.10839,0.336894,0.42826,0.29338
1696781876296875,-10.56388,0.640525,0.967839,0.298794,0.55226,0.22538
1696781876304687,-10.133388,0.682525,0.949839,0.243994,0.43326,0.9938
1696781876312500,-10.180388,0.739525,0.929839,0.206194,0.42026,0.4462
1696781876320312,-10.233388,0.796525,0.931839,0.157594,0.38626,0.20462
1696781876328125,-10.276388,0.825525,0.902839,0.104694,0.20026,0.37662
1696781876335937,-10.266388,0.856525,0.895839,0.59294,0.7026,0.50362
1696781876343750,-10.275388,0.849525,0.890839,0.9194,0.9574,0.58162
1696781876351562,-10.243388,0.853525,0.890839,0.27006,0.20774,0.70762
1696781876359375,-10.213388,0.883525,0.895839,0.66206,0.42174,0.84762
1696781876367187,-10.121388,0.840525,0.925839,0.113306,0.48874,0.97462
1696781876375000,-10.25388,0.763525,0.936839,0.146606,0.48674,0.114962
1696781876382812,-9.928388,0.717525,0.918839,0.155606,0.50474,0.118162
1696781876390625,-9.934388,0.617525,0.947839,0.169506,0.53574,0.104062
1696781876398437,-9.973388,0.533525,1.15839,0.172506,0.62974,0.92962
1696781876406250,-9.927388,0.481525,1.58839,0.169906,0.69574,0.78562
1696781876414062,-9.823388,0.460525,1.49839,0.168606,0.67074,0.62862
1696781876421875,-9.778388,0.430525,1.13839,0.155206,0.64674,0.48662
1696781876429687,-9.768388,0.366525,1.10839,0.145206,0.57274,0.26662
1696781876437500,-9.770388,0.307525,1.35839,0.131706,0.45674,0.3362
1696781876445312,-9.767388,0.274525,1.35839,0.116906,0.38174,0.12338
1696781876453125,-9.776388,0.238525,1.35839,0.99006,0.11474,0.35438
1696781876460937,-9.756388,0.202525,1.1839,0.82406,0.9626,0.42838
1696781876468750,-9.771388,0.124525,0.971839,0.76706,0.25026,0.53638
1696781876476562,-9.828388,0.83525,0.953839,0.49306,0.27826,0.63138
1696781876484375,-9.846388,0.69525,0.918839,0.17306,0.33226,0.58538
1696781876492187,-9.882388,0.76525,0.912839,0.706,0.43826,0.61538
1696781876500000,-9.903388,0.78525,0.877839,0.9994,0.50426,0.56838
1696781876507812,-9.947388,0.74525,0.818839,0.19594,0.55726,0.45638
1696781876515625,-9.966388,0.65525,0.789839,0.31694,0.55326,0.37938
1696781876523437,-9.952388,0.74525,0.786839,0.48994,0.50326,0.20838
1696781876531250,-9.957388,0.88525,0.766839,0.42594,0.51326,0.19338
1696781876539062,-9.991388,0.101525,0.725839,0.52094,0.46226,0.6838
1696781876546875,-9.993388,0.130525,0.720839,0.70394,0.39526,0.2438
1696781876554687,-9.985388,0.159525,0.716839,0.68994,0.34426,0.1038
1696781876562500,-9.970388,0.164525,0.725839,0.70694,0.23826,0.9762
1696781876570312,-9.996388,0.158525,0.714839,0.70994,0.24126,0.14562
1696781876578125,-10.19388,0.178525,0.698839,0.69494,0.18826,0.16062
1696781876585937,-10.5388,0.177525,0.716839,0.71494,0.2326,0.20462
1696781876593750,-10.8388,0.160525,0.721839,0.66594,0.10126,0.22162
1696781876601562,-10.14388,0.189525,0.709839,0.66594,0.126,0.20362
1696781876609375,-10.33388,0.212525,0.686839,0.71094,0.11974,0.21562
1696781876617187,-10.29388,0.249525,0.698839,0.69994,0.26774,0.22962
1696781876625000,-10.16388,0.275525,0.716839,0.71194,0.35774,0.24162
1696781876632812,-10.9388,0.272525,0.711839,0.69894,0.49374,0.30162
1696781876640625,-10.9388,0.279525,0.718839,0.71494,0.42474,0.28762
1696781876648437,-10.16388,0.268525,0.739839,0.71494,0.57774,0.29962
1696781876656250,-10.14388,0.275525,0.777839,0.71694,0.73274,0.37462
1696781876664062,-10.2388,0.268525,0.816839,0.71594,0.71374,0.32762
1696781876671875,-10.388,0.248525,0.839839,0.74894,0.84874,0.37262
1696781876679687,-9.976388,0.235525,0.873839,0.88494,0.102774,0.28862
1696781876687500,-9.932388,0.233525,0.917839,0.96394,0.103874,0.27362
1696781876695312,-9.919388,0.238525,0.932839,0.109994,0.112274,0.28562
1696781876703125,-9.876388,0.230525,0.957839,0.125194,0.111674,0.23862
1696781876710937,-9.869388,0.212525,0.987839,0.135594,0.109174,0.8062
1696781876718750,-9.888388,0.199525,0.998839,0.158294,0.117174,0.2962
1696781876726562,-9.885388,0.208525,1.48839,0.170494,0.128174,0.6738
1696781876734375,-9.885388,0.208525,1.78839,0.177794,0.125574,0.27138
1696781876742187,-9.860388,0.230525,1.92839,0.192994,0.131874,0.30538
1696781876750000,-9.826388,0.258525,1.103839,0.200394,0.119574,0.38138
1696781876757812,-9.830388,0.280525,1.115839,0.208094,0.119274,0.39738
1696781876765625,-9.816388,0.327525,1.122839,0.214094,0.110874,0.38038
1696781876773437,-9.800388,0.365525,1.140839,0.204894,0.106474,0.33238
1696781876781250,-9.788388,0.377525,1.142839,0.191094,0.98074,0.36138
1696781876789062,-9.794388,0.394525,1.138839,0.189794,0.91574,0.28038
1696781876796875,-9.791388,0.427525,1.131839,0.179294,0.86874,0.19938
1696781876804687,-9.807388,0.452525,1.142839,0.168594,0.85974,0.12138
1696781876812500,-9.883388,0.438525,1.140839,0.145294,0.69974,0.14838
1696781876820312,-9.966388,0.416525,1.135839,0.139594,0.69874,0.8438
1696781876828125,-10.9388,0.441525,1.140839,0.121094,0.66674,0.16138
1696781876835937,-9.984388,0.475525,1.133839,0.99694,0.65674,0.12838
1696781876843750,-9.931388,0.512525,1.113839,0.78594,0.60774,0.12538
1696781876851562,-9.914388,0.532525,1.49839,0.55694,0.44474,0.8838
1696781876859375,-9.951388,0.523525,1.17839,0.20594,0.26774,0.6638
1696781876867187,-10.14388,0.506525,0.995839,0.6794,0.20174,0.9538
1696781876875000,-10.69388,0.474525,1.1839,0.5206,0.15774,0.1662
1696781876882812,-10.97388,0.459525,0.987839,0.28306,0.13274,0.3362
1696781876890625,-10.52388,0.453525,0.942839,0.43306,0.17074,0.9662
1696781876898437,-10.25388,0.447525,0.905839,0.50806,0.17974,0.23762
1696781876906250,-9.972388,0.455525,0.903839,0.54906,0.22974,0.33262
1696781876914062,-9.891388,0.463525,0.897839,0.62506,0.35674,0.43962
1696781876921875,-9.822388,0.473525,0.890839,0.63706,0.28974,0.52062
1696781876929687,-9.797388,0.478525,0.890839,0.76006,0.17774,0.57062
1696781876937500,-9.761388,0.471525,0.897839,0.71406,0.15874,0.55562
1696781876945312,-9.725388,0.477525,0.906839,0.76206,0.14674,0.57062
1696781876953125,-9.694388,0.484525,0.906839,0.74806,0.2126,0.57362
1696781876960937,-9.702388,0.472525,0.878839,0.76206,0.5826,0.55962
1696781876968750,-9.719388,0.469525,0.869839,0.73606,0.25326,0.57762
1696781876976562,-9.734388,0.468525,0.865839,0.56706,0.46626,0.53562
1696781876984375,-9.748388,0.463525,0.890839,0.50706,0.46526,0.53462
1696781876992187,-9.812388,0.483525,0.864839,0.49406,0.66326,0.58462
1696781877000000,-9.831388,0.504525,0.785839,0.40106,0.85526,0.57362
1696781877007812,-9.822388,0.511525,0.760839,0.31006,0.93926,0.59062
1696781877015625,-9.872388,0.512525,0.701839,0.41706,0.109126,0.57962
1696781877023437,-9.931388,0.522525,0.651839,0.40206,0.120826,0.61362
1696781877031250,-9.963388,0.536525,0.594839,0.32606,0.138626,0.74162
1696781877039062,-9.981388,0.533525,0.544839,0.41806,0.135126,0.74162
1696781877046875,-10.113388,0.463525,0.509839,0.45006,0.138526,0.69462
1696781877054687,-10.210388,0.449525,0.491839,0.35406,0.132226,0.74162
1696781877062500,-10.162388,0.484525,0.466839,0.27906,0.113926,0.68962
1696781877070312,-10.65388,0.496525,0.441839,0.37106,0.109026,0.59462
1696781877078125,-10.95388,0.458525,0.384839,0.35806,0.120726,0.58062
1696781877085937,-10.161388,0.421525,0.320839,0.29706,0.115726,0.59462
1696781877093750,-10.169388,0.415525,0.327839,0.14706,0.94126,0.50962
1696781877101562,-10.137388,0.388525,0.352839,0.806,0.86426,0.47662
1696781877109375,-10.108388,0.349525,0.359839,0.7006,0.74626,0.41062
1696781877117187,-10.118388,0.304525,0.331839,0.1006,0.63626,0.26762
1696781877125000,-10.106388,0.275525,0.324839,0.9894,0.47326,0.24762
1696781877132812,-10.70388,0.286525,0.343839,0.28294,0.18926,0.25662
1696781877140625,-10.50388,0.282525,0.361839,0.46494,0.8026,0.15862
1696781877148437,-10.40388,0.284525,0.370839,0.46694,0.8674,0.15562
1696781877156250,-9.997388,0.307525,0.363839,0.60194,0.22974,0.2138
1696781877164062,-9.947388,0.333525,0.393839,0.69194,0.34774,0.2538
1696781877171875,-9.943388,0.335525,0.416839,0.69294,0.41474,0.2738
1696781877179687,-9.957388,0.304525,0.432839,0.70894,0.47874,0.5938
1696781877187500,-9.970388,0.281525,0.457839,0.69294,0.60974,0.15638
1696781877195312,-9.975388,0.331525,0.511839,0.84494,0.68074,0.6538
1696781877203125,-9.981388,0.314525,0.532839,0.88094,0.77774,0.338
1696781877210937,-9.997388,0.301525,0.568839,0.97394,0.94974,0.8662
1696781877218750,-9.962388,0.352525,0.594839,0.108494,0.113074,0.14562
1696781877226562,-9.916388,0.368525,0.657839,0.114794,0.126674,0.22062
1696781877234375,-9.932388,0.379525,0.707839,0.111894,0.125174,0.26862
1696781877242187,-9.950388,0.391525,0.721839,0.136394,0.133774,0.39062
1696781877250000,-9.901388,0.405525,0.755839,0.134794,0.149074,0.37062
1696781877257812,-9.835388,0.447525,0.810839,0.145494,0.159274,0.39862
1696781877265625,-9.811388,0.451525,0.853839,0.141194,0.155874,0.46362
1696781877273437,-9.803388,0.431525,0.862839,0.156194,0.162474,0.41262
1696781877281250,-9.849388,0.407525,0.912839,0.168294,0.162274,0.41162
1696781877289062,-9.848388,0.444525,0.926839,0.176094,0.170374,0.39462
1696781877296875,-9.825388,0.465525,0.985839,0.174594,0.165474,0.42662
1696781877304687,-9.861388,0.448525,1.10839,0.174794,0.161674,0.42862
1696781877312500,-9.866388,0.460525,1.15839,0.177694,0.151974,0.47662
1696781877320312,-9.888388,0.484525,1.15839,0.183694,0.143674,0.49362
1696781877328125,-9.922388,0.488525,1.22839,0.174594,0.140474,0.52662
1696781877335937,-9.908388,0.524525,1.42839,0.168694,0.137874,0.66862
1696781877343750,-9.894388,0.569525,1.31839,0.170294,0.130174,0.79562
1696781877351562,-9.903388,0.592525,1.15839,0.167394,0.120874,0.95462
1696781877359375,-9.921388,0.613525,1.8839,0.160294,0.104674,0.121062
1696781877367187,-9.963388,0.637525,0.995839,0.149694,0.100274,0.127562
1696781877375000,-9.954388,0.644525,0.995839,0.145194,0.90874,0.141862
1696781877382812,-9.939388,0.663525,0.999839,0.146894,0.86974,0.162262
1696781877390625,-9.967388,0.688525,0.972839,0.147294,0.68574,0.178462
1696781877398437,-9.952388,0.693525,0.963839,0.145794,0.63974,0.186462
1696781877406250,-9.919388,0.722525,0.949839,0.147394,0.56974,0.186662
1696781877414062,-9.872388,0.750525,0.943839,0.145794,0.59074,0.189662
1696781877421875,-9.846388,0.732525,0.929839,0.145994,0.51874,0.186762
1696781877429687,-9.860388,0.709525,0.911839,0.151894,0.44674,0.179062
1696781877437500,-9.854388,0.723525,0.913839,0.169894,0.30874,0.174462
1696781877445312,-9.853388,0.754525,0.902839,0.171294,0.25674,0.169862
1696781877453125,-9.857388,0.746525,0.865839,0.169994,0.16474,0.163862
1696781877460937,-9.871388,0.745525,0.840839,0.173994,0.1726,0.159362
1696781877468750,-9.869388,0.762525,0.820839,0.192494,0.7774,0.159162
1696781877476562,-9.862388,0.796525,0.799839,0.195294,0.926,0.149862
1696781877484375,-9.900388,0.800525,0.783839,0.193394,0.9326,0.143662
1696781877492187,-9.950388,0.784525,0.756839,0.202594,0.8426,0.134262
1696781877500000,-10.2388,0.794525,0.745839,0.216194,0.5426,0.129362
1696781877507812,-10.31388,0.820525,0.738839,0.219394,0.9326,0.127962
1696781877515625,-10.22388,0.863525,0.717839,0.218994,0.7726,0.116762
1696781877523437,-10.1388,0.892525,0.683839,0.218994,0.7726,0.116762
1696781877531250,-10.57388,0.898525,0.640839,0.218794,0.18326,0.106062
1696781877539062,-10.121388,0.881525,0.622839,0.217294,0.11626,0.102762
1696781877546875,-10.119388,0.882525,0.645839,0.229594,0.3174,0.102362
1696781877554687,-10.94388,0.886525,0.681839,0.229394,0.17474,0.81662
1696781877562500,-10.106388,0.851525,0.697839,0.226194,0.30974,0.76662
1696781877570312,-10.96388,0.821525,0.708839,0.242894,0.41174,0.56062
1696781877578125,-10.13388,0.809525,0.715839,0.262794,0.60674,0.49162
1696781877585937,-9.923388,0.811525,0.754839,0.268594,0.89274,0.38962
1696781877593750,-9.868388,0.802525,0.763839,0.270094,0.109974,0.18162
1696781877601562,-9.819388,0.772525,0.776839,0.277294,0.119374,0.938
1696781877609375,-9.760388,0.762525,0.820839,0.296894,0.124874,0.20038
1696781877617187,-9.714388,0.755525,0.859839,0.306194,0.129374,0.23238
1696781877625000,-9.676388,0.761525,0.893839,0.312094,0.134674,0.23538
1696781877632812,-9.679388,0.746525,0.924839,0.313594,0.133374,0.18838
1696781877640625,-9.707388,0.703525,0.954839,0.322794,0.136174,0.22038
1696781877648437,-9.752388,0.698525,0.983839,0.334994,0.131774,0.6438
1696781877656250,-9.773388,0.707525,1.15839,0.342694,0.133674,0.1262
1696781877664062,-9.770388,0.729525,1.38839,0.340094,0.120674,0.18962
1696781877671875,-9.801388,0.766525,1.36839,0.346494,0.107974,0.42762
1696781877679687,-9.837388,0.797525,1.29839,0.346694,0.93174,0.55662
1696781877687500,-9.859388,0.835525,1.31839,0.351294,0.87474,0.72962
1696781877695312,-9.890388,0.863525,1.38839,0.341194,0.74774,0.96962
1696781877703125,-9.947388,0.896525,1.32839,0.338394,0.69074,0.117462
1696781877710937,-10.6388,0.907525,1.45839,0.339994,0.66674,0.136262
1696781877718750,-10.10388,0.988525,1.50839,0.338594,0.69274,0.153462
1696781877726562,-9.954388,-1.42525,1.66839,0.342094,0.66374,0.172362
1696781877734375,-9.931388,-1.100525,1.48839,0.340794,0.62174,0.189762
1696781877742187,-9.943388,-1.155525,1.37839,0.318194,0.59174,0.197962
1696781877750000,-9.939388,-1.189525,1.43839,0.328694,0.60874,0.194562
1696781877757812,-9.913388,-1.256525,1.78839,0.334694,0.58974,0.193062
1696781877765625,-9.876388,-1.310525,1.94839,0.325594,0.52474,0.194862
1696781877773437,-9.853388,-1.348525,1.94839,0.318094,0.47174,0.191862
1696781877781250,-9.830388,-1.371525,1.80839,0.308494,0.43674,0.177862
1696781877789062,-9.791388,-1.371525,1.101839,0.305494,0.35174,0.176462
1696781877796875,-9.755388,-1.388525,1.103839,0.301894,0.19674,0.157962
1696781877804687,-9.723388,-1.378525,1.108839,0.294094,0.16574,0.133062
1696781877812500,-9.693388,-1.392525,1.113839,0.298494,0.19574,0.123562
1696781877820312,-9.646388,-1.387525,1.108839,0.291994,0.18174,0.115562
1696781877828125,-9.642388,-1.364525,1.85839,0.288794,0.1126,0.100462
1696781877835937,-9.669388,-1.328525,1.55839,0.285594,0.13526,0.89762
1696781877843750,-9.669388,-1.299525,1.51839,0.286894,0.17426,0.75662
1696781877851562,-9.713388,-1.279525,1.44839,0.286494,0.20726,0.69362
1696781877859375,-9.750388,-1.226525,1.32839,0.283494,0.18126,0.56862
1696781877867187,-9.757388,-1.209525,1.16839,0.292494,0.14926,0.53562
1696781877875000,-9.775388,-1.200525,0.996839,0.286194,0.16626,0.45762
1696781877882812,-9.805388,-1.179525,0.975839,0.279994,0.21726,0.42762
1696781877890625,-9.814388,-1.165525,0.941839,0.278794,0.13626,0.42762
1696781877898437,-9.867388,-1.134525,0.925839,0.281494,0.4926,0.39262
1696781877906250,-9.937388,-1.103525,0.921839,0.267994,0.8626,0.34862
1696781877914062,-9.971388,-1.91525,0.923839,0.274294,0.1374,0.39362
1696781877921875,-9.997388,-1.88525,0.905839,0.280794,0.2674,0.44062
1696781877929687,-9.995388,-1.111525,0.889839,0.269994,0.3474,0.48762
1696781877937500,-9.938388,-1.154525,0.871839,0.270094,0.274,0.55162
1696781877945312,-9.897388,-1.190525,0.843839,0.266894,0.2826,0.56762
1696781877953125,-9.862388,-1.221525,0.825839,0.267294,0.5826,0.70962
1696781877960937,-9.854388,-1.256525,0.782839,0.259394,0.35226,0.79462
1696781877968750,-9.860388,-1.277525,0.769839,0.248994,0.35126,0.85862
1696781877976562,-9.882388,-1.293525,0.730839,0.244294,0.36326,0.87362
1696781877984375,-9.888388,-1.310525,0.705839,0.238494,0.46426,0.95662
1696781877992187,-9.872388,-1.332525,0.689839,0.223194,0.58126,0.91262
1696781878000000,-9.847388,-1.366525,0.648839,0.218594,0.57826,0.92862
1696781878007812,-9.852388,-1.367525,0.623839,0.216794,0.55626,0.94262
1696781878015625,-9.841388,-1.360525,0.607839,0.216594,0.68026,0.81962
1696781878023437,-9.823388,-1.347525,0.575839,0.211994,0.66226,0.81962
1696781878031250,-9.786388,-1.342525,0.559839,0.202894,0.66426,0.77462
1696781878039062,-9.782388,-1.320525,0.536839,0.211794,0.72226,0.61762
1696781878046875,-9.802388,-1.301525,0.530839,0.210494,0.64226,0.60162
1696781878054687,-9.798388,-1.299525,0.555839,0.219594,0.64626,0.56962
1696781878062500,-9.794388,-1.304525,0.548839,0.216294,0.65926,0.55362
1696781878070312,-9.743388,-1.302525,0.528839,0.218194,0.68126,0.57062
1696781878078125,-9.717388,-1.312525,0.498839,0.229894,0.81226,0.55562
1696781878085937,-9.728388,-1.301525,0.475839,0.235994,0.76226,0.56962
1696781878093750,-9.758388,-1.289525,0.489839,0.239094,0.79826,0.55462
1696781878101562,-9.778388,-1.298525,0.484839,0.242094,0.98526,0.54262
1696781878109375,-9.791388,-1.309525,0.463839,0.242094,0.93326,0.57262
1696781878117187,-9.810388,-1.322525,0.447839,0.241894,0.99826,0.55762
1696781878125000,-9.811388,-1.340525,0.413839,0.241894,0.104926,0.57562
1696781878132812,-9.802388,-1.373525,0.391839,0.240494,0.108526,0.56062
1696781878140625,-9.815388,-1.376525,0.355839,0.242194,0.112226,0.57862
1696781878148437,-9.894388,-1.355525,0.341839,0.234594,0.113826,0.56362
1696781878156250,-9.946388,-1.364525,0.334839,0.236194,0.103726,0.57662
1696781878164062,-9.907388,-1.418525,0.293839,0.239194,0.96926,0.57462
1696781878171875,-9.834388,-1.466525,0.263839,0.222294,0.89626,0.57362
1696781878179687,-9.798388,-1.498525,0.220839,0.217594,0.101026,0.57562
1696781878187500,-9.868388,-1.496525,0.156839,0.215994,0.118026,0.56462
1696781878195312,-9.957388,-1.467525,0.115839,0.192894,0.117126,0.58062
1696781878203125,-10.43388,-1.465525,0.102839,0.194594,0.117426,0.56562
1696781878210937,-10.50388,-1.490525,0.93839,0.191694,0.105626,0.57862
1696781878218750,-10.34388,-1.481525,0.58839,0.173494,0.97026,0.56262
1696781878226562,-10.34388,-1.480525,0.2839,0.167394,0.93526,0.57862
1696781878234375,-10.43388,-1.478525,0.63161,0.168994,0.83726,0.52962
1696781878242187,-10.43388,-1.467525,0.86161,0.167194,0.71726,0.46262
1696781878250000,-9.994388,-1.457525,0.89161,0.168494,0.60326,0.33462
1696781878257812,-9.969388,-1.455525,0.84161,0.163694,0.67026,0.28862
1696781878265625,-9.959388,-1.445525,0.113161,0.153494,0.51326,0.17862
1696781878273437,-9.924388,-1.446525,0.127161,0.154494,0.39326,0.6362
1696781878281250,-9.850388,-1.476525,0.120161,0.153194,0.34826,0.3262
1696781878289062,-9.839388,-1.487525,0.123161,0.141094,0.31126,0.6462
1696781878296875,-9.834388,-1.482525,0.125161,0.131994,0.20926,0.4762
1696781878304687,-9.830388,-1.485525,0.118161,0.144094,0.26226,0.1562
1696781878312500,-9.850388,-1.482525,0.104161,0.125894,0.20626,0.6362
1696781878320312,-9.878388,-1.480525,0.84161,0.130394,0.12026,0.7562
1696781878328125,-9.875388,-1.494525,0.75161,0.118394,0.18026,0.20362
1696781878335937,-9.805388,-1.511525,0.91161,0.119794,0.19126,0.28162
1696781878343750,-9.750388,-1.556525,0.111161,0.119894,0.29526,0.26862
1696781878351562,-9.740388,-1.575525,0.127161,0.115594,0.24426,0.33162
1696781878359375,-9.793388,-1.548525,0.120161,0.115594,0.27826,0.33262
1696781878367187,-9.967388,-1.467525,0.104161,0.117394,0.35026,0.31962
1696781878375000,-10.23388,-1.460525,0.93161,0.124694,0.9426,0.29562
1696781878382812,-9.975388,-1.497525,0.66161,0.141394,0.3474,0.22962
1696781878390625,-9.936388,-1.506525,0.59161,0.143094,0.5374,0.29162
1696781878398437,-9.929388,-1.508525,0.82161,0.141594,0.6974,0.30762
1696781878406250,-9.965388,-1.505525,0.111161,0.144694,0.8374,0.25962
1696781878414062,-9.997388,-1.508525,0.79161,0.142894,0.6874,0.21262
1696781878421875,-10.19388,-1.531525,0.50161,0.155294,0.14474,0.17962
1696781878429687,-10.56388,-1.538525,0.36161,0.145794,0.24774,0.6662
1696781878437500,-10.67388,-1.552525,0.61161,0.144194,0.33274,0.4862
1696781878445312,-10.49388,-1.554525,0.79161,0.142894,0.44974,0.7862
1696781878453125,-10.15388,-1.575525,0.45161,0.141194,0.60374,0.2662
1696781878460937,-9.979388,-1.580525,0.4161,0.139694,0.66574,0.5238
1696781878468750,-9.944388,-1.589525,0.9161,0.122994,0.66674,0.6638
1696781878476562,-9.917388,-1.592525,0.16161,0.119594,0.70174,0.14638
1696781878484375,-9.885388,-1.585525,0.4161,0.118294,0.79574,0.22538
1696781878492187,-9.856388,-1.586525,0.13839,0.102894,0.86974,0.21138
1696781878500000,-9.894388,-1.578525,0.20839,0.95494,0.83274,0.22438
1696781878507812,-9.920388,-1.558525,0.24839,0.95394,0.83574,0.20938
1696781878515625,-9.917388,-1.544525,0.56839,0.91094,0.91974,0.16238
1696781878523437,-9.918388,-1.516525,0.54839,0.81694,0.90474,0.22538
1696781878531250,-9.920388,-1.505525,0.61839,0.87794,0.97074,0.24338
1696781878539062,-9.918388,-1.487525,0.70839,0.90894,0.103874,0.22938
1696781878546875,-9.916388,-1.449525,0.95839,0.90894,0.112074,0.24638
1696781878554687,-9.924388,-1.411525,0.129839,0.95394,0.112074,0.26238
1696781878562500,-9.933388,-1.404525,0.140839,0.90794,0.120074,0.37338
1696781878570312,-9.915388,-1.395525,0.170839,0.95494,0.126674,0.34338
1696781878578125,-9.861388,-1.397525,0.181839,0.101394,0.135574,0.31638
1696781878585937,-9.829388,-1.387525,0.206839,0.113994,0.136374,0.31538
1696781878593750,-9.829388,-1.379525,0.211839,0.116994,0.136574,0.28438
1696781878601562,-9.779388,-1.381525,0.238839,0.121694,0.134474,0.31538
1696781878609375,-9.765388,-1.397525,0.279839,0.138394,0.135774,0.33238
1696781878617187,-9.791388,-1.378525,0.302839,0.141094,0.131174,0.33338
1696781878625000,-9.798388,-1.344525,0.320839,0.150194,0.137474,0.38238
1696781878632812,-9.786388,-1.368525,0.350839,0.167294,0.145374,0.33638
1696781878640625,-9.779388,-1.371525,0.375839,0.164094,0.143674,0.38338
1696781878648437,-9.772388,-1.371525,0.391839,0.168894,0.133374,0.33338
1696781878656250,-9.776388,-1.386525,0.416839,0.167394,0.140374,0.30338
1696781878664062,-9.753388,-1.411525,0.425839,0.175294,0.140174,0.25638
1696781878671875,-9.723388,-1.418525,0.444839,0.173794,0.133374,0.23938
1696781878679687,-9.737388,-1.411525,0.450839,0.169194,0.130174,0.22238
1696781878687500,-9.787388,-1.402525,0.448839,0.167594,0.125474,0.20638
1696781878695312,-9.813388,-1.398525,0.454839,0.168694,0.119574,0.14438
1696781878703125,-9.863388,-1.408525,0.461839,0.167494,0.119774,0.6438
1696781878710937,-9.910388,-1.412525,0.477839,0.168994,0.117974,0.8038
1696781878718750,-9.910388,-1.414525,0.489839,0.150894,0.109974,0.162
1696781878726562,-9.887388,-1.437525,0.486839,0.143094,0.112274,0.1662
1696781878734375,-9.867388,-1.458525,0.477839,0.132494,0.107874,0.11162
1696781878742187,-9.866388,-1.466525,0.462839,0.120494,0.99374,0.11562
1696781878750000,-9.859388,-1.452525,0.457839,0.117494,0.97774,0.14762
1696781878757812,-9.848388,-1.478525,0.468839,0.105094,0.91474,0.13362
1696781878765625,-9.855388,-1.489525,0.455839,0.91394,0.71774,0.18562
1696781878773437,-9.864388,-1.488525,0.455839,0.73094,0.73874,0.18662
1696781878781250,-9.866388,-1.483525,0.450839,0.73394,0.78874,0.26562
1696781878789062,-9.832388,-1.502525,0.457839,0.70294,0.77574,0.28062
1696781878796875,-9.791388,-1.514525,0.453839,0.67494,0.77874,0.37562
1696781878804687,-9.812388,-1.498525,0.430839,0.49094,0.68674,0.45662
1696781878812500,-9.833388,-1.476525,0.427839,0.47494,0.70474,0.45562
1696781878820312,-9.821388,-1.480525,0.455839,0.46094,0.68974,0.50362
1696781878828125,-9.800388,-1.505525,0.457839,0.39894,0.70774,0.47262
1696781878835937,-9.735388,-1.515525,0.450839,0.23094,0.69374,0.47362
1696781878843750,-9.705388,-1.522525,0.434839,0.23094,0.60674,0.42862
1696781878851562,-9.716388,-1.524525,0.430839,0.19994,0.55474,0.38362
1696781878859375,-9.786388,-1.514525,0.443839,0.16994,0.48974,0.44762
1696781878867187,-9.801388,-1.510525,0.457839,0.21194,0.54074,0.36662
1696781878875000,-9.761388,-1.516525,0.459839,0.18594,0.59074,0.44562
1696781878882812,-9.779388,-1.486525,0.455839,0.20394,0.55274,0.44762
1696781878890625,-9.828388,-1.447525,0.455839,0.21394,0.64374,0.42762
1696781878898437,-9.822388,-1.438525,0.457839,0.36794,0.70774,0.44062
1696781878906250,-9.813388,-1.454525,0.489839,0.48694,0.73874,0.37562
1696781878914062,-9.806388,-1.458525,0.498839,0.48894,0.78474,0.34462
1696781878921875,-9.802388,-1.436525,0.493839,0.47294,0.73874,0.39162
1696781878929687,-9.800388,-1.421525,0.489839,0.48694,0.73674,0.34462
1696781878937500,-9.781388,-1.443525,0.509839,0.61194,0.71774,0.42362
1696781878945312,-9.763388,-1.459525,0.523839,0.67194,0.62274,0.51862
1696781878953125,-9.778388,-1.479525,0.521839,0.71994,0.53474,0.53662
1696781878960937,-9.781388,-1.493525,0.502839,0.70294,0.43974,0.60062
1696781878968750,-9.776388,-1.519525,0.500839,0.76694,0.40974,0.75862
1696781878976562,-9.775388,-1.546525,0.507839,0.72194,0.25974,0.80962
1696781878984375,-9.807388,-1.568525,0.491839,0.72194,0.18174,0.90462
1696781878992187,-9.831388,-1.601525,0.466839,0.73694,0.16674,0.93562
1696781879000000,-9.812388,-1.646525,0.459839,0.75294,0.4674,0.93862
1696781879007812,-9.812388,-1.690525,0.455839,0.81294,0.8826,0.97262
1696781879015625,-9.762388,-1.729525,0.432839,0.72294,0.8326,0.103662
1696781879023437,-9.751388,-1.745525,0.398839,0.68894,0.9626,0.100362
1696781879031250,-9.846388,-1.696525,0.394839,0.61494,0.18626,0.96062
1696781879039062,-9.858388,-1.684525,0.421839,0.68794,0.13426,0.91062
1696781879046875,-9.833388,-1.698525,0.430839,0.70194,0.2026,0.81362
1696781879054687,-9.783388,-1.710525,0.446839,0.71594,0.1926,0.81362
1696781879062500,-9.774388,-1.707525,0.375839,0.68394,0.15726,0.73862
1696781879070312,-9.794388,-1.675525,0.346839,0.70294,0.11326,0.72262
1696781879078125,-9.808388,-1.659525,0.362839,0.71494,0.9926,0.59662
1696781879085937,-9.818388,-1.644525,0.382839,0.78794,0.14926,0.54862
1696781879093750,-9.817388,-1.648525,0.375839,0.69694,0.26626,0.56762
1696781879101562,-9.815388,-1.641525,0.350839,0.71394,0.27126,0.55362
1696781879109375,-9.810388,-1.643525,0.321839,0.71394,0.18826,0.52062
1696781879117187,-9.808388,-1.653525,0.300839,0.72694,0.23426,0.53562
1696781879125000,-9.787388,-1.657525,0.291839,0.83394,0.29226,0.48962
1696781879132812,-9.779388,-1.671525,0.250839,0.80194,0.32326,0.49062
1696781879140625,-9.810388,-1.650525,0.204839,0.77394,0.38726,0.57062
1696781879148437,-9.815388,-1.659525,0.200839,0.80294,0.37526,0.49162
1696781879156250,-9.810388,-1.679525,0.195839,0.78694,0.38926,0.49162
1696781879164062,-9.823388,-1.694525,0.177839,0.81994,0.37426,0.53862
1696781879171875,-9.841388,-1.703525,0.141839,0.85094,0.37326,0.57062
1696781879179687,-9.860388,-1.701525,0.129839,0.93894,0.38826,0.55262
1696781879187500,-9.880388,-1.718525,0.109839,0.89394,0.28626,0.56662
1696781879195312,-9.871388,-1.734525,0.109839,0.95694,0.22226,0.54962
1696781879203125,-9.882388,-1.749525,0.107839,0.94194,0.13926,0.54862
1696781879210937,-9.897388,-1.756525,0.98839,0.95594,0.10926,0.45362
1696781879218750,-9.909388,-1.769525,0.97839,0.93994,0.4674,0.48062
1696781879226562,-9.915388,-1.793525,0.84839,0.97094,0.12074,0.33862
1696781879234375,-9.890388,-1.798525,0.104839,0.101794,0.18874,0.36862
1696781879242187,-9.856388,-1.819525,0.111839,0.101594,0.21774,0.25762
1696781879250000,-9.847388,-1.824525,0.125839,0.95194,0.28774,0.19262
1696781879257812,-9.861388,-1.801525,0.130839,0.93894,0.34974,0.14562
1696781879265625,-9.856388,-1.797525,0.145839,0.95194,0.41674,0.8062
1696781879273437,-9.827388,-1.808525,0.164839,0.93594,0.39874,0.4962
1696781879281250,-9.804388,-1.815525,0.182839,0.101294,0.45874,0.3038
1696781879289062,-9.804388,-1.822525,0.171839,0.92094,0.31274,0.5162
1696781879296875,-9.808388,-1.799525,0.155839,0.90494,0.19374,0.762
1696781879304687,-9.822388,-1.801525,0.164839,0.93594,0.24374,0.662
1696781879312500,-9.831388,-1.815525,0.166839,0.85994,0.24774,0.6962
1696781879320312,-9.820388,-1.812525,0.161839,0.79794,0.26374,0.662
1696781879328125,-9.799388,-1.822525,0.130839,0.70494,0.21474,0.2338
1696781879335937,-9.781388,-1.844525,0.105839,0.70494,0.11674,0.2562
1696781879343750,-9.785388,-1.837525,0.82839,0.62794,0.7874,0.8238
1696781879351562,-9.813388,-1.812525,0.68839,0.47694,0.4674,0.4838
1696781879359375,-9.831388,-1.810525,0.50839,0.47594,0.4874,0.6538
1696781879367187,-9.842388,-1.807525,0.32839,0.39994,0.326,0.7838
1696781879375000,-9.820388,-1.812525,0.11839,0.24694,0.2074,0.4738
1696781879382812,-9.799388,-1.812525,0.2839,0.20294,0.3874,0.1538
1696781879390625,-9.822388,-1.801525,0.31161,0.10994,0.5774,0.3138
1696781879398437,-9.859388,-1.778525,0.52161,0.4894,0.14474,0.1738
1696781879406250,-9.835388,-1.773525,0.31161,0.3806,0.15974,0.1562
1696781879414062,-9.804388,-1.792525,0.33161,0.3906,0.14574,0.3162
1696781879421875,-9.811388,-1.804525,0.45161,0.11706,0.15374,0.9262
1696781879429687,-9.879388,-1.771525,0.63161,0.23706,0.12174,0.12662
1696781879437500,-9.905388,-1.749525,0.34161,0.25406,0.17774,0.17162
1696781879445312,-9.866388,-1.763525,0.9839,0.26706,0.36874,0.27762
1696781879453125,-9.806388,-1.790525,0.34839,0.27906,0.36374,0.26262
1696781879460937,-9.811388,-1.775525,0.22839,0.28006,0.18174,0.31362
1696781879468750,-9.857388,-1.749525,0.18839,0.37106,0.36674,0.27862
1696781879476562,-9.864388,-1.758525,0.54839,0.32306,0.50474,0.36962
1696781879484375,-9.813388,-1.802525,0.91839,0.32606,0.45374,0.30762
1696781879492187,-9.770388,-1.837525,0.91839,0.46106,0.45374,0.32562
1696781879500000,-9.772388,-1.833525,0.45839,0.59806,0.32374,0.36062
1696781879507812,-9.809388,-1.801525,0.32839,0.66106,0.24074,0.34662
1696781879515625,-9.868388,-1.781525,0.36839,0.58506,0.19174,0.37762
1696781879523437,-9.897388,-1.776525,0.75839,0.47506,0.33974,0.40662
1696781879531250,-9.895388,-1.780525,0.102839,0.52106,0.42774,0.45162
1696781879539062,-9.886388,-1.772525,0.93839,0.50506,0.46574,0.52862
1696781879546875,-9.855388,-1.750525,0.93839,0.50606,0.60174,0.50962
1696781879554687,-9.814388,-1.760525,0.109839,0.35206,0.74974,0.52062
1696781879562500,-9.793388,-1.762525,0.127839,0.30406,0.81274,0.50462
1696781879570312,-9.781388,-1.748525,0.171839,0.16406,0.90274,0.44062
1696781879578125,-9.753388,-1.744525,0.202839,0.7506,0.104074,0.45162
1696781879585937,-9.694388,-1.768525,0.200839,0.0,0.98974,0.43562
1696781879593750,-9.666388,-1.772525,0.234839,0.4506,0.101674,0.32662
1696781879601562,-9.704388,-1.772525,0.250839,0.12294,0.99674,0.35762
1696781879609375,-9.764388,-1.734525,0.298839,0.24194,0.106274,0.29062
1696781879617187,-9.782388,-1.728525,0.355839,0.29094,0.115974,0.28962
1696781879625000,-9.787388,-1.744525,0.359839,0.51794,0.110574,0.27262
1696781879632812,-9.809388,-1.768525,0.373839,0.57994,0.110374,0.28862
1696781879640625,-9.808388,-1.779525,0.378839,0.60994,0.110174,0.27362
1696781879648437,-9.809388,-1.796525,0.375839,0.72894,0.98774,0.28862
1696781879656250,-9.792388,-1.836525,0.382839,0.69894,0.91274,0.19762
1696781879664062,-9.803388,-1.862525,0.389839,0.71394,0.86174,0.19862
1696781879671875,-9.830388,-1.875525,0.394839,0.69794,0.70974,0.20262
1696781879679687,-9.832388,-1.895525,0.364839,0.71394,0.64674,0.29762
1696781879687500,-9.782388,-1.919525,0.362839,0.71294,0.68174,0.28062
1696781879695312,-9.813388,-1.935525,0.337839,0.70094,0.47474,0.30262
1696781879703125,-9.862388,-1.915525,0.321839,0.55794,0.43474,0.28662
1696781879710937,-9.756388,-1.967525,0.344839,0.63794,0.54674,0.30062
1696781879718750,-9.666388,-2.41525,0.317839,0.54094,0.41874,0.25462
1696781879726562,-9.674388,-2.53525,0.260839,0.28294,0.24774,0.18362
1696781879734375,-9.719388,-2.31525,0.208839,0.19294,0.13974,0.9362
1696781879742187,-9.739388,-2.27525,0.201839,0.12994,0.15374,0.1638
1696781879750000,-9.755388,-2.43525,0.203839,0.494,0.14174,0.4738
1696781879757812,-9.762388,-2.20525,0.194839,0.16406,0.12174,0.18738
1696781879765625,-9.774388,-1.982525,0.144839,0.27306,0.5574,0.24838
1696781879773437,-9.783388,-1.952525,0.110839,0.28606,0.8374,0.27838
1696781879781250,-9.793388,-1.921525,0.105839,0.44006,0.15474,0.32738
1696781879789062,-9.822388,-1.894525,0.96839,0.56406,0.15174,0.43538
1696781879796875,-9.846388,-1.862525,0.89839,0.58006,0.16974,0.45238
1696781879804687,-9.845388,-1.840525,0.64839,0.59206,0.33574,0.42338
1696781879812500,-9.825388,-1.813525,0.66839,0.72906,0.39074,0.42338
1696781879820312,-9.849388,-1.789525,0.66839,0.80606,0.29474,0.37438
1696781879828125,-9.858388,-1.753525,0.68839,0.91106,0.31874,0.24838
1696781879835937,-9.825388,-1.738525,0.64839,0.94206,0.25274,0.23138
