time,Acceleration X (m/s^2),Acceleration Y (m/s^2),Acceleration Z (m/s^2),Angular Velocity X (rad/s),Angular Velocity Y (rad/s),Angular Velocity Z (rad/s)
1702332064750000,-9.156115,-3.778375,758219.9,,,
1702332064757812,-9.109115,-3.928375,0.984469,0.0,0.49,628219.9
1702332064765625,-9.89115,-4.57375,1.30469,0.0,0.49,908219.9
1702332064773437,-9.53115,-4.189375,1.73469,0.0,0.5,178219.9
1702332064781250,-8.984115,-4.287375,1.132469,0.0,0.5,48219.9
1702332064789062,-8.896115,-4.391375,1.189469,0.0,0.49,628219.9
1702332064804687,-8.760115,-4.594375,1.300469,0.0,0.49,488219.9
1702332064812500,-8.822115,-4.615375,1.377469,0.0,0.49,228219.9
1702332064820312,-8.980115,-4.550375,1.401469,0.0,0.49,88219.9
1702332064828125,-9.118115,-4.446375,1.392469,0.0,0.49,268219.9
1702332064851562,-9.260115,-4.239375,1.330469,0.0,0.49,148219.9
1702332064859375,-9.254115,-4.188375,1.339469,0.0,0.49,148219.9
1702332064867187,-9.265115,-4.81375,1.316469,0.0,0.49,98219.9
1702332064875000,-9.191115,-3.985375,1.219469,0.0,0.49,368219.9
1702332064882812,-8.991115,-3.910375,1.106469,0.0,0.49,648219.9
1702332064890625,-8.793115,-3.842375,1.4469,0.0,0.49,508219.9
1702332064898437,-8.639115,-3.740375,0.914469,0.0,0.49,228219.9
1702332064906250,-8.517115,-3.571375,0.817469,0.0,0.49,248219.9
1702332064914062,-8.449115,-3.392375,0.663469,0.0,0.49,458219.9
1702332064921875,-8.437115,-3.192375,0.504469,0.0,0.49,138219.8
1702332064929687,-8.474115,-2.989375,0.323469,0.0,0.49,18219.8
1702332064937500,-8.571115,-2.776375,0.187469,0.0,0.49,188219.8
1702332064945312,-8.738115,-2.569375,0.60469,0.0,0.49,288219.8
1702332064953125,-8.953115,-2.412375,0.39531,0.0,0.49,428219.7
1702332064960937,-9.119115,-2.331375,0.127531,0.0,0.49,428219.7
1702332064968750,-9.270115,-2.291375,0.193531,0.0,0.49,278219.7
1702332064976562,-9.442115,-2.252375,0.207531,0.0,0.49,288219.7
1702332064984375,-9.499115,-2.236375,0.209531,0.0,0.49,448219.7
1702332064992187,-9.308115,-2.283375,0.191531,0.0,0.49,398219.7
1702332065000000,-9.115,-2.388375,0.138531,0.0,0.49,528219.7
1702332065007812,-8.749115,-2.473375,0.79531,0.0,0.49,728219.6
1702332065015625,-8.573115,-2.525375,0.70531,0.0,0.49,408219.6
1702332065023437,-8.446115,-2.520375,0.74531,0.0,0.49,288219.6
1702332065031250,-8.354115,-2.553375,0.106531,0.0,0.49,428219.6
1702332065039062,-8.347115,-2.590375,0.123531,0.0,0.49,618219.6
1702332065046875,-8.425115,-2.596375,0.132531,0.0,0.49,348219.6
1702332065054687,-8.556115,-2.613375,0.121531,0.0,0.48,978219.6
1702332065062500,-8.678115,-2.662375,0.99531,0.0,0.49,178219.6
1702332065070312,-8.934115,-2.736375,0.38531,0.0,0.48,958219.6
1702332065078125,-9.538115,-2.666375,0.10469,0.0,0.48,958219.6
1702332065085937,-9.857115,-2.692375,0.16531,0.0,0.49,158219.6
1702332065093750,-9.570115,-3.9375,0.4531,0.0,0.48,928219.6
1702332065101562,-9.443115,-3.282375,0.136469,0.0,0.48,988219.6
1702332065109375,-9.556115,-3.538375,0.256469,0.0,0.48,938219.6
1702332065117187,-9.457115,-3.755375,0.300469,0.0,0.49,98219.6
1702332065125000,-9.379115,-3.868375,0.391469,0.0,0.49,98219.6
1702332065132812,-9.118115,-4.81375,0.441469,0.0,0.48,948219.6
1702332065140625,-8.413115,-4.462375,0.576469,0.0,0.48,938219.7
1702332065148437,-7.789115,-4.766375,0.900469,0.0,0.49,88219.7
1702332065156250,-7.540115,-4.903375,1.304469,0.0,0.49,58219.7
1702332065164062,-7.450115,-4.912375,1.699469,0.0,0.49,98219.7
1702332065171875,-7.307115,-4.896375,2.42469,0.0,0.48,948219.7
1702332065179687,-7.236115,-4.851375,2.360469,0.0,0.48,98219.8
1702332065187500,-7.509115,-4.704375,2.686469,0.0,0.47,928219.8
1702332065195312,-8.81115,-4.411375,3.27469,0.0,0.48,58219.8
1702332065203125,-8.634115,-4.41375,3.262469,0.0,0.48,358219.8
1702332065210937,-8.868115,-3.804375,3.309469,0.0,0.48,248219.8
1702332065218750,-8.710115,-3.898375,3.266469,0.0,0.47,728219.8
1702332065226562,-8.375115,-4.152375,3.231469,0.0,0.47,428219.8
1702332065234375,-7.989115,-4.398375,3.323469,0.0,0.47,168219.8
1702332065242187,-7.584115,-4.554375,3.529469,0.0,0.47,238219.8
1702332065250000,-7.215115,-4.595375,3.757469,0.0,0.47,128219.8
1702332065257812,-7.44115,-4.523375,3.931469,0.0,0.46,838219.8
1702332065265625,-7.267115,-4.271375,4.4469,0.0,0.46,898219.8
1702332065273437,-7.785115,-3.893375,3.986469,0.0,0.46,918219.8
1702332065281250,-8.396115,-3.547375,3.784469,0.0,0.46,788219.8
1702332065289062,-8.943115,-3.311375,3.530469,0.0,0.46,628219.8
1702332065296875,-9.427115,-3.229375,3.362469,0.0,0.46,778219.8
1702332065304687,-9.859115,-3.284375,3.347469,0.0,0.46,958219.8
1702332065312500,-10.282115,-3.352375,3.450469,0.0,0.46,668219.8
1702332065320312,-10.479115,-3.474375,3.543469,0.0,0.46,398219.9
1702332065328125,-10.191115,-3.838375,3.517469,0.0,0.46,468219.9
1702332065335937,-9.671115,-4.350375,3.418469,0.0,0.46,318219.9
1702332065343750,-9.303115,-4.736375,3.440469,0.0,0.46,228219.9
1702332065351562,-9.33115,-4.978375,3.470469,0.0,0.46,78219.9
1702332065359375,-8.797115,-5.93375,3.462469,0.0,0.46,98219.1
1702332065367187,-8.702115,-5.140375,3.354469,0.0,0.46,148219.1
1702332065375000,-8.769115,-5.190375,3.169469,0.0,0.45,878219.1
1702332065382812,-8.914115,-5.187375,2.984469,0.0,0.45,618219.1
1702332065390625,-8.951115,-5.135375,2.880469,0.0,0.45,638219.1
1702332065398437,-8.824115,-5.110375,2.808469,0.0,0.45,808219.11
1702332065406250,-8.660115,-5.148375,2.792469,0.0,0.45,628219.1
1702332065414062,-8.600115,-5.142375,2.774469,0.0,0.45,608219.1
1702332065421875,-8.581115,-5.65375,2.722469,0.0,0.45,918219.11
1702332065429687,-8.516115,-4.955375,2.609469,0.0,0.45,878219.11
1702332065437500,-8.409115,-4.838375,2.440469,0.0,0.45,698219.11
1702332065445312,-8.304115,-4.702375,2.288469,0.0,0.45,918219.11
1702332065453125,-8.223115,-4.526375,2.180469,0.0,0.45,778219.1
1702332065460937,-8.148115,-4.305375,2.111469,0.0,0.45,518219.1
1702332065468750,-8.96115,-4.93375,2.52469,0.0,0.45,418219.11
1702332065476562,-8.79115,-3.893375,1.975469,0.0,0.45,388219.1
1702332065484375,-8.87115,-3.704375,1.862469,0.0,0.45,688219.1
1702332065492187,-8.95115,-3.537375,1.759469,0.0,0.45,788219.1
1702332065500000,-8.151115,-3.383375,1.702469,0.0,0.45,748219.1
1702332065507812,-8.260115,-3.250375,1.688469,0.0,0.45,858219.1
1702332065515625,-8.363115,-3.151375,1.701469,0.0,0.46,118219.1
1702332065523437,-8.448115,-3.123375,1.749469,0.0,0.46,208219.1
1702332065531250,-8.526115,-3.133375,1.843469,0.0,0.46,318219.1
1702332065539062,-8.568115,-3.226375,1.947469,0.0,0.46,468219.9
1702332065546875,-8.600115,-3.332375,2.63469,0.0,0.46,408219.9
1702332065554687,-8.607115,-3.463375,2.205469,0.0,0.46,558219.1
1702332065562500,-8.618115,-3.572375,2.316469,0.0,0.46,238219.1
1702332065570312,-8.626115,-3.650375,2.433469,0.0,0.46,118219.9
1702332065578125,-8.600115,-3.695375,2.524469,0.0,0.46,38219.9
1702332065585937,-8.503115,-3.737375,2.607469,0.0,0.45,698219.1
1702332065593750,-8.387115,-3.730375,2.722469,0.0,0.45,598219.1
1702332065601562,-8.326115,-3.665375,2.846469,0.0,0.45,608219.1
1702332065609375,-8.319115,-3.546375,2.948469,0.0,0.45,668219.1
1702332065617187,-8.359115,-3.397375,3.37469,0.0,0.45,348219.1
1702332065625000,-8.445115,-3.220375,3.66469,0.0,0.45,408219.1
1702332065632812,-8.528115,-3.73375,3.65469,0.0,0.45,458219.1
1702332065640625,-8.586115,-2.956375,3.49469,0.0,0.45,148219.9
1702332065648437,-8.601115,-2.863375,3.78469,0.0,0.45,148219.1
1702332065656250,-8.635115,-2.793375,3.105469,0.0,0.45,458219.1
1702332065664062,-8.651115,-2.796375,3.139469,0.0,0.45,448219.9
1702332065671875,-8.668115,-2.826375,3.114469,0.0,0.45,218219.9
1702332065679687,-8.692115,-2.881375,3.69469,0.0,0.45,598219.9
1702332065687500,-8.830115,-2.908375,3.33469,0.0,0.45,438219.9
1702332065695312,-8.928115,-2.908375,2.915469,0.0,0.45,98219.9
1702332065703125,-8.633115,-3.52375,2.792469,0.0,0.45,448219.9
1702332065710937,-8.478115,-3.99375,2.783469,0.0,0.45,568219.9
1702332065718750,-8.562115,-3.51375,2.894469,0.0,0.45,388219.9
1702332065726562,-8.430115,-3.87375,2.916469,0.0,0.45,418219.9
1702332065734375,-8.217115,-3.95375,2.903469,0.0,0.45,418219.9
1702332065742187,-8.285115,-3.152375,2.937469,0.0,0.45,418219.9
1702332065750000,-8.379115,-3.270375,2.876469,0.0,0.45,448219.9
1702332065757812,-8.328115,-3.401375,2.789469,0.0,0.45,278219.9
1702332065765625,-8.245115,-3.566375,2.699469,0.0,0.45,348219.9
1702332065773437,-8.239115,-3.786375,2.601469,0.0,0.45,108219.1
1702332065781250,-8.283115,-3.998375,2.487469,0.0,0.45,488219.9
1702332065789062,-8.301115,-4.128375,2.455469,0.0,0.45,308219.9
1702332065796875,-8.339115,-4.230375,2.436469,0.0,0.45,118219.1
1702332065804687,-8.400115,-4.319375,2.382469,0.0,0.45,478219.9
1702332065812500,-8.434115,-4.407375,2.326469,0.0,0.45,378219.9
1702332065820312,-8.412115,-4.529375,2.254469,0.0,0.45,518219.1
1702332065828125,-8.348115,-4.641375,2.189469,0.0,0.45,638219.1
1702332065835937,-8.239115,-4.767375,2.142469,0.0,0.45,648219.1
1702332065843750,-8.155115,-4.857375,2.117469,0.0,0.45,478219.1
1702332065851562,-8.116115,-4.904375,2.89469,0.0,0.45,558219.1
1702332065859375,-8.146115,-4.935375,2.64469,0.0,0.45,268219.1
1702332065867187,-8.196115,-4.923375,2.3469,0.0,0.45,108219.1
1702332065875000,-8.304115,-4.878375,1.948469,0.0,0.45,418219.1
1702332065882812,-8.412115,-4.825375,1.892469,0.0,0.45,508219.11
1702332065890625,-8.455115,-4.796375,1.865469,0.0,0.45,518219.11
1702332065898437,-8.458115,-4.774375,1.898469,0.0,0.45,358219.1
1702332065906250,-8.422115,-4.741375,1.993469,0.0,0.45,358219.1
1702332065914062,-8.365115,-4.692375,2.108469,0.0,0.45,548219.11
1702332065921875,-8.294115,-4.664375,2.230469,0.0,0.45,328219.11
1702332065929687,-8.228115,-4.693375,2.331469,0.0,0.45,508219.11
1702332065937500,-8.170115,-4.692375,2.431469,0.0,0.45,528219.11
1702332065945312,-8.168115,-4.663375,2.557469,0.0,0.45,248219.11
1702332065953125,-8.232115,-4.603375,2.680469,0.0,0.45,118219.11
1702332065960937,-8.284115,-4.547375,2.759469,0.0,0.45,268219.11
1702332065968750,-8.222115,-4.548375,2.782469,0.0,0.45,438219.11
1702332065976562,-8.137115,-4.523375,2.843469,0.0,0.45,238219.11
1702332065984375,-8.109115,-4.446375,2.957469,0.0,0.45,328219.11
1702332065992187,-8.127115,-4.293375,3.83469,0.0,0.45,38219.11
1702332066000000,-8.168115,-4.122375,3.152469,0.0,0.44,908219.11
1702332066007812,-8.184115,-3.966375,3.181469,0.0,0.45,68219.11
1702332066015625,-8.195115,-3.842375,3.147469,0.0,0.45,148219.11
1702332066023437,-8.152115,-3.751375,3.138469,0.0,0.45,338219.11
1702332066031250,-8.106115,-3.677375,3.138469,0.0,0.45,58219.11
1702332066039062,-8.63115,-3.622375,3.160469,0.0,0.44,778219.11
1702332066046875,-8.54115,-3.600375,3.187469,0.0,0.44,938219.11
1702332066054687,-8.140115,-3.581375,3.186469,0.0,0.45,158219.11
1702332066062500,-8.283115,-3.530375,3.155469,0.0,0.45,108219.1
1702332066070312,-8.373115,-3.506375,3.89469,0.0,0.45,138219.1
1702332066078125,-8.372115,-3.541375,3.40469,0.0,0.45,468219.1
1702332066085937,-8.324115,-3.633375,3.49469,0.0,0.45,318219.1
1702332066093750,-8.252115,-3.692375,3.149469,0.0,0.44,998219.1
1702332066101562,-8.261115,-3.750375,3.282469,0.0,0.45,248219.1
1702332066109375,-8.376115,-3.824375,3.359469,0.0,0.45,58219.1
1702332066117187,-8.450115,-3.956375,3.373469,0.0,0.44,978219.1
1702332066125000,-8.469115,-4.150375,3.357469,0.0,0.45,548219.1
1702332066132812,-8.466115,-4.346375,3.360469,0.0,0.45,798219.11
1702332066140625,-8.438115,-4.537375,3.406469,0.0,0.45,508219.11
1702332066148437,-8.378115,-4.740375,3.441469,0.0,0.45,218219.11
1702332066156250,-8.302115,-4.921375,3.473469,0.0,0.45,398219.11
1702332066164062,-8.212115,-5.103375,3.523469,0.0,0.45,478219.11
1702332066171875,-8.119115,-5.262375,3.517469,0.0,0.45,638219.11
1702332066179687,-8.54115,-5.407375,3.495469,0.0,0.45,538219.11
1702332066187500,-8.28115,-5.514375,3.434469,0.0,0.45,148219.11
1702332066195312,-8.27115,-5.593375,3.353469,0.0,0.45,678219.11
1702332066203125,-8.13115,-5.637375,3.218469,0.0,0.45,638219.11
1702332066210937,-8.28115,-5.648375,3.79469,0.0,0.45,328219.11
1702332066218750,-8.51115,-5.605375,2.950469,0.0,0.45,388219.11
1702332066226562,-8.69115,-5.491375,2.810469,0.0,0.45,408219.11
1702332066234375,-8.166115,-5.325375,2.678469,0.0,0.45,238219.11
1702332066242187,-8.290115,-5.151375,2.518469,0.0,0.45,298219.11
1702332066250000,-8.479115,-4.915375,2.336469,0.0,0.45,928219.11
1702332066257812,-8.670115,-4.629375,2.150469,0.0,0.45,778219.11
1702332066265625,-8.806115,-4.371375,1.987469,0.0,0.45,888219.1
1702332066273437,-8.938115,-4.87375,1.887469,0.0,0.46,288219.1
1702332066281250,-9.110115,-3.804375,1.867469,0.0,0.46,508219.1
1702332066289062,-9.205115,-3.492375,1.866469,0.0,0.46,478219.1
1702332066296875,-9.170115,-3.202375,1.856469,0.0,0.46,428219.1
1702332066304687,-9.89115,-2.984375,1.894469,0.0,0.46,728219.1
1702332066312500,-9.22115,-2.805375,1.966469,0.0,0.46,828219.1
1702332066320312,-8.962115,-2.649375,2.42469,0.0,0.46,758219.1
1702332066328125,-8.880115,-2.491375,2.125469,0.0,0.47,38219.9
1702332066335937,-8.735115,-2.350375,2.170469,0.0,0.47,278219.9
1702332066343750,-8.558115,-2.239375,2.194469,0.0,0.47,398219.9
1702332066351562,-8.419115,-2.149375,2.248469,0.0,0.47,348219.9
1702332066359375,-8.373115,-1.997375,2.329469,0.0,0.47,478219.8
1702332066367187,-8.355115,-1.864375,2.407469,0.0,0.47,638219.9
1702332066375000,-8.283115,-1.759375,2.475469,0.0,0.47,458219.9
1702332066382812,-8.250115,-1.691375,2.542469,0.0,0.47,468219.8
1702332066390625,-8.356115,-1.672375,2.585469,0.0,0.47,598219.8
1702332066398437,-8.467115,-1.703375,2.619469,0.0,0.47,688219.8
1702332066406250,-8.487115,-1.821375,2.590469,0.0,0.47,828219.8
1702332066414062,-8.449115,-1.967375,2.563469,0.0,0.47,778219.8
1702332066421875,-8.445115,-2.81375,2.568469,0.0,0.47,908219.8
1702332066429687,-8.371115,-2.204375,2.621469,0.0,0.48,78219.8
1702332066437500,-8.252115,-2.260375,2.668469,0.0,0.47,848219.8
1702332066445312,-8.153115,-2.282375,2.768469,0.0,0.48,48219.8
1702332066453125,-8.137115,-2.293375,2.898469,0.0,0.48,18219.8
1702332066460937,-8.88115,-2.408375,2.964469,0.0,0.47,958219.9
1702332066468750,-7.912115,-2.652375,2.988469,0.0,0.48,278219.8
1702332066476562,-7.847115,-2.907375,3.27469,0.0,0.48,238219.8
1702332066484375,-7.982115,-3.140375,3.109469,0.0,0.48,118219.8
1702332066492187,-8.494115,-3.195375,3.183469,0.0,0.47,948219.8
1702332066500000,-9.163115,-3.128375,3.103469,0.0,0.48,148219.9
1702332066507812,-9.166115,-3.476375,2.868469,0.0,0.48,38219.9
1702332066515625,-9.360115,-3.650375,2.692469,0.0,0.48,388219.9
1702332066523437,-9.575115,-3.850375,2.735469,0.0,0.48,978219.9
1702332066531250,-9.77115,-4.295375,2.676469,0.0,0.48,668219.9
1702332066539062,-8.310115,-4.610375,2.633469,0.0,0.48,878219.1
1702332066546875,-7.654115,-4.987375,2.698469,0.0,0.48,848219.1
1702332066554687,-6.979115,-5.385375,2.569469,0.0,0.48,768219.1
1702332066562500,-6.371115,-5.712375,2.424469,0.0,0.48,878219.1
1702332066570312,-6.81115,-5.847375,2.269469,0.0,0.48,578219.11
1702332066578125,-6.261115,-5.878375,1.958469,0.0,0.48,578219.1
1702332066585937,-6.792115,-5.804375,1.524469,0.0,0.48,778219.11
1702332066593750,-7.435115,-5.693375,0.994469,0.0,0.48,658219.11
1702332066601562,-7.924115,-5.646375,0.495469,0.0,0.48,928219.1
1702332066609375,-8.372115,-5.668375,0.206469,0.0,0.49,188219.1
1702332066617187,-8.899115,-5.676375,0.50469,0.0,0.49,148219.1
1702332066625000,-9.174115,-5.824375,0.125531,0.0,0.49,58219.1
1702332066632812,-9.170115,-6.41375,0.318531,0.0,0.49,508219.1
1702332066640625,-9.103115,-6.197375,0.453531,0.0,0.49,568219.11
1702332066648437,-8.939115,-6.381375,0.574531,0.0,0.49,528219.11
1702332066656250,-8.644115,-6.535375,0.670531,0.0,0.49,608219.11
1702332066664062,-8.337115,-6.591375,0.737531,0.0,0.49,238219.11
1702332066671875,-8.176115,-6.637375,0.858531,0.0,0.49,438219.12
1702332066679687,-8.183115,-6.639375,-1.12531,0.0,0.49,538219.11
1702332066687500,-8.525115,-6.466375,-1.148531,0.0,0.49,608219.11
1702332066695312,-9.23115,-6.246375,-1.327531,0.0,0.49,928219.12
1702332066703125,-9.417115,-6.77375,-1.457531,0.0,0.49,698219.12
1702332066710937,-9.770115,-5.872375,-1.426531,0.0,0.49,738219.12
1702332066718750,-10.251115,-5.584375,-1.337531,0.0,0.49,748219.11
1702332066726562,-10.684115,-5.326375,-1.291531,0.0,0.49,718219.11
1702332066734375,-10.645115,-5.239375,-1.210531,0.0,0.49,848219.11
1702332066742187,-10.113115,-5.410375,-1.67531,0.0,0.49,938219.12
1702332066750000,-9.629115,-5.632375,0.865531,0.0,0.5,78219.12
1702332066757812,-9.456115,-5.645375,0.649531,0.0,0.5,18219.12
1702332066765625,-9.457115,-5.496375,0.516531,0.0,0.5,188219.12
1702332066773437,-9.525115,-5.276375,0.492531,0.0,0.5,178219.12
1702332066781250,-9.658115,-5.78375,0.479531,0.0,0.5,38219.12
1702332066789062,-9.655115,-5.14375,0.448531,0.0,0.49,978219.12
1702332066796875,-9.508115,-4.968375,0.365531,0.0,0.5,428219.12
1702332066804687,-9.401115,-4.824375,0.297531,0.0,0.5,558219.11
1702332066812500,-9.387115,-4.609375,0.298531,0.0,0.5,208219.12
1702332066820312,-9.304115,-4.368375,0.312531,0.0,0.5,278219.11
1702332066828125,-9.134115,-4.121375,0.266531,0.0,0.5,278219.11
1702332066835937,-8.916115,-3.923375,0.198531,0.0,0.5,258219.11
1702332066843750,-8.711115,-3.782375,0.151531,0.0,0.5,388219.11
1702332066851562,-8.498115,-3.655375,0.118531,0.0,0.5,528219.11
1702332066859375,-8.396115,-3.528375,0.93531,0.0,0.5,488219.11
1702332066867187,-8.378115,-3.398375,0.64531,0.0,0.5,598219.1
1702332066875000,-8.416115,-3.251375,0.42531,0.0,0.5,898219.1
1702332066882812,-8.426115,-3.160375,0.31531,0.0,0.5,818219.1
1702332066890625,-8.326115,-3.130375,0.4469,0.0,0.5,958219.1
1702332066898437,-8.212115,-3.161375,0.60469,0.0,0.51,108219.1
1702332066906250,-8.180115,-3.191375,0.92469,0.0,0.5,978219.1
1702332066914062,-8.220115,-3.190375,0.110469,0.0,0.5,698219.1
1702332066921875,-8.273115,-3.227375,0.112469,0.0,0.5,688219.1
1702332066929687,-8.281115,-3.280375,0.110469,0.0,0.51,58219.1
1702332066937500,-8.282115,-3.360375,0.147469,0.0,0.5,748219.9
1702332066945312,-8.276115,-3.467375,0.190469,0.0,0.5,458219.9
1702332066953125,-8.263115,-3.558375,0.199469,0.0,0.5,638219.9
1702332066960937,-8.266115,-3.644375,0.188469,0.0,0.5,768219.9
1702332066968750,-8.291115,-3.722375,0.182469,0.0,0.5,718219.1
1702332066976562,-8.348115,-3.796375,0.148469,0.0,0.5,878219.1
1702332066984375,-8.424115,-3.828375,0.114469,0.0,0.5,878219.1
1702332066992187,-8.573115,-3.878375,0.74469,0.0,0.5,688219.1
1702332067000000,-8.768115,-3.935375,0.8469,0.0,0.5,888219.9
1702332067007812,-8.925115,-4.12375,0.29531,0.0,0.5,858219.9
1702332067015625,-9.115,-4.121375,0.67531,0.0,0.5,858219.9
1702332067023437,-9.11115,-4.214375,0.76531,0.0,0.5,878219.1
1702332067031250,-9.28115,-4.285375,0.53531,0.0,0.5,758219.9
1702332067039062,-9.63115,-4.347375,0.42531,0.0,0.5,568219.1
1702332067046875,-9.138115,-4.372375,0.33531,0.0,0.5,828219.1
1702332067054687,-9.254115,-4.379375,0.28531,0.0,0.51,228219.1
1702332067062500,-9.321115,-4.393375,0.35531,0.0,0.5,928219.1
1702332067070312,-9.315115,-4.356375,0.19531,0.0,0.5,248219.1
1702332067078125,-9.283115,-4.281375,0.27469,0.0,0.5,488219.9
1702332067085937,-9.228115,-4.178375,0.40469,0.0,0.5,578219.1
1702332067093750,-9.220115,-4.31375,0.46469,0.0,0.5,758219.1
1702332067101562,-9.205115,-3.859375,0.53469,0.0,0.51,48219.1
1702332067109375,-9.219115,-3.670375,0.23469,0.0,0.5,968219.9
1702332067117187,-9.148115,-3.507375,0.2469,0.0,0.51,128219.9
1702332067125000,-9.3115,-3.400375,0.4469,0.0,0.51,238219.9
1702332067132812,-8.979115,-3.237375,0.2531,0.0,0.51,338219.9
1702332067140625,-9.60115,-3.67375,0.32531,0.0,0.51,468219.9
1702332067148437,-9.22115,-2.916375,0.87531,0.0,0.51,488219.9
1702332067156250,-8.980115,-2.784375,0.110531,0.0,0.51,288219.9
1702332067164062,-8.973115,-2.697375,0.74531,0.0,0.51,508219.9
1702332067171875,-8.861115,-2.677375,0.69531,0.0,0.51,388219.9
1702332067179687,-8.738115,-2.688375,0.33531,0.0,0.5,978219.9
1702332067187500,-8.677115,-2.709375,0.2469,0.0,0.5,848219.9
1702332067195312,-8.703115,-2.771375,0.41469,0.0,0.51,158219.9
1702332067203125,-8.708115,-2.851375,0.95469,0.0,0.51,248219.9
1702332067210937,-8.731115,-2.953375,0.167469,0.0,0.51,238219.9
1702332067218750,-8.778115,-3.92375,0.280469,0.0,0.51,238219.9
1702332067226562,-8.809115,-3.259375,0.369469,0.0,0.51,238219.9
1702332067234375,-8.772115,-3.437375,0.494469,0.0,0.51,238219.9
1702332067242187,-8.731115,-3.622375,0.616469,0.0,0.51,228219.9
1702332067250000,-8.701115,-3.812375,0.740469,0.0,0.51,278219.9
1702332067257812,-8.648115,-3.984375,0.863469,0.0,0.5,998219.9
1702332067265625,-8.612115,-4.120375,0.969469,0.0,0.5,868219.9
1702332067273437,-8.619115,-4.242375,1.71469,0.0,0.51,18219.1
1702332067281250,-8.615115,-4.360375,1.139469,0.0,0.51,108219.1
1702332067289062,-8.568115,-4.492375,1.183469,0.0,0.51,258219.1
1702332067296875,-8.467115,-4.640375,1.230469,0.0,0.51,168219.1
1702332067304687,-8.315115,-4.783375,1.279469,0.0,0.5,718219.1
1702332067312500,-8.163115,-4.919375,1.333469,0.0,0.5,768219.1
1702332067320312,-8.36115,-5.34375,1.395469,0.0,0.5,928219.11
1702332067328125,-7.960115,-5.138375,1.427469,0.0,0.5,808219.11
1702332067335937,-7.928115,-5.216375,1.447469,0.0,0.5,488219.11
1702332067343750,-7.931115,-5.278375,1.393469,0.0,0.5,658219.11
1702332067351562,-7.951115,-5.324375,1.296469,0.0,0.5,818219.11
1702332067359375,-7.950115,-5.357375,1.193469,0.0,0.5,628219.11
1702332067367187,-7.952115,-5.390375,1.101469,0.0,0.5,698219.11
1702332067375000,-7.974115,-5.402375,1.28469,0.0,0.5,508219.11
1702332067382812,-8.32115,-5.397375,0.958469,0.0,0.5,628219.12
1702332067390625,-8.115115,-5.380375,0.868469,0.0,0.5,948219.11
1702332067398437,-8.196115,-5.358375,0.793469,0.0,0.5,758219.11
1702332067406250,-8.294115,-5.367375,0.728469,0.0,0.5,658219.11
1702332067414062,-8.402115,-5.359375,0.694469,0.0,0.5,558219.11
1702332067421875,-8.527115,-5.363375,0.669469,0.0,0.5,388219.11
1702332067429687,-8.648115,-5.332375,0.649469,0.0,0.5,568219.11
1702332067437500,-8.718115,-5.286375,0.621469,0.0,0.5,588219.12
1702332067445312,-8.627115,-5.228375,0.578469,0.0,0.5,258219.12
1702332067453125,-8.419115,-5.147375,0.569469,0.0,0.5,298219.12
1702332067460937,-8.154115,-5.63375,0.556469,0.0,0.5,478219.12
1702332067468750,-7.841115,-4.966375,0.545469,0.0,0.5,288219.12
1702332067476562,-7.538115,-4.787375,0.510469,0.0,0.5,298219.12
1702332067484375,-7.386115,-4.570375,0.460469,0.0,0.5,478219.12
1702332067492187,-7.433115,-4.294375,0.387469,0.0,0.5,318219.12
1702332067500000,-7.667115,-4.72375,0.262469,0.0,0.5,188219.12
1702332067507812,-8.20115,-3.926375,0.128469,0.0,0.5,218219.11
1702332067515625,-8.430115,-3.861375,0.18531,0.0,0.5,228219.11
1702332067523437,-8.793115,-3.912375,0.138531,0.0,0.5,178219.12
1702332067531250,-9.3115,-4.78375,0.236531,0.0,0.5,368219.12
1702332067539062,-9.36115,-4.331375,0.283531,0.0,0.5,248219.11
1702332067546875,-9.2115,-4.622375,0.271531,0.0,0.49,938219.11
1702332067554687,-9.13115,-4.893375,0.236531,0.0,0.5,118219.11
1702332067562500,-9.126115,-5.104375,0.258531,0.0,0.49,878219.11
1702332067570312,-9.333115,-5.277375,0.305531,0.0,0.49,648219.11
1702332067578125,-9.567115,-5.426375,0.365531,0.0,0.49,978219.12
1702332067585937,-9.759115,-5.567375,0.381531,0.0,0.49,768219.12
1702332067593750,-9.851115,-5.677375,0.349531,0.0,0.49,398219.12
1702332067601562,-9.819115,-5.830375,0.288531,0.0,0.49,748219.12
1702332067609375,-9.692115,-5.984375,0.170531,0.0,0.49,888219.12
1702332067617187,-9.533115,-6.80375,0.32531,0.0,0.49,568219.12
1702332067625000,-9.342115,-6.184375,0.114469,0.0,0.49,498219.12
1702332067632812,-9.183115,-6.187375,0.259469,0.0,0.49,388219.12
1702332067640625,-9.119115,-6.124375,0.407469,0.0,0.49,258219.12
1702332067648437,-9.111115,-5.961375,0.542469,0.0,0.49,288219.12
1702332067656250,-9.109115,-5.748375,0.663469,0.0,0.49,278219.12
1702332067664062,-9.24115,-5.546375,0.787469,0.0,0.49,278219.12
1702332067671875,-8.837115,-5.383375,0.901469,0.0,0.49,278219.12
1702332067679687,-8.597115,-5.263375,1.41469,0.0,0.49,348219.12
1702332067687500,-8.437115,-5.124375,1.156469,0.0,0.49,28219.12
1702332067695312,-8.384115,-4.919375,1.259469,0.0,0.49,58219.12
1702332067703125,-8.368115,-4.715375,1.265469,0.0,0.49,228219.12
1702332067710937,-8.252115,-4.577375,1.165469,0.0,0.49,108219.12
1702332067718750,-8.133115,-4.461375,1.32469,0.0,0.48,828219.12
1702332067726562,-8.82115,-4.320375,0.934469,0.0,0.48,848219.12
1702332067734375,-8.74115,-4.164375,0.864469,0.0,0.49,68219.12
1702332067742187,-8.70115,-3.998375,0.791469,0.0,0.48,718219.11
1702332067750000,-8.81115,-3.844375,0.674469,0.0,0.48,768219.11
1702332067757812,-8.90115,-3.731375,0.513469,0.0,0.48,898219.11
1702332067765625,-8.49115,-3.653375,0.351469,0.0,0.48,998219.11
1702332067773437,-8.21115,-3.598375,0.260469,0.0,0.49,158219.11
1702332067781250,-8.143115,-3.538375,0.210469,0.0,0.49,18219.1
1702332067789062,-8.304115,-3.526375,0.170469,0.0,0.48,888219.1
1702332067796875,-8.465115,-3.494375,0.142469,0.0,0.48,928219.1
1702332067804687,-8.624115,-3.472375,0.144469,0.0,0.48,868219.1
1702332067812500,-8.762115,-3.498375,0.117469,0.0,0.49,188219.1
1702332067820312,-8.858115,-3.512375,0.122469,0.0,0.49,158219.1
1702332067828125,-8.884115,-3.554375,0.169469,0.0,0.49,38219.1
1702332067835937,-8.905115,-3.611375,0.192469,0.0,0.48,938219.1
1702332067843750,-8.880115,-3.676375,0.176469,0.0,0.48,808219.9
1702332067851562,-8.735115,-3.769375,0.98469,0.0,0.48,828219.9
1702332067859375,-8.513115,-3.842375,0.80469,0.0,0.48,818219.9
1702332067867187,-8.336115,-3.896375,0.67469,0.0,0.48,898219.9
1702332067875000,-8.312115,-3.849375,0.35469,0.0,0.48,508219.9
1702332067882812,-8.419115,-3.723375,0.32531,0.0,0.48,868219.9
1702332067890625,-8.778115,-3.477375,0.85531,0.0,0.48,988219.9
1702332067898437,-9.352115,-3.130375,0.208531,0.0,0.48,818219.9
1702332067906250,-9.345115,-3.165375,0.445531,0.0,0.48,848219.9
1702332067914062,-9.7115,-3.345375,0.527531,0.0,0.48,808219.9
1702332067921875,-8.947115,-3.422375,0.403531,0.0,0.49,8219.9
1702332067929687,-8.954115,-3.542375,0.358531,0.0,0.48,828219.9
1702332067937500,-8.831115,-3.531375,0.355531,0.0,0.48,838219.8
1702332067945312,-8.773115,-3.539375,0.238531,0.0,0.48,998219.8
1702332067953125,-9.2115,-3.484375,0.146531,0.0,0.48,948219.9
1702332067960937,-9.66115,-3.477375,0.8531,0.0,0.49,38219.8
1702332067968750,-8.710115,-3.686375,0.190469,0.0,0.48,618219.8
1702332067976562,-8.377115,-3.936375,0.423469,0.0,0.48,378219.9
1702332067984375,-8.247115,-4.205375,0.661469,0.0,0.48,448219.9
1702332067992187,-8.76115,-4.433375,0.842469,0.0,0.48,268219.9
1702332068000000,-7.827115,-4.584375,1.35469,0.0,0.48,358219.9
1702332068007812,-7.616115,-4.671375,1.258469,0.0,0.48,88219.9
1702332068015625,-7.548115,-4.693375,1.543469,0.0,0.47,858219.9
1702332068023437,-7.593115,-4.624375,1.858469,0.0,0.47,738219.1
1702332068031250,-7.763115,-4.514375,2.189469,0.0,0.47,778219.1
1702332068039062,-7.944115,-4.445375,2.482469,0.0,0.47,718219.9
1702332068046875,-8.42115,-4.451375,2.682469,0.0,0.47,268219.1
1702332068054687,-8.242115,-4.408375,2.926469,0.0,0.47,308219.1
1702332068062500,-8.584115,-4.248375,3.197469,0.0,0.47,108219.1
1702332068070312,-8.634115,-4.276375,3.385469,0.0,0.46,808219.1
1702332068078125,-8.369115,-4.399375,3.484469,0.0,0.46,898219.1
1702332068085937,-8.31115,-4.554375,3.686469,0.0,0.46,788219.1
1702332068093750,-7.737115,-4.717375,3.935469,0.0,0.46,538219.1
1702332068101562,-7.487115,-4.844375,4.172469,0.0,0.46,358219.1
1702332068109375,-7.317115,-4.870375,4.405469,0.0,0.45,958219.11
1702332068117187,-7.313115,-4.846375,4.589469,0.0,0.45,838219.11
1702332068125000,-7.634115,-4.706375,4.652469,0.0,0.46,48219.11
1702332068132812,-8.198115,-4.507375,4.563469,0.0,0.45,858219.11
1702332068140625,-8.781115,-4.377375,4.262469,0.0,0.45,838219.11
1702332068148437,-9.418115,-4.245375,3.871469,0.0,0.46,148219.11
1702332068156250,-10.131115,-4.83375,3.572469,0.0,0.46,128219.11
1702332068164062,-10.558115,-4.72375,3.261469,0.0,0.45,938219.11
1702332068171875,-10.345115,-4.282375,2.989469,0.0,0.46,168219.11
1702332068179687,-9.841115,-4.530375,3.15469,0.0,0.45,908219.11
1702332068187500,-9.477115,-4.610375,3.297469,0.0,0.45,478219.11
1702332068195312,-9.193115,-4.642375,3.512469,0.0,0.45,658219.11
1702332068203125,-8.977115,-4.615375,3.602469,0.0,0.45,918219.11
1702332068210937,-8.983115,-4.639375,3.570469,0.0,0.45,948219.11
1702332068218750,-9.149115,-4.736375,3.417469,0.0,0.45,538219.11
1702332068226562,-9.205115,-4.870375,3.305469,0.0,0.45,328219.11
1702332068234375,-9.88115,-5.20375,3.288469,0.0,0.45,228219.11
1702332068242187,-8.880115,-5.186375,3.308469,0.0,0.45,118219.12
1702332068250000,-8.736115,-5.266375,3.331469,0.0,0.44,968219.11
1702332068257812,-8.602115,-5.266375,3.273469,0.0,0.45,78219.11
1702332068265625,-8.467115,-5.197375,3.120469,0.0,0.44,658219.12
1702332068273437,-8.378115,-5.36375,2.916469,0.0,0.44,378219.12
1702332068281250,-8.364115,-4.847375,2.728469,0.0,0.44,698219.12
1702332068289062,-8.355115,-4.604375,2.504469,0.0,0.44,928219.11
1702332068296875,-8.331115,-4.294375,2.332469,0.0,0.45,38219.11
1702332068304687,-8.319115,-3.978375,2.155469,0.0,0.44,968219.11
1702332068312500,-8.293115,-3.690375,1.942469,0.0,0.45,168219.11
1702332068320312,-8.244115,-3.401375,1.752469,0.0,0.45,18219.11
1702332068328125,-8.197115,-3.142375,1.600469,0.0,0.44,888219.1
1702332068335937,-8.190115,-2.904375,1.478469,0.0,0.44,988219.1
1702332068343750,-8.282115,-2.636375,1.389469,0.0,0.45,398219.1
1702332068351562,-8.405115,-2.392375,1.365469,0.0,0.45,488219.1
1702332068359375,-8.487115,-2.251375,1.333469,0.0,0.45,468219.1
1702332068367187,-8.509115,-2.171375,1.335469,0.0,0.45,518219.1
1702332068375000,-8.516115,-2.153375,1.382469,0.0,0.45,288219.1
1702332068382812,-8.457115,-2.194375,1.466469,0.0,0.45,678219.9
1702332068390625,-8.398115,-2.262375,1.579469,0.0,0.45,488219.9
1702332068398437,-8.354115,-2.337375,1.692469,0.0,0.45,308219.9
1702332068406250,-8.326115,-2.415375,1.783469,0.0,0.45,688219.9
1702332068414062,-8.322115,-2.469375,1.882469,0.0,0.45,508219.9
1702332068421875,-8.350115,-2.557375,1.970469,0.0,0.45,248219.9
1702332068429687,-8.362115,-2.633375,2.56469,0.0,0.45,178219.9
1702332068437500,-8.413115,-2.674375,2.149469,0.0,0.45,28219.9
1702332068445312,-8.416115,-2.723375,2.243469,0.0,0.45,58219.9
1702332068453125,-8.384115,-2.798375,2.341469,0.0,0.45,88219.9
1702332068460937,-8.445115,-2.864375,2.478469,0.0,0.44,948219.9
1702332068468750,-8.621115,-2.883375,2.645469,0.0,0.44,938219.9
1702332068476562,-8.844115,-2.876375,2.794469,0.0,0.45,128219.9
1702332068484375,-9.5115,-2.889375,2.917469,0.0,0.44,968219.8
1702332068492187,-9.36115,-2.964375,3.33469,0.0,0.44,848219.8
1702332068500000,-8.981115,-3.70375,3.164469,0.0,0.44,818219.9
1702332068507812,-8.951115,-3.137375,3.340469,0.0,0.44,358219.9
1702332068515625,-8.909115,-3.216375,3.521469,0.0,0.44,388219.9
1702332068523437,-8.816115,-3.269375,3.661469,0.0,0.44,658219.9
1702332068531250,-8.758115,-3.279375,3.765469,0.0,0.44,798219.9
1702332068539062,-8.531115,-3.366375,3.797469,0.0,0.44,548219.9
1702332068546875,-8.276115,-3.379375,3.828469,0.0,0.44,128219.9
1702332068554687,-8.273115,-3.184375,3.945469,0.0,0.44,228219.9
1702332068562500,-8.221115,-3.65375,4.3469,0.0,0.43,728219.9
1702332068570312,-8.135115,-3.2375,3.965469,0.0,0.43,218219.9
1702332068578125,-8.185115,-2.977375,3.953469,0.0,0.43,568219.9
1702332068585937,-8.229115,-3.5375,3.917469,0.0,0.43,308219.9
1702332068593750,-8.219115,-3.47375,3.863469,0.0,0.43,368219.9
1702332068601562,-8.202115,-3.132375,3.825469,0.0,0.43,398219.9
1702332068609375,-8.158115,-3.267375,3.758469,0.0,0.43,208219.9
1702332068617187,-8.86115,-3.426375,3.707469,0.0,0.43,408219.9
1702332068625000,-7.989115,-3.581375,3.644469,0.0,0.43,358219.9
1702332068632812,-7.916115,-3.686375,3.609469,0.0,0.43,378219.9
1702332068640625,-7.924115,-3.757375,3.568469,0.0,0.43,248219.1
1702332068648437,-7.938115,-3.818375,3.485469,0.0,0.43,118219.1
1702332068656250,-7.947115,-3.875375,3.379469,0.0,0.43,138219.1
1702332068664062,-7.990115,-3.972375,3.281469,0.0,0.43,138219.1
1702332068671875,-8.62115,-4.42375,3.209469,0.0,0.43,128219.1
1702332068679687,-8.119115,-4.105375,3.137469,0.0,0.43,118219.1
1702332068687500,-8.145115,-4.177375,3.71469,0.0,0.43,158219.1
1702332068695312,-8.119115,-4.260375,3.6469,0.0,0.42,998219.1
1702332068703125,-8.84115,-4.353375,2.962469,0.0,0.42,988219.1
1702332068710937,-8.126115,-4.370375,2.952469,0.0,0.43,178219.1
1702332068718750,-8.190115,-4.402375,2.964469,0.0,0.42,988219.1
1702332068726562,-8.260115,-4.388375,2.946469,0.0,0.43,8219.1
1702332068734375,-8.329115,-4.362375,2.903469,0.0,0.43,98219.1
1702332068742187,-8.321115,-4.349375,2.880469,0.0,0.43,388219.1
1702332068750000,-8.245115,-4.341375,2.903469,0.0,0.43,358219.1
1702332068757812,-8.144115,-4.339375,2.977469,0.0,0.43,228219.1
1702332068765625,-8.48115,-4.341375,3.88469,0.0,0.43,128219.11
1702332068773437,-7.964115,-4.323375,3.176469,0.0,0.42,968219.11
1702332068781250,-7.918115,-4.255375,3.266469,0.0,0.43,38219.11
1702332068789062,-7.881115,-4.216375,3.300469,0.0,0.42,838219.11
1702332068796875,-7.847115,-4.203375,3.340469,0.0,0.43,28219.11
1702332068804687,-7.787115,-4.193375,3.387469,0.0,0.43,18219.11
1702332068812500,-7.722115,-4.223375,3.466469,0.0,0.42,868219.11
1702332068820312,-7.636115,-4.303375,3.550469,0.0,0.42,898219.11
1702332068828125,-7.573115,-4.417375,3.625469,0.0,0.42,878219.11
1702332068835937,-7.596115,-4.521375,3.707469,0.0,0.42,878219.11
1702332068843750,-7.700115,-4.593375,3.772469,0.0,0.42,898219.11
1702332068851562,-7.795115,-4.616375,3.795469,0.0,0.42,858219.11
1702332068859375,-7.962115,-4.628375,3.731469,0.0,0.43,48219.11
1702332068867187,-8.152115,-4.645375,3.643469,0.0,0.42,848219.11
1702332068875000,-8.250115,-4.658375,3.546469,0.0,0.42,878219.11
1702332068882812,-8.255115,-4.638375,3.479469,0.0,0.42,918219.11
1702332068890625,-8.214115,-4.579375,3.442469,0.0,0.42,688219.12
1702332068898437,-8.202115,-4.477375,3.433469,0.0,0.43,38219.12
1702332068906250,-8.218115,-4.350375,3.394469,0.0,0.42,988219.11
1702332068914062,-8.249115,-4.190375,3.304469,0.0,0.42,948219.11
1702332068921875,-8.298115,-3.984375,3.192469,0.0,0.43,198219.12
1702332068929687,-8.307115,-3.817375,3.61469,0.0,0.43,448219.11
1702332068937500,-8.330115,-3.672375,2.950469,0.0,0.43,538219.11
1702332068945312,-8.445115,-3.484375,2.925469,0.0,0.43,648219.11
1702332068953125,-8.600115,-3.308375,2.946469,0.0,0.43,748219.11
1702332068960937,-8.695115,-3.194375,2.962469,0.0,0.43,878219.11
1702332068968750,-8.716115,-3.147375,2.968469,0.0,0.43,888219.11
1702332068976562,-8.648115,-3.212375,3.34469,0.0,0.43,728219.11
1702332068984375,-8.476115,-3.360375,3.138469,0.0,0.43,768219.11
1702332068992187,-8.281115,-3.503375,3.286469,0.0,0.43,708219.1
1702332069000000,-8.169115,-3.650375,3.464469,0.0,0.44,38219.11
1702332069007812,-8.120115,-3.782375,3.564469,0.0,0.43,988219.1
1702332069015625,-8.146115,-3.928375,3.616469,0.0,0.43,928219.1
1702332069023437,-8.146115,-4.106375,3.597469,0.0,0.44,278219.11
1702332069031250,-8.97115,-4.319375,3.550469,0.0,0.44,68219.11
1702332069039062,-8.16115,-4.527375,3.546469,0.0,0.43,968219.11
1702332069046875,-7.957115,-4.712375,3.585469,0.0,0.43,848219.11
1702332069054687,-7.937115,-4.941375,3.615469,0.0,0.43,768219.11
1702332069062500,-7.902115,-5.177375,3.605469,0.0,0.43,918219.12
1702332069070312,-7.893115,-5.425375,3.529469,0.0,0.43,598219.12
1702332069078125,-7.907115,-5.647375,3.417469,0.0,0.43,668219.11
1702332069085937,-7.931115,-5.832375,3.275469,0.0,0.44,58219.11
1702332069093750,-7.983115,-5.966375,3.125469,0.0,0.43,968219.12
1702332069101562,-8.30115,-6.62375,2.981469,0.0,0.44,88219.12
1702332069109375,-8.77115,-6.77375,2.834469,0.0,0.44,288219.12
1702332069117187,-8.109115,-6.25375,2.697469,0.0,0.44,658219.12
1702332069125000,-8.217115,-5.862375,2.567469,0.0,0.44,908219.12
1702332069132812,-8.359115,-5.653375,2.418469,0.0,0.44,788219.12
1702332069140625,-8.504115,-5.415375,2.250469,0.0,0.45,78219.12
1702332069148437,-8.569115,-5.172375,2.118469,0.0,0.45,288219.12
1702332069156250,-8.580115,-4.905375,2.9469,0.0,0.45,518219.11
1702332069164062,-8.596115,-4.601375,1.959469,0.0,0.45,638219.12
1702332069171875,-8.591115,-4.272375,1.953469,0.0,0.45,618219.11
1702332069179687,-8.624115,-3.935375,1.911469,0.0,0.45,638219.11
1702332069187500,-8.631115,-3.608375,1.876469,0.0,0.45,528219.11
1702332069195312,-8.625115,-3.309375,1.837469,0.0,0.46,58219.11
1702332069203125,-8.643115,-3.47375,1.818469,0.0,0.46,588219.11
1702332069210937,-8.757115,-2.783375,1.842469,0.0,0.46,488219.11
1702332069218750,-8.859115,-2.553375,1.852469,0.0,0.46,498219.1
1702332069226562,-8.893115,-2.401375,1.870469,0.0,0.46,538219.1
1702332069234375,-8.893115,-2.291375,1.903469,0.0,0.46,318219.1
1702332069242187,-8.836115,-2.210375,1.987469,0.0,0.46,648219.1
1702332069250000,-8.735115,-2.121375,2.79469,0.0,0.46,758219.1
1702332069257812,-8.616115,-2.21375,2.200469,0.0,0.46,658219.1
1702332069265625,-8.552115,-1.934375,2.317469,0.0,0.47,88219.9
1702332069273437,-8.515115,-1.886375,2.389469,0.0,0.47,358219.9
1702332069281250,-8.486115,-1.882375,2.468469,0.0,0.47,108219.9
1702332069289062,-8.461115,-1.916375,2.538469,0.0,0.47,338219.9
1702332069296875,-8.384115,-1.971375,2.590469,0.0,0.47,208219.9
1702332069304687,-8.272115,-2.122375,2.681469,0.0,0.46,888219.9
1702332069312500,-8.171115,-2.290375,2.786469,0.0,0.47,78219.9
1702332069320312,-8.94115,-2.445375,2.892469,0.0,0.47,158219.9
1702332069328125,-8.14115,-2.666375,2.981469,0.0,0.47,328219.9
1702332069335937,-7.952115,-2.936375,3.16469,0.0,0.47,108219.9
1702332069343750,-8.6115,-3.146375,3.48469,0.0,0.47,278219.9
1702332069351562,-8.169115,-3.296375,3.53469,0.0,0.47,378219.9
1702332069359375,-8.291115,-3.465375,3.24469,0.0,0.47,508219.1
1702332069367187,-8.372115,-3.594375,2.961469,0.0,0.47,518219.9
1702332069375000,-8.497115,-3.698375,2.943469,0.0,0.47,318219.1
1702332069382812,-8.551115,-3.815375,2.935469,0.0,0.47,508219.1
1702332069390625,-8.693115,-3.855375,2.955469,0.0,0.47,468219.1
1702332069398437,-9.361115,-3.566375,3.30469,0.0,0.47,448219.1
1702332069406250,-10.39115,-3.346375,2.918469,0.0,0.47,578219.1
1702332069414062,-10.11115,-3.472375,2.542469,0.0,0.47,728219.1
1702332069421875,-9.482115,-3.726375,2.363469,0.0,0.47,528219.1
1702332069429687,-8.864115,-4.75375,2.565469,0.0,0.47,568219.1
1702332069437500,-8.126115,-4.407375,2.824469,0.0,0.47,568219.1
1702332069445312,-7.238115,-4.734375,2.979469,0.0,0.47,528219.11
1702332069453125,-6.451115,-5.66375,2.963469,0.0,0.47,698219.11
1702332069460937,-6.11115,-5.324375,2.831469,0.0,0.47,568219.11
1702332069468750,-5.954115,-5.402375,2.611469,0.0,0.47,258219.11
1702332069476562,-6.255115,-5.283375,2.344469,0.0,0.47,388219.11
1702332069484375,-6.791115,-5.77375,1.991469,0.0,0.47,798219.11
1702332069492187,-7.326115,-4.978375,1.573469,0.0,0.47,878219.11
1702332069500000,-7.683115,-5.33375,1.170469,0.0,0.47,818219.11
1702332069507812,-7.952115,-5.112375,0.991469,0.0,0.48,8219.11
1702332069515625,-8.383115,-5.118375,1.36469,0.0,0.48,628219.12
1702332069523437,-8.872115,-5.156375,1.42469,0.0,0.49,138219.12
1702332069531250,-9.198115,-5.297375,0.853469,0.0,0.49,28219.12
1702332069539062,-9.342115,-5.464375,0.610469,0.0,0.49,38219.12
1702332069546875,-9.242115,-5.716375,0.431469,0.0,0.49,48219.12
1702332069554687,-8.931115,-5.923375,0.339469,0.0,0.49,28219.11
1702332069562500,-8.393115,-6.43375,0.360469,0.0,0.48,798219.12
1702332069570312,-7.642115,-6.174375,0.389469,0.0,0.48,488219.13
1702332069578125,-6.779115,-6.366375,0.390469,0.0,0.48,868219.13
1702332069585937,-6.293115,-6.336375,0.438469,0.0,0.48,618219.13
1702332069593750,-6.580115,-6.19375,0.375469,0.0,0.48,728219.13
1702332069601562,-7.461115,-5.699375,0.58469,0.0,0.49,18219.13
1702332069609375,-8.344115,-5.498375,0.269531,0.0,0.48,948219.13
1702332069617187,-9.47115,-5.439375,0.426531,0.0,0.49,8219.13
1702332069625000,-9.727115,-5.381375,0.449531,0.0,0.48,778219.13
1702332069632812,-10.414115,-5.400375,0.504531,0.0,0.49,108219.13
1702332069640625,-10.802115,-5.601375,0.815531,0.0,0.49,208219.13
1702332069648437,-10.538115,-5.984375,-1.531,0.0,0.49,148219.13
1702332069656250,-10.160115,-6.306375,0.864531,0.0,0.49,278219.13
1702332069664062,-10.79115,-6.362375,0.636531,0.0,0.49,408219.13
1702332069671875,-10.156115,-6.265375,0.564531,0.0,0.49,388219.13
1702332069679687,-10.83115,-6.111375,0.605531,0.0,0.49,378219.13
1702332069687500,-9.928115,-5.996375,0.583531,0.0,0.49,398219.13
1702332069695312,-9.755115,-5.935375,0.450531,0.0,0.49,228219.14
1702332069703125,-9.601115,-5.807375,0.294531,0.0,0.49,258219.14
1702332069710937,-9.462115,-5.588375,0.164531,0.0,0.49,268219.13
1702332069718750,-9.327115,-5.327375,0.124531,0.0,0.49,218219.13
1702332069726562,-9.149115,-5.68375,0.75531,0.0,0.49,488219.13
1702332069734375,-8.909115,-4.817375,0.9469,0.0,0.49,668219.13
1702332069742187,-8.655115,-4.578375,0.132469,0.0,0.49,298219.13
1702332069750000,-8.401115,-4.354375,0.211469,0.0,0.49,458219.13
1702332069757812,-8.182115,-4.105375,0.282469,0.0,0.49,788219.13
1702332069765625,-8.61115,-3.883375,0.324469,0.0,0.49,538219.13
1702332069773437,-8.6115,-3.674375,0.366469,0.0,0.49,718219.13
1702332069781250,-7.990115,-3.486375,0.404469,0.0,0.49,858219.12
1702332069789062,-7.965115,-3.353375,0.447469,0.0,0.49,808219.12
1702332069796875,-7.923115,-3.292375,0.519469,0.0,0.49,988219.12
1702332069804687,-7.915115,-3.270375,0.593469,0.0,0.49,928219.12
1702332069812500,-7.947115,-3.312375,0.672469,0.0,0.5,58219.11
1702332069820312,-7.950115,-3.407375,0.729469,0.0,0.5,228219.11
1702332069828125,-7.914115,-3.537375,0.806469,0.0,0.5,68219.11
1702332069835937,-7.932115,-3.679375,0.874469,0.0,0.49,908219.12
1702332069843750,-7.947115,-3.827375,0.906469,0.0,0.5,58219.12
1702332069851562,-7.944115,-4.5375,0.943469,0.0,0.5,208219.12
1702332069859375,-7.944115,-4.169375,0.948469,0.0,0.5,58219.12
1702332069867187,-7.980115,-4.295375,0.964469,0.0,0.49,898219.12
1702332069875000,-8.34115,-4.401375,0.948469,0.0,0.5,78219.12
1702332069882812,-8.35115,-4.556375,0.920469,0.0,0.5,68219.12
1702332069890625,-8.44115,-4.733375,0.868469,0.0,0.49,918219.12
1702332069898437,-8.141115,-4.908375,0.796469,0.0,0.49,948219.12
1702332069906250,-8.259115,-5.84375,0.707469,0.0,0.49,938219.12
1702332069914062,-8.373115,-5.212375,0.567469,0.0,0.49,888219.12
1702332069921875,-8.482115,-5.374375,0.387469,0.0,0.5,148219.12
1702332069929687,-8.525115,-5.510375,0.226469,0.0,0.5,418219.12
1702332069937500,-8.559115,-5.594375,0.100469,0.0,0.5,328219.12
1702332069945312,-8.594115,-5.639375,0.10531,0.0,0.5,498219.12
1702332069953125,-8.628115,-5.638375,0.150531,0.0,0.5,488219.12
1702332069960937,-8.660115,-5.615375,0.323531,0.0,0.5,338219.12
1702332069968750,-8.706115,-5.509375,0.473531,0.0,0.5,338219.12
1702332069976562,-8.807115,-5.361375,0.595531,0.0,0.5,468219.12
1702332069984375,-8.942115,-5.161375,0.686531,0.0,0.5,578219.12
1702332069992187,-9.31115,-4.955375,0.759531,0.0,0.5,708219.12
1702332070000000,-9.123115,-4.751375,0.823531,0.0,0.5,658219.12
1702332070007812,-9.209115,-4.577375,0.855531,0.0,0.5,798219.12
1702332070015625,-9.277115,-4.402375,0.876531,0.0,0.5,888219.12
1702332070023437,-9.240115,-4.232375,0.881531,0.0,0.51,38219.11
1702332070031250,-9.15115,-4.163375,0.856531,0.0,0.51,28219.11
1702332070039062,-8.899115,-4.27375,0.850531,0.0,0.5,958219.11
1702332070046875,-8.866115,-3.857375,0.893531,0.0,0.51,268219.11
1702332070054687,-8.647115,-3.747375,0.936531,0.0,0.51,308219.11
1702332070062500,-8.381115,-3.636375,0.947531,0.0,0.51,338219.11
1702332070070312,-8.256115,-3.492375,0.950531,0.0,0.5,968219.1
1702332070078125,-8.275115,-3.336375,-1.12531,0.0,0.51,88219.1
1702332070085937,-8.365115,-3.148375,-1.71531,0.0,0.51,358219.1
1702332070093750,-8.479115,-3.18375,-1.62531,0.0,0.51,188219.1
1702332070101562,-8.553115,-2.974375,-1.35531,0.0,0.51,508219.1
1702332070109375,-8.626115,-3.13375,0.984531,0.0,0.51,608219.1
1702332070117187,-8.591115,-3.92375,0.911531,0.0,0.51,568219.1
1702332070125000,-8.524115,-3.246375,0.845531,0.0,0.51,668219.1
1702332070132812,-8.503115,-3.429375,0.748531,0.0,0.51,948219.1
1702332070140625,-8.518115,-3.595375,0.639531,0.0,0.51,938219.1
1702332070148437,-8.522115,-3.762375,0.548531,0.0,0.51,748219.1
1702332070156250,-8.539115,-3.910375,0.487531,0.0,0.51,968219.1
1702332070164062,-8.550115,-4.63375,0.432531,0.0,0.51,758219.1
1702332070171875,-8.601115,-4.174375,0.366531,0.0,0.51,818219.1
1702332070179687,-8.665115,-4.250375,0.314531,0.0,0.51,748219.1
1702332070187500,-8.695115,-4.308375,0.292531,0.0,0.51,268219.1
1702332070195312,-8.719115,-4.356375,0.253531,0.0,0.51,458219.1
1702332070203125,-8.749115,-4.409375,0.228531,0.0,0.51,698219.1
1702332070210937,-8.761115,-4.475375,0.194531,0.0,0.51,848219.1
1702332070218750,-8.711115,-4.527375,0.156531,0.0,0.51,598219.1
1702332070226562,-8.646115,-4.555375,0.124531,0.0,0.51,208219.11
1702332070234375,-8.655115,-4.540375,0.128531,0.0,0.51,98219.11
1702332070242187,-8.701115,-4.490375,0.158531,0.0,0.51,298219.11
1702332070250000,-8.772115,-4.404375,0.203531,0.0,0.51,148219.11
1702332070257812,-8.897115,-4.260375,0.274531,0.0,0.5,928219.11
1702332070265625,-8.948115,-4.130375,0.335531,0.0,0.51,468219.11
1702332070273437,-8.890115,-4.38375,0.417531,0.0,0.51,238219.1
1702332070281250,-8.752115,-3.998375,0.435531,0.0,0.51,118219.1
1702332070289062,-8.625115,-3.989375,0.477531,0.0,0.51,178219.1
1702332070296875,-8.623115,-3.947375,0.498531,0.0,0.5,988219.11
1702332070304687,-8.810115,-3.892375,0.557531,0.0,0.51,118219.1
1702332070312500,-8.956115,-3.932375,0.658531,0.0,0.51,428219.1
1702332070320312,-8.826115,-4.129375,0.725531,0.0,0.51,338219.1
1702332070328125,-8.589115,-4.423375,0.720531,0.0,0.51,498219.1
1702332070335937,-8.544115,-4.657375,0.719531,0.0,0.51,538219.1
1702332070343750,-8.766115,-4.762375,0.793531,0.0,0.51,208219.1
1702332070351562,-9.58115,-4.799375,0.874531,0.0,0.51,268219.1
1702332070359375,-9.244115,-4.882375,0.917531,0.0,0.51,308219.1
1702332070367187,-9.298115,-5.27375,0.903531,0.0,0.51,18219.1
1702332070375000,-9.248115,-5.164375,0.862531,0.0,0.5,878219.11
1702332070382812,-9.182115,-5.249375,0.801531,0.0,0.51,78219.11
1702332070390625,-9.110115,-5.297375,0.729531,0.0,0.5,908219.11
1702332070398437,-9.54115,-5.272375,0.654531,0.0,0.5,788219.11
1702332070406250,-8.968115,-5.247375,0.550531,0.0,0.5,818219.11
1702332070414062,-8.835115,-5.166375,0.413531,0.0,0.5,808219.11
1702332070421875,-8.725115,-5.46375,0.271531,0.0,0.5,838219.11
1702332070429687,-8.654115,-4.912375,0.150531,0.0,0.5,668219.11
1702332070437500,-8.587115,-4.765375,0.51531,0.0,0.5,738219.11
1702332070445312,-8.516115,-4.591375,0.58469,0.0,0.5,578219.11
1702332070453125,-8.472115,-4.417375,0.186469,0.0,0.5,548219.11
1702332070460937,-8.407115,-4.301375,0.292469,0.0,0.5,878219.11
1702332070468750,-8.330115,-4.221375,0.384469,0.0,0.5,838219.11
1702332070476562,-8.323115,-4.194375,0.474469,0.0,0.5,718219.11
1702332070484375,-8.353115,-4.185375,0.535469,0.0,0.5,588219.11
1702332070492187,-8.354115,-4.225375,0.564469,0.0,0.5,638219.11
1702332070500000,-8.382115,-4.274375,0.596469,0.0,0.5,548219.11
1702332070507812,-8.448115,-4.361375,0.605469,0.0,0.5,208219.11
1702332070515625,-8.486115,-4.454375,0.587469,0.0,0.5,488219.11
1702332070523437,-8.529115,-4.562375,0.567469,0.0,0.5,928219.11
1702332070531250,-8.624115,-4.640375,0.522469,0.0,0.5,688219.11
1702332070539062,-8.688115,-4.705375,0.448469,0.0,0.5,708219.11
1702332070546875,-8.732115,-4.751375,0.367469,0.0,0.5,848219.11
1702332070554687,-8.798115,-4.758375,0.309469,0.0,0.5,958219.11
1702332070562500,-8.886115,-4.756375,0.220469,0.0,0.5,728219.1
1702332070570312,-9.21115,-4.685375,0.132469,0.0,0.5,468219.1
1702332070578125,-9.107115,-4.637375,0.21469,0.0,0.5,838219.1
1702332070585937,-9.36115,-4.622375,0.79531,0.0,0.5,798219.1
1702332070593750,-8.838115,-4.583375,0.124531,0.0,0.5,608219.1
1702332070601562,-8.608115,-4.551375,0.146531,0.0,0.5,618219.1
1702332070609375,-8.489115,-4.469375,0.176531,0.0,0.5,768219.1
1702332070617187,-8.489115,-4.327375,0.224531,0.0,0.5,768219.1
1702332070625000,-8.564115,-4.163375,0.306531,0.0,0.5,628219.1
1702332070632812,-8.545115,-4.99375,0.353531,0.0,0.5,558219.1
1702332070640625,-8.458115,-4.76375,0.353531,0.0,0.5,288219.1
1702332070648437,-8.442115,-4.68375,0.331531,0.0,0.5,198219.1
1702332070656250,-8.498115,-4.80375,0.317531,0.0,0.5,168219.1
1702332070664062,-8.560115,-4.104375,0.317531,0.0,0.5,448219.9
1702332070671875,-8.674115,-4.113375,0.308531,0.0,0.5,618219.9
1702332070679687,-8.738115,-4.156375,0.299531,0.0,0.5,278219.9
1702332070687500,-8.660115,-4.253375,0.258531,0.0,0.5,298219.9
1702332070695312,-8.511115,-4.384375,0.167531,0.0,0.5,608219.9
1702332070703125,-8.408115,-4.504375,0.99531,0.0,0.5,578219.9
1702332070710937,-8.303115,-4.612375,0.36531,0.0,0.5,418219.9
1702332070718750,-8.166115,-4.695375,0.14469,0.0,0.5,468219.9
1702332070726562,-8.101115,-4.690375,0.99469,0.0,0.5,398219.9
1702332070734375,-8.182115,-4.631375,0.171469,0.0,0.49,978219.9
1702332070742187,-8.347115,-4.533375,0.184469,0.0,0.49,848219.9
1702332070750000,-8.486115,-4.470375,0.166469,0.0,0.5,158219.9
1702332070757812,-8.909115,-4.308375,0.138469,0.0,0.5,258219.9
1702332070765625,-9.225115,-4.244375,0.6531,0.0,0.5,268219.9
1702332070773437,-8.928115,-4.508375,0.118531,0.0,0.5,148219.9
1702332070781250,-9.40115,-4.385375,0.62531,0.0,0.5,18219.9
1702332070789062,-9.740115,-4.40375,0.82531,0.0,0.5,38219.9
1702332070796875,-9.945115,-3.942375,0.391531,0.0,0.5,58219.9
1702332070804687,-9.655115,-3.945375,0.515531,0.0,0.49,938219.9
1702332070812500,-9.320115,-4.99375,0.412531,0.0,0.49,808219.9
1702332070820312,-8.898115,-4.351375,0.328531,0.0,0.49,838219.8
1702332070828125,-8.323115,-4.487375,0.171531,0.0,0.49,818219.9
1702332070835937,-7.812115,-4.510375,0.22469,0.0,0.49,828219.9
1702332070843750,-7.456115,-4.535375,0.250469,0.0,0.49,838219.8
1702332070851562,-7.195115,-4.520375,0.535469,0.0,0.49,808219.8
1702332070859375,-7.88115,-4.498375,0.852469,0.0,0.49,998219.8
1702332070867187,-7.317115,-4.369375,1.136469,0.0,0.49,898219.8
1702332070875000,-7.843115,-4.150375,1.367469,0.0,0.49,448219.8
1702332070882812,-8.371115,-3.948375,1.470469,0.0,0.49,498219.8
1702332070890625,-8.799115,-3.735375,1.559469,0.0,0.49,708219.8
1702332070898437,-9.211115,-3.549375,1.691469,0.0,0.49,378219.8
1702332070906250,-9.340115,-3.547375,1.808469,0.0,0.49,308219.8
1702332070914062,-8.993115,-3.749375,1.960469,0.0,0.49,228219.8
1702332070921875,-8.510115,-3.897375,2.195469,0.0,0.48,978219.8
1702332070929687,-8.99115,-4.14375,2.467469,0.0,0.48,758219.8
1702332070937500,-7.572115,-4.161375,2.668469,0.0,0.48,608219.8
1702332070945312,-7.2115,-4.274375,2.870469,0.0,0.48,838219.9
1702332070953125,-6.704115,-4.204375,3.122469,0.0,0.48,608219.8
1702332070960937,-6.919115,-3.906375,3.419469,0.0,0.48,28219.8
1702332070968750,-7.528115,-3.535375,3.595469,0.0,0.48,108219.8
1702332070976562,-8.248115,-3.221375,3.519469,0.0,0.48,318219.8
1702332070984375,-8.901115,-3.62375,3.245469,0.0,0.47,958219.9
1702332070992187,-9.486115,-3.43375,2.949469,0.0,0.48,18219.9
1702332071000000,-10.52115,-3.43375,2.777469,0.0,0.48,38219.8
1702332071007812,-10.546115,-3.28375,2.738469,0.0,0.47,908219.9
1702332071015625,-10.596115,-3.218375,2.717469,0.0,0.47,798219.9
1702332071023437,-10.11115,-3.756375,2.671469,0.0,0.47,678219.9
1702332071031250,-9.446115,-4.252375,2.780469,0.0,0.47,578219.9
1702332071039062,-9.270115,-4.493375,3.51469,0.0,0.47,428219.9
1702332071046875,-9.231115,-4.647375,3.205469,0.0,0.47,558219.9
1702332071054687,-9.213115,-4.772375,3.183469,0.0,0.47,828219.9
1702332071062500,-9.327115,-4.940375,3.59469,0.0,0.47,498219.1
1702332071070312,-9.522115,-5.152375,2.949469,0.0,0.47,78219.1
1702332071078125,-9.608115,-5.354375,2.927469,0.0,0.47,8219.1
1702332071085937,-9.518115,-5.527375,2.975469,0.0,0.46,668219.1
1702332071093750,-9.395115,-5.655375,3.34469,0.0,0.46,818219.11
1702332071101562,-9.288115,-5.748375,3.10469,0.0,0.47,68219.11
1702332071109375,-9.137115,-5.748375,2.886469,0.0,0.47,158219.11
1702332071117187,-8.917115,-5.665375,2.722469,0.0,0.47,268219.11
1702332071125000,-8.724115,-5.450375,2.572469,0.0,0.47,388219.11
1702332071132812,-8.569115,-5.144375,2.450469,0.0,0.47,428219.11
1702332071140625,-8.410115,-4.765375,2.347469,0.0,0.47,138219.11
1702332071148437,-8.286115,-4.347375,2.247469,0.0,0.47,18219.1
1702332071156250,-8.220115,-3.900375,2.119469,0.0,0.47,188219.1
1702332071164062,-8.196115,-3.450375,2.3469,0.0,0.47,208219.1
1702332071171875,-8.174115,-3.41375,1.882469,0.0,0.46,908219.1
1702332071179687,-8.187115,-2.690375,1.793469,0.0,0.46,888219.1
1702332071187500,-8.210115,-2.395375,1.717469,0.0,0.46,538219.1
1702332071195312,-8.216115,-2.170375,1.694469,0.0,0.46,828219.1
1702332071203125,-8.184115,-2.76375,1.694469,0.0,0.47,258219.1
1702332071210937,-8.153115,-2.45375,1.709469,0.0,0.47,128219.9
1702332071218750,-8.152115,-2.21375,1.790469,0.0,0.47,468219.9
1702332071226562,-8.183115,-2.16375,1.887469,0.0,0.47,458219.9
1702332071234375,-8.275115,-1.991375,1.993469,0.0,0.47,178219.9
1702332071242187,-8.423115,-1.964375,2.83469,0.0,0.47,108219.9
1702332071250000,-8.509115,-1.967375,2.142469,0.0,0.46,938219.9
1702332071257812,-8.494115,-2.72375,2.194469,0.0,0.47,128219.8
1702332071265625,-8.467115,-2.212375,2.276469,0.0,0.47,128219.9
1702332071273437,-8.476115,-2.315375,2.373469,0.0,0.46,938219.8
1702332071281250,-8.502115,-2.403375,2.502469,0.0,0.47,168219.8
1702332071289062,-8.484115,-2.522375,2.574469,0.0,0.46,938219.8
1702332071296875,-8.453115,-2.660375,2.606469,0.0,0.47,128219.8
1702332071304687,-8.425115,-2.816375,2.645469,0.0,0.47,198219.9
1702332071312500,-8.445115,-2.964375,2.718469,0.0,0.46,598219.9
1702332071320312,-8.521115,-3.96375,2.813469,0.0,0.46,528219.9
1702332071328125,-8.655115,-3.183375,2.890469,0.0,0.46,728219.9
1702332071335937,-8.835115,-3.269375,2.944469,0.0,0.46,528219.9
1702332071343750,-8.948115,-3.334375,2.969469,0.0,0.46,558219.9
1702332071351562,-8.982115,-3.419375,2.976469,0.0,0.46,588219.9
1702332071359375,-8.980115,-3.520375,3.23469,0.0,0.46,428219.9
1702332071367187,-8.945115,-3.629375,3.42469,0.0,0.46,448219.9
1702332071375000,-8.892115,-3.730375,3.83469,0.0,0.46,448219.9
1702332071382812,-8.788115,-3.789375,3.121469,0.0,0.46,448219.9
1702332071390625,-8.700115,-3.826375,3.117469,0.0,0.46,488219.9
1702332071398437,-8.608115,-3.843375,3.110469,0.0,0.46,228219.9
1702332071406250,-8.579115,-3.842375,3.86469,0.0,0.45,938219.1
1702332071414062,-8.677115,-3.778375,3.40469,0.0,0.46,148219.9
1702332071421875,-8.676115,-3.808375,2.944469,0.0,0.46,138219.9
1702332071429687,-8.550115,-3.875375,2.833469,0.0,0.45,968219.1
1702332071437500,-8.580115,-3.810375,2.817469,0.0,0.46,48219.1
1702332071445312,-8.660115,-3.702375,2.794469,0.0,0.45,858219.9
1702332071453125,-8.588115,-3.616375,2.715469,0.0,0.46,8219.9
1702332071460937,-8.492115,-3.618375,2.650469,0.0,0.46,148219.1
1702332071468750,-8.446115,-3.669375,2.614469,0.0,0.45,998219.1
1702332071476562,-8.416115,-3.738375,2.605469,0.0,0.45,898219.9
1702332071484375,-8.359115,-3.799375,2.639469,0.0,0.45,778219.9
1702332071492187,-8.329115,-3.893375,2.599469,0.0,0.45,718219.1
1702332071500000,-8.331115,-4.21375,2.530469,0.0,0.45,368219.1
1702332071507812,-8.352115,-4.129375,2.451469,0.0,0.45,658219.1
1702332071515625,-8.362115,-4.211375,2.390469,0.0,0.46,28219.1
1702332071523437,-8.412115,-4.255375,2.357469,0.0,0.46,138219.1
1702332071531250,-8.492115,-4.298375,2.339469,0.0,0.45,978219.1
1702332071539062,-8.507115,-4.355375,2.296469,0.0,0.45,958219.1
1702332071546875,-8.492115,-4.422375,2.253469,0.0,0.46,238219.1
1702332071554687,-8.471115,-4.493375,2.206469,0.0,0.46,318219.1
1702332071562500,-8.452115,-4.562375,2.157469,0.0,0.46,38219.1
1702332071570312,-8.429115,-4.624375,2.121469,0.0,0.45,888219.1
1702332071578125,-8.435115,-4.619375,2.89469,0.0,0.45,908219.1
1702332071585937,-8.485115,-4.589375,2.17469,0.0,0.45,638219.1
1702332071593750,-8.497115,-4.522375,1.945469,0.0,0.45,858219.1
1702332071601562,-8.509115,-4.473375,1.891469,0.0,0.45,788219.1
1702332071609375,-8.594115,-4.361375,1.852469,0.0,0.45,888219.1
1702332071617187,-8.697115,-4.228375,1.842469,0.0,0.46,188219.1
1702332071625000,-8.793115,-4.67375,1.819469,0.0,0.46,138219.1
1702332071632812,-8.870115,-3.919375,1.805469,0.0,0.46,118219.1
1702332071640625,-8.910115,-3.756375,1.791469,0.0,0.46,248219.1
1702332071648437,-8.953115,-3.583375,1.806469,0.0,0.46,418219.1
1702332071656250,-8.983115,-3.420375,1.864469,0.0,0.46,198219.1
1702332071664062,-8.963115,-3.286375,1.952469,0.0,0.46,398219.1
1702332071671875,-8.821115,-3.224375,2.17469,0.0,0.46,388219.1
1702332071679687,-8.602115,-3.230375,2.110469,0.0,0.46,228219.9
1702332071687500,-8.376115,-3.243375,2.214469,0.0,0.46,288219.9
1702332071695312,-8.251115,-3.239375,2.331469,0.0,0.46,118219.1
1702332071703125,-8.204115,-3.247375,2.439469,0.0,0.46,98219.1
1702332071710937,-8.223115,-3.269375,2.509469,0.0,0.46,388219.1
1702332071718750,-8.420115,-3.264375,2.563469,0.0,0.46,498219.9
1702332071726562,-8.694115,-3.274375,2.590469,0.0,0.46,468219.9
1702332071734375,-8.914115,-3.351375,2.606469,0.0,0.46,528219.9
1702332071742187,-9.42115,-3.464375,2.644469,0.0,0.46,238219.9
1702332071750000,-9.88115,-3.612375,2.710469,0.0,0.46,98219.1
1702332071757812,-9.31115,-3.813375,2.812469,0.0,0.46,288219.9
1702332071765625,-8.902115,-4.35375,2.919469,0.0,0.46,268219.9
1702332071773437,-8.720115,-4.267375,3.28469,0.0,0.46,228219.1
1702332071781250,-8.568115,-4.494375,3.108469,0.0,0.46,388219.1
1702332071789062,-8.458115,-4.682375,3.167469,0.0,0.46,368219.1
1702332071796875,-8.384115,-4.855375,3.215469,0.0,0.46,238219.1
1702332071804687,-8.320115,-5.18375,3.207469,0.0,0.46,168219.1
1702332071812500,-8.280115,-5.158375,3.160469,0.0,0.45,938219.1
1702332071820312,-8.233115,-5.287375,3.111469,0.0,0.45,618219.1
1702332071828125,-8.189115,-5.385375,3.44469,0.0,0.45,928219.1
1702332071835937,-8.157115,-5.441375,2.954469,0.0,0.46,178219.1
1702332071843750,-8.182115,-5.434375,2.852469,0.0,0.46,128219.1
1702332071851562,-8.282115,-5.352375,2.701469,0.0,0.46,138219.1
1702332071859375,-8.328115,-5.255375,2.498469,0.0,0.46,128219.1
1702332071867187,-8.288115,-5.131375,2.308469,0.0,0.46,128219.1
1702332071875000,-8.296115,-4.953375,2.165469,0.0,0.46,158219.1
1702332071882812,-8.411115,-4.735375,2.43469,0.0,0.46,68219.1
1702332071890625,-8.540115,-4.508375,1.931469,0.0,0.46,488219.1
1702332071898437,-8.654115,-4.260375,1.786469,0.0,0.46,738219.1
1702332071906250,-8.755115,-3.989375,1.650469,0.0,0.46,608219.9
1702332071914062,-8.878115,-3.721375,1.543469,0.0,0.47,58219.9
1702332071921875,-8.945115,-3.446375,1.488469,0.0,0.47,258219.9
1702332071929687,-8.929115,-3.178375,1.494469,0.0,0.47,348219.9
1702332071937500,-8.902115,-2.926375,1.572469,0.0,0.47,478219.9
1702332071945312,-8.875115,-2.716375,1.668469,0.0,0.47,488219.8
1702332071953125,-8.895115,-2.558375,1.767469,0.0,0.47,358219.8
1702332071960937,-8.996115,-2.395375,1.868469,0.0,0.47,198219.8
1702332071968750,-9.116115,-2.287375,1.937469,0.0,0.47,368219.8
1702332071976562,-9.146115,-2.224375,1.982469,0.0,0.47,508219.8
1702332071984375,-9.77115,-2.224375,2.70469,0.0,0.47,418219.8
1702332071992187,-8.990115,-2.217375,2.196469,0.0,0.47,718219.8
1702332072000000,-8.908115,-2.181375,2.329469,0.0,0.47,828219.8
1702332072007812,-8.738115,-2.166375,2.419469,0.0,0.47,828219.8
1702332072015625,-8.557115,-2.181375,2.481469,0.0,0.47,708219.7
1702332072023437,-8.461115,-2.178375,2.548469,0.0,0.47,558219.7
1702332072031250,-8.362115,-2.193375,2.614469,0.0,0.47,708219.7
1702332072039062,-8.236115,-2.231375,2.686469,0.0,0.47,838219.7
1702332072046875,-8.186115,-2.277375,2.756469,0.0,0.47,828219.7
1702332072054687,-8.247115,-2.358375,2.838469,0.0,0.47,748219.7
1702332072062500,-8.348115,-2.469375,2.854469,0.0,0.47,778219.7
1702332072070312,-8.462115,-2.612375,2.854469,0.0,0.47,508219.7
1702332072078125,-8.593115,-2.762375,2.850469,0.0,0.47,438219.7
1702332072085937,-8.635115,-2.950375,2.830469,0.0,0.47,848219.7
1702332072093750,-8.530115,-3.180375,2.831469,0.0,0.47,778219.7
1702332072101562,-8.449115,-3.360375,2.886469,0.0,0.47,608219.7
1702332072109375,-8.466115,-3.450375,2.983469,0.0,0.47,768219.7
1702332072117187,-8.493115,-3.512375,3.55469,0.0,0.47,858219.8
1702332072125000,-8.520115,-3.532375,3.58469,0.0,0.48,8219.8
1702332072132812,-8.537115,-3.556375,3.8469,0.0,0.47,938219.8
1702332072140625,-8.485115,-3.608375,2.972469,0.0,0.48,148219.8
1702332072148437,-8.761115,-3.430375,3.50469,0.0,0.47,898219.8
1702332072156250,-9.235115,-3.127375,3.99469,0.0,0.48,168219.8
1702332072164062,-8.876115,-3.321375,2.928469,0.0,0.48,558219.8
1702332072171875,-8.391115,-3.516375,2.821469,0.0,0.47,858219.8
1702332072179687,-8.334115,-3.604375,3.20469,0.0,0.47,968219.7
1702332072187500,-7.954115,-3.872375,3.77469,0.0,0.48,138219.7
1702332072195312,-7.834115,-3.806375,3.120469,0.0,0.47,948219.8
1702332072203125,-8.591115,-3.425375,3.204469,0.0,0.47,978219.8
1702332072210937,-9.14115,-3.367375,2.831469,0.0,0.47,978219.8
1702332072218750,-8.857115,-3.466375,2.248469,0.0,0.47,918219.8
1702332072226562,-8.536115,-3.683375,1.983469,0.0,0.48,178219.8
1702332072234375,-8.12115,-4.58375,1.942469,0.0,0.48,468219.8
1702332072242187,-7.293115,-4.415375,2.79469,0.0,0.48,278219.8
1702332072250000,-6.710115,-4.669375,2.265469,0.0,0.48,108219.8
1702332072257812,-6.592115,-4.811375,2.268469,0.0,0.48,368219.8
1702332072265625,-7.177115,-4.678375,2.10469,0.0,0.47,988219.8
1702332072273437,-7.942115,-4.502375,1.512469,0.0,0.48,108219.9
1702332072281250,-8.347115,-4.470375,0.842469,0.0,0.48,588219.8
1702332072289062,-8.523115,-4.535375,0.396469,0.0,0.48,298219.8
1702332072296875,-8.659115,-4.701375,0.329469,0.0,0.48,518219.8
1702332072304687,-8.710115,-4.867375,0.426469,0.0,0.48,458219.8
1702332072312500,-8.604115,-5.46375,0.492469,0.0,0.48,548219.9
1702332072320312,-8.615115,-5.159375,0.398469,0.0,0.48,868219.9
1702332072328125,-8.973115,-5.125375,0.163469,0.0,0.48,658219.9
1702332072335937,-9.389115,-5.117375,0.136531,0.0,0.48,638219.9
1702332072343750,-9.679115,-5.136375,0.427531,0.0,0.48,918219.9
1702332072351562,-9.959115,-5.97375,0.554531,0.0,0.48,988219.9
1702332072359375,-10.331115,-5.29375,0.591531,0.0,0.49,58219.9
1702332072367187,-10.593115,-5.2375,0.661531,0.0,0.49,348219.1
1702332072375000,-10.568115,-5.44375,0.771531,0.0,0.49,328219.9
1702332072382812,-10.266115,-5.198375,0.822531,0.0,0.49,138219.1
1702332072390625,-10.10115,-5.282375,0.795531,0.0,0.49,308219.1
1702332072398437,-10.23115,-5.140375,0.732531,0.0,0.49,368219.1
1702332072406250,-10.196115,-4.835375,0.677531,0.0,0.49,668219.1
1702332072414062,-10.325115,-4.505375,0.653531,0.0,0.49,638219.1
1702332072421875,-10.293115,-4.242375,0.562531,0.0,0.49,448219.1
1702332072429687,-10.34115,-4.131375,0.420531,0.0,0.49,648219.1
1702332072437500,-9.639115,-4.99375,0.266531,0.0,0.49,588219.1
1702332072445312,-9.308115,-4.89375,0.149531,0.0,0.49,698219.1
1702332072453125,-9.49115,-4.74375,0.69531,0.0,0.49,988219.1
1702332072460937,-8.876115,-3.997375,0.9531,0.0,0.49,948219.1
1702332072468750,-8.823115,-3.847375,0.55469,0.0,0.49,838219.1
1702332072476562,-8.784115,-3.666375,0.95469,0.0,0.5,448219.1
1702332072484375,-8.680115,-3.493375,0.133469,0.0,0.5,538219.1
1702332072492187,-8.581115,-3.348375,0.166469,0.0,0.5,208219.1
1702332072500000,-8.472115,-3.242375,0.200469,0.0,0.5,238219.1
1702332072507812,-8.311115,-3.216375,0.243469,0.0,0.5,428219.1
1702332072515625,-8.177115,-3.236375,0.266469,0.0,0.5,188219.1
1702332072523437,-8.96115,-3.284375,0.286469,0.0,0.49,688219.1
1702332072531250,-8.114115,-3.361375,0.264469,0.0,0.5,168219.1
1702332072539062,-8.239115,-3.412375,0.257469,0.0,0.5,548219.1
1702332072546875,-8.398115,-3.520375,0.248469,0.0,0.5,438219.1
1702332072554687,-8.512115,-3.634375,0.258469,0.0,0.5,598219.1
1702332072562500,-8.666115,-3.729375,0.283469,0.0,0.5,288219.1
1702332072570312,-8.742115,-3.863375,0.299469,0.0,0.49,998219.1
1702332072578125,-8.690115,-4.39375,0.329469,0.0,0.5,78219.1
1702332072585937,-8.598115,-4.201375,0.390469,0.0,0.5,88219.1
1702332072593750,-8.544115,-4.375375,0.441469,0.0,0.5,198219.1
1702332072601562,-8.496115,-4.540375,0.443469,0.0,0.5,178219.1
1702332072609375,-8.414115,-4.672375,0.446469,0.0,0.5,178219.1
1702332072617187,-8.355115,-4.808375,0.440469,0.0,0.5,198219.1
1702332072625000,-8.360115,-4.912375,0.411469,0.0,0.5,68219.1
1702332072632812,-8.409115,-4.938375,0.404469,0.0,0.49,938219.11
1702332072640625,-8.521115,-4.905375,0.379469,0.0,0.49,928219.11
1702332072648437,-8.672115,-4.851375,0.343469,0.0,0.5,88219.1
1702332072656250,-8.813115,-4.818375,0.288469,0.0,0.5,118219.1
1702332072664062,-8.946115,-4.771375,0.254469,0.0,0.49,768219.1
1702332072671875,-9.72115,-4.711375,0.234469,0.0,0.49,958219.1
1702332072679687,-9.173115,-4.663375,0.195469,0.0,0.5,78219.11
1702332072687500,-9.196115,-4.631375,0.175469,0.0,0.5,58219.11
1702332072695312,-9.166115,-4.570375,0.184469,0.0,0.5,38219.11
1702332072703125,-9.111115,-4.509375,0.215469,0.0,0.5,168219.1
1702332072710937,-9.74115,-4.434375,0.224469,0.0,0.5,338219.1
1702332072718750,-9.83115,-4.323375,0.223469,0.0,0.5,128219.1
1702332072726562,-9.111115,-4.209375,0.201469,0.0,0.5,258219.1
1702332072734375,-9.149115,-4.115375,0.182469,0.0,0.5,548219.1
1702332072742187,-9.191115,-3.975375,0.202469,0.0,0.5,548219.1
1702332072750000,-9.241115,-3.828375,0.226469,0.0,0.5,228219.1
1702332072757812,-9.267115,-3.727375,0.224469,0.0,0.5,298219.1
1702332072765625,-9.224115,-3.670375,0.244469,0.0,0.5,288219.1
1702332072773437,-9.146115,-3.627375,0.266469,0.0,0.5,318219.1
1702332072781250,-9.19115,-3.619375,0.305469,0.0,0.5,138219.1
1702332072789062,-8.953115,-3.567375,0.340469,0.0,0.5,268219.1
1702332072796875,-9.44115,-3.472375,0.358469,0.0,0.5,568219.1
1702332072804687,-8.957115,-3.460375,0.306469,0.0,0.5,468219.1
1702332072812500,-8.665115,-3.545375,0.280469,0.0,0.5,678219.9
1702332072820312,-8.504115,-3.585375,0.325469,0.0,0.5,498219.1
1702332072828125,-8.429115,-3.651375,0.317469,0.0,0.5,438219.1
1702332072835937,-8.260115,-3.722375,0.236469,0.0,0.5,138219.9
1702332072843750,-8.184115,-3.757375,0.215469,0.0,0.5,138219.9
1702332072851562,-8.310115,-3.788375,0.186469,0.0,0.5,458219.1
1702332072859375,-8.488115,-3.833375,0.159469,0.0,0.5,368219.9
1702332072867187,-8.660115,-3.877375,0.209469,0.0,0.5,498219.9
1702332072875000,-8.893115,-3.918375,0.283469,0.0,0.5,778219.1
1702332072882812,-9.94115,-4.43375,0.328469,0.0,0.5,728219.1
1702332072890625,-9.147115,-4.216375,0.401469,0.0,0.5,638219.1
1702332072898437,-9.129115,-4.365375,0.496469,0.0,0.5,358219.9
1702332072906250,-9.50115,-4.537375,0.574469,0.0,0.5,378219.1
1702332072914062,-8.917115,-4.715375,0.622469,0.0,0.5,548219.1
1702332072921875,-8.820115,-4.821375,0.669469,0.0,0.5,388219.1
1702332072929687,-8.720115,-4.874375,0.715469,0.0,0.5,258219.1
1702332072937500,-8.604115,-4.863375,0.728469,0.0,0.5,248219.1
1702332072945312,-8.491115,-4.816375,0.731469,0.0,0.5,438219.11
1702332072953125,-8.419115,-4.739375,0.728469,0.0,0.5,248219.11
1702332072960937,-8.371115,-4.640375,0.730469,0.0,0.5,258219.1
1702332072968750,-8.356115,-4.516375,0.709469,0.0,0.5,418219.1
1702332072976562,-8.418115,-4.373375,0.641469,0.0,0.5,378219.1
1702332072984375,-8.530115,-4.236375,0.575469,0.0,0.5,488219.1
1702332072992187,-8.633115,-4.138375,0.500469,0.0,0.5,748219.1
1702332073000000,-8.718115,-4.86375,0.424469,0.0,0.5,878219.9
1702332073007812,-8.806115,-4.71375,0.374469,0.0,0.5,788219.9
1702332073015625,-8.814115,-4.130375,0.284469,0.0,0.5,298219.1
1702332073023437,-8.770115,-4.235375,0.201469,0.0,0.5,488219.1
1702332073031250,-8.708115,-4.331375,0.107469,0.0,0.5,788219.1
1702332073039062,-8.633115,-4.405375,0.12469,0.0,0.5,598219.1
1702332073046875,-8.547115,-4.477375,0.90531,0.0,0.5,508219.1
1702332073054687,-8.529115,-4.475375,0.178531,0.0,0.5,418219.1
1702332073062500,-8.665115,-4.386375,0.240531,0.0,0.5,578219.1
1702332073070312,-8.829115,-4.321375,0.337531,0.0,0.5,658219.1
1702332073078125,-8.953115,-4.272375,0.418531,0.0,0.5,568219.9
1702332073085937,-9.38115,-4.257375,0.452531,0.0,0.5,498219.1
1702332073093750,-9.104115,-4.274375,0.466531,0.0,0.5,258219.1
1702332073101562,-9.160115,-4.310375,0.450531,0.0,0.5,598219.9
1702332073109375,-9.166115,-4.346375,0.411531,0.0,0.5,698219.9
1702332073117187,-9.127115,-4.378375,0.362531,0.0,0.5,608219.9
1702332073125000,-9.107115,-4.407375,0.323531,0.0,0.5,898219.1
1702332073132812,-9.122115,-4.416375,0.265531,0.0,0.51,28219.1
1702332073140625,-9.135115,-4.422375,0.202531,0.0,0.5,858219.1
1702332073148437,-9.106115,-4.421375,0.152531,0.0,0.5,818219.1
1702332073156250,-9.82115,-4.413375,0.73531,0.0,0.51,228219.1
1702332073164062,-9.75115,-4.395375,0.32531,0.0,0.5,738219.1
1702332073171875,-9.78115,-4.335375,0.0,0.0,0.5,538219.9
1702332073179687,-9.48115,-4.285375,0.56469,0.0,0.5,468219.9
1702332073187500,-9.2115,-4.233375,0.115469,0.0,0.5,288219.9
1702332073195312,-9.12115,-4.177375,0.135469,0.0,0.5,478219.9
1702332073203125,-9.73115,-4.121375,0.171469,0.0,0.5,478219.9
1702332073210937,-9.123115,-4.45375,0.193469,0.0,0.5,328219.9
1702332073218750,-9.138115,-3.991375,0.220469,0.0,0.5,298219.9
1702332073226562,-9.163115,-3.960375,0.233469,0.0,0.5,628219.9
1702332073234375,-9.148115,-3.927375,0.251469,0.0,0.5,578219.9
1702332073242187,-9.81115,-3.919375,0.260469,0.0,0.5,588219.8
1702332073250000,-9.5115,-3.923375,0.267469,0.0,0.5,608219.8
1702332073257812,-8.976115,-3.934375,0.256469,0.0,0.5,488219.8
1702332073265625,-8.949115,-3.948375,0.209469,0.0,0.5,358219.8
1702332073273437,-8.904115,-3.951375,0.152469,0.0,0.5,348219.8
1702332073281250,-8.860115,-3.920375,0.110469,0.0,0.5,528219.8
1702332073289062,-8.816115,-3.890375,0.58469,0.0,0.5,368219.8
1702332073296875,-8.759115,-3.844375,0.0,0.0,0.5,218219.8
1702332073304687,-8.730115,-3.802375,0.43531,0.0,0.5,378219.8
1702332073312500,-8.758115,-3.777375,0.104531,0.0,0.5,498219.8
1702332073320312,-8.765115,-3.746375,0.170531,0.0,0.5,528219.8
1702332073328125,-8.772115,-3.730375,0.226531,0.0,0.5,258219.8
1702332073335937,-8.786115,-3.714375,0.262531,0.0,0.5,88219.8
1702332073343750,-8.741115,-3.699375,0.278531,0.0,0.5,438219.8
1702332073351562,-8.643115,-3.714375,0.248531,0.0,0.5,398219.8
1702332073359375,-8.595115,-3.726375,0.208531,0.0,0.5,258219.8
1702332073367187,-8.622115,-3.730375,0.185531,0.0,0.5,268219.8
1702332073375000,-8.678115,-3.709375,0.163531,0.0,0.5,388219.8
1702332073382812,-8.795115,-3.659375,0.118531,0.0,0.5,578219.8
1702332073390625,-8.878115,-3.633375,0.109531,0.0,0.5,258219.8
1702332073398437,-8.793115,-3.686375,0.95531,0.0,0.5,128219.8
1702332073406250,-8.628115,-3.757375,0.59531,0.0,0.5,358219.8
1702332073414062,-8.558115,-3.798375,0.23531,0.0,0.5,158219.7
1702332073421875,-8.625115,-3.799375,0.54531,0.0,0.5,158219.8
1702332073429687,-8.691115,-3.769375,0.102531,0.0,0.5,318219.7
1702332073437500,-8.675115,-3.767375,0.163531,0.0,0.5,318219.7
1702332073445312,-8.590115,-3.797375,0.176531,0.0,0.5,188219.7
1702332073453125,-8.509115,-3.821375,0.165531,0.0,0.5,68219.7
1702332073460937,-8.511115,-3.845375,0.167531,0.0,0.5,68219.7
1702332073468750,-8.596115,-3.855375,0.187531,0.0,0.5,178219.7
1702332073476562,-8.709115,-3.904375,0.205531,0.0,0.5,448219.7
1702332073484375,-8.774115,-3.978375,0.189531,0.0,0.5,538219.7
1702332073492187,-8.815115,-4.51375,0.169531,0.0,0.5,568219.7
1702332073500000,-8.805115,-4.160375,0.168531,0.0,0.5,308219.7
1702332073507812,-8.972115,-4.190375,0.132531,0.0,0.5,858219.7
1702332073515625,-9.867115,-3.807375,0.116531,0.0,0.5,698219.6
1702332073523437,-10.884115,-3.343375,0.308531,0.0,0.5,198219.7
1702332073531250,-10.986115,-3.274375,0.590531,0.0,0.5,598219.6
1702332073539062,-10.71115,-3.646375,0.642531,0.0,0.5,648219.6
1702332073546875,-9.31115,-4.146375,0.491531,0.0,0.5,758219.7
1702332073554687,-8.325115,-4.409375,0.401531,0.0,0.5,878219.7
1702332073562500,-7.669115,-4.489375,0.317531,0.0,0.5,488219.7
1702332073570312,-7.42115,-4.478375,0.188531,0.0,0.49,958219.7
1702332073578125,-6.689115,-4.365375,0.54469,0.0,0.5,138219.7
1702332073585937,-6.693115,-4.184375,0.399469,0.0,0.5,38219.7
1702332073593750,-7.2115,-3.894375,0.765469,0.0,0.49,858219.7
1702332073601562,-7.667115,-3.522375,1.106469,0.0,0.49,898219.7
1702332073609375,-8.649115,-3.153375,1.237469,0.0,0.49,908219.7
1702332073617187,-9.377115,-3.30375,1.177469,0.0,0.49,778219.7
1702332073625000,-9.507115,-3.216375,1.182469,0.0,0.49,678219.7
1702332073632812,-9.329115,-3.464375,1.433469,0.0,0.49,568219.7
1702332073640625,-9.188115,-3.696375,1.772469,0.0,0.49,458219.7
1702332073648437,-8.932115,-3.927375,2.8469,0.0,0.49,388219.7
1702332073656250,-8.454115,-4.187375,2.140469,0.0,0.49,88219.7
1702332073664062,-8.53115,-4.393375,2.251469,0.0,0.49,138219.7
1702332073671875,-7.878115,-4.432375,2.387469,0.0,0.49,178219.7
1702332073679687,-7.842115,-4.300375,2.563469,0.0,0.48,888219.7
1702332073687500,-8.59115,-4.24375,2.721469,0.0,0.48,798219.8
1702332073695312,-8.515115,-3.731375,2.747469,0.0,0.48,778219.8
1702332073703125,-9.86115,-3.474375,2.608469,0.0,0.48,958219.8
1702332073710937,-9.593115,-3.234375,2.418469,0.0,0.48,828219.7
1702332073718750,-9.883115,-3.136375,2.282469,0.0,0.48,578219.7
1702332073726562,-10.183115,-3.97375,2.263469,0.0,0.48,478219.7
1702332073734375,-10.738115,-2.995375,2.384469,0.0,0.48,408219.8
1702332073742187,-11.124115,-3.26375,2.447469,0.0,0.48,88219.8
1702332073750000,-10.834115,-3.388375,2.401469,0.0,0.48,228219.8
1702332073757812,-10.216115,-3.863375,2.446469,0.0,0.48,578219.8
1702332073765625,-9.872115,-4.253375,2.662469,0.0,0.48,218219.8
1702332073773437,-9.645115,-4.595375,2.857469,0.0,0.48,148219.8
1702332073781250,-9.515115,-4.788375,2.959469,0.0,0.48,148219.8
1702332073789062,-9.563115,-4.867375,2.937469,0.0,0.48,228219.8
1702332073796875,-9.581115,-4.979375,2.732469,0.0,0.47,788219.8
1702332073804687,-9.523115,-4.988375,2.469469,0.0,0.47,668219.8
1702332073812500,-9.455115,-4.905375,2.335469,0.0,0.47,898219.8
1702332073820312,-9.357115,-4.797375,2.281469,0.0,0.47,608219.9
1702332073828125,-9.236115,-4.666375,2.281469,0.0,0.47,318219.9
1702332073835937,-9.100115,-4.516375,2.267469,0.0,0.47,508219.8
1702332073843750,-8.913115,-4.354375,2.201469,0.0,0.47,648219.8
1702332073851562,-8.700115,-4.169375,2.86469,0.0,0.47,488219.9
1702332073859375,-8.492115,-3.926375,1.963469,0.0,0.47,368219.9
1702332073867187,-8.290115,-3.696375,1.866469,0.0,0.47,368219.8
1702332073875000,-8.141115,-3.445375,1.779469,0.0,0.47,558219.9
1702332073882812,-8.72115,-3.136375,1.722469,0.0,0.47,368219.8
1702332073890625,-8.87115,-2.814375,1.671469,0.0,0.47,398219.8
1702332073898437,-8.132115,-2.544375,1.571469,0.0,0.47,448219.8
1702332073906250,-8.204115,-2.361375,1.471469,0.0,0.47,238219.8
1702332073914062,-8.300115,-2.235375,1.381469,0.0,0.47,518219.8
1702332073921875,-8.429115,-2.148375,1.340469,0.0,0.47,808219.8
1702332073929687,-8.543115,-2.111375,1.351469,0.0,0.47,598219.7
1702332073937500,-8.658115,-2.86375,1.382469,0.0,0.47,638219.7
1702332073945312,-8.803115,-2.84375,1.407469,0.0,0.47,668219.7
1702332073953125,-8.827115,-2.126375,1.434469,0.0,0.47,538219.7
1702332073960937,-8.746115,-2.243375,1.491469,0.0,0.47,418219.7
1702332073968750,-8.665115,-2.424375,1.602469,0.0,0.47,398219.7
1702332073976562,-8.636115,-2.574375,1.765469,0.0,0.47,578219.7
1702332073984375,-8.651115,-2.712375,1.934469,0.0,0.47,448219.7
1702332073992187,-8.741115,-2.824375,2.52469,0.0,0.47,198219.7
1702332074000000,-8.897115,-2.923375,2.124469,0.0,0.47,58219.7
1702332074007812,-9.55115,-2.994375,2.174469,0.0,0.47,258219.7
1702332074015625,-9.154115,-3.81375,2.230469,0.0,0.47,128219.7
1702332074023437,-9.153115,-3.212375,2.301469,0.0,0.46,848219.7
1702332074031250,-9.91115,-3.329375,2.423469,0.0,0.46,888219.7
1702332074039062,-8.976115,-3.429375,2.574469,0.0,0.47,8219.7
1702332074046875,-8.885115,-3.505375,2.735469,0.0,0.47,128219.7
1702332074054687,-8.831115,-3.528375,2.868469,0.0,0.47,228219.7
1702332074062500,-8.808115,-3.516375,2.949469,0.0,0.46,938219.7
1702332074070312,-8.820115,-3.511375,2.992469,0.0,0.46,438219.7
1702332074078125,-8.889115,-3.490375,3.8469,0.0,0.46,468219.7
1702332074085937,-8.950115,-3.473375,3.19469,0.0,0.46,438219.7
1702332074093750,-8.983115,-3.451375,3.3469,0.0,0.45,918219.7
1702332074101562,-9.23115,-3.394375,2.998469,0.0,0.46,178219.7
1702332074109375,-9.79115,-3.338375,2.984469,0.0,0.46,158219.7
1702332074117187,-9.87115,-3.275375,2.905469,0.0,0.46,68219.7
1702332074125000,-8.992115,-3.237375,2.813469,0.0,0.46,528219.8
1702332074132812,-9.56115,-3.36375,2.785469,0.0,0.46,558219.8
1702332074140625,-9.134115,-2.780375,2.762469,0.0,0.46,738219.7
1702332074148437,-9.50115,-2.579375,2.644469,0.0,0.46,578219.7
1702332074156250,-8.930115,-2.430375,2.555469,0.0,0.46,478219.7
1702332074164062,-8.845115,-2.329375,2.533469,0.0,0.46,368219.6
1702332074171875,-8.712115,-2.265375,2.555469,0.0,0.46,318219.6
1702332074179687,-8.531115,-2.261375,2.596469,0.0,0.45,918219.7
1702332074187500,-8.457115,-2.291375,2.645469,0.0,0.45,658219.6
1702332074195312,-8.508115,-2.391375,2.662469,0.0,0.45,878219.6
1702332074203125,-8.625115,-2.506375,2.603469,0.0,0.45,778219.6
1702332074210937,-8.732115,-2.615375,2.529469,0.0,0.46,68219.6
1702332074218750,-8.840115,-2.732375,2.439469,0.0,0.46,258219.6
1702332074226562,-8.927115,-2.884375,2.370469,0.0,0.45,748219.6
1702332074234375,-8.961115,-3.10375,2.356469,0.0,0.45,828219.6
1702332074242187,-8.992115,-3.102375,2.391469,0.0,0.45,968219.6
1702332074250000,-9.13115,-3.184375,2.400469,0.0,0.45,928219.7
1702332074257812,-9.27115,-3.264375,2.360469,0.0,0.45,988219.7
1702332074265625,-9.6115,-3.346375,2.313469,0.0,0.45,658219.7
1702332074273437,-8.995115,-3.368375,2.297469,0.0,0.45,698219.7
1702332074281250,-9.15115,-3.361375,2.324469,0.0,0.45,858219.7
1702332074289062,-8.990115,-3.364375,2.356469,0.0,0.45,808219.7
1702332074296875,-8.925115,-3.385375,2.392469,0.0,0.45,898219.7
1702332074304687,-8.887115,-3.406375,2.421469,0.0,0.46,238219.6
1702332074312500,-8.824115,-3.414375,2.419469,0.0,0.46,18219.7
1702332074320312,-8.807115,-3.359375,2.464469,0.0,0.46,28219.7
1702332074328125,-8.793115,-3.281375,2.502469,0.0,0.46,188219.7
1702332074335937,-8.731115,-3.238375,2.515469,0.0,0.46,148219.7
1702332074343750,-8.633115,-3.222375,2.565469,0.0,0.46,208219.7
1702332074351562,-8.546115,-3.186375,2.689469,0.0,0.45,918219.7
1702332074359375,-8.522115,-3.178375,2.824469,0.0,0.45,748219.7
1702332074367187,-8.526115,-3.194375,2.932469,0.0,0.46,88219.7
1702332074375000,-8.600115,-3.171375,3.36469,0.0,0.46,138219.7
1702332074382812,-8.709115,-3.178375,3.124469,0.0,0.45,528219.7
1702332074390625,-8.772115,-3.282375,3.133469,0.0,0.45,498219.7
1702332074398437,-8.777115,-3.419375,3.109469,0.0,0.45,488219.7
1702332074406250,-8.725115,-3.555375,3.152469,0.0,0.45,578219.7
1702332074414062,-8.688115,-3.649375,3.232469,0.0,0.45,838219.7
1702332074421875,-8.658115,-3.703375,3.304469,0.0,0.45,958219.7
1702332074429687,-8.616115,-3.780375,3.356469,0.0,0.45,868219.7
1702332074437500,-8.554115,-3.847375,3.395469,0.0,0.45,448219.7
1702332074445312,-8.490115,-3.933375,3.373469,0.0,0.45,338219.7
1702332074453125,-8.397115,-4.27375,3.355469,0.0,0.45,528219.7
1702332074460937,-8.359115,-4.55375,3.337469,0.0,0.45,438219.8
1702332074468750,-8.381115,-4.70375,3.323469,0.0,0.45,678219.8
1702332074476562,-8.421115,-4.60375,3.247469,0.0,0.46,108219.7
1702332074484375,-8.545115,-4.2375,3.138469,0.0,0.45,998219.7
1702332074492187,-8.735115,-3.890375,3.14469,0.0,0.46,138219.8
1702332074500000,-8.887115,-3.782375,2.873469,0.0,0.46,268219.8
1702332074507812,-8.911115,-3.666375,2.726469,0.0,0.46,248219.8
1702332074515625,-8.932115,-3.506375,2.618469,0.0,0.46,228219.7
1702332074523437,-8.937115,-3.352375,2.547469,0.0,0.46,358219.7
1702332074531250,-8.886115,-3.189375,2.499469,0.0,0.46,488219.7
1702332074539062,-8.808115,-3.35375,2.470469,0.0,0.46,488219.7
1702332074546875,-8.773115,-2.882375,2.422469,0.0,0.46,358219.7
1702332074554687,-8.847115,-2.717375,2.367469,0.0,0.46,258219.7
1702332074562500,-8.901115,-2.567375,2.301469,0.0,0.46,468219.7
1702332074570312,-8.858115,-2.465375,2.217469,0.0,0.46,568219.7
1702332074578125,-8.777115,-2.400375,2.134469,0.0,0.46,728219.6
1702332074585937,-8.800115,-2.308375,2.161469,0.0,0.46,888219.6
1702332074593750,-8.887115,-2.198375,2.198469,0.0,0.46,818219.6
1702332074601562,-8.909115,-2.123375,2.214469,0.0,0.46,988219.6
1702332074609375,-8.896115,-2.87375,2.216469,0.0,0.46,978219.6
1702332074617187,-8.891115,-2.83375,2.234469,0.0,0.46,818219.7
1702332074625000,-8.856115,-2.84375,2.268469,0.0,0.46,848219.6
1702332074632812,-8.739115,-2.95375,2.342469,0.0,0.46,838219.6
1702332074640625,-8.560115,-2.145375,2.455469,0.0,0.46,848219.6
1702332074648437,-8.418115,-2.214375,2.546469,0.0,0.46,818219.6
1702332074656250,-8.296115,-2.294375,2.637469,0.0,0.46,958219.6
1702332074664062,-8.221115,-2.365375,2.723469,0.0,0.47,58219.6
1702332074671875,-8.286115,-2.439375,2.797469,0.0,0.47,198219.6
1702332074679687,-8.514115,-2.469375,2.822469,0.0,0.47,168219.6
1702332074687500,-8.722115,-2.536375,2.761469,0.0,0.47,138219.6
1702332074695312,-8.918115,-2.597375,2.691469,0.0,0.47,298219.7
1702332074703125,-9.109115,-2.664375,2.635469,0.0,0.47,268219.6
1702332074710937,-9.44115,-2.816375,2.588469,0.0,0.47,238219.6
1702332074718750,-8.847115,-2.957375,2.627469,0.0,0.47,398219.7
1702332074726562,-8.772115,-3.27375,2.754469,0.0,0.47,378219.7
1702332074734375,-8.688115,-3.94375,2.858469,0.0,0.47,338219.7
1702332074742187,-8.661115,-3.107375,2.898469,0.0,0.47,528219.7
1702332074750000,-8.699115,-3.91375,2.916469,0.0,0.47,348219.7
1702332074757812,-8.665115,-3.132375,2.883469,0.0,0.47,318219.7
1702332074765625,-8.571115,-3.173375,2.890469,0.0,0.47,618219.7
1702332074773437,-8.496115,-3.210375,2.998469,0.0,0.47,598219.7
1702332074781250,-8.392115,-3.319375,3.93469,0.0,0.47,408219.7
1702332074789062,-8.301115,-3.414375,3.159469,0.0,0.47,608219.7
1702332074796875,-8.419115,-3.421375,3.238469,0.0,0.47,538219.7
1702332074804687,-8.687115,-3.401375,3.231469,0.0,0.47,678219.7
1702332074812500,-9.41115,-3.359375,3.158469,0.0,0.47,828219.7
1702332074820312,-9.474115,-3.223375,3.18469,0.0,0.47,728219.8
1702332074828125,-9.452115,-3.364375,2.833469,0.0,0.48,28219.8
1702332074835937,-8.963115,-3.612375,2.676469,0.0,0.48,128219.8
1702332074843750,-8.387115,-3.873375,2.786469,0.0,0.48,98219.8
1702332074851562,-7.724115,-4.144375,2.957469,0.0,0.48,108219.8
1702332074859375,-6.942115,-4.415375,3.1469,0.0,0.48,68219.8
1702332074867187,-6.293115,-4.632375,2.967469,0.0,0.48,248219.8
1702332074875000,-5.953115,-4.782375,2.841469,0.0,0.48,148219.8
1702332074882812,-6.40115,-4.779375,2.622469,0.0,0.47,668219.9
1702332074890625,-6.566115,-4.607375,2.308469,0.0,0.47,828219.9
1702332074898437,-7.352115,-4.382375,1.885469,0.0,0.48,178219.9
1702332074906250,-8.175115,-4.202375,1.419469,0.0,0.48,548219.9
1702332074914062,-8.973115,-4.52375,0.980469,0.0,0.48,638219.9
1702332074921875,-9.464115,-4.107375,0.648469,0.0,0.48,578219.8
1702332074929687,-9.386115,-4.463375,0.483469,0.0,0.48,768219.9
1702332074937500,-9.19115,-4.917375,0.541469,0.0,0.48,568219.9
1702332074945312,-8.629115,-5.370375,0.667469,0.0,0.48,578219.9
1702332074953125,-8.340115,-5.679375,0.594469,0.0,0.48,678219.9
1702332074960937,-8.211115,-5.796375,0.398469,0.0,0.48,908219.9
1702332074968750,-8.363115,-5.697375,0.147469,0.0,0.49,138219.9
1702332074976562,-8.648115,-5.605375,0.91531,0.0,0.49,248219.1
1702332074984375,-8.866115,-5.554375,0.299531,0.0,0.49,198219.1
1702332074992187,-9.113115,-5.474375,0.437531,0.0,0.49,298219.1
1702332075000000,-9.451115,-5.434375,0.573531,0.0,0.49,608219.1
1702332075007812,-9.775115,-5.419375,0.749531,0.0,0.49,388219.1
1702332075015625,-10.210115,-5.338375,0.907531,0.0,0.49,398219.1
1702332075023437,-10.617115,-5.324375,-1.54531,0.0,0.49,558219.1
1702332075031250,-10.794115,-5.407375,-1.190531,0.0,0.49,498219.1
1702332075039062,-10.689115,-5.569375,-1.205531,0.0,0.49,628219.1
1702332075046875,-10.481115,-5.725375,-1.143531,0.0,0.49,738219.1
1702332075054687,-10.401115,-5.791375,-1.91531,0.0,0.49,788219.1
1702332075062500,-10.496115,-5.725375,-1.44531,0.0,0.49,738219.1
1702332075070312,-10.667115,-5.505375,0.973531,0.0,0.49,788219.11
1702332075078125,-10.722115,-5.288375,0.834531,0.0,0.49,998219.1
1702332075085937,-10.575115,-5.146375,0.697531,0.0,0.49,528219.11
1702332075093750,-10.197115,-5.18375,0.541531,0.0,0.49,738219.11
1702332075101562,-9.726115,-4.893375,0.365531,0.0,0.5,498219.1
1702332075109375,-9.275115,-4.755375,0.223531,0.0,0.5,318219.11
1702332075117187,-8.952115,-4.557375,0.77531,0.0,0.5,508219.11
1702332075125000,-8.796115,-4.249375,0.29469,0.0,0.5,458219.11
1702332075132812,-8.697115,-3.896375,0.105469,0.0,0.5,558219.1
1702332075140625,-8.550115,-3.602375,0.163469,0.0,0.5,918219.1
1702332075148437,-8.373115,-3.365375,0.230469,0.0,0.5,558219.11
1702332075156250,-8.231115,-3.180375,0.344469,0.0,0.5,438219.1
1702332075164062,-8.97115,-3.58375,0.466469,0.0,0.5,618219.1
1702332075171875,-8.7115,-2.964375,0.560469,0.0,0.5,638219.1
1702332075179687,-7.965115,-2.937375,0.614469,0.0,0.5,378219.1
1702332075187500,-7.965115,-2.948375,0.635469,0.0,0.5,188219.1
1702332075195312,-7.993115,-3.7375,0.673469,0.0,0.5,638219.9
1702332075203125,-8.101115,-3.81375,0.694469,0.0,0.5,888219.1
1702332075210937,-8.220115,-3.166375,0.719469,0.0,0.5,678219.1
1702332075218750,-8.247115,-3.260375,0.724469,0.0,0.5,728219.9
1702332075226562,-8.274115,-3.384375,0.740469,0.0,0.5,698219.9
1702332075234375,-8.321115,-3.512375,0.760469,0.0,0.5,818219.9
1702332075242187,-8.353115,-3.623375,0.765469,0.0,0.5,998219.9
1702332075250000,-8.360115,-3.740375,0.756469,0.0,0.5,708219.1
1702332075257812,-8.319115,-3.894375,0.721469,0.0,0.5,428219.1
1702332075265625,-8.278115,-4.85375,0.681469,0.0,0.5,588219.1
1702332075273437,-8.242115,-4.267375,0.652469,0.0,0.5,838219.1
1702332075281250,-8.266115,-4.413375,0.619469,0.0,0.5,968219.1
1702332075289062,-8.383115,-4.518375,0.552469,0.0,0.5,788219.1
1702332075296875,-8.529115,-4.619375,0.434469,0.0,0.5,768219.1
1702332075304687,-8.654115,-4.696375,0.326469,0.0,0.51,48219.1
1702332075312500,-8.731115,-4.770375,0.254469,0.0,0.51,168219.1
1702332075320312,-8.815115,-4.844375,0.191469,0.0,0.51,18219.1
1702332075328125,-8.950115,-4.888375,0.138469,0.0,0.5,838219.1
1702332075335937,-9.155115,-4.840375,0.51469,0.0,0.51,148219.1
1702332075343750,-9.274115,-4.795375,0.76531,0.0,0.51,288219.1
1702332075351562,-9.238115,-4.793375,0.207531,0.0,0.51,68219.1
1702332075359375,-9.128115,-4.826375,0.245531,0.0,0.51,228219.1
1702332075367187,-9.37115,-4.837375,0.268531,0.0,0.51,398219.1
1702332075375000,-8.997115,-4.808375,0.329531,0.0,0.51,178219.1
1702332075382812,-8.970115,-4.720375,0.430531,0.0,0.51,338219.1
1702332075390625,-9.12115,-4.601375,0.539531,0.0,0.51,468219.1
1702332075398437,-9.68115,-4.447375,0.621531,0.0,0.51,418219.1
1702332075406250,-9.78115,-4.302375,0.693531,0.0,0.51,568219.1
1702332075414062,-9.98115,-4.151375,0.737531,0.0,0.51,658219.1
1702332075421875,-9.127115,-4.30375,0.796531,0.0,0.51,788219.1
1702332075429687,-9.196115,-3.898375,0.862531,0.0,0.51,768219.9
1702332075437500,-9.225115,-3.789375,0.916531,0.0,0.51,768219.9
1702332075445312,-9.208115,-3.751375,0.907531,0.0,0.51,788219.9
1702332075453125,-9.429115,-3.610375,0.894531,0.0,0.51,718219.9
1702332075460937,-9.549115,-3.519375,0.935531,0.0,0.52,58219.9
1702332075468750,-9.181115,-3.636375,0.971531,0.0,0.51,908219.9
1702332075476562,-8.691115,-3.771375,0.898531,0.0,0.51,598219.9
1702332075484375,-8.460115,-3.822375,0.852531,0.0,0.51,788219.9
1702332075492187,-8.318115,-3.795375,0.879531,0.0,0.51,878219.9
1702332075500000,-8.319115,-3.635375,0.898531,0.0,0.52,28219.9
1702332075507812,-8.460115,-3.456375,0.889531,0.0,0.51,968219.9
1702332075515625,-8.609115,-3.347375,0.840531,0.0,0.52,118219.9
1702332075523437,-8.626115,-3.293375,0.777531,0.0,0.52,148219.9
1702332075531250,-8.586115,-3.288375,0.696531,0.0,0.51,888219.8
1702332075539062,-8.600115,-3.345375,0.649531,0.0,0.51,728219.8
1702332075546875,-8.616115,-3.480375,0.637531,0.0,0.51,978219.8
1702332075554687,-8.675115,-3.539375,0.612531,0.0,0.52,398219.8
1702332075562500,-8.779115,-3.591375,0.580531,0.0,0.51,908219.8
1702332075570312,-8.865115,-3.663375,0.592531,0.0,0.51,478219.8
1702332075578125,-8.900115,-3.682375,0.596531,0.0,0.51,588219.8
1702332075585937,-8.887115,-3.680375,0.562531,0.0,0.51,598219.8
1702332075593750,-8.842115,-3.679375,0.519531,0.0,0.51,818219.8
1702332075601562,-8.836115,-3.661375,0.465531,0.0,0.51,928219.8
1702332075609375,-8.906115,-3.614375,0.438531,0.0,0.51,948219.8
1702332075617187,-8.953115,-3.582375,0.461531,0.0,0.51,698219.8
1702332075625000,-8.848115,-3.566375,0.445531,0.0,0.51,418219.8
1702332075632812,-8.656115,-3.611375,0.386531,0.0,0.51,578219.8
1702332075640625,-8.510115,-3.667375,0.341531,0.0,0.51,838219.8
1702332075648437,-8.450115,-3.753375,0.320531,0.0,0.51,948219.8
1702332075656250,-8.476115,-3.819375,0.331531,0.0,0.51,918219.8
1702332075664062,-8.703115,-3.855375,0.368531,0.0,0.51,918219.8
1702332075671875,-9.6115,-3.887375,0.433531,0.0,0.51,968219.8
1702332075679687,-9.204115,-3.950375,0.512531,0.0,0.51,698219.8
1702332075687500,-9.286115,-4.135375,0.566531,0.0,0.51,408219.9
1702332075695312,-9.270115,-4.392375,0.608531,0.0,0.51,588219.9
1702332075703125,-9.192115,-4.662375,0.631531,0.0,0.51,708219.9
1702332075710937,-9.126115,-4.854375,0.680531,0.0,0.51,708219.9
1702332075718750,-9.149115,-4.962375,0.723531,0.0,0.51,578219.9
1702332075726562,-9.179115,-5.57375,0.777531,0.0,0.51,478219.9
1702332075734375,-9.198115,-5.114375,0.783531,0.0,0.51,318219.9
1702332075742187,-9.209115,-5.129375,0.743531,0.0,0.51,468219.9
1702332075750000,-9.182115,-5.132375,0.693531,0.0,0.51,648219.9
1702332075757812,-9.124115,-5.118375,0.619531,0.0,0.51,298219.9
1702332075765625,-9.31115,-5.78375,0.531531,0.0,0.51,328219.9
1702332075773437,-8.915115,-5.7375,0.422531,0.0,0.51,518219.9
1702332075781250,-8.780115,-4.958375,0.299531,0.0,0.51,328219.9
1702332075789062,-8.640115,-4.912375,0.145531,0.0,0.51,378219.1
1702332075796875,-8.550115,-4.835375,0.40531,0.0,0.51,248219.1
1702332075804687,-8.579115,-4.701375,0.45469,0.0,0.51,98219.9
1702332075812500,-8.651115,-4.516375,0.130469,0.0,0.51,278219.1
1702332075820312,-8.703115,-4.349375,0.222469,0.0,0.51,298219.1
1702332075828125,-8.745115,-4.231375,0.336469,0.0,0.51,38219.1
1702332075835937,-8.726115,-4.152375,0.458469,0.0,0.5,748219.9
1702332075843750,-8.646115,-4.145375,0.564469,0.0,0.5,948219.9
1702332075851562,-8.574115,-4.177375,0.641469,0.0,0.51,78219.9
1702332075859375,-8.546115,-4.231375,0.693469,0.0,0.51,38219.9
1702332075867187,-8.540115,-4.300375,0.695469,0.0,0.51,108219.9
1702332075875000,-8.541115,-4.367375,0.659469,0.0,0.5,828219.9
1702332075882812,-8.538115,-4.424375,0.610469,0.0,0.5,658219.9
1702332075890625,-8.575115,-4.474375,0.560469,0.0,0.51,18219.9
1702332075898437,-8.678115,-4.475375,0.508469,0.0,0.5,978219.9
1702332075906250,-8.849115,-4.440375,0.415469,0.0,0.5,868219.9
1702332075914062,-8.949115,-4.456375,0.289469,0.0,0.5,698219.8
1702332075921875,-8.977115,-4.486375,0.181469,0.0,0.5,888219.9
1702332075929687,-9.4115,-4.492375,0.107469,0.0,0.5,908219.8
1702332075937500,-9.72115,-4.480375,0.41469,0.0,0.5,588219.9
1702332075945312,-9.198115,-4.400375,0.35531,0.0,0.5,618219.9
1702332075953125,-9.257115,-4.323375,0.148531,0.0,0.5,798219.9
1702332075960937,-9.140115,-4.302375,0.276531,0.0,0.5,668219.9
1702332075968750,-8.903115,-4.280375,0.308531,0.0,0.5,348219.9
1702332075976562,-8.777115,-4.195375,0.292531,0.0,0.5,588219.9
1702332075984375,-8.769115,-4.47375,0.324531,0.0,0.5,458219.8
1702332075992187,-8.799115,-3.862375,0.399531,0.0,0.5,128219.8
1702332076000000,-8.738115,-3.734375,0.465531,0.0,0.5,448219.8
1702332076007812,-8.603115,-3.674375,0.497531,0.0,0.5,698219.8
1702332076015625,-8.506115,-3.598375,0.483531,0.0,0.5,658219.8
1702332076023437,-8.449115,-3.541375,0.461531,0.0,0.5,648219.8
1702332076031250,-8.501115,-3.496375,0.481531,0.0,0.5,798219.8
1702332076039062,-8.704115,-3.406375,0.498531,0.0,0.5,828219.8
1702332076046875,-8.883115,-3.376375,0.480531,0.0,0.5,528219.7
1702332076054687,-8.843115,-3.466375,0.437531,0.0,0.5,548219.7
1702332076062500,-8.640115,-3.587375,0.326531,0.0,0.5,318219.7
1702332076070312,-8.412115,-3.765375,0.250531,0.0,0.5,308219.7
1702332076078125,-8.207115,-3.959375,0.207531,0.0,0.5,378219.7
1702332076085937,-8.78115,-4.68375,0.152531,0.0,0.5,198219.7
1702332076093750,-8.66115,-4.113375,0.134531,0.0,0.5,448219.7
1702332076101562,-8.203115,-4.84375,0.148531,0.0,0.5,688219.7
1702332076109375,-8.380115,-4.38375,0.177531,0.0,0.5,798219.7
1702332076117187,-8.713115,-3.889375,0.173531,0.0,0.5,808219.7
1702332076125000,-9.455115,-3.487375,0.236531,0.0,0.5,648219.7
1702332076132812,-9.774115,-3.393375,0.390531,0.0,0.5,708219.6
1702332076140625,-9.481115,-3.544375,0.421531,0.0,0.5,588219.6
1702332076148437,-9.382115,-3.580375,0.236531,0.0,0.5,378219.6
1702332076156250,-9.581115,-3.563375,0.171531,0.0,0.5,798219.6
1702332076164062,-9.918115,-3.293375,0.260531,0.0,0.5,438219.6
1702332076171875,-9.732115,-3.325375,0.271531,0.0,0.5,348219.6
1702332076179687,-8.918115,-3.692375,0.132531,0.0,0.5,438219.6
1702332076187500,-8.254115,-3.955375,0.196469,0.0,0.5,98219.6
1702332076195312,-7.939115,-4.52375,0.490469,0.0,0.5,178219.6
1702332076203125,-7.757115,-3.996375,0.679469,0.0,0.5,68219.6
1702332076210937,-7.757115,-3.884375,0.886469,0.0,0.49,798219.6
1702332076218750,-8.193115,-3.580375,1.103469,0.0,0.49,708219.6
1702332076226562,-8.763115,-3.242375,1.291469,0.0,0.49,638219.6
1702332076234375,-8.914115,-3.165375,1.430469,0.0,0.49,368219.6
1702332076242187,-8.732115,-3.202375,1.595469,0.0,0.49,308219.6
1702332076250000,-8.655115,-3.253375,1.893469,0.0,0.49,158219.6
1702332076257812,-8.638115,-3.325375,2.182469,0.0,0.49,208219.6
1702332076265625,-8.534115,-3.383375,2.415469,0.0,0.49,108219.6
1702332076273437,-8.446115,-3.414375,2.627469,0.0,0.48,808219.6
1702332076281250,-8.561115,-3.371375,2.818469,0.0,0.48,918219.6
1702332076289062,-8.670115,-3.407375,2.947469,0.0,0.48,648219.6
1702332076296875,-8.712115,-3.502375,3.3469,0.0,0.48,378219.7
1702332076304687,-8.899115,-3.548375,3.105469,0.0,0.48,478219.7
1702332076312500,-9.313115,-3.506375,3.253469,0.0,0.48,188219.7
1702332076320312,-9.801115,-3.427375,3.324469,0.0,0.48,48219.7
1702332076328125,-10.7115,-3.505375,3.286469,0.0,0.48,288219.7
1702332076335937,-9.699115,-3.812375,3.188469,0.0,0.48,8219.7
1702332076343750,-9.237115,-4.166375,3.208469,0.0,0.47,608219.8
1702332076351562,-9.22115,-4.438375,3.378469,0.0,0.47,548219.8
1702332076359375,-8.983115,-4.626375,3.593469,0.0,0.47,458219.8
1702332076367187,-9.105115,-4.693375,3.722469,0.0,0.47,168219.8
1702332076375000,-9.429115,-4.690375,3.746469,0.0,0.47,208219.8
1702332076382812,-9.736115,-4.720375,3.577469,0.0,0.47,298219.8
1702332076390625,-9.732115,-4.867375,3.268469,0.0,0.46,808219.8
1702332076398437,-9.482115,-4.995375,3.89469,0.0,0.46,868219.9
1702332076406250,-9.284115,-5.81375,3.98469,0.0,0.47,48219.9
1702332076414062,-9.112115,-5.95375,3.198469,0.0,0.46,868219.9
1702332076421875,-8.957115,-4.972375,3.258469,0.0,0.46,778219.9
1702332076429687,-8.834115,-4.763375,3.161469,0.0,0.46,628219.9
1702332076437500,-8.739115,-4.564375,2.917469,0.0,0.46,788219.9
1702332076445312,-8.641115,-4.312375,2.650469,0.0,0.46,888219.8
1702332076453125,-8.537115,-4.29375,2.473469,0.0,0.47,8219.8
1702332076460937,-8.430115,-3.757375,2.366469,0.0,0.47,58219.8
1702332076468750,-8.304115,-3.540375,2.280469,0.0,0.46,708219.8
1702332076476562,-8.245115,-3.330375,2.200469,0.0,0.46,898219.8
1702332076484375,-8.273115,-3.154375,2.110469,0.0,0.47,48219.8
1702332076492187,-8.335115,-3.4375,1.969469,0.0,0.46,858219.8
1702332076500000,-8.508115,-2.869375,1.827469,0.0,0.46,878219.8
1702332076507812,-8.681115,-2.779375,1.709469,0.0,0.46,978219.8
1702332076515625,-8.780115,-2.729375,1.637469,0.0,0.47,278219.8
1702332076523437,-8.844115,-2.688375,1.627469,0.0,0.47,208219.8
1702332076531250,-8.880115,-2.663375,1.650469,0.0,0.47,278219.8
1702332076539062,-8.884115,-2.665375,1.693469,0.0,0.47,768219.7
1702332076546875,-8.860115,-2.670375,1.742469,0.0,0.47,558219.8
1702332076554687,-8.805115,-2.731375,1.792469,0.0,0.47,388219.8
1702332076562500,-8.723115,-2.812375,1.851469,0.0,0.47,188219.8
1702332076570312,-8.619115,-2.870375,1.937469,0.0,0.47,108219.7
1702332076578125,-8.529115,-2.936375,2.73469,0.0,0.47,208219.7
1702332076585937,-8.470115,-2.982375,2.168469,0.0,0.47,98219.7
1702332076593750,-8.505115,-3.30375,2.274469,0.0,0.46,788219.7
1702332076601562,-8.602115,-3.65375,2.344469,0.0,0.46,838219.7
1702332076609375,-8.707115,-3.63375,2.391469,0.0,0.46,868219.7
1702332076617187,-8.792115,-3.53375,2.427469,0.0,0.46,708219.7
1702332076625000,-8.866115,-3.34375,2.467469,0.0,0.46,738219.7
1702332076632812,-8.918115,-3.17375,2.510469,0.0,0.46,748219.7
1702332076640625,-8.920115,-3.7375,2.580469,0.0,0.46,678219.7
1702332076648437,-8.905115,-2.978375,2.652469,0.0,0.46,288219.7
1702332076656250,-8.885115,-2.948375,2.720469,0.0,0.46,28219.7
1702332076664062,-8.834115,-2.924375,2.751469,0.0,0.46,178219.7
1702332076671875,-8.806115,-2.892375,2.801469,0.0,0.46,468219.7
1702332076679687,-8.773115,-2.852375,2.834469,0.0,0.46,388219.7
1702332076687500,-8.722115,-2.811375,2.852469,0.0,0.46,568219.6
1702332076695312,-8.687115,-2.796375,2.888469,0.0,0.46,568219.6
1702332076703125,-8.653115,-2.806375,2.920469,0.0,0.46,428219.6
1702332076710937,-8.628115,-2.831375,2.938469,0.0,0.46,298219.6
1702332076718750,-8.614115,-2.887375,2.936469,0.0,0.46,358219.6
1702332076726562,-8.619115,-2.962375,2.932469,0.0,0.46,218219.6
1702332076734375,-8.721115,-3.4375,2.929469,0.0,0.46,108219.6
1702332076742187,-8.844115,-3.9375,2.880469,0.0,0.46,8219.6
1702332076750000,-8.879115,-3.46375,2.781469,0.0,0.45,828219.6
1702332076757812,-8.944115,-3.4375,2.711469,0.0,0.46,58219.6
1702332076765625,-9.166115,-2.852375,2.687469,0.0,0.45,838219.6
1702332076773437,-9.280115,-2.746375,2.631469,0.0,0.46,8219.6
1702332076781250,-9.267115,-2.670375,2.547469,0.0,0.46,138219.6
1702332076789062,-9.169115,-2.685375,2.491469,0.0,0.46,98219.6
1702332076796875,-9.48115,-2.689375,2.511469,0.0,0.46,168219.6
1702332076804687,-8.830115,-2.667375,2.583469,0.0,0.45,838219.6
1702332076812500,-8.620115,-2.646375,2.676469,0.0,0.45,888219.6
1702332076820312,-8.563115,-2.618375,2.757469,0.0,0.45,948219.6
1702332076828125,-8.585115,-2.614375,2.784469,0.0,0.45,598219.6
1702332076835937,-8.576115,-2.625375,2.775469,0.0,0.45,798219.6
1702332076843750,-8.606115,-2.664375,2.775469,0.0,0.45,928219.6
1702332076851562,-8.672115,-2.725375,2.805469,0.0,0.45,878219.6
1702332076859375,-8.684115,-2.818375,2.821469,0.0,0.45,948219.6
1702332076867187,-8.681115,-2.896375,2.873469,0.0,0.45,598219.7
1702332076875000,-8.699115,-2.972375,2.911469,0.0,0.45,758219.6
1702332076882812,-8.707115,-3.62375,2.919469,0.0,0.46,88219.6
1702332076890625,-8.699115,-3.149375,2.876469,0.0,0.45,858219.6
1702332076898437,-8.619115,-3.241375,2.829469,0.0,0.45,888219.6
1702332076906250,-8.509115,-3.305375,2.788469,0.0,0.45,918219.6
1702332076914062,-8.435115,-3.306375,2.766469,0.0,0.45,728219.6
1702332076921875,-8.402115,-3.271375,2.750469,0.0,0.45,918219.6
1702332076929687,-8.390115,-3.189375,2.719469,0.0,0.45,878219.7
1702332076937500,-8.376115,-3.94375,2.669469,0.0,0.45,868219.7
1702332076945312,-8.382115,-3.16375,2.628469,0.0,0.46,8219.7
1702332076953125,-8.394115,-2.962375,2.616469,0.0,0.46,108219.6
1702332076960937,-8.425115,-2.984375,2.652469,0.0,0.46,218219.6
1702332076968750,-8.531115,-3.16375,2.722469,0.0,0.46,378219.6
1702332076976562,-8.671115,-3.91375,2.786469,0.0,0.46,248219.6
1702332076984375,-8.765115,-3.210375,2.790469,0.0,0.45,958219.6
1702332076992187,-8.845115,-3.366375,2.804469,0.0,0.46,8219.6
1702332077000000,-8.907115,-3.522375,2.850469,0.0,0.46,18219.6
1702332077007812,-8.940115,-3.671375,2.902469,0.0,0.45,848219.7
1702332077015625,-8.908115,-3.805375,2.986469,0.0,0.45,908219.7
1702332077023437,-8.893115,-3.918375,3.90469,0.0,0.45,748219.7
1702332077031250,-8.833115,-4.57375,3.151469,0.0,0.45,748219.7
1702332077039062,-8.722115,-4.232375,3.188469,0.0,0.45,908219.7
1702332077046875,-8.574115,-4.381375,3.241469,0.0,0.45,838219.7
1702332077054687,-8.456115,-4.541375,3.304469,0.0,0.46,38219.7
1702332077062500,-8.389115,-4.673375,3.355469,0.0,0.46,128219.8
1702332077070312,-8.450115,-4.726375,3.409469,0.0,0.45,948219.8
1702332077078125,-8.613115,-4.725375,3.382469,0.0,0.45,458219.7
1702332077085937,-8.784115,-4.688375,3.244469,0.0,0.45,568219.7
1702332077093750,-8.878115,-4.639375,3.25469,0.0,0.45,958219.8
1702332077101562,-8.898115,-4.550375,2.844469,0.0,0.46,158219.8
1702332077109375,-8.867115,-4.408375,2.729469,0.0,0.46,268219.8
1702332077117187,-8.844115,-4.209375,2.703469,0.0,0.46,258219.8
1702332077125000,-8.805115,-3.994375,2.680469,0.0,0.46,238219.8
1702332077132812,-8.740115,-3.766375,2.614469,0.0,0.46,368219.8
1702332077140625,-8.656115,-3.550375,2.512469,0.0,0.46,478219.8
1702332077148437,-8.553115,-3.352375,2.381469,0.0,0.46,578219.8
1702332077156250,-8.460115,-3.142375,2.290469,0.0,0.46,738219.8
1702332077164062,-8.473115,-2.924375,2.273469,0.0,0.46,588219.7
1702332077171875,-8.541115,-2.708375,2.270469,0.0,0.46,438219.7
1702332077179687,-8.594115,-2.521375,2.245469,0.0,0.46,628219.7
1702332077187500,-8.668115,-2.369375,2.213469,0.0,0.46,588219.7
1702332077195312,-8.815115,-2.246375,2.196469,0.0,0.46,588219.7
1702332077203125,-8.958115,-2.137375,2.194469,0.0,0.46,628219.6
1702332077210937,-8.997115,-2.75375,2.198469,0.0,0.46,438219.7
1702332077218750,-8.967115,-2.80375,2.205469,0.0,0.46,588219.6
1702332077226562,-8.925115,-2.83375,2.263469,0.0,0.46,818219.6
1702332077234375,-8.854115,-2.42375,2.351469,0.0,0.47,88219.6
1702332077242187,-8.752115,-2.11375,2.455469,0.0,0.47,48219.6
1702332077250000,-8.667115,-2.10375,2.547469,0.0,0.46,998219.6
1702332077257812,-8.629115,-2.7375,2.608469,0.0,0.47,288219.6
1702332077265625,-8.671115,-2.17375,2.690469,0.0,0.47,408219.6
1702332077273437,-8.695115,-2.55375,2.737469,0.0,0.47,248219.6
1702332077281250,-8.693115,-2.141375,2.758469,0.0,0.47,158219.6
1702332077289062,-8.765115,-2.245375,2.810469,0.0,0.46,988219.6
1702332077296875,-8.824115,-2.346375,2.824469,0.0,0.47,148219.6
1702332077304687,-8.732115,-2.485375,2.835469,0.0,0.47,308219.6
1702332077312500,-8.647115,-2.624375,2.852469,0.0,0.47,78219.6
1702332077320312,-8.587115,-2.747375,2.890469,0.0,0.47,278219.7
1702332077328125,-8.379115,-2.897375,2.918469,0.0,0.47,218219.7
1702332077335937,-8.212115,-2.984375,2.959469,0.0,0.47,348219.7
1702332077343750,-8.227115,-3.40375,3.25469,0.0,0.47,508219.7
1702332077351562,-8.239115,-3.113375,3.43469,0.0,0.47,318219.7
1702332077359375,-8.211115,-3.200375,3.7469,0.0,0.47,318219.7
1702332077367187,-8.200115,-3.293375,3.1469,0.0,0.47,478219.7
1702332077375000,-8.214115,-3.417375,2.992469,0.0,0.47,448219.7
1702332077382812,-8.331115,-3.497375,3.24469,0.0,0.47,408219.8
1702332077390625,-8.768115,-3.361375,3.82469,0.0,0.47,578219.8
1702332077398437,-8.935115,-3.418375,3.12469,0.0,0.47,518219.7
1702332077406250,-9.180115,-3.356375,2.881469,0.0,0.47,678219.8
1702332077414062,-9.843115,-3.67375,2.888469,0.0,0.47,648219.8
1702332077421875,-9.730115,-3.306375,2.691469,0.0,0.47,608219.8
1702332077429687,-8.913115,-3.687375,2.424469,0.0,0.47,798219.8
1702332077437500,-8.174115,-4.64375,2.579469,0.0,0.47,638219.8
1702332077445312,-7.386115,-4.464375,2.766469,0.0,0.47,508219.8
1702332077453125,-6.431115,-4.789375,2.811469,0.0,0.47,508219.8
1702332077460937,-5.790115,-4.940375,2.909469,0.0,0.47,598219.9
1702332077468750,-5.810115,-4.937375,2.878469,0.0,0.47,898219.9
1702332077476562,-6.446115,-4.819375,2.568469,0.0,0.47,838219.9
1702332077484375,-7.521115,-4.520375,2.95469,0.0,0.47,818219.9
1702332077492187,-8.677115,-4.243375,1.493469,0.0,0.47,958219.8
1702332077500000,-9.555115,-4.270375,0.771469,0.0,0.48,38219.9
1702332077507812,-9.993115,-4.518375,0.347469,0.0,0.48,248219.9
1702332077515625,-9.979115,-4.942375,0.376469,0.0,0.48,568219.9
1702332077523437,-9.603115,-5.380375,0.574469,0.0,0.48,978219.9
1702332077531250,-8.999115,-5.690375,0.726469,0.0,0.48,888219.9
1702332077539062,-8.446115,-5.906375,0.696469,0.0,0.48,888219.1
1702332077546875,-8.234115,-5.918375,0.475469,0.0,0.48,898219.1
1702332077554687,-8.330115,-5.815375,0.233469,0.0,0.48,778219.1
1702332077562500,-8.668115,-5.622375,0.16469,0.0,0.48,898219.1
1702332077570312,-9.110115,-5.366375,0.115531,0.0,0.48,758219.1
1702332077578125,-9.482115,-5.168375,0.235531,0.0,0.48,668219.1
1702332077585937,-9.748115,-5.28375,0.340531,0.0,0.48,678219.11
1702332077593750,-9.994115,-4.864375,0.399531,0.0,0.48,788219.1
1702332077601562,-10.193115,-4.763375,0.492531,0.0,0.48,858219.1
1702332077609375,-10.196115,-4.805375,0.578531,0.0,0.49,98219.11
1702332077617187,-9.984115,-4.952375,0.604531,0.0,0.49,348219.11
1702332077625000,-9.787115,-5.136375,0.542531,0.0,0.49,378219.1
1702332077632812,-9.842115,-5.153375,0.454531,0.0,0.48,948219.11
1702332077640625,-10.80115,-5.60375,0.441531,0.0,0.48,768219.11
1702332077648437,-10.241115,-4.918375,0.465531,0.0,0.49,248219.11
1702332077656250,-10.288115,-4.788375,0.440531,0.0,0.49,318219.11
1702332077664062,-10.200115,-4.737375,0.357531,0.0,0.49,278219.11
1702332077671875,-10.6115,-4.691375,0.260531,0.0,0.49,378219.11
1702332077679687,-9.762115,-4.607375,0.195531,0.0,0.49,668219.11
1702332077687500,-9.498115,-4.507375,0.174531,0.0,0.49,638219.11
1702332077695312,-9.248115,-4.359375,0.143531,0.0,0.49,458219.11
1702332077703125,-9.24115,-4.154375,0.99531,0.0,0.49,648219.11
1702332077710937,-8.860115,-3.904375,0.70531,0.0,0.49,608219.11
1702332077718750,-8.737115,-3.660375,0.66531,0.0,0.49,618219.11
1702332077726562,-8.591115,-3.449375,0.60531,0.0,0.49,608219.11
1702332077734375,-8.494115,-3.249375,0.20531,0.0,0.49,698219.11
1702332077742187,-8.445115,-3.102375,0.30469,0.0,0.49,988219.11
1702332077750000,-8.364115,-3.32375,0.66469,0.0,0.49,948219.11
1702332077757812,-8.229115,-3.48375,0.139469,0.0,0.49,898219.1
1702332077765625,-8.176115,-3.131375,0.209469,0.0,0.5,228219.1
1702332077773437,-8.218115,-3.202375,0.295469,0.0,0.5,198219.1
1702332077781250,-8.333115,-3.242375,0.349469,0.0,0.5,8219.1
1702332077789062,-8.376115,-3.330375,0.365469,0.0,0.5,258219.1
1702332077796875,-8.381115,-3.439375,0.363469,0.0,0.49,938219.1
1702332077804687,-8.381115,-3.537375,0.388469,0.0,0.49,768219.1
1702332077812500,-8.328115,-3.651375,0.447469,0.0,0.5,108219.11
1702332077820312,-8.284115,-3.774375,0.488469,0.0,0.5,108219.1
1702332077828125,-8.235115,-3.901375,0.496469,0.0,0.49,758219.11
1702332077835937,-8.239115,-4.23375,0.503469,0.0,0.49,948219.11
1702332077843750,-8.381115,-4.83375,0.516469,0.0,0.5,78219.11
1702332077851562,-8.559115,-4.115375,0.510469,0.0,0.5,18219.11
1702332077859375,-8.623115,-4.196375,0.494469,0.0,0.5,178219.11
1702332077867187,-8.598115,-4.334375,0.483469,0.0,0.5,168219.11
1702332077875000,-8.528115,-4.510375,0.454469,0.0,0.5,78219.11
1702332077882812,-8.472115,-4.662375,0.419469,0.0,0.49,768219.11
1702332077890625,-8.459115,-4.769375,0.363469,0.0,0.49,858219.11
1702332077898437,-8.521115,-4.818375,0.266469,0.0,0.5,488219.11
1702332077906250,-8.633115,-4.814375,0.149469,0.0,0.5,268219.11
1702332077914062,-8.765115,-4.778375,0.22469,0.0,0.49,968219.11
1702332077921875,-8.882115,-4.742375,0.78531,0.0,0.5,68219.12
1702332077929687,-8.981115,-4.716375,0.167531,0.0,0.49,868219.11
1702332077937500,-9.19115,-4.706375,0.232531,0.0,0.49,998219.11
1702332077945312,-9.55115,-4.692375,0.275531,0.0,0.5,278219.11
1702332077953125,-9.125115,-4.638375,0.316531,0.0,0.5,268219.11
1702332077960937,-9.206115,-4.591375,0.377531,0.0,0.5,98219.11
1702332077968750,-9.254115,-4.557375,0.411531,0.0,0.5,218219.11
1702332077976562,-9.222115,-4.562375,0.427531,0.0,0.5,478219.12
1702332077984375,-9.212115,-4.534375,0.400531,0.0,0.5,578219.12
1702332077992187,-9.78115,-4.538375,0.399531,0.0,0.5,558219.11
1702332078000000,-8.831115,-4.576375,0.413531,0.0,0.5,598219.11
1702332078007812,-8.832115,-4.409375,0.427531,0.0,0.5,408219.12
1702332078015625,-8.773115,-4.314375,0.546531,0.0,0.5,548219.11
1702332078023437,-8.455115,-4.282375,0.677531,0.0,0.5,838219.11
1702332078031250,-8.261115,-4.127375,0.680531,0.0,0.5,778219.11
1702332078039062,-8.293115,-3.949375,0.741531,0.0,0.5,798219.11
1702332078046875,-8.343115,-3.788375,0.818531,0.0,0.5,778219.11
1702332078054687,-8.480115,-3.595375,0.819531,0.0,0.5,868219.1
1702332078062500,-8.780115,-3.424375,0.809531,0.0,0.5,768219.1
1702332078070312,-9.44115,-3.379375,0.820531,0.0,0.5,458219.11
1702332078078125,-9.69115,-3.466375,0.721531,0.0,0.5,478219.11
1702332078085937,-8.936115,-3.688375,0.560531,0.0,0.5,428219.11
1702332078093750,-8.806115,-3.979375,0.439531,0.0,0.5,768219.11
1702332078101562,-8.714115,-4.261375,0.346531,0.0,0.51,188219.11
1702332078109375,-8.686115,-4.459375,0.289531,0.0,0.51,8219.11
1702332078117187,-8.699115,-4.590375,0.225531,0.0,0.5,758219.11
1702332078125000,-8.730115,-4.634375,0.182531,0.0,0.5,658219.11
1702332078132812,-8.729115,-4.634375,0.106531,0.0,0.5,618219.11
1702332078140625,-8.658115,-4.637375,0.70531,0.0,0.5,908219.11
1702332078148437,-8.510115,-4.678375,0.58531,0.0,0.51,38219.11
1702332078156250,-8.344115,-4.703375,0.47531,0.0,0.5,848219.11
1702332078164062,-8.199115,-4.685375,0.13531,0.0,0.5,908219.11
1702332078171875,-8.100115,-4.636375,0.18469,0.0,0.5,828219.11
1702332078179687,-8.131115,-4.525375,0.31469,0.0,0.5,408219.11
1702332078187500,-8.264115,-4.411375,0.10469,0.0,0.5,328219.11
1702332078195312,-8.383115,-4.369375,0.9531,0.0,0.5,408219.11
1702332078203125,-8.484115,-4.390375,0.0,0.0,0.5,38219.11
1702332078210937,-8.538115,-4.451375,0.26469,0.0,0.5,258219.11
1702332078218750,-8.570115,-4.557375,0.69469,0.0,0.5,288219.11
1702332078226562,-8.606115,-4.665375,0.81469,0.0,0.49,938219.11
1702332078234375,-8.663115,-4.760375,0.88469,0.0,0.5,178219.11
1702332078242187,-8.703115,-4.852375,0.101469,0.0,0.5,28219.11
1702332078250000,-8.710115,-4.959375,0.113469,0.0,0.49,838219.11
1702332078257812,-8.736115,-5.54375,0.122469,0.0,0.5,178219.11
1702332078265625,-8.776115,-5.144375,0.147469,0.0,0.5,148219.11
1702332078273437,-8.854115,-5.172375,0.154469,0.0,0.49,978219.11
1702332078281250,-8.917115,-5.173375,0.147469,0.0,0.5,128219.11
1702332078289062,-8.908115,-5.184375,0.143469,0.0,0.5,288219.11
1702332078296875,-8.856115,-5.205375,0.148469,0.0,0.5,138219.11
1702332078304687,-8.847115,-5.190375,0.179469,0.0,0.49,958219.11
1702332078312500,-8.888115,-5.138375,0.177469,0.0,0.5,238219.11
1702332078320312,-8.923115,-5.75375,0.152469,0.0,0.5,558219.11
1702332078328125,-8.964115,-5.8375,0.117469,0.0,0.5,218219.12
1702332078335937,-9.57115,-4.915375,0.99469,0.0,0.5,18219.11
1702332078343750,-9.106115,-4.814375,0.74469,0.0,0.49,868219.11
1702332078351562,-9.63115,-4.731375,0.49469,0.0,0.5,78219.11
1702332078359375,-8.973115,-4.654375,0.33469,0.0,0.49,918219.11
1702332078367187,-8.880115,-4.581375,0.15469,0.0,0.49,758219.11
1702332078375000,-8.810115,-4.484375,0.12531,0.0,0.49,988219.11
1702332078382812,-8.794115,-4.360375,0.44531,0.0,0.49,788219.11
1702332078390625,-8.764115,-4.221375,0.103531,0.0,0.49,798219.11
1702332078398437,-8.727115,-4.115375,0.159531,0.0,0.49,938219.11
1702332078406250,-8.772115,-3.963375,0.171531,0.0,0.5,68219.11
1702332078414062,-8.830115,-3.857375,0.223531,0.0,0.5,48219.11
1702332078421875,-8.789115,-3.791375,0.278531,0.0,0.5,48219.1
1702332078429687,-8.655115,-3.800375,0.311531,0.0,0.5,78219.1
1702332078437500,-8.558115,-3.837375,0.295531,0.0,0.49,948219.11
1702332078445312,-8.596115,-3.819375,0.268531,0.0,0.49,818219.1
1702332078453125,-8.678115,-3.771375,0.262531,0.0,0.49,858219.1
1702332078460937,-8.714115,-3.724375,0.278531,0.0,0.49,808219.1
1702332078468750,-8.726115,-3.695375,0.246531,0.0,0.5,8219.1
1702332078476562,-8.643115,-3.716375,0.226531,0.0,0.49,848219.1
1702332078484375,-8.479115,-3.775375,0.201531,0.0,0.49,698219.1
1702332078492187,-8.394115,-3.767375,0.174531,0.0,0.49,888219.1
1702332078500000,-8.444115,-3.702375,0.178531,0.0,0.49,858219.1
1702332078507812,-8.525115,-3.652375,0.228531,0.0,0.49,858219.1
1702332078515625,-8.494115,-3.643375,0.273531,0.0,0.49,918219.1
1702332078523437,-8.472115,-3.653375,0.276531,0.0,0.5,348219.1
1702332078531250,-8.520115,-3.689375,0.296531,0.0,0.5,428219.9
1702332078539062,-8.494115,-3.763375,0.318531,0.0,0.5,408219.9
1702332078546875,-8.379115,-3.880375,0.320531,0.0,0.5,438219.9
1702332078554687,-8.443115,-3.930375,0.293531,0.0,0.5,378219.9
1702332078562500,-8.537115,-4.375,0.281531,0.0,0.5,258219.9
1702332078570312,-8.556115,-4.102375,0.274531,0.0,0.49,938219.9
1702332078578125,-8.578115,-4.219375,0.245531,0.0,0.49,868219.9
1702332078585937,-8.580115,-4.372375,0.239531,0.0,0.49,828219.9
1702332078593750,-8.595115,-4.558375,0.225531,0.0,0.49,688219.9
1702332078601562,-8.680115,-4.656375,0.209531,0.0,0.49,518219.9
1702332078609375,-8.858115,-4.716375,0.223531,0.0,0.49,698219.9
1702332078617187,-9.697115,-4.384375,0.231531,0.0,0.49,758219.9
1702332078625000,-10.777115,-3.890375,0.448531,0.0,0.49,298219.9
1702332078632812,-10.725115,-4.90375,0.741531,0.0,0.49,198219.9
1702332078640625,-9.960115,-4.418375,0.725531,0.0,0.49,408219.9
1702332078648437,-9.361115,-4.788375,0.478531,0.0,0.49,208219.9
1702332078656250,-8.805115,-5.106375,0.422531,0.0,0.49,238219.9
1702332078664062,-8.187115,-5.148375,0.219531,0.0,0.49,288219.9
1702332078671875,-7.800115,-5.47375,0.80469,0.0,0.49,28219.9
1702332078679687,-7.620115,-4.993375,0.333469,0.0,0.48,758219.1
1702332078687500,-7.471115,-4.942375,0.642469,0.0,0.48,838219.9
1702332078695312,-7.425115,-4.857375,1.41469,0.0,0.48,738219.9
1702332078703125,-7.619115,-4.726375,1.407469,0.0,0.48,408219.1
1702332078710937,-7.968115,-4.544375,1.688469,0.0,0.48,618219.1
1702332078718750,-8.331115,-4.354375,1.915469,0.0,0.48,668219.1
1702332078726562,-8.641115,-4.199375,2.79469,0.0,0.48,258219.9
1702332078734375,-8.923115,-4.61375,2.227469,0.0,0.48,28219.9
1702332078742187,-8.894115,-4.60375,2.367469,0.0,0.48,58219.1
1702332078750000,-8.533115,-4.213375,2.528469,0.0,0.48,128219.1
1702332078757812,-8.192115,-4.326375,2.754469,0.0,0.47,738219.9
1702332078765625,-7.873115,-4.441375,3.14469,0.0,0.47,348219.9
1702332078773437,-7.399115,-4.570375,3.238469,0.0,0.47,448219.9
1702332078781250,-6.906115,-4.650375,3.469469,0.0,0.47,328219.1
1702332078789062,-6.679115,-4.603375,3.690469,0.0,0.47,108219.9
1702332078796875,-6.830115,-4.395375,3.869469,0.0,0.46,878219.9
1702332078804687,-7.374115,-4.40375,3.951469,0.0,0.46,758219.1
1702332078812500,-8.67115,-3.720375,3.848469,0.0,0.46,778219.1
1702332078820312,-8.743115,-3.501375,3.567469,0.0,0.46,818219.9
1702332078828125,-9.355115,-3.399375,3.304469,0.0,0.46,638219.9
1702332078835937,-9.745115,-3.480375,3.126469,0.0,0.46,768219.9
1702332078843750,-9.957115,-3.616375,3.131469,0.0,0.47,88219.9
1702332078851562,-10.221115,-3.677375,3.271469,0.0,0.46,888219.9
1702332078859375,-10.472115,-3.757375,3.361469,0.0,0.46,808219.9
1702332078867187,-10.418115,-3.924375,3.242469,0.0,0.46,598219.1
1702332078875000,-10.115115,-4.170375,3.90469,0.0,0.46,198219.9
1702332078882812,-9.779115,-4.373375,3.71469,0.0,0.46,118219.9
1702332078890625,-9.542115,-4.478375,3.146469,0.0,0.46,138219.1
1702332078898437,-9.372115,-4.525375,3.252469,0.0,0.46,128219.1
1702332078906250,-9.395115,-4.454375,3.326469,0.0,0.46,118219.1
1702332078914062,-9.503115,-4.394375,3.272469,0.0,0.46,178219.1
1702332078921875,-9.484115,-4.381375,3.125469,0.0,0.45,888219.1
1702332078929687,-9.287115,-4.388375,3.15469,0.0,0.45,778219.1
1702332078937500,-9.46115,-4.364375,3.4469,0.0,0.45,868219.1
1702332078945312,-8.797115,-4.330375,3.31469,0.0,0.45,538219.1
1702332078953125,-8.526115,-4.246375,3.1469,0.0,0.45,538219.1
1702332078960937,-8.288115,-4.55375,2.922469,0.0,0.45,858219.1
1702332078968750,-8.171115,-3.812375,2.786469,0.0,0.45,828219.1
1702332078976562,-8.117115,-3.502375,2.648469,0.0,0.45,688219.1
1702332078984375,-8.100115,-3.193375,2.509469,0.0,0.45,718219.9
1702332078992187,-8.67115,-2.896375,2.386469,0.0,0.45,708219.9
1702332079000000,-8.47115,-2.608375,2.313469,0.0,0.45,748219.9
1702332079007812,-8.9115,-2.369375,2.265469,0.0,0.45,598219.9
1702332079015625,-7.990115,-2.187375,2.188469,0.0,0.45,578219.9
1702332079023437,-8.33115,-2.24375,2.151469,0.0,0.45,868219.9
1702332079031250,-8.129115,-1.920375,2.128469,0.0,0.45,968219.8
1702332079039062,-8.199115,-1.853375,2.126469,0.0,0.45,948219.8
1702332079046875,-8.255115,-1.845375,2.153469,0.0,0.45,948219.8
1702332079054687,-8.352115,-1.899375,2.254469,0.0,0.46,8219.8
1702332079062500,-8.359115,-2.15375,2.367469,0.0,0.46,28219.8
1702332079070312,-8.365115,-2.150375,2.462469,0.0,0.45,788219.7
1702332079078125,-8.414115,-2.318375,2.535469,0.0,0.45,778219.7
1702332079085937,-8.449115,-2.484375,2.572469,0.0,0.45,738219.7
1702332079093750,-8.444115,-2.633375,2.602469,0.0,0.45,678219.7
1702332079101562,-8.424115,-2.747375,2.661469,0.0,0.45,978219.7
1702332079109375,-8.421115,-2.832375,2.747469,0.0,0.46,78219.7
1702332079117187,-8.410115,-2.923375,2.824469,0.0,0.46,28219.8
1702332079125000,-8.373115,-3.6375,2.876469,0.0,0.46,178219.8
1702332079132812,-8.305115,-3.78375,2.932469,0.0,0.46,238219.8
1702332079140625,-8.250115,-3.137375,2.991469,0.0,0.45,768219.8
1702332079148437,-8.219115,-3.211375,3.30469,0.0,0.45,718219.8
1702332079156250,-8.234115,-3.284375,3.59469,0.0,0.45,648219.8
1702332079164062,-8.313115,-3.331375,3.98469,0.0,0.45,328219.8
1702332079171875,-8.447115,-3.354375,3.109469,0.0,0.45,448219.8
1702332079179687,-8.562115,-3.407375,3.118469,0.0,0.45,158219.8
1702332079187500,-8.673115,-3.461375,3.104469,0.0,0.44,968219.8
1702332079195312,-8.821115,-3.547375,3.112469,0.0,0.45,418219.8
1702332079203125,-8.940115,-3.647375,3.152469,0.0,0.45,638219.9
1702332079210937,-9.16115,-3.752375,3.184469,0.0,0.45,578219.8
1702332079218750,-9.39115,-3.863375,3.223469,0.0,0.45,678219.9
1702332079226562,-9.78115,-3.931375,3.259469,0.0,0.45,228219.9
1702332079234375,-9.217115,-3.909375,3.295469,0.0,0.45,98219.9
1702332079242187,-9.77115,-3.996375,3.257469,0.0,0.45,438219.9
1702332079250000,-8.932115,-3.991375,3.260469,0.0,0.45,378219.9
1702332079257812,-9.94115,-3.783375,3.347469,0.0,0.45,388219.8
1702332079265625,-8.995115,-3.713375,3.306469,0.0,0.45,378219.9
1702332079273437,-8.607115,-3.686375,3.225469,0.0,0.45,378219.9
1702332079281250,-8.456115,-3.607375,3.293469,0.0,0.45,378219.9
1702332079289062,-8.347115,-3.551375,3.328469,0.0,0.45,388219.9
1702332079296875,-8.143115,-3.501375,3.322469,0.0,0.45,358219.9
1702332079304687,-7.986115,-3.495375,3.315469,0.0,0.45,508219.8
1702332079312500,-7.999115,-3.579375,3.243469,0.0,0.45,518219.9
1702332079320312,-8.115115,-3.692375,3.106469,0.0,0.45,338219.9
1702332079328125,-8.284115,-3.769375,2.984469,0.0,0.45,478219.9
1702332079335937,-8.523115,-3.777375,2.856469,0.0,0.45,728219.9
1702332079343750,-8.741115,-3.793375,2.707469,0.0,0.45,828219.9
1702332079351562,-8.835115,-3.793375,2.571469,0.0,0.45,818219.8
1702332079359375,-8.817115,-3.804375,2.477469,0.0,0.45,828219.8
1702332079367187,-8.731115,-3.775375,2.434469,0.0,0.45,838219.8
1702332079375000,-8.662115,-3.734375,2.386469,0.0,0.45,738219.8
1702332079382812,-8.614115,-3.670375,2.318469,0.0,0.46,208219.8
1702332079390625,-8.522115,-3.562375,2.215469,0.0,0.46,208219.9
1702332079398437,-8.429115,-3.441375,2.81469,0.0,0.45,718219.8
1702332079406250,-8.346115,-3.314375,1.975469,0.0,0.45,948219.8
1702332079414062,-8.310115,-3.188375,1.943469,0.0,0.46,28219.9
1702332079421875,-8.386115,-3.49375,1.969469,0.0,0.46,108219.8
1702332079429687,-8.536115,-2.920375,1.998469,0.0,0.46,408219.8
1702332079437500,-8.644115,-2.881375,2.469,0.0,0.46,358219.8
1702332079445312,-8.692115,-2.922375,2.12469,0.0,0.46,338219.8
1702332079453125,-8.705115,-3.51375,2.89469,0.0,0.46,478219.8
1702332079460937,-8.691115,-3.227375,2.213469,0.0,0.46,548219.8
1702332079468750,-8.708115,-3.411375,2.378469,0.0,0.46,838219.8
1702332079476562,-8.808115,-3.579375,2.555469,0.0,0.46,868219.8
1702332079484375,-8.957115,-3.727375,2.681469,0.0,0.46,428219.8
1702332079492187,-9.88115,-3.900375,2.720469,0.0,0.46,328219.8
