time,Acceleration X (m/s^2),Acceleration Y (m/s^2),Acceleration Z (m/s^2),Angular Velocity X (rad/s),Angular Velocity Y (rad/s),Angular Velocity Z (rad/s)
1694111096789062,-9.806301,-0.632295,,,,
1694111096796875,-9.817301,0.22393,0.630295,0.63874,0.70147,0.5065
1694111096804687,-9.857301,0.5393,0.641295,0.62074,0.63447,0.0
1694111096812500,-9.864301,0.1607,0.677295,0.65174,0.58547,0.0
1694111096820312,-9.859301,0.3393,0.722295,0.65374,0.67047,0.1865
1694111096828125,-9.835301,0.9393,0.736295,0.66674,0.65147,0.4635
1694111096843750,-9.788301,0.48393,0.688295,0.79174,0.66247,0.0
1694111096851562,-9.777301,0.73393,0.654295,0.79174,0.67647,0.1665
1694111096859375,-9.768301,0.84393,0.652295,0.82074,0.77347,0.7935
1694111096867187,-9.762301,0.92393,0.652295,0.68074,0.77947,0.9535
1694111096890625,-9.762301,0.74393,0.652295,0.65174,0.76747,0.9335
1694111096898437,-9.752301,0.48393,0.663295,0.64974,0.74847,0.12735
1694111096906250,-9.752301,0.21393,0.670295,0.66674,0.79747,0.6235
1694111096914062,-9.742301,0.7607,0.657295,0.65274,0.82947,0.1435
1694111096921875,-9.753301,0.55607,0.663295,0.66874,0.90947,0.1865
1694111096929687,-9.763301,0.84607,0.666295,0.65474,0.76547,0.9865
1694111096937500,-9.767301,0.126607,0.673295,0.70274,0.74847,0.11565
1694111096945312,-9.789301,0.139607,0.661295,0.85674,0.67847,0.9865
1694111096953125,-9.823301,0.136607,0.623295,0.93574,0.64847,0.8465
1694111096960937,-9.855301,0.96607,0.589295,0.113574,0.67247,0.8365
1694111096968750,-9.872301,0.38607,0.573295,0.126574,0.73647,0.535
1694111096976562,-9.875301,0.32393,0.562295,0.140274,0.66447,0.5535
1694111096984375,-9.838301,0.78393,0.567295,0.132574,0.57147,0.5435
1694111096992187,-9.785301,0.119393,0.618295,0.140174,0.56647,0.7235
1694111097000000,-9.733301,0.145393,0.648295,0.138474,0.56547,0.13735
1694111097007812,-9.695301,0.140393,0.668295,0.127474,0.53747,0.23335
1694111097015625,-9.681301,0.127393,0.693295,0.114774,0.56747,0.21935
1694111097023437,-9.713301,0.122393,0.738295,0.116674,0.57347,0.18435
1694111097031250,-9.753301,0.92393,0.767295,0.95974,0.42247,0.22235
1694111097039062,-9.775301,0.50393,0.801295,0.89674,0.40747,0.23835
1694111097046875,-9.799301,0.9393,0.805295,0.86274,0.25547,0.25735
1694111097054687,-9.825301,0.37607,0.812295,0.70574,0.15547,0.18035
1694111097062500,-9.842301,0.94607,0.808295,0.64874,0.26347,0.12835
1694111097070312,-9.875301,0.133607,0.810295,0.64574,0.22047,0.8435
1694111097078125,-9.920301,0.153607,0.810295,0.66474,0.40547,0.6435
1694111097085937,-9.972301,0.150607,0.821295,0.68274,0.48847,0.1535
1694111097093750,-9.979301,0.134607,0.799295,0.87474,0.65547,0.5365
1694111097101562,-9.970301,0.101607,0.769295,0.91974,0.68547,0.565
1694111097109375,-9.941301,0.75607,0.758295,0.90774,0.83747,0.5665
1694111097117187,-9.920301,0.24607,0.749295,0.92374,0.94847,0.8865
1694111097125000,-9.893301,0.8393,0.733295,0.92274,0.98147,0.2465
1694111097132812,-9.847301,0.60393,0.720295,0.89174,0.111247,0.865
1694111097140625,-9.800301,0.111393,0.704295,0.79774,0.101447,0.2265
1694111097148437,-9.778301,0.130393,0.686295,0.72274,0.98647,0.10465
1694111097156250,-9.763301,0.148393,0.695295,0.62574,0.99447,0.11565
1694111097164062,-9.754301,0.148393,0.695295,0.56374,0.94547,0.16365
1694111097171875,-9.756301,0.130393,0.713295,0.65974,0.81747,0.26165
1694111097179687,-9.753301,0.123393,0.747295,0.56374,0.89247,0.24165
1694111097187500,-9.757301,0.101393,0.765295,0.58074,0.79947,0.25965
1694111097195312,-9.784301,0.104393,0.776295,0.59674,0.75047,0.27565
1694111097203125,-9.803301,0.113393,0.792295,0.47074,0.76647,0.25765
1694111097210937,-9.828301,0.115393,0.783295,0.47274,0.75547,0.24365
1694111097218750,-9.859301,0.118393,0.765295,0.45374,0.76547,0.22465
1694111097226562,-9.859301,0.136393,0.729295,0.45174,0.77647,0.22265
1694111097234375,-9.846301,0.162393,0.715295,0.32674,0.81147,0.19065
1694111097242187,-9.812301,0.184393,0.726295,0.18174,0.75747,0.10565
1694111097250000,-9.801301,0.184393,0.724295,0.4174,0.75047,0.1165
1694111097257812,-9.761301,0.179393,0.708295,0.14526,0.76647,0.4165
1694111097265625,-9.736301,0.163393,0.699295,0.25726,0.74547,0.7065
1694111097273437,-9.742301,0.121393,0.697295,0.33326,0.76747,0.8765
1694111097281250,-9.726301,0.107393,0.684295,0.33426,0.74747,0.10265
1694111097289062,-9.721301,0.76393,0.706295,0.35026,0.79447,0.8565
1694111097296875,-9.701301,0.58393,0.729295,0.31526,0.89847,0.12065
1694111097304687,-9.696301,0.56393,0.724295,0.26726,0.91747,0.13865
1694111097312500,-9.707301,0.54393,0.726295,0.22226,0.93047,0.8965
1694111097320312,-9.745301,0.50393,0.747295,0.9426,0.80047,0.20365
1694111097328125,-9.795301,0.51393,0.774295,0.8126,0.74647,0.20165
1694111097335937,-9.824301,0.42393,0.814295,0.326,0.76247,0.18665
1694111097343750,-9.812301,0.24393,0.832295,0.7774,0.75147,0.20565
1694111097351562,-9.785301,0.13393,0.826295,0.12574,0.80047,0.25465
1694111097359375,-9.767301,0.1393,0.810295,0.17174,0.86547,0.17465
1694111097367187,-9.790301,0.4393,0.790295,0.18874,0.80047,0.25465
1694111097375000,-9.805301,0.4393,0.821295,0.34374,0.87847,0.19165
1694111097382812,-9.810301,0.22393,0.857295,0.40874,0.86647,0.21065
1694111097390625,-9.801301,0.20393,0.911295,0.42074,0.90747,0.19165
1694111097398437,-9.781301,0.26393,0.954295,0.57674,0.97647,0.6665
1694111097406250,-9.765301,0.37393,0.945295,0.56174,0.96047,0.11465
1694111097414062,-9.756301,0.39393,0.920295,0.56074,0.90947,0.9765
1694111097421875,-9.741301,0.59393,0.918295,0.63974,0.94247,0.11465
1694111097429687,-9.743301,0.65393,0.940295,0.56074,0.95847,0.6565
1694111097437500,-9.752301,0.88393,0.947295,0.60574,0.93747,0.9565
1694111097445312,-9.762301,0.110393,0.920295,0.61874,0.91747,0.3065
1694111097453125,-9.796301,0.113393,0.902295,0.60674,0.94447,0.3465
1694111097460937,-9.802301,0.91393,0.868295,0.60874,0.94747,0.6765
1694111097468750,-9.804301,0.55393,0.841295,0.56174,0.92947,0.9865
1694111097476562,-9.805301,0.24393,0.817295,0.52774,0.90647,0.11165
1694111097484375,-9.805301,0.9393,0.805295,0.63874,0.90947,0.8265
1694111097492187,-9.802301,0.35607,0.810295,0.70174,0.82947,0.9865
1694111097500000,-9.795301,0.86607,0.828295,0.65274,0.71147,0.8065
1694111097507812,-9.767301,0.115607,0.837295,0.76474,0.64847,0.17865
1694111097515625,-9.749301,0.118607,0.846295,0.90674,0.56747,0.22865
1694111097523437,-9.738301,0.98607,0.859295,0.93774,0.48447,0.25965
1694111097531250,-9.728301,0.47607,0.875295,0.114074,0.42347,0.13465
1694111097539062,-9.752301,0.23393,0.848295,0.142074,0.41647,0.15165
1694111097546875,-9.777301,0.90393,0.846295,0.160974,0.58347,0.9165
1694111097554687,-9.783301,0.159393,0.850295,0.163774,0.62947,0.3735
1694111097562500,-9.786301,0.204393,0.862295,0.168574,0.68047,0.3535
1694111097570312,-9.793301,0.219393,0.853295,0.162374,0.69647,0.1165
1694111097578125,-9.791301,0.217393,0.855295,0.146774,0.76247,0.1065
1694111097585937,-9.779301,0.201393,0.868295,0.126374,0.74647,0.2465
1694111097593750,-9.788301,0.168393,0.893295,0.109274,0.82647,0.7065
1694111097601562,-9.794301,0.131393,0.911295,0.96574,0.74147,0.8365
1694111097609375,-9.811301,0.89393,0.907295,0.88674,0.77147,0.11365
1694111097617187,-9.833301,0.31393,0.884295,0.87374,0.76147,0.11565
1694111097625000,-9.852301,0.9393,0.844295,0.79374,0.70747,0.16065
1694111097632812,-9.861301,0.23607,0.821295,0.77874,0.79147,0.12965
1694111097640625,-9.843301,0.52607,0.810295,0.72074,0.91447,0.14965
1694111097648437,-9.813301,0.63607,0.796295,0.76774,0.92347,0.27565
1694111097656250,-9.791301,0.46607,0.796295,0.86074,0.79347,0.22865
1694111097664062,-9.792301,0.8607,0.783295,0.89174,0.76447,0.18165
1694111097671875,-9.776301,0.30393,0.803295,0.111274,0.82747,0.24865
1694111097679687,-9.761301,0.95393,0.801295,0.117074,0.75547,0.18165
1694111097687500,-9.754301,0.161393,0.803295,0.117074,0.77547,0.8665
1694111097695312,-9.757301,0.216393,0.805295,0.118974,0.89747,0.10665
1694111097703125,-9.762301,0.270393,0.798295,0.117074,0.90647,0.7165
1694111097710937,-9.767301,0.321393,0.821295,0.109374,0.95947,0.7265
1694111097718750,-9.770301,0.332393,0.859295,0.93974,0.103047,0.5665
1694111097726562,-9.795301,0.341393,0.884295,0.65974,0.101547,0.13465
1694111097734375,-9.819301,0.322393,0.916295,0.48574,0.101247,0.13165
1694111097742187,-9.828301,0.282393,0.947295,0.28174,0.101347,0.14565
1694111097750000,-9.829301,0.215393,0.976295,0.4674,0.93347,0.14265
1694111097757812,-9.810301,0.151393,0.992295,0.6426,0.89347,0.21865
1694111097765625,-9.802301,0.73393,-1.17295,0.22026,0.89347,0.26565
1694111097773437,-9.799301,0.33393,0.992295,0.34426,0.86347,0.28065
1694111097781250,-9.798301,0.13607,0.997295,0.32526,0.77147,0.37865
1694111097789062,-9.804301,0.59607,0.983295,0.32826,0.71747,0.34465
1694111097796875,-9.824301,0.63607,0.949295,0.22126,0.64247,0.37365
1694111097804687,-9.832301,0.43607,0.913295,0.6126,0.66747,0.36365
1694111097812500,-9.819301,0.10607,0.875295,0.10974,0.64947,0.34865
1694111097820312,-9.803301,0.6393,0.832295,0.14274,0.68347,0.36565
1694111097828125,-9.792301,0.39393,0.828295,0.24974,0.66347,0.33365
1694111097835937,-9.788301,0.77393,0.830295,0.35974,0.66547,0.28665
1694111097843750,-9.791301,0.119393,0.828295,0.40674,0.64847,0.27165
1694111097851562,-9.785301,0.159393,0.837295,0.51674,0.68347,0.24165
1694111097859375,-9.788301,0.213393,0.816295,0.57674,0.72947,0.16065
1694111097867187,-9.793301,0.235393,0.789295,0.57374,0.74247,0.11065
1694111097875000,-9.791301,0.250393,0.801295,0.49974,0.83147,0.12965
1694111097882812,-9.791301,0.246393,0.871295,0.41874,0.77847,0.7865
1694111097890625,-9.813301,0.224393,0.949295,0.35474,0.71347,0.7765
1694111097898437,-9.844301,0.198393,-1.6295,0.36674,0.49947,0.535
1694111097906250,-9.870301,0.154393,-1.24295,0.39974,0.41847,0.5965
1694111097914062,-9.870301,0.103393,-1.3295,0.41674,0.35447,0.12465
1694111097921875,-9.842301,0.56393,0.956295,0.39974,0.33347,0.13865
1694111097929687,-9.844301,0.40393,0.884295,0.41874,0.35447,0.18865
1694111097937500,-9.855301,0.23393,0.844295,0.43374,0.35647,0.14165
1694111097945312,-9.857301,0.16393,0.848295,0.46674,0.47447,0.12765
1694111097953125,-9.839301,0.1607,0.889295,0.45074,0.56747,0.15865
1694111097960937,-9.810301,0.9393,0.911295,0.49674,0.63247,0.11165
1694111097968750,-9.796301,0.6393,0.875295,0.54174,0.48147,0.12565
1694111097976562,-9.767301,0.10393,0.850295,0.46474,0.37247,0.14165
1694111097984375,-9.731301,0.21393,0.826295,0.39974,0.39847,0.13865
1694111097992187,-9.716301,0.47393,0.837295,0.40074,0.23847,0.15465
1694111098000000,-9.715301,0.100393,0.846295,0.51174,0.12247,0.25165
1694111098007812,-9.724301,0.154393,0.830295,0.65174,0.18647,0.23665
1694111098015625,-9.777301,0.212393,0.785295,0.82374,0.22247,0.14465
1694111098023437,-9.796301,0.262393,0.738295,0.90174,0.34847,0.15965
1694111098031250,-9.796301,0.273393,0.774295,0.89974,0.39447,0.11065
1694111098039062,-9.787301,0.290393,0.805295,0.89974,0.37947,0.6265
1694111098046875,-9.792301,0.294393,0.830295,0.91874,0.39147,0.365
1694111098054687,-9.828301,0.293393,0.857295,0.88674,0.37547,0.1965
1694111098062500,-9.859301,0.265393,0.882295,0.79074,0.37047,0.0
1694111098070312,-9.860301,0.212393,0.911295,0.70974,0.36247,0.1165
1694111098078125,-9.841301,0.167393,0.913295,0.64774,0.41547,0.335
1694111098085937,-9.823301,0.122393,0.911295,0.63274,0.39847,0.4465
1694111098093750,-9.818301,0.84393,0.913295,0.63374,0.35147,0.6165
1694111098101562,-9.806301,0.60393,0.918295,0.68074,0.31647,0.9265
1694111098109375,-9.799301,0.31393,0.949295,0.75974,0.23547,0.10965
1694111098117187,-9.783301,0.33393,0.949295,0.82074,0.18347,0.9265
1694111098125000,-9.774301,0.21393,0.913295,0.90074,0.1053,0.17465
1694111098132812,-9.736301,0.21393,0.868295,0.88374,0.4253,0.14165
1694111098140625,-9.734301,0.12393,0.826295,0.93474,0.14753,0.16165
1694111098148437,-9.745301,0.27393,0.801295,0.83874,0.14753,0.11165
1694111098156250,-9.768301,0.61393,0.792295,0.86774,0.21753,0.9365
1694111098164062,-9.782301,0.104393,0.772295,0.89974,0.36353,0.12565
1694111098171875,-9.801301,0.155393,0.762295,0.97574,0.39653,0.4665
1694111098179687,-9.819301,0.191393,0.742295,0.113174,0.38353,0.3065
1694111098187500,-9.808301,0.215393,0.711295,0.103474,0.43553,0.1165
1694111098195312,-9.802301,0.208393,0.704295,0.95974,0.34553,0.1735
1694111098203125,-9.795301,0.195393,0.690295,0.87574,0.38753,0.10335
1694111098210937,-9.767301,0.161393,0.704295,0.76474,0.40353,0.15235
1694111098218750,-9.726301,0.145393,0.742295,0.68674,0.40153,0.16835
1694111098226562,-9.717301,0.132393,0.771295,0.67174,0.48153,0.15235
1694111098234375,-9.724301,0.152393,0.790295,0.77974,0.58053,0.20035
1694111098242187,-9.758301,0.179393,0.794295,0.88874,0.56353,0.26335
1694111098250000,-9.790301,0.177393,0.814295,0.89074,0.48953,0.34035
1694111098257812,-9.790301,0.159393,0.823295,0.90174,0.49453,0.43835
1694111098265625,-9.803301,0.135393,0.823295,0.82374,0.49453,0.43935
1694111098273437,-9.800301,0.106393,0.835295,0.57274,0.44253,0.48935
1694111098281250,-9.802301,0.77393,0.868295,0.33774,0.37553,0.52335
1694111098289062,-9.804301,0.55393,0.898295,0.19574,0.43053,0.44735
1694111098296875,-9.819301,0.31393,0.913295,0.974,0.41153,0.39935
1694111098304687,-9.824301,0.31393,0.904295,0.8726,0.41353,0.46635
1694111098312500,-9.835301,0.27393,0.866295,0.4926,0.27853,0.28635
1694111098320312,-9.857301,0.23393,0.837295,0.2674,0.31853,0.25635
1694111098328125,-9.873301,0.34393,0.790295,0.7574,0.20253,0.27035
1694111098335937,-9.887301,0.43393,0.801295,0.13974,0.353,0.26735
1694111098343750,-9.876301,0.50393,0.808295,0.15574,0.12347,0.25135
1694111098351562,-9.865301,0.74393,0.814295,0.32974,0.13947,0.20135
1694111098359375,-9.859301,0.105393,0.839295,0.39374,0.12647,0.15035
1694111098367187,-9.850301,0.140393,0.837295,0.40974,0.20847,0.19835
1694111098375000,-9.846301,0.169393,0.832295,0.39474,0.22947,0.22835
1694111098382812,-9.822301,0.191393,0.835295,0.41274,0.32647,0.13135
1694111098390625,-9.822301,0.206393,0.812295,0.36174,0.30347,0.18335
1694111098398437,-9.793301,0.226393,0.794295,0.39674,0.38947,0.14835
1694111098406250,-9.764301,0.230393,0.798295,0.24074,0.52347,0.19635
1694111098414062,-9.728301,0.214393,0.776295,0.26974,0.51947,0.22935
1694111098421875,-9.741301,0.230393,0.762295,0.17474,0.53447,0.26335
1694111098429687,-9.746301,0.232393,0.738295,0.14274,0.48547,0.26435
1694111098437500,-9.737301,0.225393,0.724295,0.14174,0.59547,0.24935
1694111098445312,-9.734301,0.207393,0.713295,0.9674,0.60047,0.26435
1694111098453125,-9.718301,0.169393,0.717295,0.1026,0.55947,0.24635
1694111098460937,-9.702301,0.149393,0.747295,0.20126,0.45747,0.28335
1694111098468750,-9.652301,0.99393,0.765295,0.35726,0.39547,0.26835
1694111098476562,-9.624301,0.57393,0.756295,0.42426,0.23747,0.25735
1694111098484375,-9.626301,0.28393,0.736295,0.48526,0.14647,0.27235
1694111098492187,-9.641301,0.13393,0.672295,0.42226,0.6547,0.25535
1694111098500000,-9.677301,0.1607,0.623295,0.34826,0.5247,0.22835
1694111098507812,-9.718301,0.3393,0.591295,0.35826,0.14747,0.20635
1694111098515625,-9.729301,0.3607,0.623295,0.26226,0.33847,0.10935
1694111098523437,-9.754301,0.10393,0.693295,0.12026,0.39247,0.15335
1694111098531250,-9.785301,0.0,0.774295,0.8626,0.40647,0.835
1694111098539062,-9.839301,0.0,0.871295,0.2274,0.39047,0.735
1694111098546875,-9.873301,0.7393,0.961295,0.16374,0.43747,0.2235
1694111098554687,-9.825301,0.13393,-1.6295,0.30374,0.53047,0.965
1694111098562500,-9.763301,0.25393,0.983295,0.55974,0.67047,0.1765
1694111098570312,-9.738301,0.41393,0.927295,0.61974,0.69547,0.4765
1694111098578125,-9.752301,0.52393,0.877295,0.60674,0.78247,0.3365
1694111098585937,-9.756301,0.17393,0.886295,0.44774,0.87547,0.135
1694111098593750,-9.771301,0.9607,0.889295,0.40174,0.86247,0.0
1694111098601562,-9.786301,0.42607,0.898295,0.41474,0.78847,0.1165
1694111098609375,-9.822301,0.59607,0.877295,0.38574,0.67847,0.9265
1694111098617187,-9.829301,0.92607,0.900295,0.48174,0.51947,0.12665
1694111098625000,-9.826301,0.92607,0.913295,0.65474,0.29347,0.17665
1694111098632812,-9.813301,0.59607,0.866295,0.80774,0.19147,0.9665
1694111098640625,-9.825301,0.15607,0.808295,0.96274,0.7547,0.8065
1694111098648437,-9.828301,0.38393,0.783295,0.108674,0.7847,0.6135
1694111098656250,-9.829301,0.73393,0.810295,0.108574,0.7347,0.1535
1694111098664062,-9.840301,0.80393,0.794295,0.119074,0.2147,0.14435
1694111098671875,-9.829301,0.102393,0.681295,0.139774,0.747,0.7635
1694111098679687,-9.805301,0.131393,0.562295,0.143074,0.7147,0.365
1694111098687500,-9.805301,0.120393,0.483295,0.137074,0.5453,0.8465
1694111098695312,-9.803301,0.104393,0.506295,0.105874,0.14953,0.16165
1694111098703125,-9.836301,0.85393,0.591295,0.93474,0.18453,0.25665
1694111098710937,-9.837301,0.54393,0.668295,0.86874,0.14353,0.25265
1694111098718750,-9.812301,0.31393,0.654295,0.79374,0.8953,0.30265
1694111098726562,-9.819301,0.16393,0.600295,0.76174,0.6153,0.33265
1694111098734375,-9.825301,0.7393,0.549295,0.74574,0.647,0.28465
1694111098742187,-9.868301,0.14393,0.542295,0.77874,0.12447,0.25565
1694111098750000,-9.898301,0.26393,0.603295,0.76174,0.13747,0.23765
1694111098757812,-9.909301,0.50393,0.657295,0.91674,0.12047,0.17565
1694111098765625,-9.880301,0.81393,0.652295,0.94474,0.13247,0.7765
1694111098773437,-9.875301,0.136393,0.636295,0.96274,0.22247,0.1665
1694111098781250,-9.871301,0.194393,0.623295,0.97774,0.28447,0.4865
1694111098789062,-9.863301,0.223393,0.582295,0.109174,0.37347,0.8565
1694111098796875,-9.865301,0.254393,0.546295,0.94774,0.35447,0.165
1694111098804687,-9.877301,0.274393,0.555295,0.77574,0.28847,0.4765
1694111098812500,-9.852301,0.276393,0.596295,0.63374,0.32147,0.1365
1694111098820312,-9.818301,0.251393,0.605295,0.56874,0.32947,0.2665
1694111098828125,-9.795301,0.195393,0.594295,0.38374,0.30347,0.7465
1694111098835937,-9.797301,0.186393,0.555295,0.33574,0.20447,0.7265
1694111098843750,-9.799301,0.159393,0.555295,0.16474,0.24047,0.8865
1694111098851562,-9.807301,0.142393,0.594295,0.10074,0.20647,0.7065
1694111098859375,-9.850301,0.140393,0.625295,0.2174,0.10847,0.5365
1694111098867187,-9.877301,0.132393,0.627295,0.11374,0.7347,0.2165
1694111098875000,-9.893301,0.148393,0.585295,0.11274,0.8847,0.1135
1694111098882812,-9.877301,0.136393,0.580295,0.16074,0.12147,0.2165
1694111098890625,-9.845301,0.120393,0.612295,0.1974,0.25047,0.1965
1694111098898437,-9.805301,0.113393,0.654295,0.826,0.38847,0.2365
1694111098906250,-9.760301,0.119393,0.627295,0.7126,0.37347,0.935
1694111098914062,-9.717301,0.85393,0.591295,0.28726,0.41347,0.765
1694111098921875,-9.708301,0.76393,0.600295,0.38426,0.35847,0.365
1694111098929687,-9.746301,0.76393,0.643295,0.39726,0.37547,0.10065
1694111098937500,-9.763301,0.59393,0.650295,0.38326,0.22647,0.8265
1694111098945312,-9.766301,0.57393,0.616295,0.33626,0.24147,0.13165
1694111098953125,-9.761301,0.63393,0.585295,0.33526,0.34147,0.13265
1694111098960937,-9.725301,0.76393,0.591295,0.35226,0.40547,0.6765
1694111098968750,-9.719301,0.98393,0.643295,0.27726,0.36547,0.4965
1694111098976562,-9.726301,0.125393,0.731295,0.19726,0.38847,0.1135
1694111098984375,-9.715301,0.116393,0.821295,0.15126,0.40147,0.1135
1694111098992187,-9.733301,0.112393,0.841295,0.3774,0.40447,0.2435
1694111099000000,-9.762301,0.119393,0.785295,0.17974,0.38947,0.2235
1694111099007812,-9.791301,0.113393,0.706295,0.14674,0.40847,0.11835
1694111099015625,-9.816301,0.115393,0.686295,0.13074,0.48647,0.10335
1694111099023437,-9.826301,0.69393,0.729295,0.1026,0.63247,0.12035
1694111099031250,-9.828301,0.5393,0.765295,0.5526,0.65047,0.8735
1694111099039062,-9.824301,0.70607,0.799295,0.10226,0.59847,0.935
1694111099046875,-9.801301,0.144607,0.805295,0.8526,0.49047,0.865
1694111099054687,-9.755301,0.200607,0.772295,0.10126,0.45347,0.7065
1694111099062500,-9.761301,0.219607,0.720295,0.5474,0.35047,0.11865
1694111099070312,-9.781301,0.235607,0.704295,0.22574,0.24747,0.18265
1694111099078125,-9.812301,0.239607,0.715295,0.44574,0.10147,0.20065
1694111099085937,-9.836301,0.214607,0.727295,0.64974,0.12347,0.9265
1694111099093750,-9.832301,0.185607,0.720295,0.77674,0.14047,0.14265
1694111099101562,-9.828301,0.136607,0.684295,0.93174,0.1847,0.25365
1694111099109375,-9.824301,0.88607,0.639295,0.113874,0.8653,0.24365
1694111099117187,-9.820301,0.32607,0.591295,0.124874,0.13753,0.27565
1694111099125000,-9.839301,0.40393,0.555295,0.145074,0.5853,0.22865
1694111099132812,-9.841301,0.120393,0.540295,0.151274,0.15247,0.18265
1694111099140625,-9.853301,0.185393,0.530295,0.146574,0.21947,0.11865
1694111099148437,-9.838301,0.227393,0.544295,0.139074,0.40547,0.12065
1694111099156250,-9.825301,0.251393,0.566295,0.121774,0.53647,0.3965
1694111099164062,-9.834301,0.240393,0.589295,0.113874,0.51747,0.8565
1694111099171875,-9.819301,0.211393,0.639295,0.99574,0.62547,0.8165
1694111099179687,-9.799301,0.166393,0.686295,0.90474,0.65247,0.6965
1694111099187500,-9.771301,0.115393,0.717295,0.77774,0.63047,0.8165
1694111099195312,-9.728301,0.56393,0.756295,0.67074,0.52147,0.12965
1694111099203125,-9.722301,0.21393,0.718295,0.66674,0.38547,0.9465
1694111099210937,-9.736301,0.3393,0.690295,0.65574,0.28347,0.11565
1694111099218750,-9.749301,0.7607,0.650295,0.69974,0.14447,0.14365
1694111099226562,-9.749301,0.3393,0.578295,0.72974,0.11347,0.6365
1694111099234375,-9.756301,0.28393,0.504295,0.88074,0.10347,0.235
1694111099242187,-9.797301,0.55393,0.440295,0.91174,0.5447,0.1935
1694111099250000,-9.847301,0.83393,0.420295,0.92874,0.6247,0.9535
1694111099257812,-9.895301,0.114393,0.452295,0.106974,0.12247,0.3135
1694111099265625,-9.922301,0.139393,0.535295,0.116574,0.5847,0.1865
1694111099273437,-9.922301,0.155393,0.564295,0.128674,0.6647,0.4835
1694111099281250,-9.907301,0.192393,0.524295,0.139674,0.8247,0.1435
1694111099289062,-9.917301,0.232393,0.470295,0.141474,0.16947,0.2735
1694111099296875,-9.926301,0.275393,0.429295,0.128774,0.33047,0.9335
1694111099304687,-9.940301,0.288393,0.458295,0.114874,0.39447,0.65
1694111099312500,-9.924301,0.288393,0.546295,0.96174,0.41647,0.4735
1694111099320312,-9.879301,0.287393,0.621295,0.89874,0.38947,0.12635
1694111099328125,-9.823301,0.264393,0.621295,0.89874,0.40547,0.12635
1694111099335937,-9.780301,0.237393,0.605295,0.91574,0.38847,0.7835
1694111099343750,-9.727301,0.203393,0.587295,0.72874,0.40147,0.4765
1694111099351562,-9.709301,0.174393,0.596295,0.63574,0.38547,0.9465
1694111099359375,-9.672301,0.122393,0.643295,0.68574,0.44047,0.12965
1694111099367187,-9.654301,0.91393,0.693295,0.68874,0.50447,0.25865
1694111099375000,-9.649301,0.51393,0.704295,0.81574,0.60047,0.34065
1694111099382812,-9.673301,0.38393,0.648295,0.92474,0.58247,0.37265
1694111099390625,-9.723301,0.36393,0.567295,0.89374,0.50047,0.37165
1694111099398437,-9.776301,0.28393,0.524295,0.75274,0.51647,0.40265
1694111099406250,-9.790301,0.31393,0.504295,0.64174,0.61147,0.38465
1694111099414062,-9.804301,0.40393,0.504295,0.67474,0.66447,0.37065
1694111099421875,-9.828301,0.58393,0.546295,0.65674,0.59547,0.32065
1694111099429687,-9.815301,0.60393,0.580295,0.65674,0.67947,0.25765
1694111099437500,-9.806301,0.73393,0.603295,0.70374,0.76647,0.16465
1694111099445312,-9.779301,0.66393,0.594295,0.90774,0.79747,0.18265
1694111099453125,-9.770301,0.79393,0.594295,0.90374,0.90047,0.16265
1694111099460937,-9.773301,0.81393,0.612295,0.90574,0.94147,0.8565
1694111099468750,-9.781301,0.44393,0.641295,0.84174,0.90747,0.6765
1694111099476562,-9.756301,0.19393,0.699295,0.78074,0.91047,0.11665
1694111099484375,-9.746301,0.24607,0.729295,0.73174,0.64547,0.12865
1694111099492187,-9.739301,0.36607,0.706295,0.90374,0.30447,0.16165
1694111099500000,-9.748301,0.36607,0.661295,0.91574,0.8847,0.14265
1694111099507812,-9.762301,0.11607,0.654295,0.105374,0.3347,0.7765
1694111099515625,-9.783301,0.48393,0.634295,0.116474,0.3953,0.1765
1694111099523437,-9.811301,0.91393,0.587295,0.139874,0.2747,0.10735
1694111099531250,-9.859301,0.145393,0.560295,0.147474,0.15347,0.15535
1694111099539062,-9.911301,0.188393,0.625295,0.152274,0.36847,0.21735
1694111099546875,-9.954301,0.206393,0.690295,0.145974,0.32147,0.25035
1694111099554687,-9.964301,0.224393,0.733295,0.144274,0.17247,0.20335
1694111099562500,-9.941301,0.224393,0.735295,0.147374,0.13547,0.15635
1694111099570312,-9.912301,0.210393,0.699295,0.139974,0.22247,0.5835
1694111099578125,-9.898301,0.196393,0.688295,0.130874,0.28747,0.6965
1694111099585937,-9.905301,0.197393,0.652295,0.126574,0.40547,0.15165
1694111099593750,-9.914301,0.190393,0.596295,0.118674,0.38547,0.18165
1694111099601562,-9.915301,0.177393,0.533295,0.113774,0.45747,0.25765
1694111099609375,-9.918301,0.179393,0.519295,0.97074,0.50247,0.27765
1694111099617187,-9.875301,0.172393,0.537295,0.88974,0.51547,0.24265
1694111099625000,-9.835301,0.171393,0.562295,0.77974,0.38647,0.20965
1694111099632812,-9.819301,0.184393,0.569295,0.73374,0.40647,0.19365
1694111099640625,-9.829301,0.211393,0.542295,0.80874,0.30247,0.15965
1694111099648437,-9.809301,0.222393,0.512295,0.63574,0.17547,0.12665
1694111099656250,-9.809301,0.224393,0.485295,0.68374,0.12947,0.11165
1694111099664062,-9.800301,0.244393,0.411295,0.85174,0.16847,0.7765
1694111099671875,-9.789301,0.262393,0.330295,0.88474,0.18847,0.6365
1694111099679687,-9.768301,0.250393,0.341295,0.88074,0.20147,0.3435
1694111099687500,-9.743301,0.203393,0.416295,0.75874,0.19247,0.1565
1694111099695312,-9.736301,0.163393,0.490295,0.72774,0.12847,0.1465
1694111099703125,-9.713301,0.138393,0.553295,0.78874,0.2447,0.4565
1694111099710937,-9.670301,0.124393,0.562295,0.89774,0.2447,0.135
1694111099718750,-9.652301,0.117393,0.524295,0.91374,0.12147,0.1465
1694111099726562,-9.686301,0.127393,0.479295,0.94174,0.10047,0.1935
1694111099734375,-9.741301,0.103393,0.470295,0.80274,0.13647,0.1935
1694111099742187,-9.791301,0.82393,0.531295,0.64374,0.12047,0.11835
1694111099750000,-9.793301,0.55393,0.612295,0.66074,0.4547,0.16435
1694111099757812,-9.761301,0.43393,0.627295,0.64474,0.10947,0.14835
1694111099765625,-9.743301,0.52393,0.607295,0.64474,0.6347,0.22735
1694111099773437,-9.755301,0.92393,0.564295,0.65674,0.847,0.26235
1694111099781250,-9.787301,0.115393,0.551295,0.62674,0.2747,0.24535
1694111099789062,-9.834301,0.131393,0.569295,0.64374,0.3347,0.29135
1694111099796875,-9.869301,0.163393,0.594295,0.65774,0.153,0.32435
1694111099804687,-9.893301,0.163393,0.596295,0.65874,0.5147,0.35535
1694111099812500,-9.909301,0.155393,0.600295,0.62274,0.10453,0.35935
1694111099820312,-9.933301,0.139393,0.607295,0.53174,0.14653,0.31035
1694111099828125,-9.931301,0.126393,0.609295,0.26374,0.24953,0.28335
1694111099835937,-9.903301,0.97393,0.636295,0.11974,0.32353,0.25735
1694111099843750,-9.867301,0.65393,0.625295,0.1074,0.49653,0.27335
1694111099851562,-9.833301,0.53393,0.621295,0.5026,0.54253,0.24035
1694111099859375,-9.824301,0.55393,0.591295,0.4774,0.42653,0.9335
1694111099867187,-9.828301,0.47393,0.526295,0.10774,0.28753,0.12735
1694111099875000,-9.828301,0.45393,0.422295,0.19174,0.8653,0.1035
1694111099882812,-9.801301,0.55393,0.375295,0.22474,0.30247,0.835
1694111099890625,-9.764301,0.86393,0.398295,0.21474,0.60547,0.4565
1694111099898437,-9.730301,0.87393,0.488295,0.28174,0.78847,0.12965
1694111099906250,-9.728301,0.94393,0.576295,0.38874,0.92647,0.11165
1694111099914062,-9.762301,0.110393,0.618295,0.42174,0.91347,0.14565
1694111099921875,-9.760301,0.110393,0.614295,0.40574,0.97647,0.12865
1694111099929687,-9.767301,0.132393,0.580295,0.42274,0.86347,0.22565
1694111099937500,-9.790301,0.146393,0.503295,0.43774,0.76547,0.22465
1694111099945312,-9.830301,0.144393,0.463295,0.42074,0.75147,0.9665
1694111099953125,-9.868301,0.152393,0.472295,0.39174,0.75247,0.17765
1694111099960937,-9.873301,0.149393,0.526295,0.32774,0.76947,0.11265
1694111099968750,-9.864301,0.152393,0.609295,0.27874,0.68547,0.11065
1694111099976562,-9.843301,0.140393,0.657295,0.40374,0.61847,0.14265
1694111099984375,-9.857301,0.134393,0.654295,0.40274,0.56947,0.9465
1694111099992187,-9.869301,0.169393,0.603295,0.54474,0.56847,0.12765
1694111100000000,-9.875301,0.174393,0.553295,0.65174,0.61147,0.9465
1694111100007812,-9.877301,0.156393,0.567295,0.54174,0.63347,0.1565
1694111100015625,-9.825301,0.104393,0.612295,0.46574,0.63447,0.6365
1694111100023437,-9.770301,0.70393,0.636295,0.40074,0.63347,0.235
1694111100031250,-9.732301,0.47393,0.632295,0.41974,0.70047,0.11165
1694111100039062,-9.734301,0.25393,0.580295,0.40174,0.76047,0.9365
1694111100046875,-9.752301,0.8393,0.567295,0.42074,0.72047,0.8065
1694111100054687,-9.787301,0.15393,0.567295,0.44874,0.62747,0.15665
1694111100062500,-9.792301,0.15393,0.605295,0.60874,0.63747,0.9865
1694111100070312,-9.787301,0.2393,0.648295,0.70274,0.70347,0.11665
1694111100078125,-9.801301,0.15393,0.627295,0.82574,0.53447,0.9865
1694111100085937,-9.821301,0.13393,0.582295,0.91774,0.48147,0.11365
1694111100093750,-9.824301,0.36393,0.522295,0.89874,0.39647,0.3065
1694111100101562,-9.826301,0.53393,0.483295,0.99574,0.38447,0.8265
1694111100109375,-9.809301,0.82393,0.447295,0.110374,0.39747,0.3365
1694111100117187,-9.818301,0.118393,0.467295,0.105574,0.38147,0.1765
1694111100125000,-9.818301,0.125393,0.506295,0.111774,0.39247,0.8065
1694111100132812,-9.821301,0.147393,0.535295,0.117074,0.59847,0.10265
1694111100140625,-9.805301,0.166393,0.542295,0.113774,0.61047,0.11665
1694111100148437,-9.801301,0.179393,0.524295,0.109374,0.61847,0.10365
1694111100156250,-9.792301,0.186393,0.517295,0.93674,0.58447,0.11665
1694111100164062,-9.794301,0.168393,0.519295,0.93674,0.61547,0.14865
1694111100171875,-9.801301,0.160393,0.515295,0.93374,0.54147,0.19265
1694111100179687,-9.798301,0.144393,0.544295,0.84074,0.62747,0.16165
1694111100187500,-9.791301,0.133393,0.587295,0.74374,0.55547,0.17365
1694111100195312,-9.791301,0.128393,0.589295,0.85474,0.54347,0.14465
1694111100203125,-9.789301,0.126393,0.535295,0.90174,0.52847,0.8065
1694111100210937,-9.816301,0.140393,0.467295,0.91774,0.51747,0.1865
1694111100218750,-9.853301,0.149393,0.438295,0.98274,0.60447,0.565
1694111100226562,-9.864301,0.156393,0.449295,0.96374,0.45047,0.3465
1694111100234375,-9.866301,0.152393,0.503295,0.89974,0.41447,0.6365
1694111100242187,-9.846301,0.142393,0.553295,0.91874,0.50647,0.465
1694111100250000,-9.825301,0.125393,0.580295,0.89774,0.37847,0.235
1694111100257812,-9.823301,0.118393,0.535295,0.91874,0.43747,0.5065
1694111100265625,-9.818301,0.127393,0.465295,0.90274,0.38447,0.11365
1694111100273437,-9.821301,0.136393,0.436295,0.90274,0.43347,0.9765
1694111100281250,-9.805301,0.131393,0.474295,0.85574,0.47047,0.5065
1694111100289062,-9.801301,0.126393,0.510295,0.90374,0.40647,0.6765
1694111100296875,-9.785301,0.131393,0.540295,0.93174,0.38347,0.6465
1694111100304687,-9.751301,0.159393,0.522295,0.93074,0.34747,0.7965
1694111100312500,-9.725301,0.183393,0.501295,0.110574,0.38447,0.8365
1694111100320312,-9.741301,0.199393,0.452295,0.110574,0.35147,0.11565
1694111100328125,-9.775301,0.230393,0.438295,0.112274,0.35647,0.6965
1694111100335937,-9.791301,0.228393,0.456295,0.101174,0.40447,0.5165
1694111100343750,-9.795301,0.197393,0.530295,0.75674,0.23447,0.335
1694111100351562,-9.790301,0.148393,0.573295,0.63474,0.22547,0.2965
1694111100359375,-9.791301,0.111393,0.555295,0.66174,0.5447,0.1065
1694111100367187,-9.795301,0.88393,0.506295,0.64874,0.9547,0.1835
1694111100375000,-9.815301,0.75393,0.440295,0.63174,0.11047,0.3535
1694111100382812,-9.822301,0.58393,0.427295,0.55274,0.9447,0.8435
1694111100390625,-9.824301,0.73393,0.456295,0.61674,0.25647,0.3435
1694111100398437,-9.829301,0.102393,0.492295,0.67774,0.33647,0.11435
1694111100406250,-9.870301,0.121393,0.506295,0.67774,0.36947,0.14635
1694111100414062,-9.913301,0.139393,0.503295,0.66074,0.30447,0.16335
1694111100421875,-9.917301,0.130393,0.526295,0.56574,0.18947,0.16535
1694111100429687,-9.892301,0.126393,0.571295,0.40774,0.22147,0.21535
1694111100437500,-9.870301,0.121393,0.607295,0.41074,0.19347,0.16535
1694111100445312,-9.842301,0.107393,0.618295,0.38774,0.14547,0.18835
1694111100453125,-9.843301,0.111393,0.632295,0.41074,0.25947,0.18135
1694111100460937,-9.838301,0.109393,0.639295,0.42374,0.22147,0.23135
1694111100468750,-9.825301,0.109393,0.627295,0.59674,0.25147,0.16535
1694111100476562,-9.827301,0.104393,0.580295,0.52174,0.27647,0.14735
1694111100484375,-9.834301,0.118393,0.528295,0.47574,0.37547,0.13035
1694111100492187,-9.844301,0.142393,0.499295,0.47674,0.44247,0.16135
1694111100500000,-9.832301,0.151393,0.506295,0.45974,0.47147,0.14735
1694111100507812,-9.808301,0.153393,0.517295,0.39774,0.44047,0.14735
1694111100515625,-9.792301,0.168393,0.515295,0.29974,0.43247,0.16735
1694111100523437,-9.792301,0.188393,0.488295,0.20674,0.41847,0.15235
1694111100531250,-9.799301,0.208393,0.452295,0.20874,0.51947,0.13435
1694111100539062,-9.815301,0.224393,0.427295,0.16074,0.53247,0.13535
1694111100546875,-9.822301,0.233393,0.422295,0.9674,0.40047,0.10635
1694111100554687,-9.822301,0.220393,0.434295,0.8174,0.35447,0.13735
1694111100562500,-9.822301,0.211393,0.452295,0.1226,0.37047,0.12235
1694111100570312,-9.806301,0.208393,0.454295,0.3474,0.33947,0.16935
1694111100578125,-9.790301,0.188393,0.467295,0.4626,0.41547,0.17235
1694111100585937,-9.790301,0.168393,0.463295,0.7426,0.53647,0.21735
1694111100593750,-9.796301,0.144393,0.472295,0.4326,0.65347,0.26335
1694111100601562,-9.805301,0.122393,0.508295,0.9026,0.71747,0.26435
1694111100609375,-9.802301,0.84393,0.542295,0.2726,0.68447,0.24835
1694111100617187,-9.797301,0.77393,0.560295,0.2074,0.66947,0.23035
1694111100625000,-9.788301,0.60393,0.573295,0.11074,0.58047,0.26535
1694111100632812,-9.785301,0.44393,0.591295,0.3174,0.67547,0.25035
1694111100640625,-9.761301,0.30393,0.582295,0.5826,0.66947,0.26435
1694111100648437,-9.747301,0.41393,0.582295,0.7626,0.67947,0.25035
1694111100656250,-9.752301,0.48393,0.589295,0.7626,0.72847,0.26635
1694111100664062,-9.756301,0.57393,0.603295,0.3274,0.64647,0.24935
1694111100671875,-9.775301,0.70393,0.616295,0.15874,0.66247,0.26435
1694111100679687,-9.797301,0.89393,0.603295,0.17374,0.64447,0.24835
1694111100687500,-9.839301,0.120393,0.621295,0.26974,0.63447,0.26135
1694111100695312,-9.855301,0.147393,0.641295,0.40974,0.50147,0.24535
1694111100703125,-9.855301,0.185393,0.625295,0.39374,0.51647,0.26235
1694111100710937,-9.842301,0.222393,0.567295,0.40874,0.40147,0.24635
1694111100718750,-9.840301,0.231393,0.517295,0.38974,0.37847,0.26535
1694111100726562,-9.862301,0.232393,0.483295,0.29674,0.29647,0.18635
1694111100734375,-9.883301,0.227393,0.465295,0.25274,0.30347,0.18435
1694111100742187,-9.855301,0.207393,0.483295,0.23474,0.38247,0.23335
1694111100750000,-9.790301,0.193393,0.497295,0.34674,0.49847,0.21535
1694111100757812,-9.722301,0.154393,0.497295,0.37974,0.61647,0.22835
1694111100765625,-9.685301,0.100393,0.490295,0.36374,0.69647,0.24435
1694111100773437,-9.698301,0.72393,0.522295,0.25474,0.76247,0.22935
1694111100781250,-9.761301,0.59393,0.585295,0.27074,0.76347,0.22835
1694111100789062,-9.785301,0.33393,0.663295,0.36374,0.71147,0.18135
1694111100796875,-9.774301,0.6393,0.718295,0.47474,0.64647,0.14735
1694111100804687,-9.735301,0.14607,0.684295,0.66374,0.38747,0.9735
1694111100812500,-9.724301,0.25607,0.580295,0.64374,0.13847,0.13335
1694111100820312,-9.753301,0.24607,0.470295,0.44374,0.11147,0.5335
1694111100828125,-9.778301,0.8607,0.400295,0.22074,0.7553,0.2735
1694111100835937,-9.790301,0.2393,0.375295,0.4426,0.10253,0.4535
1694111100843750,-9.817301,0.20393,0.400295,0.10826,0.7847,0.15735
1694111100851562,-9.855301,0.18393,0.407295,0.9126,0.14547,0.17135
1694111100859375,-9.860301,0.41393,0.368295,0.7226,0.22847,0.4135
1694111100867187,-9.858301,0.58393,0.386295,0.10626,0.33847,0.12335
1694111100875000,-9.829301,0.89393,0.425295,0.7326,0.43647,0.9035
1694111100882812,-9.808301,0.144393,0.476295,0.8474,0.40647,0.7135
1694111100890625,-9.810301,0.189393,0.483295,0.28874,0.46847,0.2135
1694111100898437,-9.802301,0.233393,0.492295,0.41574,0.61847,0.6635
1694111100906250,-9.791301,0.257393,0.519295,0.49574,0.70447,0.6335
1694111100914062,-9.787301,0.244393,0.567295,0.62074,0.68247,0.0
1694111100921875,-9.813301,0.204393,0.607295,0.47874,0.61547,0.1365
1694111100929687,-9.856301,0.116393,0.632295,0.13274,0.53247,0.865
1694111100937500,-9.886301,0.14393,0.641295,0.13426,0.38647,0.3765
1694111100945312,-9.893301,0.102607,0.648295,0.44826,0.35247,0.6465
1694111100953125,-9.860301,0.220607,0.625295,0.57226,0.35147,0.12765
1694111100960937,-9.825301,0.325607,0.576295,0.68126,0.22047,0.20565
1694111100968750,-9.792301,0.401607,0.513295,0.72626,0.28747,0.28665
1694111100976562,-9.778301,0.439607,0.502295,0.58626,0.29847,0.30265
1694111100984375,-9.790301,0.428607,0.481295,0.23726,0.27147,0.38965
1694111100992187,-9.790301,0.365607,0.483295,0.15274,0.26847,0.32865
1694111101000000,-9.783301,0.286607,0.445295,0.65474,0.30747,0.22465
1694111101007812,-9.785301,0.161607,0.411295,0.113474,0.33247,0.8265
1694111101015625,-9.839301,0.18607,0.359295,0.149374,0.38447,0.10535
1694111101023437,-9.901301,0.108393,0.294295,0.176174,0.40747,0.17935
1694111101031250,-9.934301,0.215393,0.299295,0.167874,0.20747,0.24735
1694111101039062,-9.915301,0.290393,0.377295,0.164574,0.12247,0.26635
1694111101046875,-9.878301,0.332393,0.483295,0.148774,0.11947,0.25335
1694111101054687,-9.837301,0.338393,0.535295,0.131374,0.7447,0.36635
1694111101062500,-9.819301,0.315393,0.519295,0.115574,0.5753,0.33835
1694111101070312,-9.832301,0.249393,0.490295,0.82974,0.8553,0.27535
1694111101078125,-9.857301,0.138393,0.499295,0.51474,0.10253,0.31235
1694111101085937,-9.862301,0.30393,0.591295,0.21874,0.10053,0.26635
1694111101093750,-9.867301,0.89607,0.700295,0.4526,0.11447,0.25135
1694111101101562,-9.892301,0.166607,0.763295,0.11126,0.9347,0.27035
1694111101109375,-9.874301,0.207607,0.736295,0.3226,0.6347,0.31635
1694111101117187,-9.840301,0.232607,0.691295,0.226,0.7847,0.36435
1694111101125000,-9.837301,0.247607,0.650295,0.12374,0.4747,0.33035
1694111101132812,-9.842301,0.232607,0.567295,0.15574,0.17847,0.37735
1694111101140625,-9.843301,0.209607,0.517295,0.10874,0.29447,0.44135
1694111101148437,-9.861301,0.196607,0.519295,0.3074,0.39147,0.42535
1694111101156250,-9.897301,0.177607,0.526295,0.4526,0.43847,0.29835
1694111101164062,-9.913301,0.148607,0.533295,0.2826,0.45647,0.26535
1694111101171875,-9.911301,0.122607,0.526295,0.11374,0.35947,0.21535
1694111101179687,-9.876301,0.91607,0.483295,0.11574,0.39347,0.15035
1694111101187500,-9.860301,0.65607,0.398295,0.8274,0.39947,0.2535
1694111101195312,-9.856301,0.45607,0.371295,0.14974,0.66447,0.1065
1694111101203125,-9.843301,0.25607,0.371295,0.974,0.66847,0.535
1694111101210937,-9.809301,0.23607,0.375295,0.7026,0.58347,0.765
1694111101218750,-9.774301,0.6607,0.368295,0.10226,0.42147,0.2265
1694111101226562,-9.765301,0.17393,0.344295,0.7426,0.33847,0.7435
1694111101234375,-9.788301,0.46393,0.292295,0.18526,0.19247,0.14035
1694111101242187,-9.784301,0.66393,0.231295,0.29626,0.16047,0.20635
1694111101250000,-9.766301,0.62393,0.233295,0.40626,0.33747,0.19135
1694111101257812,-9.736301,0.50393,0.287295,0.57726,0.35747,0.17635
1694111101265625,-9.731301,0.21393,0.380295,0.59226,0.40447,0.16035
1694111101273437,-9.740301,0.11607,0.429295,0.55826,0.39147,0.9435
1694111101281250,-9.748301,0.53607,0.461295,0.38826,0.40647,0.15735
1694111101289062,-9.716301,0.76607,0.501295,0.37226,0.44047,0.20435
1694111101296875,-9.698301,0.87607,0.517295,0.31426,0.45047,0.28735
1694111101304687,-9.696301,0.78607,0.522295,0.26226,0.61947,0.23535
1694111101312500,-9.701301,0.67607,0.535295,0.20326,0.63247,0.33235
1694111101320312,-9.723301,0.49607,0.585295,0.9626,0.76047,0.42735
1694111101328125,-9.746301,0.49607,0.639295,0.1674,0.75347,0.48735
1694111101335937,-9.766301,0.55607,0.650295,0.7474,0.79147,0.50635
1694111101343750,-9.861301,0.43607,0.684295,0.1826,0.79647,0.53735
1694111101351562,-9.957301,0.41607,0.672295,0.8026,0.76547,0.52235
1694111101359375,-9.975301,0.72607,0.648295,0.9426,0.89647,0.50535
1694111101367187,-9.941301,0.110607,0.576295,0.6126,0.93047,0.45535
1694111101375000,-9.899301,0.157607,0.495295,0.10726,0.91447,0.37535
1694111101382812,-9.899301,0.197607,0.407295,0.8926,0.96347,0.29535
1694111101390625,-9.916301,0.246607,0.396295,0.10326,0.115747,0.26235
1694111101398437,-9.911301,0.275607,0.429295,0.8926,0.99447,0.26335
1694111101406250,-9.875301,0.275607,0.407295,0.6874,0.83647,0.29235
1694111101414062,-9.835301,0.269607,0.380295,0.12874,0.79547,0.24635
1694111101421875,-9.788301,0.235607,0.371295,0.25374,0.61847,0.26135
1694111101429687,-9.753301,0.202607,0.398295,0.50574,0.53947,0.24135
1694111101437500,-9.754301,0.149607,0.436295,0.58274,0.42247,0.27435
1694111101445312,-9.772301,0.88607,0.461295,0.72074,0.23747,0.26035
1694111101453125,-9.791301,0.37607,0.508295,0.93474,0.13447,0.37335
1694111101460937,-9.809301,0.5393,0.535295,0.102874,0.247,0.34035
1694111101468750,-9.830301,0.18393,0.564295,0.112674,0.10053,0.35235
1694111101476562,-9.859301,0.23393,0.596295,0.103174,0.17053,0.29135
1694111101484375,-9.873301,0.7607,0.659295,0.92374,0.16753,0.25935
1694111101492187,-9.895301,0.31607,0.711295,0.90974,0.16553,0.22635
1694111101500000,-9.894301,0.71607,0.711295,0.80074,0.18253,0.14735
1694111101507812,-9.893301,0.129607,0.697295,0.53574,0.11853,0.7035
1694111101515625,-9.881301,0.158607,0.652295,0.45774,0.2947,0.8635
1694111101523437,-9.890301,0.191607,0.569295,0.38174,0.17647,0.3735
1694111101531250,-9.908301,0.199607,0.490295,0.36674,0.39847,0.5765
1694111101539062,-9.901301,0.204607,0.434295,0.37274,0.54147,0.9565
1694111101546875,-9.865301,0.218607,0.389295,0.24274,0.62647,0.7365
1694111101554687,-9.822301,0.232607,0.405295,0.19974,0.66747,0.7665
1694111101562500,-9.779301,0.241607,0.492295,0.24374,0.58147,0.5865
1694111101570312,-9.745301,0.222607,0.522295,0.49574,0.67647,0.12565
1694111101578125,-9.719301,0.176607,0.459295,0.79374,0.66547,0.6665
1694111101585937,-9.716301,0.131607,0.393295,0.95074,0.65047,0.5265
1694111101593750,-9.741301,0.80607,0.387295,0.112374,0.66847,0.3965
1694111101601562,-9.744301,0.38607,0.474295,0.109074,0.64647,0.2065
1694111101609375,-9.742301,0.25607,0.564295,0.115674,0.68247,0.11965
1694111101617187,-9.744301,0.27607,0.614295,0.117074,0.54947,0.13465
1694111101625000,-9.755301,0.13607,0.591295,0.118474,0.36647,0.14765
1694111101632812,-9.771301,0.15607,0.544295,0.115574,0.40347,0.18165
1694111101640625,-9.794301,0.15607,0.501295,0.115674,0.38947,0.18265
1694111101648437,-9.803301,0.19607,0.488295,0.97174,0.42847,0.23165
1694111101656250,-9.803301,0.22607,0.481295,0.72174,0.44547,0.26165
1694111101664062,-9.845301,0.52607,0.461295,0.67374,0.62047,0.22765
1694111101671875,-9.874301,0.87607,0.452295,0.57774,0.61947,0.17765
1694111101679687,-9.878301,0.104607,0.436295,0.43274,0.66047,0.10865
1694111101687500,-9.848301,0.134607,0.427295,0.35674,0.68347,0.11065
1694111101695312,-9.799301,0.150607,0.416295,0.23274,0.75147,0.14265
1694111101703125,-9.774301,0.159607,0.405295,0.23274,0.63847,0.14265
1694111101710937,-9.790301,0.146607,0.391295,0.20074,0.65147,0.14065
1694111101718750,-9.797301,0.126607,0.402295,0.21674,0.60147,0.20465
1694111101726562,-9.788301,0.112607,0.436295,0.38674,0.50047,0.14065
1694111101734375,-9.788301,0.95607,0.443295,0.49674,0.45047,0.20565
1694111101742187,-9.784301,0.68607,0.468295,0.62374,0.40247,0.27165
1694111101750000,-9.793301,0.37607,0.479295,0.65174,0.38547,0.14265
1694111101757812,-9.801301,0.15393,0.506295,0.66874,0.37047,0.14365
1694111101765625,-9.817301,0.65393,0.542295,0.74174,0.39547,0.2865
1694111101773437,-9.805301,0.140393,0.553295,0.91974,0.38947,0.11565
1694111101781250,-9.804301,0.213393,0.521295,0.90074,0.37047,0.1765
1694111101789062,-9.800301,0.266393,0.519295,0.113674,0.50447,0.7435
1694111101796875,-9.796301,0.282393,0.521295,0.100774,0.69647,0.18835
1694111101804687,-9.820301,0.253393,0.571295,0.75874,0.93047,0.25235
1694111101812500,-9.803301,0.162393,0.657295,0.38474,0.109647,0.23935
1694111101820312,-9.806301,0.33393,0.765295,0.8526,0.122847,0.24335
1694111101828125,-9.831301,0.99607,0.837295,0.45826,0.119047,0.765
1694111101835937,-9.835301,0.236607,0.862295,0.76926,0.102947,0.11665
1694111101843750,-9.854301,0.302607,0.844295,0.78326,0.87847,0.30665
1694111101851562,-9.863301,0.336607,0.747295,0.56426,0.63047,0.43565
1694111101859375,-9.895301,0.315607,0.612295,0.37226,0.58347,0.53565
1694111101867187,-9.925301,0.259607,0.488295,0.23326,0.60347,0.39365
1694111101875000,-9.888301,0.204607,0.369295,0.7526,0.63947,0.38065
1694111101882812,-9.837301,0.143607,0.330295,0.0,0.76547,0.28465
1694111101890625,-9.858301,0.72607,0.364295,0.9374,0.78247,0.23765
1694111101898437,-9.864301,0.7393,0.425295,0.17474,0.93447,0.20865
1694111101906250,-9.860301,0.65393,0.472295,0.29774,0.71747,0.23965
1694111101914062,-9.821301,0.140393,0.445295,0.48574,0.65247,0.24165
1694111101921875,-9.786301,0.190393,0.380295,0.65874,0.57347,0.25965
1694111101929687,-9.799301,0.211393,0.328295,0.66974,0.60847,0.25565
1694111101937500,-9.809301,0.213393,0.353295,0.53174,0.61547,0.30465
1694111101945312,-9.769301,0.152393,0.463295,0.42274,0.64647,0.33465
1694111101953125,-9.712301,0.103393,0.569295,0.26574,0.67847,0.34865
1694111101960937,-9.691301,0.22393,0.636295,0.9674,0.67047,0.38265
1694111101968750,-9.719301,0.69607,0.659295,0.6126,0.62947,0.47365
1694111101976562,-9.758301,0.131607,0.684295,0.29526,0.63147,0.51965
1694111101984375,-9.795301,0.195607,0.724295,0.38826,0.55247,0.50365
1694111101992187,-9.792301,0.232607,0.729295,0.46926,0.41647,0.51565
1694111102000000,-9.756301,0.259607,0.709295,0.33126,0.36247,0.49865
1694111102007812,-9.757301,0.235607,0.630295,0.9326,0.30347,0.50365
1694111102015625,-9.762301,0.202607,0.508295,0.17174,0.30247,0.44265
1694111102023437,-9.767301,0.148607,0.393295,0.40574,0.46347,0.39665
1694111102031250,-9.786301,0.81607,0.330295,0.42274,0.69547,0.35165
1694111102039062,-9.789301,0.35607,0.366295,0.48774,0.79747,0.32265
1694111102046875,-9.790301,0.24393,0.477295,0.51674,0.74147,0.36765
1694111102054687,-9.826301,0.78393,0.564295,0.51474,0.64347,0.28665
1694111102062500,-9.852301,0.141393,0.627295,0.61974,0.47347,0.25165
1694111102070312,-9.844301,0.194393,0.659295,0.63674,0.23347,0.25265
1694111102078125,-9.838301,0.255393,0.663295,0.63674,0.9147,0.23765
1694111102085937,-9.812301,0.299393,0.632295,0.52474,0.9547,0.6065
1694111102093750,-9.819301,0.344393,0.578295,0.39474,0.10247,0.765
1694111102101562,-9.883301,0.365393,0.537295,0.19074,0.9047,0.5835
1694111102109375,-9.950301,0.366393,0.512295,0.2826,0.1247,0.9235
1694111102117187,-10.1301,0.325393,0.501295,0.27826,0.2053,0.3135
1694111102125000,-10.59301,0.257393,0.566295,0.51126,0.12853,0.0
1694111102132812,-10.71301,0.168393,0.603295,0.78126,0.30353,0.10365
1694111102140625,-10.60301,0.62393,0.573295,0.98426,0.58353,0.25965
1694111102148437,-10.52301,0.37607,0.513295,0.109126,0.64753,0.37165
1694111102156250,-10.44301,0.133607,0.423295,0.116826,0.71253,0.45165
1694111102164062,-9.998301,0.211607,0.378295,0.130426,0.71853,0.50165
1694111102171875,-9.900301,0.262607,0.364295,0.128926,0.70853,0.59565
1694111102179687,-9.799301,0.261607,0.346295,0.109726,0.62453,0.71265
1694111102187500,-9.705301,0.242607,0.267295,0.80026,0.64453,0.73065
1694111102195312,-9.670301,0.174607,0.164295,0.41826,0.43853,0.74065
1694111102203125,-9.662301,0.88607,0.141295,0.31226,0.43653,0.80065
1694111102210937,-9.663301,0.26607,0.220295,0.29526,0.41653,0.80265
1694111102218750,-9.671301,0.18393,0.317295,0.12326,0.58053,0.83565
1694111102226562,-9.698301,0.45393,0.346295,0.10626,0.77253,0.90065
1694111102234375,-9.699301,0.91393,0.317295,0.1874,0.83853,0.88465
1694111102242187,-9.683301,0.131393,0.247295,0.10874,0.89753,0.88165
1694111102250000,-9.688301,0.151393,0.245295,0.10974,0.77753,0.82065
1694111102257812,-9.702301,0.149393,0.285295,0.0,0.73153,0.83365
1694111102265625,-9.697301,0.132393,0.301295,0.2874,0.57153,0.73765
1694111102273437,-9.681301,0.85393,0.301295,0.17274,0.28553,0.67965
1694111102281250,-9.725301,0.16393,0.274295,0.15974,0.11853,0.68265
1694111102289062,-9.795301,0.55607,0.242295,0.17274,0.10953,0.66365
1694111102296875,-9.837301,0.134607,0.168295,0.22174,0.10747,0.61865
1694111102304687,-9.830301,0.183607,0.179295,0.39774,0.37547,0.57765
1694111102312500,-9.793301,0.228607,0.206295,0.62874,0.56547,0.43365
1694111102320312,-9.765301,0.264607,0.258295,0.73974,0.70047,0.40565
1694111102328125,-9.760301,0.293607,0.269295,0.101774,0.69347,0.32565
1694111102335937,-9.785301,0.274607,0.247295,0.120874,0.96047,0.29965
1694111102343750,-9.772301,0.248607,0.222295,0.144174,0.111747,0.23565
1694111102351562,-9.756301,0.230607,0.260295,0.157974,0.119447,0.15565
1694111102359375,-9.746301,0.175607,0.310295,0.169574,0.143447,0.17965
1694111102367187,-9.794301,0.110607,0.373295,0.184674,0.144147,0.6465
1694111102375000,-9.825301,0.39607,0.404295,0.196174,0.143647,0.10265
1694111102382812,-9.846301,0.7393,0.413295,0.213174,0.143147,0.8665
1694111102390625,-9.838301,0.49393,0.418295,0.216074,0.127247,0.4035
1694111102398437,-9.870301,0.112393,0.407295,0.217474,0.105947,0.5835
1694111102406250,-9.900301,0.157393,0.447295,0.204574,0.92247,0.7935
1694111102414062,-9.898301,0.177393,0.551295,0.194974,0.74647,0.16135
1694111102421875,-9.875301,0.174393,0.652295,0.186774,0.41547,0.16535
1694111102429687,-9.819301,0.169393,0.706295,0.172574,0.15547,0.16835
1694111102437500,-9.776301,0.159393,0.693295,0.167674,0.5547,0.20235
1694111102445312,-9.747301,0.161393,0.670295,0.158174,0.247,0.17335
1694111102453125,-9.738301,0.174393,0.657295,0.159474,0.3447,0.27035
1694111102460937,-9.763301,0.219393,0.612295,0.162774,0.14747,0.23735
1694111102468750,-9.814301,0.257393,0.564295,0.164474,0.23447,0.25035
1694111102476562,-9.881301,0.290393,0.501295,0.165974,0.41247,0.33035
1694111102484375,-9.948301,0.342393,0.411295,0.169274,0.51847,0.40635
1694111102492187,-9.975301,0.373393,0.280295,0.150874,0.71847,0.35735
1694111102500000,-9.957301,0.379393,0.224295,0.124374,0.94947,0.35835
1694111102507812,-9.919301,0.372393,0.247295,0.94674,0.117747,0.36035
1694111102515625,-9.885301,0.363393,0.334295,0.71374,0.119447,0.26635
1694111102523437,-9.858301,0.340393,0.393295,0.52474,0.117447,0.23835
1694111102531250,-9.844301,0.304393,0.422295,0.40074,0.119147,0.17535
1694111102539062,-9.843301,0.291393,0.429295,0.33674,0.103847,0.11435
1694111102546875,-9.841301,0.280393,0.409295,0.19774,0.92547,0.335
1694111102554687,-9.841301,0.278393,0.357295,0.14874,0.79047,0.2565
1694111102562500,-9.841301,0.289393,0.303295,0.16374,0.64547,0.2565
1694111102570312,-9.841301,0.274393,0.229295,0.15174,0.63147,0.13865
1694111102578125,-9.827301,0.244393,0.184295,0.17074,0.63647,0.18965
1694111102585937,-9.847301,0.220393,0.175295,0.7774,0.61947,0.26865
1694111102593750,-9.858301,0.189393,0.235295,0.12726,0.61847,0.23365
1694111102601562,-9.851301,0.174393,0.310295,0.1626,0.62147,0.23565
1694111102609375,-9.835301,0.158393,0.359295,0.1726,0.69647,0.29865
1694111102617187,-9.821301,0.149393,0.382295,0.4874,0.89647,0.30165
1694111102625000,-9.821301,0.131393,0.420295,0.12874,0.110947,0.32065
1694111102632812,-9.814301,0.122393,0.474295,0.16174,0.138747,0.30665
1694111102640625,-9.782301,0.108393,0.551295,0.17774,0.159747,0.32365
1694111102648437,-9.758301,0.117393,0.632295,0.19674,0.171547,0.38965
1694111102656250,-9.733301,0.123393,0.668295,0.22674,0.161147,0.43565
1694111102664062,-9.720301,0.138393,0.677295,0.38574,0.151447,0.53365
1694111102671875,-9.661301,0.153393,0.686295,0.54074,0.144347,0.56565
1694111102679687,-9.619301,0.161393,0.672295,0.63274,0.124647,0.54865
1694111102687500,-9.567301,0.145393,0.645295,0.66674,0.117347,0.53565
1694111102695312,-9.540301,0.122393,0.594295,0.67674,0.95947,0.34065
1694111102703125,-9.571301,0.118393,0.531295,0.65874,0.76447,0.25965
1694111102710937,-9.610301,0.141393,0.485295,0.66974,0.71247,0.14565
1694111102718750,-9.668301,0.153393,0.452295,0.62274,0.63747,0.3465
1694111102726562,-9.722301,0.163393,0.431295,0.58474,0.69747,0.17735
1694111102734375,-9.765301,0.161393,0.449295,0.44374,0.76547,0.25835
1694111102742187,-9.792301,0.151393,0.452295,0.31874,0.74747,0.18035
1694111102750000,-9.832301,0.129393,0.445295,0.28874,0.76547,0.16335
1694111102757812,-9.838301,0.93393,0.431295,0.17974,0.72147,0.21135
1694111102765625,-9.853301,0.56393,0.438295,0.24174,0.65447,0.19535
1694111102773437,-9.866301,0.39393,0.447295,0.36274,0.47047,0.26135
1694111102781250,-9.876301,0.41393,0.463295,0.34874,0.39347,0.26035
1694111102789062,-9.880301,0.50393,0.470295,0.50374,0.33747,0.21335
1694111102796875,-9.869301,0.74393,0.492295,0.64774,0.34047,0.11335
1694111102804687,-9.845301,0.116393,0.528295,0.66174,0.25647,0.16335
1694111102812500,-9.830301,0.160393,0.578295,0.78874,0.17747,0.11235
1694111102820312,-9.828301,0.189393,0.609295,0.86774,0.32147,0.3135
1694111102828125,-9.849301,0.200393,0.654295,0.90274,0.43747,0.5065
1694111102835937,-9.858301,0.203393,0.684295,0.91774,0.61247,0.6665
1694111102843750,-9.865301,0.220393,0.686295,0.91774,0.64547,0.6665
1694111102851562,-9.862301,0.191393,0.670295,0.90874,0.76447,0.23065
1694111102859375,-9.867301,0.189393,0.645295,0.80074,0.94447,0.27865
1694111102867187,-9.837301,0.176393,0.650295,0.73974,0.102447,0.37465
1694111102875000,-9.812301,0.164393,0.648295,0.67574,0.100647,0.34065
1694111102882812,-9.799301,0.153393,0.657295,0.67474,0.100647,0.29265
1694111102890625,-9.791301,0.128393,0.607295,0.63074,0.108647,0.42065
1694111102898437,-9.766301,0.106393,0.546295,0.45774,0.99247,0.38665
1694111102906250,-9.754301,0.64393,0.510295,0.37574,0.96747,0.35065
1694111102914062,-9.761301,0.46393,0.483295,0.33474,0.93347,0.40365
1694111102921875,-9.786301,0.30393,0.454295,0.38374,0.93347,0.50065
1694111102929687,-9.849301,0.67393,0.431295,0.52074,0.79847,0.38765
1694111102937500,-9.900301,0.136393,0.454295,0.64774,0.77147,0.37465
1694111102945312,-9.934301,0.222393,0.449295,0.87674,0.72647,0.32365
1694111102953125,-9.967301,0.286393,0.447295,0.120574,0.82747,0.23365
1694111102960937,-9.963301,0.344393,0.445295,0.137674,0.76047,0.20165
1694111102968750,-9.951301,0.390393,0.467295,0.142174,0.74647,0.4265
1694111102976562,-9.910301,0.405393,0.526295,0.137474,0.71547,0.2565
1694111102984375,-9.852301,0.411393,0.566295,0.119574,0.62347,0.4535
1694111102992187,-9.796301,0.399393,0.593295,0.107074,0.59647,0.12535
1694111103000000,-9.750301,0.352393,0.625295,0.78874,0.53847,0.22235
1694111103007812,-9.760301,0.296393,0.679295,0.63174,0.44047,0.20935
1694111103015625,-9.798301,0.228393,0.702295,0.55374,0.35847,0.16235
1694111103023437,-9.830301,0.160393,0.722295,0.34974,0.41147,0.25935
1694111103031250,-9.843301,0.80393,0.717295,0.50474,0.42447,0.25835
1694111103039062,-9.830301,0.25393,0.677295,0.39574,0.43947,0.21235
1694111103046875,-9.830301,0.19607,0.625295,0.42874,0.53547,0.14735
1694111103054687,-9.829301,0.43607,0.571295,0.41174,0.61247,0.10035
1694111103062500,-9.798301,0.44607,0.546295,0.46374,0.70247,0.4835
1694111103070312,-9.780301,0.17607,0.580295,0.59074,0.83347,0.4535
1694111103078125,-9.770301,0.26393,0.596295,0.71574,0.89547,0.1335
1694111103085937,-9.784301,0.88393,0.596295,0.81174,0.81747,0.565
1694111103093750,-9.792301,0.153393,0.542295,0.90274,0.69847,0.1965
1694111103101562,-9.784301,0.208393,0.503295,0.88774,0.71447,0.365
1694111103109375,-9.751301,0.261393,0.506295,0.72874,0.54747,0.1565
1694111103117187,-9.729301,0.294393,0.542295,0.72974,0.48747,0.1665
1694111103125000,-9.734301,0.320393,0.557295,0.66974,0.46147,0.265
1694111103132812,-9.754301,0.332393,0.566295,0.75874,0.38547,0.1565
1694111103140625,-9.775301,0.339393,0.596295,0.74574,0.40647,0.165
1694111103148437,-9.808301,0.304393,0.643295,0.74574,0.39047,0.1765
1694111103156250,-9.807301,0.268393,0.681295,0.75674,0.41547,0.6635
1694111103164062,-9.809301,0.242393,0.713295,0.67974,0.49147,0.17535
1694111103171875,-9.817301,0.195393,0.706295,0.70874,0.56447,0.16135
1694111103179687,-9.808301,0.166393,0.702295,0.64674,0.61747,0.20835
1694111103187500,-9.814301,0.126393,0.699295,0.61874,0.70047,0.14335
1694111103195312,-9.827301,0.100393,0.717295,0.45874,0.78047,0.24235
1694111103203125,-9.822301,0.64393,0.745295,0.36774,0.88547,0.24035
1694111103210937,-9.813301,0.46393,0.772295,0.30374,0.86547,0.24235
1694111103218750,-9.801301,0.29393,0.751295,0.22574,0.87647,0.14835
1694111103226562,-9.810301,0.15393,0.706295,0.32174,0.89447,0.9835
1694111103234375,-9.821301,0.13393,0.657295,0.20974,0.74747,0.14935
1694111103242187,-9.837301,0.13393,0.652295,0.15074,0.77347,0.16135
1694111103250000,-9.842301,0.20393,0.666295,0.15174,0.72647,0.12935
1694111103257812,-9.820301,0.44393,0.659295,0.33874,0.65747,0.11235
1694111103265625,-9.802301,0.82393,0.630295,0.41374,0.66347,0.8335
1694111103273437,-9.803301,0.128393,0.580295,0.44574,0.58447,0.8235
1694111103281250,-9.799301,0.168393,0.553295,0.52674,0.62047,0.3135
1694111103289062,-9.784301,0.188393,0.553295,0.62274,0.70347,0.265
1694111103296875,-9.750301,0.207393,0.587295,0.63874,0.75247,0.1965
1694111103304687,-9.732301,0.216393,0.623295,0.65174,0.71347,0.1665
1694111103312500,-9.703301,0.207393,0.621295,0.66974,0.63447,0.11365
1694111103320312,-9.700301,0.189393,0.645295,0.66874,0.69647,0.6465
1694111103328125,-9.698301,0.158393,0.684295,0.65474,0.69947,0.9865
1694111103335937,-9.720301,0.127393,0.708295,0.55974,0.68347,0.8065
1694111103343750,-9.746301,0.68393,0.731295,0.49674,0.68247,0.9565
1694111103351562,-9.761301,0.26393,0.740295,0.38974,0.70147,0.14365
1694111103359375,-9.771301,0.31607,0.760295,0.45174,0.64947,0.19165
1694111103367187,-9.768301,0.84607,0.756295,0.43574,0.61647,0.20665
1694111103375000,-9.779301,0.115607,0.731295,0.48074,0.59647,0.14165
1694111103382812,-9.812301,0.108607,0.702295,0.57574,0.66147,0.19165
1694111103390625,-9.860301,0.89607,0.677295,0.67274,0.76647,0.14765
1694111103398437,-9.897301,0.33607,0.659295,0.79874,0.78147,0.21265
1694111103406250,-9.923301,0.44393,0.621295,0.106174,0.82547,0.11765
1694111103414062,-9.929301,0.139393,0.600295,0.132674,0.90547,0.7265
1694111103421875,-9.946301,0.244393,0.569295,0.160574,0.92147,0.10135
1694111103429687,-9.956301,0.331393,0.546295,0.166674,0.90547,0.18135
1694111103437500,-9.946301,0.417393,0.578295,0.166574,0.85847,0.24535
1694111103445312,-9.918301,0.439393,0.663295,0.148074,0.86647,0.22735
1694111103453125,-9.857301,0.460393,0.778295,0.122774,0.76547,0.24835
1694111103460937,-9.803301,0.452393,0.861295,0.99374,0.70347,0.23435
1694111103468750,-9.787301,0.412393,0.875295,0.86674,0.60247,0.20535
1694111103476562,-9.790301,0.354393,0.864295,0.72474,0.48647,0.19235
1694111103484375,-9.836301,0.260393,0.843295,0.47474,0.38847,0.11535
1694111103492187,-9.868301,0.156393,0.841295,0.25274,0.39947,0.15235
1694111103500000,-9.882301,0.52393,0.864295,0.5274,0.37247,0.7235
1694111103507812,-9.859301,0.30607,0.875295,0.7326,0.39047,0.13735
1694111103515625,-9.842301,0.105607,0.846295,0.12126,0.43647,0.10635
1694111103523437,-9.825301,0.139607,0.756295,0.15326,0.46647,0.12435
1694111103531250,-9.794301,0.155607,0.657295,0.8626,0.55247,0.835
1694111103539062,-9.780301,0.157607,0.587295,0.10326,0.62947,0.565
1694111103546875,-9.799301,0.144607,0.558295,0.5774,0.68447,0.4265
1694111103554687,-9.808301,0.88607,0.551295,0.27574,0.79247,0.7565
1694111103562500,-9.802301,0.41607,0.560295,0.49674,0.74447,0.11065
1694111103570312,-9.815301,0.18393,0.573295,0.67074,0.61747,0.16165
1694111103578125,-9.838301,0.76393,0.591295,0.87074,0.51047,0.14465
1694111103585937,-9.862301,0.156393,0.614295,0.98174,0.43347,0.13065
1694111103593750,-9.822301,0.218393,0.659295,0.115174,0.30047,0.9865
1694111103601562,-9.771301,0.259393,0.688295,0.119974,0.22347,0.10065
1694111103609375,-9.756301,0.296393,0.681295,0.135674,0.28947,0.8665
1694111103617187,-9.763301,0.321393,0.659295,0.121374,0.18947,0.3565
1694111103625000,-9.760301,0.314393,0.666295,0.111774,0.38147,0.3035
1694111103632812,-9.760301,0.301393,0.706295,0.96074,0.49847,0.9435
1694111103640625,-9.771301,0.266393,0.753295,0.89674,0.64447,0.19135
1694111103648437,-9.784301,0.239393,0.796295,0.91174,0.64147,0.16035
1694111103656250,-9.792301,0.184393,0.803295,0.85274,0.76247,0.14135
1694111103664062,-9.789301,0.113393,0.826295,0.75874,0.86147,0.15835
1694111103671875,-9.788301,0.66393,0.832295,0.68074,0.86447,0.20635
1694111103679687,-9.781301,0.15393,0.830295,0.63474,0.89747,0.15835
1694111103687500,-9.762301,0.18607,0.826295,0.45974,0.90747,0.16235
1694111103695312,-9.761301,0.60607,0.812295,0.39774,0.87647,0.14635
1694111103703125,-9.773301,0.69607,0.781295,0.38274,0.76547,0.16235
1694111103710937,-9.775301,0.55607,0.733295,0.39874,0.70147,0.14635
1694111103718750,-9.785301,0.28607,0.709295,0.39774,0.60147,0.14735
1694111103726562,-9.776301,0.4393,0.697295,0.53874,0.51347,0.3535
1694111103734375,-9.770301,0.37393,0.675295,0.66674,0.55447,0.7935
1694111103742187,-9.743301,0.83393,0.663295,0.66474,0.52947,0.235
1694111103750000,-9.731301,0.118393,0.657295,0.77774,0.61647,0.3365
1694111103757812,-9.735301,0.147393,0.645295,0.77674,0.62947,0.6465
1694111103765625,-9.724301,0.158393,0.684295,0.86974,0.59847,0.165
1694111103773437,-9.727301,0.163393,0.726295,0.80874,0.64547,0.8165
1694111103781250,-9.691301,0.135393,0.760295,0.82774,0.66847,0.11665
1694111103789062,-9.685301,0.102393,0.799295,0.65274,0.56747,0.9665
1694111103796875,-9.658301,0.55393,0.810295,0.68474,0.63047,0.12865
1694111103804687,-9.684301,0.1607,0.830295,0.51274,0.51647,0.20665
1694111103812500,-9.723301,0.67607,0.814295,0.42074,0.42147,0.25465
1694111103820312,-9.754301,0.113607,0.841295,0.40674,0.40847,0.27165
1694111103828125,-9.789301,0.150607,0.866295,0.45074,0.38547,0.25265
1694111103835937,-9.825301,0.163607,0.853295,0.67074,0.40047,0.27165
1694111103843750,-9.861301,0.152607,0.823295,0.89174,0.45647,0.21265
1694111103851562,-9.882301,0.131607,0.796295,0.98074,0.59447,0.13065
1694111103859375,-9.905301,0.93607,0.751295,0.115374,0.56447,0.10165
1694111103867187,-9.930301,0.44607,0.718295,0.120174,0.64947,0.3965
1694111103875000,-9.929301,0.10393,0.693295,0.120274,0.67147,0.965
1694111103882812,-9.912301,0.50393,0.722295,0.129574,0.68447,0.965
1694111103890625,-9.872301,0.114393,0.726295,0.139274,0.71847,0.9165
1694111103898437,-9.835301,0.151393,0.720295,0.140774,0.65247,0.7565
1694111103906250,-9.799301,0.184393,0.720295,0.141974,0.56647,0.2465
1694111103914062,-9.759301,0.181393,0.717295,0.145474,0.53747,0.10765
1694111103921875,-9.729301,0.183393,0.722295,0.137274,0.40247,0.7165
1694111103929687,-9.723301,0.185393,0.744295,0.126174,0.33747,0.2165
1694111103937500,-9.745301,0.188393,0.758295,0.116374,0.26647,0.4635
1694111103945312,-9.763301,0.177393,0.814295,0.103874,0.22447,0.11035
1694111103953125,-9.801301,0.182393,0.862295,0.95474,0.21147,0.14835
1694111103960937,-9.830301,0.169393,0.886295,0.89574,0.17647,0.19235
1694111103968750,-9.853301,0.153393,0.880295,0.87974,0.17847,0.27235
1694111103976562,-9.866301,0.151393,0.855295,0.84874,0.24547,0.28735
1694111103984375,-9.888301,0.125393,0.841295,0.70474,0.36847,0.29135
1694111103992187,-9.897301,0.88393,0.837295,0.64474,0.40647,0.29035
1694111104000000,-9.905301,0.79393,0.848295,0.56774,0.42447,0.24235
1694111104007812,-9.928301,0.110393,0.839295,0.61674,0.55747,0.25535
1694111104015625,-9.938301,0.146393,0.801295,0.66174,0.56647,0.22535
1694111104023437,-9.966301,0.193393,0.792295,0.77274,0.61747,0.17535
1694111104031250,-9.991301,0.242393,0.778295,0.75674,0.69947,0.22335
1694111104039062,-9.992301,0.302393,0.765295,0.69174,0.85647,0.25735
1694111104046875,-9.968301,0.335393,0.742295,0.61674,0.91047,0.23935
1694111104054687,-9.955301,0.384393,0.735295,0.52274,0.89647,0.25635
1694111104062500,-9.933301,0.432393,0.724295,0.38174,0.78347,0.24235
1694111104070312,-9.905301,0.460393,0.724295,0.19374,0.73847,0.25935
1694111104078125,-9.885301,0.476393,0.729295,0.7074,0.67547,0.21135
1694111104085937,-9.875301,0.442393,0.722295,0.22726,0.67247,0.15235
1694111104093750,-9.875301,0.425393,0.688295,0.30826,0.47447,0.17135
1694111104101562,-9.885301,0.360393,0.627295,0.52726,0.39347,0.10935
1694111104109375,-9.900301,0.305393,0.593295,0.69926,0.32447,0.3335
1694111104117187,-9.926301,0.279393,0.587295,0.82426,0.25847,0.235
1694111104125000,-9.933301,0.272393,0.605295,0.84126,0.13147,0.6735
1694111104132812,-9.908301,0.265393,0.643295,0.74826,0.22947,0.14535
1694111104140625,-9.890301,0.227393,0.724295,0.82926,0.14647,0.22835
1694111104148437,-9.902301,0.181393,0.805295,0.84726,0.3553,0.24635
1694111104156250,-9.915301,0.132393,0.846295,0.86326,0.8553,0.21535
1694111104164062,-9.863301,0.81393,0.832295,0.81626,0.5553,0.16735
1694111104171875,-9.781301,0.35393,0.790295,0.59026,0.9647,0.3335
1694111104179687,-9.706301,0.7393,0.740295,0.35526,0.12547,0.3265
1694111104187500,-9.632301,0.22607,0.760295,0.20926,0.28947,0.16565
1694111104195312,-9.593301,0.36607,0.857295,0.9626,0.45647,0.21765
1694111104203125,-9.569301,0.48607,0.936295,0.4726,0.62147,0.25165
1694111104210937,-9.573301,0.61607,0.918295,0.4574,0.61447,0.33065
1694111104218750,-9.552301,0.85607,0.814295,0.12674,0.65247,0.33365
1694111104226562,-9.520301,0.103607,0.704295,0.15474,0.66247,0.29965
1694111104234375,-9.502301,0.124607,0.643295,0.3326,0.64947,0.26665
1694111104242187,-9.507301,0.142607,0.643295,0.9226,0.67647,0.23765
1694111104250000,-9.529301,0.152607,0.650295,0.8026,0.61547,0.28065
1694111104257812,-9.563301,0.143607,0.655295,0.326,0.42347,0.20165
1694111104265625,-9.608301,0.129607,0.652295,0.16974,0.38847,0.25165
1694111104273437,-9.646301,0.102607,0.623295,0.17074,0.37547,0.25265
1694111104281250,-9.673301,0.90607,0.546295,0.40474,0.25347,0.38065
1694111104289062,-9.687301,0.81607,0.490295,0.48274,0.12247,0.37965
1694111104296875,-9.719301,0.72607,0.490295,0.78374,0.453,0.48065
1694111104304687,-9.744301,0.33607,0.519295,0.99874,0.30253,0.43165
1694111104312500,-9.753301,0.9607,0.531295,0.120174,0.49853,0.40065
1694111104320312,-9.733301,0.12393,0.528295,0.140074,0.65253,0.35165
1694111104328125,-9.707301,0.23393,0.567295,0.141474,0.72653,0.19265
1694111104335937,-9.696301,0.40393,0.636295,0.139774,0.66253,0.9565
1694111104343750,-9.673301,0.40393,0.704295,0.141374,0.60853,0.1765
1694111104351562,-9.660301,0.33393,0.742295,0.131874,0.38053,0.7835
1694111104359375,-9.691301,0.42393,0.785295,0.115774,0.38653,0.13135
1694111104367187,-9.770301,0.28393,0.832295,0.115774,0.22253,0.17835
1694111104375000,-9.830301,0.16393,0.866295,0.104674,0.7953,0.21235
1694111104382812,-9.888301,0.8393,0.898295,0.97374,0.12147,0.12935
1694111104390625,-9.965301,0.13393,0.947295,0.92374,0.16747,0.19535
1694111104398437,-10.19301,0.54393,0.947295,0.116074,0.35247,0.25335
1694111104406250,-10.48301,0.137393,0.922295,0.130374,0.41947,0.23535
1694111104414062,-10.40301,0.207393,0.866295,0.141374,0.59847,0.24935
1694111104421875,-10.41301,0.259393,0.837295,0.141474,0.69647,0.23235
1694111104429687,-10.17301,0.305393,0.828295,0.133674,0.81147,0.24835
1694111104437500,-9.983301,0.331393,0.900295,0.114874,0.82747,0.23435
1694111104445312,-9.909301,0.314393,0.922295,0.96174,0.78447,0.25135
1694111104453125,-9.857301,0.287393,0.922295,0.75674,0.71347,0.19135
1694111104460937,-9.850301,0.255393,0.868295,0.46274,0.65347,0.11235
1694111104468750,-9.889301,0.214393,0.801295,0.32274,0.66847,0.1835
1694111104476562,-9.939301,0.188393,0.787295,0.7574,0.70547,0.7765
1694111104484375,-9.972301,0.167393,0.810295,0.8026,0.76247,0.21765
1694111104492187,-9.990301,0.156393,0.810295,0.7726,0.83347,0.26865
1694111104500000,-9.983301,0.138393,0.808295,0.3126,0.84647,0.26765
1694111104507812,-9.949301,0.157393,0.758295,0.10974,0.87847,0.28565
1694111104515625,-9.918301,0.168393,0.724295,0.14274,0.86747,0.25565
1694111104523437,-9.876301,0.198393,0.695295,0.7874,0.91147,0.26965
1694111104531250,-9.838301,0.253393,0.663295,0.0,0.94447,0.23665
1694111104539062,-9.821301,0.284393,0.625295,0.3326,0.97547,0.17165
1694111104546875,-9.826301,0.331393,0.589295,0.5126,0.98947,0.10565
1694111104554687,-9.833301,0.362393,0.562295,0.6626,0.88347,0.4365
1694111104562500,-9.836301,0.404393,0.535295,0.14526,0.86347,0.5765
1694111104570312,-9.829301,0.409393,0.519295,0.16326,0.73047,0.2365
1694111104578125,-9.804301,0.384393,0.515295,0.27326,0.66747,0.935
1694111104585937,-9.765301,0.325393,0.515295,0.36726,0.53947,0.565
1694111104593750,-9.729301,0.267393,0.481295,0.44626,0.36147,0.1235
1694111104601562,-9.723301,0.212393,0.481295,0.60426,0.29447,0.3135
1694111104609375,-9.729301,0.143393,0.492295,0.62126,0.20947,0.1735
1694111104617187,-9.728301,0.96393,0.522295,0.70026,0.17347,0.2865
1694111104625000,-9.752301,0.52393,0.571295,0.60326,0.13247,0.3265
1694111104632812,-9.765301,0.17393,0.627295,0.43326,0.13947,0.6365
1694111104640625,-9.794301,0.2607,0.670295,0.27626,0.12347,0.8165
1694111104648437,-9.796301,0.22607,0.742295,0.6626,0.13247,0.18465
1694111104656250,-9.760301,0.36607,0.801295,0.13874,0.14847,0.26765
1694111104664062,-9.723301,0.58607,0.828295,0.32574,0.19147,0.29965
1694111104671875,-9.688301,0.39607,0.823295,0.64074,0.27147,0.35165
1694111104679687,-9.659301,0.35607,0.826295,0.65574,0.28647,0.33465
1694111104687500,-9.618301,0.31607,0.846295,0.67074,0.28747,0.27165
1694111104695312,-9.611301,0.24607,0.844295,0.65374,0.28647,0.23865
1694111104703125,-9.643301,0.2607,0.808295,0.73174,0.24047,0.20865
1694111104710937,-9.718301,0.34393,0.745295,0.79174,0.16047,0.6465
1694111104718750,-9.793301,0.82393,0.672295,0.88574,0.20847,0.6465
1694111104726562,-9.821301,0.146393,0.625295,0.91474,0.20847,0.6335
1694111104734375,-9.833301,0.193393,0.643295,0.91274,0.24147,0.17535
1694111104742187,-9.838301,0.231393,0.654295,0.100574,0.22547,0.22335
1694111104750000,-9.834301,0.262393,0.663295,0.109974,0.29047,0.23735
1694111104757812,-9.859301,0.267393,0.654295,0.110074,0.37447,0.25235
1694111104765625,-9.864301,0.271393,0.607295,0.103874,0.41047,0.26735
1694111104773437,-9.861301,0.260393,0.589295,0.97374,0.46947,0.30235
1694111104781250,-9.854301,0.260393,0.585295,0.91174,0.50247,0.27135
1694111104789062,-9.836301,0.244393,0.605295,0.89674,0.42247,0.23835
1694111104796875,-9.817301,0.193393,0.648295,0.91274,0.37647,0.25335
1694111104804687,-9.805301,0.140393,0.731295,0.89474,0.28647,0.19335
1694111104812500,-9.831301,0.84393,0.835295,0.84774,0.14047,0.17835
1694111104820312,-9.817301,0.40393,0.936295,0.78874,0.11547,0.16035
1694111104828125,-9.772301,0.26393,0.979295,0.83174,0.5447,0.11635
1694111104835937,-9.731301,0.10393,0.922295,0.91274,0.10847,0.6435
1694111104843750,-9.725301,0.9393,0.803295,0.88574,0.13147,0.165
1694111104851562,-9.738301,0.34393,0.686295,0.71174,0.15947,0.1735
1694111104859375,-9.763301,0.55393,0.652295,0.63474,0.27447,0.1465
1694111104867187,-9.780301,0.90393,0.641295,0.58674,0.32347,0.1835
1694111104875000,-9.792301,0.128393,0.650295,0.65174,0.42147,0.6365
1694111104882812,-9.808301,0.146393,0.623295,0.65374,0.37347,0.14465
1694111104890625,-9.801301,0.177393,0.589295,0.59174,0.35347,0.25465
1694111104898437,-9.765301,0.181393,0.549295,0.43674,0.40647,0.23865
1694111104906250,-9.727301,0.189393,0.533295,0.40574,0.26247,0.22265
1694111104914062,-9.714301,0.187393,0.560295,0.40574,0.21347,0.27065
1694111104921875,-9.700301,0.187393,0.607295,0.49674,0.20847,0.22165
1694111104929687,-9.705301,0.198393,0.605295,0.70174,0.11447,0.19265
1694111104937500,-9.725301,0.200393,0.587295,0.79774,0.13247,0.27565
1694111104945312,-9.735301,0.221393,0.567295,0.90574,0.15947,0.24265
1694111104953125,-9.732301,0.194393,0.589295,0.91674,0.18947,0.9665
1694111104960937,-9.727301,0.163393,0.663295,0.92974,0.38147,0.0
1694111104968750,-9.699301,0.109393,0.733295,0.90074,0.37047,0.1435
1694111104976562,-9.694301,0.38393,0.781295,0.74274,0.27647,0.6435
1694111104984375,-9.715301,0.10607,0.799295,0.53874,0.19047,0.435
1694111104992187,-9.748301,0.71607,0.799295,0.39574,0.12047,0.765
1694111105000000,-9.781301,0.117607,0.803295,0.28774,0.14347,0.635
1694111105007812,-9.801301,0.144607,0.792295,0.30374,0.12547,0.4065
1694111105015625,-9.814301,0.163607,0.754295,0.35674,0.14847,0.18965
1694111105023437,-9.852301,0.163607,0.700295,0.49574,0.12447,0.22065
1694111105031250,-9.911301,0.129607,0.641295,0.68574,0.14247,0.27165
1694111105039062,-9.971301,0.50607,0.603295,0.90674,0.14847,0.21265
1694111105046875,-10.9301,0.58393,0.600295,0.117274,0.16447,0.16665
1694111105054687,-10.1301,0.169393,0.598295,0.156274,0.39047,0.7565
1694111105062500,-9.978301,0.278393,0.582295,0.166774,0.46447,0.2235
1694111105070312,-9.932301,0.368393,0.573295,0.167074,0.66747,0.8335
1694111105078125,-9.877301,0.429393,0.589295,0.159174,0.63647,0.11535
1694111105085937,-9.819301,0.459393,0.607295,0.132674,0.65147,0.2235
1694111105093750,-9.767301,0.447393,0.672295,0.115274,0.66347,0.2165
1694111105101562,-9.762301,0.403393,0.735295,0.99274,0.52747,0.0
1694111105109375,-9.788301,0.326393,0.794295,0.76274,0.43747,0.9765
1694111105117187,-9.798301,0.242393,0.801295,0.49274,0.39847,0.5965
1694111105125000,-9.830301,0.133393,0.794295,0.36874,0.38947,0.2865
1694111105132812,-9.828301,0.44393,0.787295,0.17974,0.32247,0.4165
1694111105140625,-9.850301,0.30607,0.783295,0.10174,0.34247,0.635
1694111105148437,-9.871301,0.74607,0.772295,0.14574,0.18847,0.935
1694111105156250,-9.891301,0.91607,0.729295,0.6474,0.15447,0.7635
1694111105164062,-9.911301,0.97607,0.697295,0.3474,0.22347,0.10635
1694111105171875,-9.921301,0.82607,0.661295,0.11374,0.25447,0.4135
1694111105179687,-9.901301,0.58607,0.634295,0.14874,0.30747,0.965
1694111105187500,-9.877301,0.25607,0.589295,0.14874,0.37347,0.635
1694111105195312,-9.850301,0.9393,0.582295,0.18174,0.34347,0.4365
1694111105203125,-9.842301,0.49393,0.567295,0.30774,0.25647,0.18665
1694111105210937,-9.834301,0.109393,0.544295,0.45174,0.30647,0.28565
1694111105218750,-9.830301,0.164393,0.521295,0.58074,0.35647,0.38465
1694111105226562,-9.825301,0.222393,0.515295,0.62574,0.29147,0.32065
1694111105234375,-9.801301,0.270393,0.533295,0.65774,0.24347,0.32165
1694111105242187,-9.776301,0.297393,0.562295,0.65474,0.19447,0.20865
1694111105250000,-9.743301,0.321393,0.580295,0.66774,0.13947,0.23765
1694111105257812,-9.727301,0.331393,0.600295,0.63474,0.5947,0.14065
1694111105265625,-9.754301,0.319393,0.602295,0.47674,0.7247,0.15365
1694111105273437,-9.803301,0.275393,0.627295,0.30374,0.12247,0.7165
1694111105281250,-9.883301,0.221393,0.654295,0.13174,0.12447,0.8665
1694111105289062,-9.913301,0.139393,0.663295,0.16474,0.11047,0.10465
1694111105296875,-9.925301,0.42393,0.663295,0.2426,0.1347,0.8565
1694111105304687,-9.903301,0.51607,0.650295,0.7026,0.6047,0.14865
1694111105312500,-9.900301,0.146607,0.607295,0.13126,0.2947,0.21265
1694111105320312,-9.885301,0.218607,0.585295,0.21126,0.12447,0.19565
1694111105328125,-9.833301,0.236607,0.573295,0.24226,0.14047,0.21165
1694111105335937,-9.802301,0.230607,0.560295,0.9926,0.12747,0.21365
1694111105343750,-9.798301,0.181607,0.562295,0.5574,0.253,0.16765
1694111105351562,-9.817301,0.112607,0.562295,0.24374,0.3653,0.16865
1694111105359375,-9.798301,0.26607,0.578295,0.49374,0.5353,0.15565
1694111105367187,-9.770301,0.35393,0.578295,0.63574,0.5253,0.17365
1694111105375000,-9.753301,0.88393,0.549295,0.80474,0.14053,0.12365
1694111105382812,-9.753301,0.137393,0.531295,0.85274,0.12153,0.12565
1694111105390625,-9.763301,0.192393,0.517295,0.77474,0.15053,0.10965
1694111105398437,-9.762301,0.232393,0.519295,0.69574,0.19553,0.235
1694111105406250,-9.753301,0.263393,0.521295,0.67874,0.13353,0.1265
1694111105414062,-9.760301,0.270393,0.517295,0.64774,0.13353,0.1265
1694111105421875,-9.773301,0.264393,0.481295,0.67574,0.20553,0.2235
1694111105429687,-9.791301,0.230393,0.458295,0.50574,0.8353,0.5335
1694111105437500,-9.810301,0.184393,0.467295,0.37974,0.1753,0.10235
1694111105445312,-9.818301,0.129393,0.474295,0.40974,0.2447,0.5635
1694111105453125,-9.825301,0.87393,0.467295,0.22274,0.353,0.8835
1694111105460937,-9.838301,0.71393,0.472295,0.17674,0.11647,0.15035
1694111105468750,-9.856301,0.54393,0.506295,0.15974,0.14647,0.16835
1694111105476562,-9.867301,0.43393,0.513295,0.12874,0.16147,0.13635
1694111105484375,-9.876301,0.54393,0.519295,0.14274,0.23847,0.15435
1694111105492187,-9.888301,0.83393,0.517295,0.16074,0.26147,0.16735
1694111105500000,-9.859301,0.103393,0.510295,0.14674,0.32647,0.10235
1694111105507812,-9.825301,0.118393,0.490295,0.19674,0.42447,0.1165
1694111105515625,-9.799301,0.146393,0.481295,0.30674,0.35847,0.2765
1694111105523437,-9.846301,0.189393,0.474295,0.44474,0.35147,0.535
1694111105531250,-9.885301,0.230393,0.494295,0.44774,0.35647,0.6165
1694111105539062,-9.854301,0.262393,0.533295,0.40174,0.37047,0.12465
1694111105546875,-9.826301,0.286393,0.546295,0.59274,0.39547,0.9765
1694111105554687,-9.821301,0.306393,0.524295,0.63574,0.43647,0.4665
1694111105562500,-9.835301,0.331393,0.485295,0.57774,0.47747,0.11465
1694111105570312,-9.860301,0.351393,0.488295,0.48074,0.58547,0.6365
1694111105578125,-9.838301,0.342393,0.508295,0.41874,0.64047,0.0
1694111105585937,-9.803301,0.326393,0.539295,0.20974,0.64847,0.8535
1694111105593750,-9.774301,0.297393,0.553295,0.14674,0.65247,0.16535
1694111105601562,-9.760301,0.270393,0.521295,0.5526,0.63647,0.8735
1694111105609375,-9.740301,0.261393,0.490295,0.5826,0.51847,0.12135
1694111105617187,-9.742301,0.252393,0.488295,0.16826,0.42247,0.13935
1694111105625000,-9.755301,0.254393,0.499295,0.24526,0.37447,0.10735
1694111105632812,-9.782301,0.261393,0.506295,0.23026,0.37147,0.6035
1694111105640625,-9.823301,0.271393,0.479295,0.7426,0.23747,0.2835
1694111105648437,-9.830301,0.280393,0.452295,0.26426,0.22247,0.12635
1694111105656250,-9.832301,0.273393,0.429295,0.35726,0.16347,0.19035
1694111105664062,-9.845301,0.242393,0.386295,0.34026,0.14547,0.9435
1694111105671875,-9.849301,0.225393,0.371295,0.37326,0.11147,0.12735
1694111105679687,-9.831301,0.196393,0.386295,0.48426,0.12447,0.11335
1694111105687500,-9.830301,0.158393,0.449295,0.43426,0.14147,0.0
1694111105695312,-9.830301,0.129393,0.494295,0.44926,0.12747,0.0
1694111105703125,-9.807301,0.102393,0.515295,0.39926,0.3147,0.9765
1694111105710937,-9.815301,0.51393,0.540295,0.30826,0.847,0.8065
1694111105718750,-9.801301,0.20393,0.551295,0.26026,0.3753,0.11365
1694111105726562,-9.809301,0.17607,0.549295,0.21226,0.10453,0.17765
1694111105734375,-9.824301,0.76607,0.549295,0.10426,0.14453,0.24065
1694111105742187,-9.797301,0.121607,0.535295,0.8426,0.29553,0.24465
1694111105750000,-9.762301,0.155607,0.537295,0.10226,0.38353,0.28965
1694111105757812,-9.760301,0.166607,0.544295,0.5474,0.48453,0.37065
1694111105765625,-9.792301,0.135607,0.540295,0.16474,0.57953,0.37165
1694111105773437,-9.831301,0.83607,0.504295,0.39974,0.59253,0.31165
1694111105781250,-9.836301,0.21607,0.483295,0.65174,0.60953,0.34665
1694111105789062,-9.788301,0.13393,0.459295,0.64974,0.52953,0.28165
1694111105796875,-9.775301,0.53393,0.411295,0.80674,0.41453,0.25265
1694111105804687,-9.786301,0.93393,0.366295,0.79174,0.35153,0.26865
1694111105812500,-9.816301,0.138393,0.328295,0.72974,0.39653,0.25265
1694111105820312,-9.821301,0.176393,0.323295,0.75874,0.43453,0.26665
1694111105828125,-9.833301,0.229393,0.339295,0.85174,0.41953,0.23465
1694111105835937,-9.826301,0.293393,0.348295,0.91574,0.48053,0.20465
1694111105843750,-9.797301,0.331393,0.303295,0.92774,0.45253,0.12265
1694111105851562,-9.773301,0.350393,0.274295,0.100774,0.33253,0.9465
1694111105859375,-9.790301,0.346393,0.260295,0.97274,0.25853,0.4365
1694111105867187,-9.819301,0.333393,0.260295,0.89874,0.23253,0.3065
1694111105875000,-9.812301,0.275393,0.298295,0.73974,0.28253,0.435
1694111105882812,-9.779301,0.206393,0.353295,0.58374,0.28053,0.1065
1694111105890625,-9.778301,0.137393,0.398295,0.45874,0.33353,0.7165
1694111105898437,-9.786301,0.75393,0.380295,0.38174,0.41353,0.16765
1694111105906250,-9.819301,0.9393,0.337295,0.44174,0.49553,0.7065
1694111105914062,-9.863301,0.22607,0.292295,0.50374,0.47153,0.18065
1694111105921875,-9.880301,0.53607,0.292295,0.44174,0.39453,0.24365
1694111105929687,-9.860301,0.62607,0.330295,0.62774,0.38053,0.22865
1694111105937500,-9.817301,0.61607,0.332295,0.78974,0.22853,0.28165
1694111105945312,-9.791301,0.57607,0.285295,0.91774,0.10953,0.31865
1694111105953125,-9.814301,0.16393,0.206295,0.99774,0.4147,0.25765
1694111105960937,-9.796301,0.4393,0.188295,0.107574,0.15447,0.25865
1694111105968750,-9.659301,0.0,0.152295,0.114074,0.30547,0.24565
1694111105976562,-9.886301,0.265393,0.229295,0.144174,0.95347,0.28365
1694111105984375,-9.854301,0.249393,0.330295,0.139174,0.64347,0.21665
1694111105992187,-9.849301,0.347393,0.343295,0.107674,0.9447,0.21165
1694111106000000,-9.757301,0.387393,0.348295,0.112474,0.6247,0.26065
1694111106007812,-9.677301,0.420393,0.231295,0.110474,0.8247,0.27165
1694111106015625,-9.675301,0.420393,0.105295,0.106274,0.38747,0.24565
1694111106023437,-9.722301,0.440393,0.80295,0.90574,0.69547,0.19665
1694111106031250,-9.742301,0.434393,0.98295,0.89074,0.75047,0.8565
1694111106039062,-9.747301,0.432393,0.168295,0.71674,0.81247,0.6665
1694111106046875,-9.747301,0.425393,0.204295,0.67074,0.83247,0.3565
1694111106054687,-9.791301,0.404393,0.217295,0.57674,0.91447,0.265
1694111106062500,-9.820301,0.384393,0.249295,0.41774,0.89747,0.6435
1694111106070312,-9.836301,0.373393,0.278295,0.32374,0.91747,0.12735
1694111106078125,-9.864301,0.340393,0.301295,0.21174,0.91447,0.14635
1694111106085937,-9.873301,0.320393,0.310295,0.19774,0.96747,0.17735
1694111106093750,-9.855301,0.298393,0.294295,0.8474,0.99347,0.18035
1694111106101562,-9.845301,0.247393,0.317295,0.2226,0.98347,0.19535
1694111106109375,-9.840301,0.211393,0.368295,0.28826,0.109947,0.19735
1694111106117187,-9.804301,0.186393,0.366295,0.35126,0.93347,0.15235
1694111106125000,-9.810301,0.164393,0.382295,0.46226,0.89747,0.12235
1694111106132812,-9.853301,0.158393,0.386295,0.56826,0.83847,0.2535
1694111106140625,-9.882301,0.170393,0.335295,0.50626,0.76547,0.8465
1694111106148437,-9.882301,0.159393,0.350295,0.49026,0.73247,0.8465
1694111106156250,-9.880301,0.159393,0.393295,0.48926,0.68147,0.18065
1694111106164062,-9.870301,0.134393,0.413295,0.39326,0.55347,0.29465
1694111106171875,-9.866301,0.132393,0.375295,0.33326,0.44847,0.29165
1694111106179687,-9.843301,0.133393,0.330295,0.32726,0.41047,0.39265
1694111106187500,-9.814301,0.135393,0.296295,0.23326,0.47047,0.44065
1694111106195312,-9.796301,0.148393,0.292295,0.15526,0.60147,0.37765
1694111106203125,-9.783301,0.175393,0.326295,0.11126,0.54947,0.34465
1694111106210937,-9.772301,0.190393,0.366295,0.7726,0.67047,0.28365
1694111106218750,-9.775301,0.203393,0.386295,0.9426,0.58947,0.26765
1694111106226562,-9.813301,0.206393,0.373295,0.2126,0.48447,0.13565
1694111106234375,-9.820301,0.235393,0.330295,0.11874,0.45347,0.5765
1694111106242187,-9.821301,0.273393,0.326295,0.5426,0.39047,0.2365
1694111106250000,-9.821301,0.289393,0.339295,0.5326,0.40947,0.865
1694111106257812,-9.810301,0.299393,0.353295,0.674,0.40847,0.10335
1694111106265625,-9.814301,0.309393,0.373295,0.12874,0.40347,0.15235
1694111106273437,-9.826301,0.300393,0.380295,0.11374,0.52047,0.21535
1694111106281250,-9.830301,0.291393,0.371295,0.1774,0.46647,0.18635
1694111106289062,-9.827301,0.264393,0.384295,0.10726,0.40547,0.23535
1694111106296875,-9.827301,0.220393,0.429295,0.16926,0.42447,0.25135
1694111106304687,-9.824301,0.184393,0.434295,0.23026,0.36347,0.21835
1694111106312500,-9.839301,0.149393,0.391295,0.15226,0.39247,0.18635
1694111106320312,-9.861301,0.123393,0.317295,0.7326,0.42547,0.16835
1694111106328125,-9.845301,0.114393,0.265295,0.18326,0.53547,0.13935
1694111106335937,-9.854301,0.94393,0.281295,0.6926,0.67047,0.7035
1694111106343750,-9.859301,0.112393,0.296295,0.774,0.65247,0.7035
1694111106351562,-9.850301,0.125393,0.317295,0.3774,0.63447,0.11935
1694111106359375,-9.841301,0.156393,0.335295,0.10074,0.58547,0.10235
1694111106367187,-9.844301,0.198393,0.339295,0.11674,0.56847,0.8635
1694111106375000,-9.841301,0.260393,0.328295,0.21074,0.55247,0.3735
1694111106382812,-9.826301,0.318393,0.296295,0.25774,0.47047,0.5335
1694111106390625,-9.800301,0.373393,0.280295,0.30374,0.48647,0.10135
1694111106398437,-9.794301,0.417393,0.289295,0.22474,0.56747,0.11835
1694111106406250,-9.787301,0.443393,0.328295,0.13174,0.47247,0.8635
1694111106414062,-9.778301,0.434393,0.350295,0.19374,0.51947,0.13435
1694111106421875,-9.792301,0.439393,0.330295,0.19374,0.50547,0.16535
1694111106429687,-9.830301,0.435393,0.289295,0.14574,0.49047,0.23035
1694111106437500,-9.875301,0.409393,0.276295,0.14574,0.50847,0.26135
1694111106445312,-9.903301,0.376393,0.294295,0.274,0.45647,0.24835
1694111106453125,-9.885301,0.334393,0.325295,0.7726,0.38947,0.28335
1694111106460937,-9.877301,0.276393,0.323295,0.26426,0.29447,0.26835
1694111106468750,-9.872301,0.229393,0.321295,0.34226,0.34447,0.26835
1694111106476562,-9.853301,0.189393,0.303295,0.18826,0.40247,0.30135
1694111106484375,-9.859301,0.163393,0.296295,0.18626,0.43747,0.25235
1694111106492187,-9.895301,0.139393,0.301295,0.13826,0.50647,0.26635
1694111106500000,-9.886301,0.119393,0.317295,0.29626,0.48347,0.22235
1694111106507812,-9.833301,0.80393,0.355295,0.12126,0.64747,0.15435
1694111106515625,-9.773301,0.82393,0.355295,0.8674,0.66647,0.535
1694111106523437,-9.737301,0.101393,0.326295,0.16374,0.77647,0.5435
1694111106531250,-9.726301,0.141393,0.281295,0.29174,0.86147,0.1835
1694111106539062,-9.717301,0.150393,0.283295,0.33774,0.85747,0.1265
1694111106546875,-9.711301,0.178393,0.330295,0.28874,0.65647,0.5665
1694111106554687,-9.677301,0.169393,0.382295,0.35274,0.63347,0.3535
1694111106562500,-9.664301,0.175393,0.413295,0.41374,0.46647,0.2035
1694111106570312,-9.675301,0.176393,0.355295,0.47574,0.38447,0.435
1694111106578125,-9.741301,0.190393,0.287295,0.65074,0.40547,0.1635
1694111106585937,-9.784301,0.219393,0.271295,0.64874,0.40247,0.5035
1694111106593750,-9.793301,0.220393,0.281295,0.70774,0.38447,0.16235
1694111106601562,-9.795301,0.215393,0.285295,0.87774,0.33147,0.19435
1694111106609375,-9.788301,0.195393,0.278295,0.89474,0.41747,0.25735
1694111106617187,-9.795301,0.186393,0.276295,0.91174,0.45347,0.23935
1694111106625000,-9.801301,0.173393,0.301295,0.94174,0.54647,0.25635
1694111106632812,-9.821301,0.158393,0.337295,0.88274,0.49147,0.23735
1694111106640625,-9.828301,0.142393,0.398295,0.97374,0.43647,0.25435
1694111106648437,-9.818301,0.131393,0.434295,0.106774,0.46747,0.23835
1694111106656250,-9.804301,0.82393,0.440295,0.106874,0.45147,0.22235
1694111106664062,-9.806301,0.47393,0.443295,0.102074,0.38747,0.23835
1694111106671875,-9.796301,0.2393,0.429295,0.88174,0.40547,0.20735
1694111106679687,-9.737301,0.27607,0.441295,0.92974,0.46947,0.15835
1694111106687500,-9.685301,0.56607,0.456295,0.88274,0.60047,0.15835
1694111106695312,-9.683301,0.63607,0.445295,0.96374,0.48547,0.2935
1694111106703125,-9.716301,0.60607,0.411295,0.107374,0.64347,0.1965
1694111106710937,-9.746301,0.35607,0.402295,0.118274,0.64347,0.465
1694111106718750,-9.763301,0.10393,0.377295,0.145374,0.69847,0.5865
1694111106726562,-9.788301,0.57393,0.323295,0.168874,0.76047,0.14065
1694111106734375,-9.841301,0.151393,0.276295,0.192474,0.82547,0.12865
1694111106742187,-9.885301,0.250393,0.247295,0.200074,0.87447,0.1665
1694111106750000,-9.859301,0.323393,0.285295,0.215674,0.88747,0.165
1694111106757812,-9.804301,0.377393,0.339295,0.210874,0.95447,0.6235
1694111106765625,-9.730301,0.398393,0.380295,0.213974,0.95847,0.17335
1694111106773437,-9.670301,0.413393,0.368295,0.218674,0.115347,0.20435
1694111106781250,-9.656301,0.391393,0.346295,0.201274,0.121647,0.23935
1694111106789062,-9.633301,0.346393,0.350295,0.177974,0.140047,0.22335
1694111106796875,-9.645301,0.290393,0.391295,0.165374,0.146247,0.24135
1694111106804687,-9.649301,0.230393,0.436295,0.153174,0.148747,0.22335
1694111106812500,-9.657301,0.144393,0.474295,0.121774,0.151547,0.16435
1694111106820312,-9.658301,0.66393,0.488295,0.117274,0.160047,0.14635
1694111106828125,-9.662301,0.13393,0.486295,0.107974,0.158647,0.14735
1694111106835937,-9.668301,0.19607,0.472295,0.104774,0.168347,0.17935
1694111106843750,-9.665301,0.39607,0.470295,0.110874,0.169747,0.19535
1694111106851562,-9.659301,0.24607,0.497295,0.105974,0.171647,0.35635
1694111106859375,-9.677301,0.17607,0.519295,0.112074,0.169647,0.37335
1694111106867187,-9.666301,0.12607,0.537295,0.113574,0.174747,0.45235
1694111106875000,-9.617301,0.15393,0.535295,0.116674,0.181147,0.43635
1694111106882812,-9.566301,0.43393,0.549295,0.115274,0.196447,0.51335
1694111106890625,-9.485301,0.61393,0.567295,0.117074,0.198147,0.44835
1694111106898437,-9.454301,0.99393,0.600295,0.115374,0.197847,0.43335
1694111106906250,-9.457301,0.136393,0.668295,0.118474,0.191247,0.41735
1694111106914062,-9.500301,0.177393,0.756295,0.132474,0.180747,0.35535
1694111106921875,-9.550301,0.202393,0.814295,0.141874,0.166347,0.33735
1694111106929687,-9.583301,0.192393,0.880295,0.126174,0.159947,0.35535
1694111106937500,-9.642301,0.199393,0.943295,0.119974,0.144147,0.37135
1694111106945312,-9.700301,0.160393,0.967295,0.106074,0.140847,0.27635
1694111106953125,-9.794301,0.139393,0.974295,0.87274,0.140847,0.27835
1694111106960937,-9.866301,0.120393,0.956295,0.69974,0.135747,0.24935
1694111106968750,-9.922301,0.119393,0.909295,0.61974,0.146747,0.26735
1694111106976562,-9.987301,0.113393,0.895295,0.47974,0.168847,0.39335
1694111106984375,-10.20301,0.101393,0.907295,0.25674,0.173147,0.44635
1694111106992187,-10.38301,0.81393,0.889295,0.16474,0.205947,0.46135
1694111107000000,-10.47301,0.61393,0.898295,0.15374,0.234247,0.40935
1694111107007812,-10.10301,0.25393,0.904295,0.1374,0.266647,0.42635
1694111107015625,-9.987301,0.19607,0.889295,0.6126,0.279747,0.31335
1694111107023437,-10.4301,0.65607,0.855295,0.9126,0.276647,0.23235
1694111107031250,-10.56301,0.80607,0.841295,0.19926,0.272047,0.20035
1694111107039062,-10.105301,0.104607,0.853295,0.22926,0.260747,0.13735
1694111107046875,-10.145301,0.116607,0.889295,0.23026,0.229047,0.365
1694111107054687,-10.129301,0.125607,0.925295,0.24626,0.207947,0.1865
1694111107062500,-10.86301,0.133607,0.959295,0.24726,0.170447,0.8065
1694111107070312,-10.46301,0.142607,0.986295,0.14226,0.127447,0.6165
1694111107078125,-10.19301,0.154607,0.968295,0.7474,0.90147,0.235
1694111107085937,-9.983301,0.128607,0.909295,0.15374,0.65647,0.4565
1694111107093750,-9.948301,0.93607,0.922295,0.24774,0.67647,0.3235
1694111107101562,-9.931301,0.20607,0.891295,0.59274,0.65547,0.5065
1694111107109375,-9.963301,0.42393,0.801295,0.87274,0.68347,0.3665
1694111107117187,-10.9301,0.102393,0.722295,0.95574,0.74047,0.7265
1694111107125000,-10.68301,0.159393,0.668295,0.95274,0.89747,0.2365
1694111107132812,-10.96301,0.202393,0.702295,0.90674,0.114147,0.3965
1694111107140625,-10.63301,0.239393,0.771295,0.76574,0.115647,0.3765
1694111107148437,-10.23301,0.254393,0.843295,0.51774,0.122947,0.2165
1694111107156250,-9.964301,0.250393,0.841295,0.39274,0.119647,0.5265
1694111107164062,-9.907301,0.214393,0.814295,0.21874,0.115947,0.9665
1694111107171875,-9.882301,0.170393,0.742295,0.12374,0.119047,0.7865
1694111107179687,-9.888301,0.125393,0.684295,0.0,0.130347,0.10965
1694111107187500,-9.894301,0.68393,0.666295,0.7826,0.132547,0.6265
1694111107195312,-9.877301,0.16393,0.695295,0.19126,0.125547,0.535
1694111107203125,-9.870301,0.7607,0.778295,0.28426,0.125847,0.1165
1694111107210937,-9.845301,0.39607,0.803295,0.34826,0.98047,0.865
1694111107218750,-9.836301,0.54607,0.792295,0.24026,0.91147,0.3965
1694111107226562,-9.854301,0.87607,0.742295,0.14326,0.77347,0.4365
1694111107234375,-9.884301,0.113607,0.691295,0.13226,0.65047,0.765
1694111107242187,-9.871301,0.129607,0.664295,0.1826,0.62747,0.4465
1694111107250000,-9.814301,0.157607,0.655295,0.12074,0.53547,0.13865
1694111107257812,-9.760301,0.160607,0.706295,0.26374,0.44547,0.9465
1694111107265625,-9.711301,0.143607,0.720295,0.41774,0.37447,0.10965
1694111107273437,-9.673301,0.112607,0.733295,0.55974,0.31047,0.11165
1694111107281250,-9.683301,0.83607,0.763295,0.66674,0.22447,0.6265
1694111107289062,-9.669301,0.52607,0.805295,0.78774,0.13847,0.335
1694111107296875,-9.665301,0.35607,0.857295,0.86874,0.12647,0.1565
1694111107304687,-9.643301,0.33607,0.877295,0.91174,0.4347,0.11335
1694111107312500,-9.645301,0.33607,0.871295,0.96074,0.3347,0.12635
1694111107320312,-9.676301,0.50607,0.826295,0.89474,0.5653,0.13135
1694111107328125,-9.706301,0.43607,0.801295,0.89374,0.6953,0.22635
1694111107335937,-9.728301,0.47607,0.814295,0.73774,0.9853,0.24335
1694111107343750,-9.757301,0.51607,0.875295,0.62474,0.10653,0.23135
1694111107351562,-9.762301,0.44607,0.922295,0.68674,0.7353,0.26335
1694111107359375,-9.753301,0.33607,0.927295,0.74974,0.5953,0.24635
1694111107367187,-9.739301,0.27607,0.889295,0.70374,0.12247,0.26135
1694111107375000,-9.729301,0.14607,0.846295,0.67574,0.16247,0.25835
1694111107382812,-9.749301,0.10393,0.810295,0.62574,0.20147,0.24635
1694111107390625,-9.785301,0.31393,0.812295,0.60874,0.28047,0.26335
1694111107398437,-9.793301,0.71393,0.821295,0.60974,0.38147,0.27735
1694111107406250,-9.796301,0.117393,0.848295,0.62774,0.40147,0.24435
1694111107414062,-9.785301,0.153393,0.875295,0.56274,0.26747,0.26335
1694111107421875,-9.766301,0.208393,0.864295,0.65674,0.15347,0.24635
1694111107429687,-9.757301,0.239393,0.832295,0.62474,0.15247,0.26335
1694111107437500,-9.753301,0.270393,0.807295,0.45274,0.13647,0.24935
1694111107445312,-9.739301,0.274393,0.816295,0.21474,0.29547,0.33335
1694111107453125,-9.732301,0.265393,0.886295,0.7274,0.40647,0.30335
1694111107460937,-9.748301,0.254393,0.940295,0.4626,0.41847,0.25135
1694111107468750,-9.757301,0.217393,0.994295,0.28226,0.43247,0.25535
1694111107476562,-9.758301,0.168393,-1.8295,0.40526,0.43247,0.12835
1694111107484375,-9.785301,0.137393,0.990295,0.52726,0.40447,0.1535
1694111107492187,-9.800301,0.97393,0.934295,0.58926,0.46647,0.3165
1694111107500000,-9.835301,0.60393,0.857295,0.68126,0.54447,0.15865
1694111107507812,-9.862301,0.27393,0.830295,0.86626,0.59847,0.23865
1694111107515625,-9.873301,0.19393,0.837295,0.83226,0.60147,0.27265
1694111107523437,-9.868301,0.14393,0.830295,0.84826,0.63247,0.27265
1694111107531250,-9.880301,0.30393,0.844295,0.80026,0.55047,0.36865
1694111107539062,-9.871301,0.61393,0.837295,0.69426,0.49647,0.30365
1694111107546875,-9.843301,0.129393,0.819295,0.55126,0.43347,0.33765
1694111107554687,-9.831301,0.202393,0.798295,0.41126,0.41547,0.32265
1694111107562500,-9.818301,0.275393,0.787295,0.36526,0.44447,0.35465
1694111107570312,-9.801301,0.328393,0.821295,0.37826,0.64847,0.29365
1694111107578125,-9.763301,0.339393,0.841295,0.36526,0.64147,0.27565
1694111107585937,-9.765301,0.323393,0.846295,0.37826,0.66447,0.24565
1694111107593750,-9.796301,0.306393,0.823295,0.39426,0.48447,0.32465
1694111107601562,-9.840301,0.251393,0.807295,0.42726,0.42847,0.35365
1694111107609375,-9.891301,0.170393,0.808295,0.36326,0.46447,0.33965
1694111107617187,-9.939301,0.106393,0.801295,0.44426,0.39247,0.38365
1694111107625000,-9.947301,0.29393,0.796295,0.51826,0.44847,0.45065
1694111107632812,-9.914301,0.31607,0.810295,0.52126,0.49247,0.38465
1694111107640625,-9.902301,0.93607,0.826295,0.42426,0.41547,0.45065
1694111107648437,-9.913301,0.122607,0.835295,0.21926,0.36947,0.47065
1694111107656250,-9.956301,0.146607,0.835295,0.11126,0.26847,0.45465
1694111107664062,-9.983301,0.156607,0.855295,0.7974,0.38647,0.47465
1694111107671875,-9.958301,0.141607,0.868295,0.39274,0.46247,0.55765
1694111107679687,-9.909301,0.129607,0.846295,0.57074,0.50147,0.65865
1694111107687500,-9.893301,0.100607,0.787295,0.67674,0.37947,0.64065
1694111107695312,-9.872301,0.47607,0.720295,0.91574,0.35447,0.71065
1694111107703125,-9.814301,0.8607,0.693295,0.93074,0.39847,0.75665
1694111107710937,-9.794301,0.24393,0.724295,0.107274,0.40047,0.72765
1694111107718750,-9.777301,0.93393,0.778295,0.117774,0.19647,0.72465
1694111107726562,-9.785301,0.153393,0.799295,0.141374,0.3747,0.69565
1694111107734375,-9.795301,0.226393,0.807295,0.150674,0.7353,0.63265
1694111107742187,-9.809301,0.268393,0.762295,0.145774,0.23853,0.59865
1694111107750000,-9.817301,0.299393,0.733295,0.153374,0.30253,0.48665
1694111107757812,-9.828301,0.331393,0.726295,0.140474,0.37053,0.38665
1694111107765625,-9.826301,0.315393,0.735295,0.124574,0.35353,0.28865
1694111107773437,-9.823301,0.277393,0.767295,0.107174,0.31853,0.14265
1694111107781250,-9.800301,0.226393,0.733295,0.97574,0.41853,0.12465
1694111107789062,-9.790301,0.177393,0.693295,0.88274,0.33653,0.15565
1694111107796875,-9.793301,0.93393,0.618295,0.77174,0.33553,0.10665
1694111107804687,-9.803301,0.26393,0.585295,0.74574,0.16753,0.22265
1694111107812500,-9.834301,0.45607,0.607295,0.66574,0.23753,0.25065
1694111107820312,-9.871301,0.109607,0.668295,0.74674,0.26953,0.33265
1694111107828125,-9.897301,0.146607,0.760295,0.105674,0.33853,0.28565
1694111107835937,-9.879301,0.171607,0.801295,0.127974,0.39653,0.30765
1694111107843750,-9.864301,0.149607,0.772295,0.163874,0.48353,0.35765
1694111107851562,-9.868301,0.111607,0.729295,0.174074,0.65553,0.19265
1694111107859375,-9.906301,0.35607,0.706295,0.191574,0.79653,0.21265
1694111107867187,-9.990301,0.56393,0.751295,0.191274,0.79753,0.9965
1694111107875000,-10.66301,0.135393,0.798295,0.209974,0.69953,0.565
1694111107882812,-10.121301,0.211393,0.825295,0.213074,0.51753,0.8835
1694111107890625,-10.155301,0.271393,0.805295,0.214674,0.45053,0.13535
1694111107898437,-10.183301,0.332393,0.733295,0.216074,0.40253,0.16735
1694111107906250,-10.163301,0.345393,0.666295,0.208374,0.28753,0.16735
1694111107914062,-10.145301,0.322393,0.663295,0.189574,0.14353,0.12135
1694111107921875,-10.147301,0.298393,0.654295,0.174174,0.4753,0.1135
1694111107929687,-10.182301,0.261393,0.623295,0.160574,0.9247,0.5665
1694111107937500,-10.204301,0.228393,0.648295,0.144974,0.17247,0.8665
1694111107945312,-10.172301,0.176393,0.675295,0.118574,0.42047,0.11865
1694111107953125,-10.104301,0.140393,0.744295,0.117174,0.48047,0.26165
1694111107960937,-10.9301,0.116393,0.774295,0.113974,0.44547,0.27565
1694111107968750,-9.922301,0.121393,0.729295,0.115774,0.38847,0.26265
1694111107976562,-9.857301,0.129393,0.697295,0.111074,0.24147,0.27765
1694111107984375,-9.805301,0.153393,0.661295,0.110874,0.23847,0.24365
1694111107992187,-9.763301,0.190393,0.639295,0.101274,0.19147,0.16265
1694111108000000,-9.726301,0.227393,0.618295,0.107674,0.11047,0.19565
1694111108007812,-9.693301,0.262393,0.580295,0.96574,0.8047,0.14665
1694111108015625,-9.662301,0.299393,0.521295,0.90274,0.9653,0.8165
1694111108023437,-9.664301,0.333393,0.481295,0.91374,0.13753,0.6165
1694111108031250,-9.645301,0.377393,0.422295,0.91274,0.24853,0.5035
1694111108039062,-9.627301,0.403393,0.377295,0.84974,0.39253,0.5035
1694111108046875,-9.636301,0.414393,0.332295,0.62674,0.46053,0.13535
1694111108054687,-9.648301,0.421393,0.303295,0.59274,0.57653,0.20135
1694111108062500,-9.661301,0.397393,0.256295,0.47874,0.77553,0.28535
1694111108070312,-9.676301,0.373393,0.247295,0.38874,0.68553,0.28335
1694111108078125,-9.666301,0.317393,0.258295,0.24274,0.79153,0.33635
1694111108085937,-9.632301,0.254393,0.283295,0.11874,0.88153,0.40035
1694111108093750,-9.612301,0.177393,0.305295,0.11574,0.90453,0.38635
1694111108101562,-9.598301,0.127393,0.296295,0.11874,0.102753,0.35235
1694111108109375,-9.582301,0.79393,0.278295,0.7026,0.116353,0.27635
1694111108117187,-9.576301,0.23393,0.281295,0.11726,0.114653,0.26135
1694111108125000,-9.603301,0.16607,0.321295,0.24326,0.127753,0.26335
1694111108132812,-9.613301,0.60607,0.350295,0.30726,0.133153,0.21835
1694111108140625,-9.644301,0.97607,0.418295,0.32226,0.141553,0.13935
1694111108148437,-9.624301,0.104607,0.474295,0.11426,0.145553,0.6935
1694111108156250,-9.581301,0.102607,0.495295,0.8526,0.155853,0.5535
1694111108164062,-9.552301,0.87607,0.508295,0.13074,0.167353,0.19835
1694111108171875,-9.546301,0.39607,0.468295,0.38174,0.167153,0.25935
1694111108179687,-9.595301,0.23393,0.416295,0.57374,0.137253,0.25335
1694111108187500,-9.662301,0.66393,0.389295,0.68074,0.118253,0.31735
1694111108195312,-9.733301,0.132393,0.350295,0.74474,0.104253,0.42535
1694111108203125,-9.761301,0.181393,0.330295,0.84274,0.87553,0.38935
1694111108210937,-9.784301,0.206393,0.362295,0.66674,0.79853,0.47335
1694111108218750,-9.818301,0.200393,0.413295,0.62074,0.78053,0.48835
1694111108226562,-9.896301,0.194393,0.499295,0.44974,0.79653,0.39435
1694111108234375,-9.970301,0.173393,0.564295,0.43374,0.81853,0.30035
1694111108242187,-10.12301,0.151393,0.632295,0.54374,0.76753,0.36235
1694111108250000,-9.985301,0.116393,0.609295,0.60674,0.63653,0.37635
1694111108257812,-9.942301,0.90393,0.526295,0.65774,0.40453,0.30835
1694111108265625,-9.887301,0.54393,0.429295,0.59574,0.37353,0.27735
1694111108273437,-9.873301,0.25393,0.371295,0.47274,0.10953,0.24435
1694111108281250,-9.850301,0.14607,0.434295,0.53474,0.16247,0.26035
1694111108289062,-9.829301,0.52607,0.555295,0.66374,0.38147,0.25435
1694111108296875,-9.847301,0.81607,0.652295,0.86374,0.43347,0.24135
1694111108304687,-9.856301,0.92607,0.715295,0.110174,0.30647,0.15735
1694111108312500,-9.856301,0.90607,0.693295,0.114674,0.19547,0.25235
1694111108320312,-9.854301,0.41607,0.639295,0.125574,0.3147,0.23635
1694111108328125,-9.855301,0.25393,0.587295,0.122174,0.13553,0.25535
1694111108335937,-9.863301,0.98393,0.499295,0.122274,0.8653,0.23935
1694111108343750,-9.878301,0.181393,0.449295,0.114274,0.9447,0.36735
1694111108351562,-9.917301,0.255393,0.398295,0.104774,0.14447,0.41635
1694111108359375,-9.929301,0.324393,0.321295,0.95474,0.12647,0.35335
1694111108367187,-9.919301,0.392393,0.247295,0.89374,0.12947,0.32035
1694111108375000,-9.900301,0.421393,0.188295,0.73874,0.14747,0.25735
1694111108382812,-9.857301,0.434393,0.170295,0.43974,0.12647,0.24635
1694111108390625,-9.800301,0.410393,0.199295,0.18874,0.14547,0.26535
1694111108398437,-9.773301,0.377393,0.224295,0.4726,0.6047,0.23735
1694111108406250,-9.768301,0.328393,0.244295,0.21826,0.11247,0.20535
1694111108414062,-9.758301,0.272393,0.235295,0.34326,0.1853,0.17535
1694111108421875,-9.735301,0.214393,0.242295,0.40326,0.12653,0.12635
1694111108429687,-9.693301,0.158393,0.267295,0.46626,0.17853,0.3235
1694111108437500,-9.681301,0.109393,0.283295,0.48026,0.16053,0.0
1694111108445312,-9.694301,0.67393,0.260295,0.41726,0.21053,0.0
1694111108453125,-9.730301,0.76393,0.269295,0.37126,0.15153,0.7965
1694111108460937,-9.728301,0.59393,0.308295,0.37026,0.9953,0.4965
1694111108468750,-9.685301,0.38393,0.330295,0.33926,0.13153,0.3365
1694111108476562,-9.678301,0.27393,0.346295,0.37026,0.1853,0.6565
1694111108484375,-9.707301,0.32393,0.314295,0.21226,0.9747,0.5265
1694111108492187,-9.745301,0.52393,0.263295,0.7326,0.17447,0.1135
1694111108500000,-9.793301,0.53393,0.265295,0.10226,0.40347,0.3765
1694111108507812,-9.821301,0.43393,0.328295,0.9026,0.36547,0.1235
1694111108515625,-9.862301,0.47393,0.362295,0.10326,0.37247,0.1035
1694111108523437,-9.889301,0.59393,0.366295,0.13326,0.24447,0.665
1694111108531250,-9.881301,0.79393,0.344295,0.12026,0.19047,0.1235
1694111108539062,-9.854301,0.81393,0.287295,0.8926,0.14147,0.1235
1694111108546875,-9.841301,0.116393,0.206295,0.13426,0.13347,0.4135
1694111108554687,-9.813301,0.113393,0.175295,0.17126,0.12047,0.7935
1694111108562500,-9.796301,0.117393,0.206295,0.9026,0.14447,0.9135
1694111108570312,-9.766301,0.101393,0.272295,0.10426,0.12847,0.4335
1694111108578125,-9.710301,0.67393,0.337295,0.7226,0.14947,0.8935
1694111108585937,-9.641301,0.15393,0.366295,0.5826,0.3753,0.1235
1694111108593750,-9.594301,0.11607,0.312295,0.4974,0.4053,0.365
1694111108601562,-9.576301,0.47607,0.200295,0.18174,0.3447,0.8965
1694111108609375,-9.609301,0.77607,0.116295,0.14974,0.14347,0.12065
1694111108617187,-9.653301,0.110607,0.107295,0.16574,0.35447,0.12165
1694111108625000,-9.671301,0.145607,0.161295,0.23074,0.40847,0.12465
1694111108632812,-9.675301,0.168607,0.242295,0.26274,0.43947,0.15665
1694111108640625,-9.656301,0.179607,0.265295,0.46474,0.35447,0.17365
1694111108648437,-9.693301,0.141607,0.308295,0.68774,0.42647,0.17865
1694111108656250,-9.747301,0.120607,0.330295,0.88974,0.35847,0.13165
1694111108664062,-9.775301,0.66607,0.285295,0.91874,0.32047,0.12965
1694111108671875,-9.816301,0.25607,0.247295,0.105874,0.25547,0.9865
1694111108679687,-9.830301,0.14393,0.206295,0.104074,0.28847,0.2935
1694111108687500,-9.829301,0.47393,0.206295,0.102474,0.40647,0.12435
1694111108695312,-9.825301,0.85393,0.215295,0.96274,0.48847,0.14035
1694111108703125,-9.830301,0.118393,0.211295,0.102674,0.50847,0.15435
1694111108710937,-9.808301,0.137393,0.215295,0.105774,0.49247,0.13835
1694111108718750,-9.794301,0.162393,0.242295,0.94774,0.62047,0.15535
1694111108726562,-9.799301,0.179393,0.287295,0.99774,0.67047,0.5735
1694111108734375,-9.806301,0.206393,0.278295,0.106074,0.65247,0.665
1694111108742187,-9.802301,0.195393,0.285295,0.112274,0.69947,0.665
1694111108750000,-9.790301,0.182393,0.292295,0.98374,0.76647,0.2265
1694111108757812,-9.783301,0.155393,0.321295,0.87474,0.73947,0.665
1694111108765625,-9.807301,0.124393,0.301295,0.88874,0.84347,0.8465
1694111108773437,-9.831301,0.94393,0.269295,0.79574,0.97447,0.8465
1694111108781250,-9.853301,0.58393,0.229295,0.71874,0.115547,0.10065
1694111108789062,-9.844301,0.23393,0.242295,0.56474,0.117447,0.14865
1694111108796875,-9.844301,0.5393,0.296295,0.51874,0.122247,0.19665
1694111108804687,-9.841301,0.16607,0.373295,0.53174,0.110247,0.22565
1694111108812500,-9.877301,0.34607,0.463295,0.64374,0.117247,0.22965
1694111108820312,-9.897301,0.9607,0.486295,0.73574,0.107247,0.19665
1694111108828125,-9.870301,0.3393,0.377295,0.92374,0.108847,0.18365
1694111108835937,-9.837301,0.52393,0.229295,0.114174,0.108547,0.16865
1694111108843750,-9.841301,0.116393,0.116295,0.103474,0.115547,0.18565
1694111108851562,-9.832301,0.153393,0.145295,0.97374,0.127447,0.13865
1694111108859375,-9.851301,0.180393,0.249295,0.89474,0.119547,0.10665
1694111108867187,-9.867301,0.203393,0.337295,0.86174,0.113047,0.4165
1694111108875000,-9.836301,0.225393,0.364295,0.85874,0.95947,0.8565
1694111108882812,-9.804301,0.226393,0.373295,0.76774,0.88147,0.18165
1694111108890625,-9.746301,0.225393,0.305295,0.75474,0.88447,0.23165
1694111108898437,-9.690301,0.227393,0.199295,0.69074,0.91547,0.19765
1694111108906250,-9.683301,0.233393,0.114295,0.54774,0.90947,0.24165
1694111108914062,-9.730301,0.252393,0.121295,0.25074,0.110647,0.20765
1694111108921875,-9.784301,0.237393,0.199295,0.19174,0.119447,0.25865
1694111108929687,-9.797301,0.219393,0.251295,0.19174,0.117447,0.30565
1694111108937500,-9.797301,0.197393,0.292295,0.25474,0.120947,0.27465
1694111108945312,-9.777301,0.170393,0.301295,0.32174,0.123547,0.31165
1694111108953125,-9.768301,0.161393,0.301295,0.39974,0.129747,0.32865
1694111108960937,-9.767301,0.146393,0.312295,0.36774,0.125947,0.37365
1694111108968750,-9.756301,0.150393,0.348295,0.29074,0.136147,0.37465
1694111108976562,-9.749301,0.110393,0.362295,0.22674,0.142047,0.40465
1694111108984375,-9.753301,0.99393,0.413295,0.16274,0.138247,0.44965
1694111108992187,-9.751301,0.101393,0.447295,0.18174,0.140547,0.46865
1694111109000000,-9.708301,0.80393,0.456295,0.16774,0.141047,0.45465
1694111109007812,-9.678301,0.67393,0.427295,0.6974,0.128747,0.46465
1694111109015625,-9.667301,0.66393,0.404295,0.626,0.117547,0.56165
1694111109023437,-9.665301,0.69393,0.402295,0.8426,0.101347,0.59165
1694111109031250,-9.715301,0.100393,0.393295,0.5326,0.93147,0.63965
1694111109039062,-9.680301,0.65393,0.377295,0.574,0.80847,0.65265
1694111109046875,-9.645301,0.106393,0.278295,0.24274,0.95747,0.65665
1694111109054687,-9.707301,0.151393,0.281295,0.41774,0.122447,0.59865
1694111109062500,-9.720301,0.174393,0.353295,0.41674,0.135347,0.50265
1694111109070312,-9.732301,0.187393,0.501295,0.41774,0.147347,0.44065
1694111109078125,-9.757301,0.221393,0.594295,0.44574,0.130647,0.37465
1694111109085937,-9.777301,0.226393,0.603295,0.56774,0.113947,0.32465
1694111109093750,-9.791301,0.248393,0.553295,0.50274,0.115447,0.25965
1694111109101562,-9.791301,0.268393,0.494295,0.40874,0.107647,0.21065
1694111109109375,-9.794301,0.264393,0.483295,0.39274,0.125847,0.11565
1694111109117187,-9.782301,0.228393,0.548295,0.34674,0.145547,0.8465
1694111109125000,-9.741301,0.194393,0.616295,0.28374,0.144147,0.6865
1694111109132812,-9.711301,0.149393,0.645295,0.18674,0.143847,0.165
1694111109140625,-9.706301,0.116393,0.630295,0.15874,0.145547,0.11465
1694111109148437,-9.721301,0.76393,0.636295,0.14574,0.168847,0.8565
1694111109156250,-9.745301,0.28393,0.695295,0.3026,0.167847,0.9565
1694111109164062,-9.771301,0.15607,0.758295,0.9126,0.155247,0.16065
1694111109171875,-9.798301,0.53607,0.783295,0.7826,0.138947,0.7865
1694111109179687,-9.838301,0.76607,0.767295,0.6274,0.125747,0.9565
1694111109187500,-9.883301,0.64607,0.686295,0.21674,0.103947,0.12565
1694111109195312,-9.897301,0.22607,0.591295,0.40274,0.113747,0.0
1694111109203125,-9.891301,0.21393,0.528295,0.59374,0.114647,0.2635
1694111109210937,-9.897301,0.79393,0.481295,0.73474,0.137547,0.10335
1694111109218750,-9.882301,0.165393,0.452295,0.92174,0.158647,0.19735
1694111109226562,-9.870301,0.232393,0.434295,0.101774,0.189547,0.16235
1694111109234375,-9.882301,0.267393,0.510295,0.106774,0.208147,0.15835
1694111109242187,-9.927301,0.288393,0.670295,0.111374,0.227447,0.20635
1694111109250000,-9.938301,0.277393,0.810295,0.113074,0.224347,0.17335
1694111109257812,-9.935301,0.268393,0.868295,0.112774,0.204147,0.16035
1694111109265625,-9.935301,0.266393,0.875295,0.108374,0.195147,0.12635
1694111109273437,-9.971301,0.271393,0.861295,0.92274,0.192347,0.13335
1694111109281250,-10.5301,0.271393,0.861295,0.86174,0.176347,0.3735
1694111109289062,-10.7301,0.273393,0.861295,0.78374,0.169947,0.5335
1694111109296875,-9.991301,0.260393,0.857295,0.71674,0.156147,0.10635
1694111109304687,-9.957301,0.255393,0.814295,0.65474,0.163247,0.16935
1694111109312500,-9.919301,0.232393,0.771295,0.75274,0.171747,0.6935
1694111109320312,-9.900301,0.199393,0.726295,0.53374,0.173047,0.765
1694111109328125,-9.907301,0.161393,0.690295,0.39374,0.179847,0.2265
1694111109335937,-9.944301,0.137393,0.740295,0.33074,0.176347,0.3765
1694111109343750,-9.980301,0.122393,0.790295,0.20474,0.168347,0.3565
1694111109351562,-9.984301,0.109393,0.839295,0.15774,0.168247,0.5065
1694111109359375,-9.978301,0.115393,0.844295,0.26674,0.165047,0.1135
1694111109367187,-9.949301,0.126393,0.805295,0.37874,0.166547,0.11765
1694111109375000,-9.911301,0.165393,0.733295,0.42774,0.178247,0.10465
1694111109382812,-9.896301,0.216393,0.668295,0.50574,0.176247,0.15165
1694111109390625,-9.933301,0.257393,0.681295,0.42674,0.193947,0.15065
1694111109398437,-9.951301,0.284393,0.731295,0.45974,0.200347,0.21565
1694111109406250,-9.953301,0.286393,0.778295,0.41274,0.190647,0.24665
1694111109414062,-9.899301,0.274393,0.785295,0.42874,0.184147,0.27865
1694111109421875,-9.821301,0.266393,0.749295,0.41374,0.176447,0.26365
1694111109429687,-9.809301,0.239393,0.684295,0.43174,0.170047,0.34465
1694111109437500,-9.826301,0.227393,0.643295,0.23974,0.170547,0.37065
1694111109445312,-9.833301,0.220393,0.630295,0.17974,0.153647,0.35665
1694111109453125,-9.815301,0.215393,0.652295,0.9974,0.143547,0.36965
1694111109460937,-9.779301,0.212393,0.702295,0.5274,0.128547,0.44865
1694111109468750,-9.759301,0.201393,0.749295,0.13074,0.120247,0.47965
1694111109476562,-9.755301,0.198393,0.778295,0.15074,0.103347,0.53165
1694111109484375,-9.759301,0.192393,0.828295,0.10074,0.106147,0.48165
1694111109492187,-9.754301,0.156393,0.817295,0.1126,0.83047,0.46165
1694111109500000,-9.758301,0.123393,0.801295,0.5626,0.72247,0.49465
1694111109507812,-9.780301,0.90393,0.781295,0.4426,0.56847,0.47565
1694111109515625,-9.824301,0.73393,0.792295,0.11026,0.46347,0.45465
1694111109523437,-9.847301,0.71393,0.841295,0.4826,0.20847,0.39265
1694111109531250,-9.842301,0.69393,0.868295,0.17174,0.11347,0.36265
1694111109539062,-9.861301,0.83393,0.850295,0.40374,0.1347,0.31565
1694111109546875,-9.874301,0.114393,0.794295,0.47774,0.10853,0.24865
1694111109554687,-9.898301,0.159393,0.756295,0.60474,0.5253,0.17365
1694111109562500,-9.918301,0.190393,0.767295,0.47874,0.1953,0.13965
1694111109570312,-9.932301,0.206393,0.792295,0.49174,0.5153,0.535
1694111109578125,-9.941301,0.212393,0.801295,0.50574,0.6553,0.10035
1694111109585937,-9.979301,0.222393,0.796295,0.42374,0.15053,0.16835
1694111109593750,-10.33301,0.203393,0.796295,0.42974,0.17353,0.8335
1694111109601562,-10.46301,0.183393,0.844295,0.39374,0.35853,0.15135
1694111109609375,-10.10301,0.158393,0.875295,0.45374,0.40153,0.7535
1694111109617187,-9.976301,0.151393,0.857295,0.51774,0.54653,0.2535
1694111109625000,-9.971301,0.138393,0.785295,0.62874,0.59353,0.765
1694111109632812,-9.980301,0.140393,0.749295,0.65974,0.57753,0.2465
1694111109640625,-9.974301,0.142393,0.744295,0.64374,0.56253,0.2365
1694111109648437,-9.972301,0.149393,0.751295,0.64374,0.54653,0.2365
1694111109656250,-9.951301,0.160393,0.753295,0.65674,0.60053,0.1035
1694111109664062,-9.932301,0.168393,0.717295,0.70774,0.65653,0.965
1694111109671875,-9.912301,0.210393,0.695295,0.73774,0.63953,0.3835
1694111109679687,-9.874301,0.258393,0.668295,0.82974,0.62653,0.8635
1694111109687500,-9.864301,0.296393,0.648295,0.88074,0.58753,0.6735
1694111109695312,-9.876301,0.331393,0.621295,0.89274,0.59253,0.14935
1694111109703125,-9.902301,0.396393,0.573295,0.81674,0.60353,0.11635
1694111109710937,-9.924301,0.421393,0.497295,0.76874,0.57353,0.11735
1694111109718750,-9.910301,0.408393,0.436295,0.70174,0.66253,0.13735
1694111109726562,-9.892301,0.385393,0.413295,0.64074,0.67553,0.13735
1694111109734375,-9.874301,0.354393,0.422295,0.62774,0.69053,0.2435
1694111109742187,-9.863301,0.353393,0.434295,0.61274,0.67053,0.3935
1694111109750000,-9.876301,0.360393,0.391295,0.65674,0.66053,0.7335
1694111109757812,-9.853301,0.356393,0.352295,0.64074,0.67753,0.7335
1694111109765625,-9.815301,0.340393,0.380295,0.65574,0.79153,0.10635
1694111109773437,-9.758301,0.303393,0.434295,0.65474,0.90253,0.18635
1694111109781250,-9.731301,0.287393,0.447295,0.63674,0.90453,0.23535
1694111109789062,-9.751301,0.292393,0.429295,0.65474,0.92253,0.12335
1694111109796875,-9.758301,0.272393,0.411295,0.60774,0.93353,0.18635
1694111109804687,-9.753301,0.243393,0.463295,0.35374,0.90653,0.24035
1694111109812500,-9.728301,0.227393,0.521295,0.27874,0.89653,0.26935
1694111109820312,-9.693301,0.194393,0.530295,0.21074,0.92653,0.25935
1694111109828125,-9.668301,0.155393,0.522295,0.13374,0.79153,0.27335
1694111109835937,-9.659301,0.117393,0.481295,0.15074,0.75953,0.24135
1694111109843750,-9.671301,0.62393,0.443295,0.13774,0.67553,0.15935
1694111109851562,-9.680301,0.13393,0.422295,0.12374,0.64153,0.11035
1694111109859375,-9.690301,0.14607,0.413295,0.4274,0.69553,0.16235
1694111109867187,-9.719301,0.20607,0.427295,0.9074,0.69353,0.14535
1694111109875000,-9.720301,0.3607,0.438295,0.12174,0.87453,0.9735
1694111109882812,-9.747301,0.14393,0.468295,0.13674,0.88753,0.17635
1694111109890625,-9.763301,0.55393,0.510295,0.32574,0.80553,0.15735
1694111109898437,-9.789301,0.117393,0.515295,0.43674,0.78753,0.15535
1694111109906250,-9.790301,0.161393,0.470295,0.59474,0.68853,0.12035
1694111109914062,-9.775301,0.208393,0.389295,0.68674,0.67653,0.13735
1694111109921875,-9.775301,0.217393,0.402295,0.77774,0.69853,0.20235
1694111109929687,-9.738301,0.197393,0.465295,0.66374,0.68753,0.30335
1694111109937500,-9.720301,0.189393,0.467295,0.63474,0.74553,0.28435
1694111109945312,-9.709301,0.165393,0.425295,0.65074,0.72653,0.34835
1694111109953125,-9.720301,0.127393,0.382295,0.55574,0.85653,0.36535
1694111109960937,-9.755301,0.72393,0.371295,0.39574,0.92253,0.48035
1694111109968750,-9.790301,0.20393,0.434295,0.39774,0.100153,0.43135
1694111109976562,-9.827301,0.19607,0.515295,0.47574,0.96853,0.41435
1694111109984375,-9.798301,0.53607,0.544295,0.67974,0.100153,0.42835
1694111109992187,-9.759301,0.82607,0.533295,0.89774,0.102553,0.36435
1694111110000000,-9.759301,0.102607,0.495295,0.104174,0.102253,0.29735
1694111110007812,-9.793301,0.77607,0.441295,0.106074,0.107853,0.29335
1694111110015625,-9.857301,0.32607,0.404295,0.112274,0.101653,0.26135
1694111110023437,-9.889301,0.30393,0.386295,0.118874,0.84953,0.24235
1694111110031250,-9.894301,0.99393,0.364295,0.138974,0.75953,0.25835
1694111110039062,-9.880301,0.170393,0.312295,0.148374,0.67953,0.24135
1694111110046875,-9.858301,0.223393,0.274295,0.165674,0.61053,0.30235
1694111110054687,-9.841301,0.278393,0.269295,0.161274,0.37953,0.25235
1694111110062500,-9.826301,0.320393,0.289295,0.147174,0.28353,0.26935
1694111110070312,-9.824301,0.333393,0.348295,0.123174,0.30353,0.37135
1694111110078125,-9.795301,0.355393,0.375295,0.112174,0.31653,0.45135
1694111110085937,-9.761301,0.372393,0.334295,0.99774,0.30153,0.38935
1694111110093750,-9.766301,0.394393,0.269295,0.84074,0.30153,0.39035
1694111110101562,-9.798301,0.379393,0.244295,0.73074,0.15553,0.39135
1694111110109375,-9.835301,0.347393,0.289295,0.54574,0.16653,0.35935
1694111110117187,-9.839301,0.275393,0.359295,0.37674,0.14553,0.26335
1694111110125000,-9.817301,0.202393,0.407295,0.26374,0.24953,0.28335
1694111110132812,-9.767301,0.108393,0.377295,0.13974,0.31153,0.26835
1694111110140625,-9.763301,0.51393,0.285295,0.15174,0.25653,0.25535
1694111110148437,-9.795301,0.31393,0.182295,0.12374,0.16653,0.26835
1694111110156250,-9.787301,0.0,0.179295,0.1626,0.8253,0.26835
1694111110164062,-9.789301,0.57607,0.276295,0.12326,0.8347,0.25135
1694111110171875,-9.765301,0.122607,0.409295,0.174,0.19247,0.21935
1694111110179687,-9.723301,0.182607,0.463295,0.13974,0.20047,0.17235
1694111110187500,-9.689301,0.241607,0.393295,0.19274,0.7647,0.835
1694111110195312,-9.671301,0.270607,0.263295,0.36674,0.7447,0.10465
1694111110203125,-9.684301,0.274607,0.168295,0.44674,0.5553,0.16965
1694111110210937,-9.716301,0.236607,0.159295,0.61874,0.3553,0.10865
1694111110218750,-9.737301,0.171607,0.195295,0.88374,0.10253,0.4665
1694111110226562,-9.747301,0.102607,0.209295,0.108474,0.9053,0.0
1694111110234375,-9.749301,0.4607,0.200295,0.120974,0.17053,0.4735
1694111110242187,-9.748301,0.90393,0.170295,0.139574,0.15453,0.12535
1694111110250000,-9.763301,0.170393,0.145295,0.164574,0.12353,0.18735
1694111110257812,-9.771301,0.253393,0.125295,0.161274,0.11947,0.25135
1694111110265625,-9.765301,0.328393,0.177295,0.139674,0.19347,0.26635
1694111110273437,-9.766301,0.361393,0.251295,0.123674,0.43347,0.39735
1694111110281250,-9.766301,0.361393,0.305295,0.108074,0.38847,0.39835
1694111110289062,-9.765301,0.337393,0.341295,0.85974,0.35047,0.37135
1694111110296875,-9.778301,0.292393,0.339295,0.75174,0.35547,0.35435
1694111110304687,-9.777301,0.228393,0.330295,0.54574,0.23647,0.35935
1694111110312500,-9.781301,0.155393,0.323295,0.40874,0.27447,0.24635
1694111110320312,-9.788301,0.80393,0.366295,0.39274,0.29047,0.27835
1694111110328125,-9.828301,0.20393,0.393295,0.40774,0.32347,0.32635
1694111110335937,-9.843301,0.21607,0.422295,0.26974,0.39247,0.26135
1694111110343750,-9.822301,0.59607,0.405295,0.34674,0.37447,0.26135
1694111110351562,-9.813301,0.83607,0.375295,0.41074,0.47247,0.26035
1694111110359375,-9.829301,0.74607,0.348295,0.56574,0.61847,0.33835
1694111110367187,-9.858301,0.47607,0.332295,0.73874,0.69947,0.36835
1694111110375000,-9.861301,0.9607,0.364295,0.81574,0.79647,0.41535
1694111110382812,-9.864301,0.34393,0.375295,0.89474,0.78547,0.49335
1694111110390625,-9.831301,0.76393,0.321295,0.90874,0.71747,0.49335
1694111110398437,-9.793301,0.111393,0.231295,0.89074,0.71347,0.51235
1694111110406250,-9.763301,0.161393,0.163295,0.72174,0.66747,0.41635
1694111110414062,-9.746301,0.217393,0.150295,0.58174,0.67947,0.27435
1694111110421875,-9.753301,0.261393,0.177295,0.42674,0.66547,0.24335
1694111110429687,-9.758301,0.301393,0.197295,0.39774,0.65547,0.22535
1694111110437500,-9.732301,0.332393,0.193295,0.41174,0.50147,0.16435
1694111110445312,-9.665301,0.353393,0.148295,0.41074,0.43447,0.16535
1694111110453125,-9.640301,0.381393,0.66295,0.38274,0.58447,0.9935
1694111110460937,-9.649301,0.402393,0.3295,0.27174,0.67647,0.5435
1694111110468750,-9.706301,0.431393,0.18705,0.18374,0.88147,0.235
1694111110476562,-9.760301,0.419393,0.28295,0.4274,0.84647,0.4365
1694111110484375,-9.788301,0.353393,0.145295,0.4174,0.95647,0.9065
1694111110492187,-9.791301,0.282393,0.269295,0.5874,0.106947,0.10665
1694111110500000,-9.813301,0.209393,0.362295,0.3126,0.115547,0.22065
1694111110507812,-9.859301,0.152393,0.382295,0.2926,0.110847,0.30165
1694111110515625,-9.896301,0.46393,0.416295,0.13826,0.115547,0.34865
