time,Acceleration X (m/s^2),Acceleration Y (m/s^2),Acceleration Z (m/s^2),Angular Velocity X (rad/s),Angular Velocity Y (rad/s),Angular Velocity Z (rad/s)
1694110381796875,-9.884025,-0.54124,,,,
1694110381804687,-9.879025,0.55624,0.397529,0.342,0.3712,0.12364
1694110381812500,-9.843025,0.57024,0.404529,0.265,0.3242,0.9164
1694110381820312,-9.809025,0.58524,0.427529,0.239,0.3142,0.2664
1694110381828125,-9.793025,0.58724,0.458529,0.313,0.2732,0.2036
1694110381835937,-9.791025,0.58924,0.505529,0.281,0.2892,0.1936
1694110381851562,-9.816025,0.59624,0.550529,0.398,0.4282,0.4036
1694110381859375,-9.812025,0.59624,0.526529,0.445,0.4792,0.564
1694110381867187,-9.800025,0.59124,0.505529,0.535,0.5202,0.936
1694110381875000,-9.789025,0.56924,0.498529,0.61,0.4672,0.2364
1694110381898437,-9.776025,0.54924,0.535529,0.707,0.4242,0.5364
1694110381906250,-9.765025,0.55224,0.557529,0.692,0.3742,0.564
1694110381914062,-9.769025,0.54724,0.555529,0.701,0.3502,0.5664
1694110381921875,-9.756025,0.53824,0.553529,0.752,0.3402,0.5464
1694110381929687,-9.758025,0.54224,0.555529,0.747,0.3972,0.7264
1694110381937500,-9.753025,0.54724,0.544529,0.8,0.3892,0.3764
1694110381945312,-9.769025,0.55624,0.541529,0.802,0.5082,0.6764
1694110381953125,-9.783025,0.55424,0.539529,0.852,0.4462,0.4964
1694110381960937,-9.788025,0.55724,0.535529,0.853,0.5792,0.9664
1694110381968750,-9.787025,0.57224,0.521529,0.885,0.5632,0.7964
1694110381976562,-9.791025,0.58724,0.508529,0.861,0.5202,0.13164
1694110381984375,-9.789025,0.57324,0.514529,0.847,0.5692,0.8364
1694110381992187,-9.790025,0.55824,0.535529,0.885,0.6072,0.6336
1694110382000000,-9.776025,0.54124,0.555529,0.869,0.6402,0.4736
1694110382007812,-9.763025,0.51424,0.530529,0.914,0.6052,0.1664
1694110382015625,-9.777025,0.49224,0.501529,0.928,0.6342,0.3036
1694110382023437,-9.777025,0.48524,0.465529,0.884,0.6572,0.1664
1694110382031250,-9.781025,0.48424,0.449529,0.939,0.6282,0.1236
1694110382039062,-9.797025,0.48924,0.449529,0.931,0.5232,0.7936
1694110382046875,-9.808025,0.48424,0.465529,0.862,0.3372,0.4236
1694110382054687,-9.811025,0.45624,0.519529,0.883,0.3762,0.9336
1694110382062500,-9.800025,0.46024,0.550529,0.835,0.4542,0.12436
1694110382070312,-9.782025,0.45824,0.537529,0.741,0.5192,0.10736
1694110382078125,-9.793025,0.47324,0.505529,0.723,0.5672,0.5936
1694110382085937,-9.795025,0.48624,0.483529,0.627,0.6942,0.2536
1694110382093750,-9.786025,0.49024,0.472529,0.634,0.6902,0.1336
1694110382101562,-9.772025,0.51224,0.460529,0.649,0.7062,0.264
1694110382109375,-9.776025,0.51824,0.476529,0.61,0.6122,0.764
1694110382117187,-9.776025,0.51824,0.499529,0.633,0.6362,0.9136
1694110382125000,-9.776025,0.52924,0.514529,0.505,0.6982,0.8936
1694110382132812,-9.774025,0.53124,0.519529,0.579,0.6432,0.5636
1694110382140625,-9.774025,0.54024,0.508529,0.616,0.7002,0.9136
1694110382148437,-9.783025,0.53224,0.492529,0.636,0.7552,0.11036
1694110382156250,-9.797025,0.53124,0.487529,0.617,0.7022,0.9236
1694110382164062,-9.810025,0.52924,0.467529,0.677,0.7142,0.5936
1694110382171875,-9.815025,0.52524,0.452529,0.797,0.8102,0.8236
1694110382179687,-9.821025,0.52424,0.454529,0.741,0.7982,0.2936
1694110382187500,-9.833025,0.52424,0.445529,0.711,0.6852,0.7736
1694110382195312,-9.826025,0.50924,0.429529,0.616,0.7002,0.10736
1694110382203125,-9.829025,0.48424,0.422529,0.663,0.7162,0.9236
1694110382210937,-9.831025,0.48224,0.413529,0.615,0.7142,0.9136
1694110382218750,-9.842025,0.46624,0.408529,0.629,0.6982,0.4236
1694110382226562,-9.849025,0.47724,0.393529,0.584,0.6842,0.4236
1694110382234375,-9.851025,0.47924,0.397529,0.633,0.7822,0.12436
1694110382242187,-9.833025,0.48824,0.386529,0.517,0.6922,0.11936
1694110382250000,-9.826025,0.48624,0.377529,0.58,0.6592,0.10436
1694110382257812,-9.817025,0.50524,0.370529,0.557,0.7042,0.14036
1694110382265625,-9.812025,0.50624,0.368529,0.597,0.6772,0.10536
1694110382273437,-9.808025,0.52124,0.361529,0.635,0.6402,0.7736
1694110382281250,-9.815025,0.51424,0.386529,0.623,0.6962,0.6336
1694110382289062,-9.808025,0.50624,0.404529,0.626,0.6802,0.3864
1694110382296875,-9.815025,0.50924,0.406529,0.599,0.6512,0.2636
1694110382304687,-9.817025,0.50924,0.431529,0.597,0.6002,0.2536
1694110382312500,-9.833025,0.51324,0.440529,0.57,0.5922,0.2064
1694110382320312,-9.830025,0.51724,0.429529,0.625,0.5472,0.764
1694110382328125,-9.826025,0.51924,0.435529,0.613,0.4692,0.7336
1694110382335937,-9.819025,0.51324,0.433529,0.616,0.4752,0.2636
1694110382343750,-9.804025,0.50924,0.447529,0.663,0.4912,0.1136
1694110382351562,-9.805025,0.52024,0.453529,0.721,0.4692,0.2264
1694110382359375,-9.803025,0.51324,0.469529,0.657,0.5002,0.764
1694110382367187,-9.810025,0.50424,0.463529,0.722,0.5202,0.5364
1694110382375000,-9.808025,0.50724,0.456529,0.805,0.6082,0.4964
1694110382382812,-9.808025,0.50524,0.445529,0.821,0.5912,0.164
1694110382390625,-9.808025,0.48224,0.431529,0.847,0.5992,0.364
1694110382398437,-9.817025,0.47124,0.411529,0.754,0.5832,0.2736
1694110382406250,-9.804025,0.47224,0.384529,0.71,0.5572,0.1236
1694110382414062,-9.796025,0.46324,0.375529,0.776,0.5792,0.1664
1694110382421875,-9.806025,0.46424,0.359529,0.783,0.5162,0.564
1694110382429687,-9.813025,0.45324,0.363529,0.847,0.5832,0.3564
1694110382437500,-9.847025,0.45024,0.363529,0.8,0.6002,0.2064
1694110382445312,-9.867025,0.46524,0.370529,0.673,0.4832,0.764
1694110382453125,-9.845025,0.47624,0.368529,0.633,0.5422,0.364
1694110382460937,-9.822025,0.48524,0.352529,0.618,0.5942,0.1964
1694110382468750,-9.800025,0.48524,0.348529,0.635,0.5442,0.2936
1694110382476562,-9.786025,0.48824,0.375529,0.602,0.5262,0.2736
1694110382484375,-9.797025,0.48724,0.406529,0.617,0.5572,0.5936
1694110382492187,-9.820025,0.48424,0.449529,0.599,0.6342,0.4236
1694110382500000,-9.822025,0.49724,0.438529,0.566,0.6652,0.936
1694110382507812,-9.832025,0.50824,0.420529,0.548,0.7252,0.8836
1694110382515625,-9.823025,0.50324,0.390529,0.595,0.6922,0.7236
1694110382523437,-9.805025,0.50424,0.388529,0.628,0.6942,0.7336
1694110382531250,-9.792025,0.48424,0.386529,0.579,0.6452,0.4036
1694110382539062,-9.788025,0.47624,0.402529,0.566,0.5832,0.2536
1694110382546875,-9.786025,0.46824,0.411529,0.562,0.5922,0.7036
1694110382554687,-9.781025,0.45524,0.408529,0.547,0.5772,0.8736
1694110382562500,-9.793025,0.44424,0.404529,0.561,0.5752,0.7036
1694110382570312,-9.813025,0.44624,0.390529,0.567,0.6002,0.8936
1694110382578125,-9.809025,0.44924,0.388529,0.556,0.6242,0.4436
1694110382585937,-9.805025,0.44724,0.368529,0.429,0.6222,0.4236
1694110382593750,-9.797025,0.44924,0.357529,0.408,0.5982,0.5536
1694110382601562,-9.802025,0.45524,0.379529,0.391,0.5472,0.6936
1694110382609375,-9.815025,0.47024,0.366529,0.36,0.5282,0.14936
1694110382617187,-9.817025,0.48024,0.361529,0.362,0.5162,0.10236
1694110382625000,-9.829025,0.48024,0.364529,0.385,0.6412,0.10636
1694110382632812,-9.822025,0.49124,0.370529,0.367,0.6202,0.13736
1694110382640625,-9.817025,0.48924,0.377529,0.38,0.5532,0.10336
1694110382648437,-9.808025,0.47924,0.359529,0.344,0.5942,0.8536
1694110382656250,-9.817025,0.48224,0.348529,0.363,0.6492,0.7136
1694110382664062,-9.829025,0.47524,0.345529,0.362,0.6802,0.8736
1694110382671875,-9.829025,0.47824,0.334529,0.38,0.6512,0.4036
1694110382679687,-9.831025,0.48024,0.323529,0.333,0.5882,0.4036
1694110382687500,-9.822025,0.46624,0.321529,0.376,0.6122,0.8636
1694110382695312,-9.828025,0.47324,0.327529,0.33,0.5962,0.13336
1694110382703125,-9.817025,0.46424,0.352529,0.375,0.4492,0.6936
1694110382710937,-9.822025,0.46424,0.377529,0.316,0.4692,0.11836
1694110382718750,-9.827025,0.46224,0.381529,0.349,0.5532,0.13536
1694110382726562,-9.829025,0.46724,0.361529,0.385,0.4932,0.15336
1694110382734375,-9.822025,0.47724,0.354529,0.347,0.5322,0.13436
1694110382742187,-9.824025,0.47724,0.352529,0.329,0.4342,0.6936
1694110382750000,-9.820025,0.46724,0.352529,0.38,0.4072,0.8736
1694110382757812,-9.818025,0.46624,0.368529,0.41,0.3872,0.13436
1694110382765625,-9.800025,0.44424,0.377529,0.41,0.5012,0.11936
1694110382773437,-9.798025,0.44724,0.393529,0.505,0.4872,0.8836
1694110382781250,-9.784025,0.44324,0.388529,0.445,0.5892,0.9036
1694110382789062,-9.778025,0.43524,0.382529,0.45,0.5302,0.12336
1694110382796875,-9.780025,0.43624,0.363529,0.505,0.5832,0.10436
1694110382804687,-9.794025,0.41824,0.379529,0.509,0.5732,0.13836
1694110382812500,-9.794025,0.40724,0.400529,0.429,0.5552,0.12136
1694110382820312,-9.796025,0.39824,0.402529,0.383,0.5732,0.10536
1694110382828125,-9.796025,0.39824,0.400529,0.365,0.5412,0.836
1694110382835937,-9.796025,0.40424,0.375529,0.296,0.5782,0.5236
1694110382843750,-9.789025,0.41624,0.359529,0.176,0.5392,0.3736
1694110382851562,-9.809025,0.43624,0.355529,0.13,0.5902,0.2564
1694110382859375,-9.814025,0.44724,0.357529,0.144,0.5232,0.1064
1694110382867187,-9.818025,0.46424,0.359529,0.8,0.4722,0.1936
1694110382875000,-9.820025,0.48924,0.366529,0.132,0.4802,0.636
1694110382882812,-9.810025,0.49824,0.381529,0.125,0.3732,0.2864
1694110382890625,-9.815025,0.51124,0.384529,0.111,0.3592,0.1264
1694110382898437,-9.806025,0.52024,0.391529,0.158,0.3432,0.1164
1694110382906250,-9.803025,0.50424,0.408529,0.185,0.3532,0.2964
1694110382914062,-9.817025,0.50724,0.413529,0.129,0.4102,0.1164
1694110382921875,-9.839025,0.50624,0.418529,0.235,0.4232,0.5964
1694110382929687,-9.852025,0.50324,0.393529,0.276,0.5532,0.13364
1694110382937500,-9.849025,0.49524,0.364529,0.314,0.5072,0.13764
1694110382945312,-9.833025,0.49824,0.343529,0.332,0.5272,0.13564
1694110382953125,-9.822025,0.49624,0.341529,0.317,0.4312,0.15264
1694110382960937,-9.804025,0.51224,0.348529,0.301,0.3632,0.7364
1694110382968750,-9.813025,0.51824,0.364529,0.363,0.3612,0.5764
1694110382976562,-9.797025,0.51624,0.391529,0.379,0.3442,0.736
1694110382984375,-9.799025,0.52524,0.413529,0.347,0.2972,0.8964
1694110382992187,-9.801025,0.52224,0.408529,0.358,0.3412,0.12264
1694110383000000,-9.787025,0.52524,0.402529,0.435,0.3222,0.13864
1694110383007812,-9.808025,0.52224,0.406529,0.403,0.4022,0.15564
1694110383015625,-9.815025,0.52724,0.402529,0.471,0.4432,0.15164
1694110383023437,-9.821025,0.51724,0.381529,0.451,0.4702,0.18564
1694110383031250,-9.839025,0.50224,0.386529,0.593,0.5022,0.16764
1694110383039062,-9.835025,0.49924,0.395529,0.589,0.4162,0.18564
1694110383046875,-9.828025,0.49124,0.390529,0.592,0.3882,0.16864
1694110383054687,-9.822025,0.47724,0.404529,0.59,0.5172,0.24864
1694110383062500,-9.815025,0.48224,0.400529,0.564,0.5232,0.16664
1694110383070312,-9.817025,0.48424,0.393529,0.438,0.5232,0.20064
1694110383078125,-9.804025,0.49424,0.409529,0.393,0.5092,0.15264
1694110383085937,-9.791025,0.51024,0.424529,0.366,0.4822,0.10264
1694110383093750,-9.817025,0.52024,0.424529,0.375,0.4082,0.16964
1694110383101562,-9.832025,0.52124,0.415529,0.356,0.4842,0.18764
1694110383109375,-9.848025,0.54424,0.393529,0.39,0.4202,0.7464
1694110383117187,-9.832025,0.55824,0.357529,0.426,0.4422,0.2364
1694110383125000,-9.799025,0.55824,0.357529,0.538,0.4112,0.2636
1694110383132812,-9.772025,0.55524,0.375529,0.496,0.3562,0.3564
1694110383140625,-9.778025,0.54224,0.413529,0.518,0.3872,0.3936
1694110383148437,-9.792025,0.53824,0.454529,0.588,0.4602,0.12336
1694110383156250,-9.801025,0.53324,0.469529,0.537,0.6182,0.7436
1694110383164062,-9.812025,0.53124,0.424529,0.571,0.6712,0.6036
1694110383171875,-9.823025,0.53124,0.377529,0.535,0.6982,0.936
1694110383179687,-9.817025,0.52224,0.343529,0.598,0.6862,0.6864
1694110383187500,-9.817025,0.51124,0.339529,0.503,0.5862,0.5564
1694110383195312,-9.804025,0.50124,0.346529,0.507,0.5452,0.6864
1694110383203125,-9.797025,0.50524,0.343529,0.441,0.4432,0.5564
1694110383210937,-9.797025,0.51124,0.359529,0.361,0.4552,0.2564
1694110383218750,-9.804025,0.50524,0.382529,0.381,0.3792,0.764
1694110383226562,-9.810025,0.52024,0.388529,0.36,0.3242,0.2664
1694110383234375,-9.823025,0.51724,0.390529,0.328,0.3382,0.1164
1694110383242187,-9.821025,0.53324,0.397529,0.373,0.3182,0.336
1694110383250000,-9.807025,0.53524,0.422529,0.324,0.3492,0.2964
1694110383257812,-9.805025,0.54324,0.431529,0.332,0.3932,0.864
1694110383265625,-9.803025,0.55124,0.427529,0.379,0.4432,0.2464
1694110383273437,-9.814025,0.55324,0.424529,0.423,0.4532,0.964
1694110383281250,-9.819025,0.55624,0.424529,0.417,0.5962,0.5936
1694110383289062,-9.823025,0.56024,0.404529,0.522,0.5902,0.1036
1694110383296875,-9.817025,0.56324,0.382529,0.497,0.5482,0.6036
1694110383304687,-9.814025,0.56424,0.352529,0.585,0.5872,0.9136
1694110383312500,-9.816025,0.54924,0.348529,0.569,0.5382,0.5836
1694110383320312,-9.824025,0.53424,0.361529,0.617,0.4772,0.4336
1694110383328125,-9.833025,0.52224,0.352529,0.535,0.4402,0.2364
1694110383335937,-9.826025,0.52524,0.339529,0.536,0.4262,0.664
1694110383343750,-9.826025,0.53224,0.321529,0.509,0.4162,0.464
1694110383351562,-9.828025,0.52024,0.328529,0.458,0.2782,0.2336
1694110383359375,-9.830025,0.53524,0.343529,0.488,0.2902,0.11936
1694110383367187,-9.817025,0.52724,0.393529,0.504,0.2432,0.7136
1694110383375000,-9.812025,0.53124,0.433529,0.471,0.1622,0.964
1694110383382812,-9.815025,0.53424,0.433529,0.413,0.2832,0.764
1694110383390625,-9.810025,0.53824,0.409529,0.378,0.3262,0.2236
1694110383398437,-9.805025,0.53624,0.379529,0.394,0.4062,0.3836
1694110383406250,-9.814025,0.54724,0.354529,0.489,0.3092,0.5536
1694110383414062,-9.812025,0.54424,0.348529,0.561,0.3032,0.2564
1694110383421875,-9.807025,0.54424,0.368529,0.596,0.2092,0.2336
1694110383429687,-9.819025,0.53124,0.399529,0.593,0.2072,0.2564
1694110383437500,-9.833025,0.53124,0.427529,0.614,0.1802,0.5636
1694110383445312,-9.826025,0.52724,0.431529,0.493,0.1692,0.8936
1694110383453125,-9.826025,0.53124,0.424529,0.39,0.1252,0.3536
1694110383460937,-9.808025,0.53324,0.402529,0.375,0.1762,0.2764
1694110383468750,-9.798025,0.54024,0.395529,0.423,0.1252,0.8436
1694110383476562,-9.789025,0.54224,0.415529,0.453,0.2072,0.536
1694110383484375,-9.792025,0.54124,0.420529,0.384,0.2522,0.8836
1694110383492187,-9.790025,0.54324,0.445529,0.363,0.3262,0.5436
1694110383500000,-9.792025,0.54324,0.454529,0.382,0.3462,0.7236
1694110383507812,-9.778025,0.55224,0.463529,0.364,0.3262,0.7036
1694110383515625,-9.781025,0.54824,0.474529,0.443,0.2802,0.2436
1694110383523437,-9.769025,0.54824,0.487529,0.397,0.2972,0.7236
1694110383531250,-9.765025,0.54524,0.503529,0.506,0.2782,0.8836
1694110383539062,-9.776025,0.54124,0.517529,0.507,0.2942,0.13636
1694110383546875,-9.783025,0.52724,0.503529,0.586,0.4372,0.21736
1694110383554687,-9.799025,0.52324,0.487529,0.571,0.4092,0.17036
1694110383562500,-9.804025,0.52524,0.476529,0.603,0.3452,0.15536
1694110383570312,-9.801025,0.51824,0.476529,0.631,0.3882,0.16936
1694110383578125,-9.797025,0.50724,0.465529,0.616,0.3082,0.13736
1694110383585937,-9.815025,0.50724,0.467529,0.636,0.3492,0.9236
1694110383593750,-9.797025,0.50724,0.476529,0.618,0.3952,0.10736
1694110383601562,-9.797025,0.52024,0.463529,0.583,0.3892,0.8836
1694110383609375,-9.793025,0.51524,0.461529,0.559,0.3842,0.7636
1694110383617187,-9.785025,0.51824,0.451529,0.617,0.4562,0.17036
1694110383625000,-9.790025,0.51924,0.447529,0.571,0.3782,0.9036
1694110383632812,-9.787025,0.53424,0.431529,0.6,0.3552,0.20136
1694110383640625,-9.785025,0.53624,0.445529,0.617,0.3412,0.18636
1694110383648437,-9.803025,0.52224,0.469529,0.524,0.3902,0.23336
1694110383656250,-9.815025,0.52224,0.465529,0.632,0.3722,0.21736
1694110383664062,-9.821025,0.51524,0.476529,0.57,0.4562,0.17036
1694110383671875,-9.806025,0.51824,0.485529,0.616,0.5032,0.13836
1694110383679687,-9.790025,0.51824,0.478529,0.587,0.4232,0.21836
1694110383687500,-9.793025,0.51224,0.481529,0.592,0.4622,0.25236
1694110383695312,-9.786025,0.51724,0.494529,0.638,0.4452,0.23736
1694110383703125,-9.775025,0.51224,0.503529,0.623,0.4312,0.20536
1694110383710937,-9.783025,0.51924,0.496529,0.621,0.4272,0.23636
1694110383718750,-9.788025,0.50724,0.501529,0.666,0.3732,0.26736
1694110383726562,-9.794025,0.51124,0.499529,0.693,0.3532,0.20136
1694110383734375,-9.804025,0.51624,0.478529,0.697,0.3762,0.22036
1694110383742187,-9.811025,0.50924,0.485529,0.778,0.4432,0.22236
1694110383750000,-9.820025,0.50324,0.485529,0.856,0.3822,0.12736
1694110383757812,-9.829025,0.49124,0.487529,0.839,0.4272,0.14236
1694110383765625,-9.849025,0.47924,0.503529,0.834,0.4842,0.14036
1694110383773437,-9.872025,0.47924,0.503529,0.854,0.5722,0.12636
1694110383781250,-9.869025,0.48824,0.485529,0.865,0.5172,0.10836
1694110383789062,-9.840025,0.50224,0.460529,0.884,0.6192,0.11036
1694110383796875,-9.817025,0.52224,0.451529,0.885,0.5042,0.22236
1694110383804687,-9.797025,0.52524,0.447529,0.899,0.4532,0.22136
1694110383812500,-9.800025,0.54624,0.467529,0.864,0.3512,0.17036
1694110383820312,-9.807025,0.55124,0.487529,0.862,0.3682,0.10636
1694110383828125,-9.819025,0.53324,0.481529,0.88,0.3702,0.12336
1694110383835937,-9.821025,0.52024,0.445529,0.837,0.3902,0.22136
1694110383843750,-9.811025,0.51624,0.429529,0.841,0.3492,0.15936
1694110383851562,-9.815025,0.50724,0.445529,0.882,0.3242,0.14036
1694110383859375,-9.797025,0.48924,0.465529,0.912,0.3202,0.17136
1694110383867187,-9.795025,0.48224,0.489529,0.974,0.2692,0.20336
1694110383875000,-9.799025,0.47824,0.514529,0.1054,0.3062,0.19036
1694110383882812,-9.805025,0.46524,0.530529,0.1059,0.2812,0.16036
1694110383890625,-9.812025,0.44524,0.539529,0.1122,0.3442,0.22536
1694110383898437,-9.816025,0.44324,0.537529,0.1122,0.3282,0.22536
1694110383906250,-9.816025,0.43824,0.528529,0.1135,0.3422,0.14436
1694110383914062,-9.818025,0.43324,0.512529,0.1119,0.4222,0.16036
1694110383921875,-9.820025,0.43024,0.514529,0.1129,0.3652,0.15736
1694110383929687,-9.818025,0.43024,0.501529,0.1098,0.4142,0.18936
1694110383937500,-9.812025,0.42224,0.494529,0.1072,0.4392,0.19136
1694110383945312,-9.812025,0.42124,0.503529,0.1074,0.3302,0.14436
1694110383953125,-9.798025,0.42724,0.501529,0.1027,0.3282,0.17536
1694110383960937,-9.791025,0.42924,0.487529,0.941,0.4152,0.15536
1694110383968750,-9.780025,0.42524,0.490529,0.96,0.4532,0.10936
1694110383976562,-9.780025,0.42224,0.499529,0.847,0.5152,0.9136
1694110383984375,-9.780025,0.41624,0.487529,0.884,0.5542,0.14236
1694110383992187,-9.792025,0.41424,0.474529,0.837,0.5232,0.9436
1694110384000000,-9.812025,0.41024,0.465529,0.871,0.5762,0.9636
1694110384007812,-9.826025,0.38924,0.469529,0.853,0.4742,0.14236
1694110384015625,-9.828025,0.37824,0.478529,0.742,0.3922,0.9236
1694110384023437,-9.812025,0.37124,0.492529,0.613,0.3232,0.7236
1694110384031250,-9.806025,0.36924,0.501529,0.632,0.3432,0.9036
1694110384039062,-9.812025,0.37124,0.503529,0.628,0.3212,0.7236
1694110384046875,-9.802025,0.35624,0.533529,0.65,0.3312,0.9136
1694110384054687,-9.797025,0.35424,0.512529,0.616,0.4072,0.10636
1694110384062500,-9.804025,0.35924,0.499529,0.604,0.4112,0.17136
1694110384070312,-9.799025,0.37224,0.478529,0.634,0.4252,0.18736
1694110384078125,-9.806025,0.36724,0.458529,0.445,0.4602,0.7336
1694110384085937,-9.799025,0.37424,0.456529,0.401,0.4462,0.13836
1694110384093750,-9.813025,0.37824,0.476529,0.399,0.3622,0.12036
1694110384101562,-9.817025,0.38924,0.481529,0.369,0.3952,0.20136
1694110384109375,-9.807025,0.38924,0.485529,0.378,0.2862,0.21336
1694110384117187,-9.794025,0.40324,0.494529,0.368,0.3112,0.21536
1694110384125000,-9.805025,0.42224,0.490529,0.381,0.2762,0.16636
1694110384132812,-9.798025,0.41224,0.517529,0.289,0.2622,0.23036
1694110384140625,-9.792025,0.40924,0.528529,0.224,0.3262,0.14936
1694110384148437,-9.796025,0.41224,0.526529,0.352,0.3462,0.13636
1694110384156250,-9.783025,0.40524,0.517529,0.319,0.4912,0.7136
1694110384164062,-9.796025,0.42324,0.510529,0.271,0.4732,0.11836
1694110384171875,-9.805025,0.40724,0.532529,0.349,0.5362,0.11936
1694110384179687,-9.814025,0.41324,0.544529,0.297,0.4982,0.8436
1694110384187500,-9.816025,0.41124,0.546529,0.207,0.4712,0.11736
1694110384195312,-9.800025,0.41124,0.550529,0.173,0.5002,0.6736
1694110384203125,-9.796025,0.41124,0.532529,0.205,0.4362,0.8436
1694110384210937,-9.785025,0.40524,0.535529,0.145,0.4902,0.6936
1694110384218750,-9.778025,0.40524,0.519529,0.19,0.5182,0.6836
1694110384226562,-9.781025,0.41924,0.526529,0.196,0.3812,0.8736
1694110384234375,-9.778025,0.43124,0.530529,0.281,0.3202,0.6736
1694110384242187,-9.791025,0.43124,0.526529,0.158,0.3872,0.9936
1694110384250000,-9.800025,0.43424,0.530529,0.303,0.3442,0.8636
1694110384257812,-9.803025,0.43824,0.535529,0.208,0.3282,0.6936
1694110384265625,-9.811025,0.44224,0.528529,0.33,0.3542,0.8536
1694110384273437,-9.816025,0.44224,0.530529,0.316,0.4382,0.7036
1694110384281250,-9.814025,0.43324,0.519529,0.347,0.4732,0.864
1694110384289062,-9.815025,0.43524,0.521529,0.373,0.5122,0.3636
1694110384296875,-9.814025,0.42724,0.499529,0.363,0.4872,0.3836
1694110384304687,-9.821025,0.41624,0.487529,0.379,0.5882,0.764
1694110384312500,-9.834025,0.41724,0.490529,0.363,0.5202,0.3936
1694110384320312,-9.832025,0.41524,0.483529,0.362,0.4712,0.2236
1694110384328125,-9.823025,0.42224,0.492529,0.332,0.4692,0.13436
1694110384335937,-9.813025,0.42424,0.503529,0.326,0.4452,0.8336
1694110384343750,-9.814025,0.42424,0.503529,0.221,0.3402,0.6836
1694110384351562,-9.795025,0.43124,0.510529,0.203,0.2712,0.8236
1694110384359375,-9.793025,0.43324,0.519529,0.28,0.3182,0.8336
1694110384367187,-9.795025,0.43524,0.546529,0.296,0.3342,0.6736
1694110384375000,-9.805025,0.42224,0.566529,0.376,0.3192,0.8436
1694110384382812,-9.809025,0.42824,0.575529,0.326,0.3322,0.6636
1694110384390625,-9.793025,0.42224,0.564529,0.39,0.3172,0.8436
1694110384398437,-9.795025,0.41924,0.559529,0.341,0.3322,0.6736
1694110384406250,-9.784025,0.43424,0.559529,0.426,0.3402,0.10236
1694110384414062,-9.802025,0.43524,0.559529,0.424,0.3852,0.11736
1694110384421875,-9.804025,0.44424,0.559529,0.53,0.3292,0.14836
1694110384429687,-9.791025,0.43624,0.562529,0.649,0.4072,0.18636
1694110384437500,-9.809025,0.42824,0.559529,0.609,0.3812,0.10236
1694110384445312,-9.814025,0.43124,0.562529,0.63,0.5012,0.13736
1694110384453125,-9.825025,0.40824,0.535529,0.598,0.5652,0.15336
1694110384460937,-9.845025,0.41024,0.508529,0.677,0.5502,0.13836
1694110384468750,-9.838025,0.42124,0.505529,0.72,0.4622,0.15236
1694110384476562,-9.809025,0.41724,0.503529,0.646,0.4332,0.21736
1694110384484375,-9.802025,0.41524,0.510529,0.678,0.4492,0.26536
1694110384492187,-9.800025,0.40424,0.525529,0.704,0.4582,0.23136
1694110384500000,-9.800025,0.41624,0.553529,0.648,0.4512,0.25036
1694110384507812,-9.782025,0.40724,0.541529,0.614,0.5462,0.24936
1694110384515625,-9.802025,0.42424,0.514529,0.729,0.5332,0.34836
1694110384523437,-9.794025,0.41424,0.487529,0.623,0.6722,0.27036
1694110384531250,-9.803025,0.40724,0.485529,0.774,0.6152,0.25236
1694110384539062,-9.807025,0.40524,0.503529,0.776,0.6502,0.26936
1694110384546875,-9.803025,0.39624,0.526529,0.727,0.6972,0.23636
1694110384554687,-9.787025,0.38724,0.553529,0.725,0.6442,0.25136
1694110384562500,-9.776025,0.37624,0.553529,0.633,0.5852,0.20336
1694110384570312,-9.768025,0.37024,0.557529,0.702,0.6422,0.23936
1694110384578125,-9.779025,0.35824,0.571529,0.709,0.6282,0.23436
1694110384585937,-9.779025,0.35924,0.566529,0.682,0.6362,0.22136
1694110384593750,-9.781025,0.35124,0.539529,0.677,0.6282,0.21836
1694110384601562,-9.792025,0.36524,0.532529,0.682,0.5872,0.20436
1694110384609375,-9.815025,0.35824,0.528529,0.716,0.6382,0.25436
1694110384617187,-9.819025,0.37324,0.528529,0.761,0.5702,0.23736
1694110384625000,-9.817025,0.37324,0.523529,0.699,0.6522,0.25336
1694110384632812,-9.819025,0.37624,0.526529,0.794,0.6722,0.19136
1694110384640625,-9.819025,0.37724,0.510529,0.722,0.5762,0.21736
1694110384648437,-9.821025,0.38524,0.512529,0.668,0.6052,0.25336
1694110384656250,-9.812025,0.37824,0.512529,0.821,0.5822,0.23736
1694110384664062,-9.801025,0.38324,0.517529,0.839,0.5702,0.25436
1694110384671875,-9.792025,0.37824,0.521529,0.835,0.5802,0.22036
1694110384679687,-9.801025,0.36324,0.526529,0.79,0.5542,0.17336
1694110384687500,-9.819025,0.36024,0.517529,0.868,0.5662,0.23736
1694110384695312,-9.830025,0.35424,0.507529,0.781,0.5402,0.16836
1694110384703125,-9.812025,0.34324,0.507529,0.856,0.4872,0.11936
1694110384710937,-9.804025,0.33524,0.519529,0.845,0.4292,0.12136
1694110384718750,-9.802025,0.32224,0.526529,0.737,0.3842,0.12136
1694110384726562,-9.801025,0.31924,0.537529,0.749,0.5422,0.7236
1694110384734375,-9.827025,0.31124,0.559529,0.738,0.6302,0.5936
1694110384742187,-9.809025,0.30624,0.548529,0.786,0.5642,0.12336
1694110384750000,-9.813025,0.31024,0.523529,0.797,0.5752,0.8936
1694110384757812,-9.818025,0.31824,0.501529,0.772,0.5852,0.7636
1694110384765625,-9.820025,0.30824,0.462529,0.782,0.5282,0.8936
1694110384773437,-9.811025,0.30924,0.456529,0.836,0.6032,0.9436
1694110384781250,-9.815025,0.30424,0.467529,0.828,0.5422,0.8936
1694110384789062,-9.822025,0.30224,0.485529,0.876,0.5282,0.7436
1694110384796875,-9.822025,0.29024,0.485529,0.858,0.5752,0.2536
1694110384804687,-9.815025,0.29224,0.465529,0.761,0.5712,0.736
1694110384812500,-9.804025,0.30124,0.453529,0.796,0.5732,0.8836
1694110384820312,-9.813025,0.30024,0.451529,0.817,0.6162,0.6036
1694110384828125,-9.818025,0.29324,0.453529,0.814,0.5772,0.7436
1694110384835937,-9.820025,0.30024,0.458529,0.801,0.6302,0.5936
1694110384843750,-9.829025,0.29524,0.456529,0.72,0.5962,0.4136
1694110384851562,-9.835025,0.28924,0.467529,0.681,0.5372,0.2664
1694110384859375,-9.834025,0.27524,0.487529,0.732,0.4932,0.864
1694110384867187,-9.820025,0.27324,0.490529,0.64,0.5452,0.736
1694110384875000,-9.802025,0.27324,0.481529,0.611,0.5462,0.7236
1694110384882812,-9.791025,0.27624,0.485529,0.626,0.5632,0.2436
1694110384890625,-9.784025,0.29124,0.489529,0.607,0.5282,0.2464
1694110384898437,-9.797025,0.29124,0.501529,0.608,0.5752,0.3936
1694110384906250,-9.799025,0.29724,0.519529,0.525,0.5232,0.1164
1694110384914062,-9.815025,0.30824,0.521529,0.449,0.5572,0.1164
1694110384921875,-9.813025,0.30524,0.503529,0.473,0.5062,0.2364
1694110384929687,-9.791025,0.32224,0.487529,0.423,0.4362,0.964
1694110384937500,-9.793025,0.30724,0.490529,0.375,0.4202,0.2664
1694110384945312,-9.792025,0.31024,0.494529,0.411,0.3532,0.1664
1694110384953125,-9.793025,0.31124,0.492529,0.512,0.3482,0.1164
1694110384960937,-9.795025,0.30424,0.489529,0.528,0.3162,0.1164
1694110384968750,-9.788025,0.30724,0.485529,0.437,0.4342,0.2664
1694110384976562,-9.779025,0.30524,0.463529,0.389,0.4322,0.1164
1694110384984375,-9.779025,0.30724,0.438529,0.373,0.3832,0.2764
1694110384992187,-9.779025,0.30724,0.440529,0.359,0.4512,0.536
1694110385000000,-9.779025,0.30524,0.453529,0.374,0.4492,0.3636
1694110385007812,-9.784025,0.30724,0.451529,0.404,0.4332,0.2764
1694110385015625,-9.786025,0.29624,0.454529,0.392,0.5512,0.964
1694110385023437,-9.796025,0.30324,0.445529,0.379,0.5882,0.2364
1694110385031250,-9.800025,0.30324,0.442529,0.393,0.6352,0.3964
1694110385039062,-9.789025,0.29824,0.436529,0.359,0.6502,0.13764
1694110385046875,-9.790025,0.31124,0.440529,0.373,0.5312,0.5864
1694110385054687,-9.806025,0.31724,0.465529,0.354,0.5912,0.6064
1694110385062500,-9.813025,0.31724,0.483529,0.357,0.5802,0.9064
1694110385070312,-9.817025,0.32124,0.487529,0.246,0.5432,0.2964
1694110385078125,-9.824025,0.31924,0.487529,0.341,0.5472,0.7564
1694110385085937,-9.811025,0.32424,0.490529,0.328,0.6312,0.4164
1694110385093750,-9.806025,0.33724,0.471529,0.371,0.6252,0.4364
1694110385101562,-9.817025,0.34624,0.467529,0.36,0.6642,0.4164
1694110385109375,-9.815025,0.35024,0.460529,0.42,0.6762,0.2564
1694110385117187,-9.817025,0.34224,0.478529,0.467,0.5782,0.964
1694110385125000,-9.831025,0.33124,0.476529,0.442,0.6702,0.2264
1694110385132812,-9.844025,0.32624,0.458529,0.455,0.6962,0.764
1694110385140625,-9.840025,0.32224,0.433529,0.443,0.7032,0.2264
1694110385148437,-9.822025,0.31524,0.429529,0.469,0.6132,0.964
1694110385156250,-9.797025,0.32624,0.429529,0.45,0.5922,0.2664
1694110385164062,-9.792025,0.32624,0.449529,0.449,0.6072,0.1164
1694110385171875,-9.793025,0.33224,0.460529,0.378,0.6682,0.2364
1694110385179687,-9.810025,0.33924,0.469529,0.374,0.6762,0.1064
1694110385187500,-9.826025,0.34624,0.447529,0.343,0.7912,0.636
1694110385195312,-9.833025,0.34824,0.424529,0.311,0.7092,0.1064
1694110385203125,-9.851025,0.36224,0.409529,0.316,0.6542,0.4064
1694110385210937,-9.837025,0.37324,0.402529,0.311,0.5802,0.2764
1694110385218750,-9.831025,0.36724,0.415529,0.332,0.6042,0.2464
1694110385226562,-9.812025,0.37424,0.422529,0.331,0.4082,0.964
1694110385234375,-9.787025,0.37624,0.449529,0.392,0.3222,0.5336
1694110385242187,-9.776025,0.36324,0.492529,0.391,0.2892,0.536
1694110385250000,-9.776025,0.36024,0.517529,0.389,0.2852,0.5136
1694110385257812,-9.776025,0.34924,0.516529,0.403,0.4282,0.3536
1694110385265625,-9.797025,0.34224,0.505529,0.453,0.5282,0.6936
1694110385273437,-9.806025,0.33524,0.476529,0.485,0.6312,0.2464
1694110385281250,-9.828025,0.34724,0.460529,0.442,0.6842,0.936
1694110385289062,-9.824025,0.36024,0.447529,0.361,0.6152,0.2236
1694110385296875,-9.828025,0.37324,0.456529,0.376,0.6972,0.2464
1694110385304687,-9.823025,0.37724,0.458529,0.377,0.6802,0.3936
1694110385312500,-9.828025,0.37924,0.442529,0.39,0.6922,0.3836
1694110385320312,-9.825025,0.39524,0.456529,0.394,0.6822,0.4036
1694110385328125,-9.826025,0.40524,0.449529,0.507,0.6062,0.2636
1694110385335937,-9.828025,0.40724,0.458529,0.413,0.5902,0.4136
1694110385343750,-9.816025,0.41324,0.467529,0.518,0.6282,0.8836
1694110385351562,-9.811025,0.42024,0.469529,0.612,0.6472,0.4136
1694110385359375,-9.796025,0.40924,0.463529,0.612,0.6002,0.936
1694110385367187,-9.796025,0.38524,0.460529,0.724,0.6342,0.1236
1694110385375000,-9.811025,0.37924,0.429529,0.857,0.7282,0.236
1694110385382812,-9.795025,0.35924,0.429529,0.868,0.6542,0.4736
1694110385390625,-9.793025,0.34124,0.409529,0.882,0.5702,0.6236
1694110385398437,-9.793025,0.33824,0.402529,0.863,0.5672,0.1236
1694110385406250,-9.804025,0.32924,0.420529,0.882,0.6032,0.1436
1694110385414062,-9.806025,0.33424,0.438529,0.864,0.6182,0.1864
1694110385421875,-9.808025,0.33624,0.454529,0.863,0.6492,0.364
1694110385429687,-9.822025,0.34524,0.440529,0.854,0.6912,0.1564
1694110385437500,-9.835025,0.34924,0.420529,0.802,0.6342,0.364
1694110385445312,-9.846025,0.36724,0.418529,0.788,0.6222,0.3464
1694110385453125,-9.833025,0.36224,0.402529,0.726,0.6712,0.1864
1694110385460937,-9.833025,0.36924,0.411529,0.693,0.6042,0.364
1694110385468750,-9.826025,0.36924,0.422529,0.66,0.6822,0.564
1694110385476562,-9.821025,0.37324,0.436529,0.612,0.6002,0.936
1694110385484375,-9.817025,0.37324,0.422529,0.614,0.7002,0.2064
1694110385492187,-9.806025,0.37124,0.431529,0.646,0.6532,0.2064
1694110385500000,-9.801025,0.36824,0.442529,0.751,0.7572,0.1036
1694110385507812,-9.799025,0.36224,0.447529,0.755,0.7142,0.2836
1694110385515625,-9.790025,0.36424,0.458529,0.751,0.6752,0.2636
1694110385523437,-9.808025,0.37124,0.451529,0.848,0.7452,0.6136
1694110385531250,-9.796025,0.36924,0.447529,0.782,0.7102,0.2064
1694110385539062,-9.806025,0.35524,0.435529,0.83,0.6772,0.2736
1694110385546875,-9.808025,0.35324,0.429529,0.894,0.7432,0.4436
1694110385554687,-9.795025,0.35424,0.429529,0.85,0.7322,0.3036
1694110385562500,-9.808025,0.34424,0.433529,0.813,0.6592,0.2636
1694110385570312,-9.799025,0.34424,0.429529,0.847,0.7102,0.4436
1694110385578125,-9.805025,0.36024,0.417529,0.863,0.7592,0.4436
1694110385585937,-9.815025,0.34424,0.422529,0.865,0.8622,0.164
1694110385593750,-9.819025,0.34624,0.426529,0.799,0.7762,0.464
1694110385601562,-9.813025,0.34424,0.420529,0.832,0.8112,0.1864
1694110385609375,-9.826025,0.35324,0.411529,0.783,0.8092,0.464
1694110385617187,-9.821025,0.35424,0.406529,0.794,0.8172,0.936
1694110385625000,-9.812025,0.35924,0.404529,0.69,0.7902,0.9036
1694110385632812,-9.819025,0.35924,0.390529,0.689,0.7572,0.5836
1694110385640625,-9.810025,0.36024,0.393529,0.693,0.6842,0.1236
1694110385648437,-9.804025,0.35624,0.395529,0.852,0.7342,0.3036
1694110385656250,-9.792025,0.36424,0.393529,0.815,0.6772,0.2736
1694110385664062,-9.810025,0.36824,0.397529,0.734,0.7392,0.936
1694110385671875,-9.803025,0.36624,0.417529,0.689,0.7102,0.1036
1694110385679687,-9.805025,0.36224,0.422529,0.705,0.6772,0.5836
1694110385687500,-9.814025,0.36424,0.424529,0.721,0.6772,0.5836
1694110385695312,-9.794025,0.35924,0.408529,0.733,0.6572,0.2536
1694110385703125,-9.792025,0.34024,0.413529,0.672,0.6762,0.664
1694110385710937,-9.797025,0.34424,0.411529,0.718,0.6432,0.2264
1694110385718750,-9.806025,0.34224,0.402529,0.676,0.6962,0.5836
1694110385726562,-9.817025,0.34424,0.402529,0.705,0.6122,0.5736
1694110385734375,-9.819025,0.33924,0.408529,0.704,0.6262,0.4136
1694110385742187,-9.817025,0.34224,0.417529,0.672,0.6262,0.836
1694110385750000,-9.806025,0.33724,0.426529,0.779,0.6062,0.4036
1694110385757812,-9.797025,0.34524,0.427529,0.676,0.6162,0.5836
1694110385765625,-9.803025,0.35324,0.420529,0.692,0.6632,0.9036
1694110385773437,-9.792025,0.35324,0.397529,0.657,0.8072,0.936
1694110385781250,-9.794025,0.35824,0.381529,0.772,0.8622,0.4536
1694110385789062,-9.813025,0.35124,0.368529,0.678,0.7492,0.4436
1694110385796875,-9.817025,0.35324,0.363529,0.799,0.6942,0.4336
1694110385804687,-9.834025,0.36124,0.354529,0.717,0.5402,0.10336
1694110385812500,-9.834025,0.36624,0.359529,0.716,0.5922,0.2364
1694110385820312,-9.819025,0.36124,0.363529,0.731,0.5082,0.736
1694110385828125,-9.814025,0.35724,0.384529,0.641,0.5772,0.8836
1694110385835937,-9.808025,0.36024,0.404529,0.676,0.5972,0.10636
1694110385843750,-9.815025,0.35524,0.417529,0.676,0.6442,0.13836
1694110385851562,-9.823025,0.36224,0.426529,0.675,0.7432,0.9036
1694110385859375,-9.830025,0.36824,0.404529,0.612,0.7572,0.10536
1694110385867187,-9.832025,0.37224,0.370529,0.673,0.7252,0.7336
1694110385875000,-9.828025,0.37024,0.343529,0.768,0.7382,0.13836
1694110385882812,-9.824025,0.36224,0.327529,0.707,0.7282,0.7536
1694110385890625,-9.819025,0.35524,0.339529,0.721,0.6752,0.8936
1694110385898437,-9.810025,0.34024,0.350529,0.724,0.6162,0.7536
1694110385906250,-9.815025,0.33824,0.348529,0.77,0.5812,0.10736
1694110385914062,-9.814025,0.33024,0.347529,0.763,0.5872,0.8736
1694110385921875,-9.820025,0.33324,0.368529,0.646,0.5362,0.7436
1694110385929687,-9.835025,0.32124,0.388529,0.766,0.5912,0.8936
1694110385937500,-9.851025,0.32524,0.390529,0.828,0.5752,0.7336
1694110385945312,-9.853025,0.32824,0.390529,0.894,0.6442,0.7636
1694110385953125,-9.835025,0.33324,0.388529,0.771,0.6652,0.7636
1694110385960937,-9.824025,0.34024,0.357529,0.738,0.6472,0.7536
1694110385968750,-9.819025,0.33724,0.370529,0.846,0.6912,0.9136
1694110385976562,-9.815025,0.32824,0.384529,0.829,0.6572,0.10636
1694110385984375,-9.826025,0.31924,0.379529,0.844,0.6712,0.13836
1694110385992187,-9.824025,0.31024,0.386529,0.847,0.6592,0.12336
1694110386000000,-9.813025,0.32224,0.381529,0.818,0.6792,0.12436
1694110386007812,-9.819025,0.32624,0.381529,0.848,0.5762,0.20336
1694110386015625,-9.826025,0.33124,0.386529,0.882,0.5662,0.15736
1694110386023437,-9.822025,0.32924,0.382529,0.87,0.5562,0.15936
1694110386031250,-9.820025,0.32224,0.386529,0.882,0.5642,0.22036
1694110386039062,-9.829025,0.31124,0.395529,0.867,0.5992,0.20536
1694110386046875,-9.825025,0.31624,0.388529,0.1012,0.5882,0.17636
1694110386054687,-9.807025,0.30924,0.386529,0.1121,0.6352,0.22636
1694110386062500,-9.789025,0.29724,0.375529,0.1078,0.7392,0.18036
1694110386070312,-9.780025,0.28124,0.355529,0.1104,0.6992,0.20936
1694110386078125,-9.785025,0.27224,0.343529,0.1118,0.7812,0.9736
1694110386085937,-9.791025,0.26724,0.346529,0.1166,0.8132,0.9836
1694110386093750,-9.800025,0.26924,0.339529,0.1164,0.7812,0.5036
1694110386101562,-9.810025,0.27924,0.305529,0.1124,0.8222,0.10036
1694110386109375,-9.832025,0.26924,0.280529,0.1132,0.8592,0.11336
1694110386117187,-9.822025,0.27024,0.287529,0.1111,0.6892,0.9336
1694110386125000,-9.843025,0.27324,0.300529,0.1131,0.6952,0.11236
1694110386132812,-9.848025,0.26824,0.334529,0.1022,0.6812,0.7936
1694110386140625,-9.847025,0.27024,0.336529,0.1068,0.7282,0.6336
1694110386148437,-9.841025,0.27724,0.327529,0.105,0.6792,0.3364
1694110386156250,-9.829025,0.28224,0.300529,0.957,0.7772,0.1436
1694110386164062,-9.827025,0.28424,0.280529,0.1021,0.7002,0.4864
1694110386171875,-9.811025,0.29124,0.294529,0.959,0.6342,0.3036
1694110386179687,-9.802025,0.29324,0.303529,0.985,0.6572,0.6036
1694110386187500,-9.795025,0.28924,0.339529,0.891,0.4972,0.564
1694110386195312,-9.780025,0.27624,0.345529,0.859,0.5612,0.2164
1694110386203125,-9.782025,0.27824,0.348529,0.876,0.5322,0.5264
1694110386210937,-9.780025,0.28024,0.343529,0.861,0.5812,0.2064
1694110386218750,-9.793025,0.28324,0.323529,0.848,0.6022,0.5164
1694110386226562,-9.802025,0.28624,0.332529,0.807,0.5712,0.5664
1694110386234375,-9.809025,0.27724,0.336529,0.683,0.5882,0.964
1694110386242187,-9.818025,0.27524,0.327529,0.719,0.5792,0.2264
1694110386250000,-9.816025,0.28224,0.309529,0.671,0.6102,0.2364
1694110386257812,-9.816025,0.28924,0.314529,0.641,0.5962,0.764
1694110386265625,-9.823025,0.29324,0.314529,0.738,0.6022,0.5264
1694110386273437,-9.831025,0.29524,0.314529,0.626,0.5672,0.10264
1694110386281250,-9.836025,0.30424,0.323529,0.625,0.5792,0.764
1694110386289062,-9.833025,0.29824,0.296529,0.631,0.5842,0.10764
1694110386296875,-9.817025,0.30424,0.271529,0.605,0.6112,0.15264
1694110386304687,-9.820025,0.30224,0.255529,0.626,0.5822,0.2264
1694110386312500,-9.827025,0.29524,0.273529,0.611,0.6002,0.7064
1694110386320312,-9.822025,0.29524,0.303529,0.61,0.5352,0.10364
1694110386328125,-9.820025,0.29124,0.318529,0.61,0.5822,0.5564
1694110386335937,-9.822025,0.29124,0.305529,0.532,0.5022,0.7264
1694110386343750,-9.820025,0.29624,0.310529,0.581,0.4712,0.664
1694110386351562,-9.831025,0.30024,0.307529,0.627,0.5022,0.664
1694110386359375,-9.825025,0.30424,0.321529,0.597,0.4872,0.664
1694110386367187,-9.818025,0.28924,0.325529,0.613,0.5392,0.5364
1694110386375000,-9.818025,0.28924,0.310529,0.595,0.4552,0.8764
1694110386382812,-9.809025,0.29324,0.323529,0.468,0.5312,0.964
1694110386390625,-9.813025,0.29124,0.334529,0.436,0.4512,0.5864
1694110386398437,-9.818025,0.29324,0.346529,0.393,0.4712,0.2564
1694110386406250,-9.804025,0.30024,0.348529,0.359,0.5022,0.7464
1694110386414062,-9.808025,0.30424,0.343529,0.354,0.4972,0.14064
1694110386421875,-9.818025,0.30924,0.345529,0.374,0.5332,0.7464
1694110386429687,-9.815025,0.31624,0.332529,0.36,0.5842,0.7364
1694110386437500,-9.808025,0.32224,0.327529,0.359,0.5992,0.7464
1694110386445312,-9.815025,0.33324,0.325529,0.293,0.4662,0.9264
1694110386453125,-9.815025,0.33124,0.330529,0.361,0.5542,0.8964
1694110386460937,-9.833025,0.34924,0.316529,0.285,0.5742,0.8864
1694110386468750,-9.858025,0.35024,0.305529,0.344,0.5682,0.5764
1694110386476562,-9.871025,0.34624,0.287529,0.312,0.4672,0.2764
1694110386484375,-9.861025,0.36824,0.248529,0.354,0.4152,0.10864
1694110386492187,-9.841025,0.37724,0.240529,0.357,0.4002,0.2764
1694110386500000,-9.819025,0.37524,0.269529,0.37,0.2972,0.1364
1694110386507812,-9.819025,0.37524,0.309529,0.389,0.3342,0.2036
1694110386515625,-9.834025,0.37724,0.336529,0.371,0.2502,0.236
1694110386523437,-9.850025,0.36624,0.359529,0.404,0.3832,0.2764
1694110386531250,-9.859025,0.36124,0.341529,0.453,0.4512,0.964
1694110386539062,-9.852025,0.36324,0.316529,0.511,0.3612,0.1936
1694110386546875,-9.846025,0.34824,0.307529,0.545,0.2712,0.5864
1694110386554687,-9.826025,0.35324,0.294529,0.56,0.3182,0.2664
1694110386562500,-9.811025,0.34324,0.305529,0.567,0.2462,0.764
1694110386570312,-9.799025,0.33624,0.323529,0.576,0.1892,0.2664
1694110386578125,-9.804025,0.33624,0.346529,0.533,0.1452,0.964
1694110386585937,-9.817025,0.32824,0.354529,0.513,0.2192,0.2764
1694110386593750,-9.828025,0.33024,0.359529,0.433,0.2342,0.1264
1694110386601562,-9.840025,0.32824,0.352529,0.528,0.3322,0.1164
1694110386609375,-9.837025,0.33024,0.339529,0.543,0.3162,0.2764
1694110386617187,-9.844025,0.33724,0.332529,0.53,0.3692,0.7364
1694110386625000,-9.846025,0.34624,0.325529,0.577,0.3992,0.2564
1694110386632812,-9.850025,0.35724,0.334529,0.624,0.3832,0.964
1694110386640625,-9.846025,0.33924,0.345529,0.635,0.3282,0.4364
1694110386648437,-9.837025,0.34824,0.345529,0.643,0.3542,0.4036
1694110386656250,-9.824025,0.34424,0.343529,0.703,0.3662,0.5636
1694110386664062,-9.815025,0.33324,0.339529,0.706,0.4382,0.564
1694110386671875,-9.795025,0.30724,0.348529,0.705,0.3872,0.664
1694110386679687,-9.788025,0.30024,0.370529,0.797,0.3822,0.2536
1694110386687500,-9.793025,0.28724,0.361529,0.752,0.4542,0.6964
1694110386695312,-9.800025,0.28224,0.359529,0.81,0.4962,0.8764
1694110386703125,-9.789025,0.26924,0.343529,0.874,0.5302,0.6964
1694110386710937,-9.791025,0.27124,0.321529,0.87,0.5432,0.15064
1694110386718750,-9.782025,0.27124,0.300529,0.812,0.5322,0.13364
1694110386726562,-9.789025,0.27424,0.289529,0.672,0.5822,0.7064
1694110386734375,-9.800025,0.27124,0.294529,0.608,0.5472,0.7264
1694110386742187,-9.802025,0.27524,0.294529,0.623,0.5632,0.8864
1694110386750000,-9.816025,0.27324,0.309529,0.5,0.4692,0.7264
1694110386757812,-9.823025,0.28224,0.332529,0.425,0.5232,0.7164
1694110386765625,-9.833025,0.30624,0.325529,0.377,0.5512,0.964
1694110386773437,-9.825025,0.30724,0.312529,0.362,0.5562,0.8864
1694110386781250,-9.820025,0.32624,0.309529,0.294,0.5832,0.15564
1694110386789062,-9.817025,0.33524,0.321529,0.327,0.5332,0.4264
1694110386796875,-9.801025,0.34924,0.330529,0.373,0.4652,0.4364
1694110386804687,-9.812025,0.36424,0.345529,0.357,0.4802,0.436
1694110386812500,-9.796025,0.36424,0.316529,0.37,0.5432,0.7664
1694110386820312,-9.792025,0.37824,0.307529,0.373,0.4822,0.4364
1694110386828125,-9.790025,0.37424,0.307529,0.424,0.4412,0.7264
1694110386835937,-9.780025,0.37124,0.314529,0.463,0.4292,0.10864
1694110386843750,-9.790025,0.36724,0.339529,0.591,0.4492,0.8964
1694110386851562,-9.801025,0.35724,0.348529,0.542,0.4782,0.7464
1694110386859375,-9.806025,0.35124,0.332529,0.608,0.5162,0.10364
1694110386867187,-9.808025,0.34624,0.312529,0.622,0.5312,0.12064
1694110386875000,-9.808025,0.33524,0.305529,0.606,0.5942,0.12064
1694110386882812,-9.806025,0.33124,0.291529,0.611,0.5512,0.7064
1694110386890625,-9.804025,0.33124,0.296529,0.627,0.5042,0.7064
1694110386898437,-9.792025,0.32924,0.312529,0.592,0.4822,0.7264
1694110386906250,-9.813025,0.33124,0.325529,0.484,0.3712,0.5764
1694110386914062,-9.817025,0.34424,0.345529,0.391,0.4362,0.964
1694110386921875,-9.847025,0.34624,0.346529,0.424,0.3922,0.7264
1694110386929687,-9.837025,0.36224,0.328529,0.44,0.4412,0.8864
1694110386937500,-9.846025,0.38224,0.312529,0.535,0.5742,0.13364
1694110386945312,-9.835025,0.37524,0.307529,0.56,0.4182,0.15364
1694110386953125,-9.826025,0.37524,0.309529,0.576,0.4842,0.12064
1694110386960937,-9.812025,0.37524,0.321529,0.621,0.4492,0.18564
1694110386968750,-9.817025,0.36524,0.323529,0.615,0.4442,0.5264
1694110386976562,-9.822025,0.35124,0.325529,0.612,0.5062,0.8564
1694110386984375,-9.820025,0.34024,0.314529,0.628,0.5552,0.8564
1694110386992187,-9.827025,0.34024,0.316529,0.615,0.4582,0.564
1694110387000000,-9.824025,0.34224,0.305529,0.654,0.3832,0.7264
1694110387007812,-9.820025,0.34024,0.314529,0.69,0.3562,0.3864
1694110387015625,-9.820025,0.34524,0.323529,0.612,0.3562,0.764
1694110387023437,-9.817025,0.34424,0.312529,0.624,0.3342,0.636
1694110387031250,-9.808025,0.33124,0.287529,0.609,0.3692,0.2464
1694110387039062,-9.793025,0.32224,0.282529,0.624,0.3992,0.864
1694110387046875,-9.811025,0.31824,0.303529,0.609,0.3052,0.7264
1694110387054687,-9.820025,0.31724,0.336529,0.621,0.3482,0.5864
1694110387062500,-9.827025,0.33424,0.366529,0.565,0.3612,0.11964
1694110387070312,-9.811025,0.32924,0.379529,0.517,0.5202,0.8764
1694110387078125,-9.811025,0.33824,0.391529,0.455,0.6352,0.10364
1694110387085937,-9.811025,0.33824,0.391529,0.522,0.6742,0.10064
1694110387093750,-9.815025,0.33824,0.361529,0.503,0.6512,0.5464
1694110387101562,-9.815025,0.35124,0.361529,0.456,0.6512,0.5564
1694110387109375,-9.815025,0.35324,0.368529,0.487,0.6982,0.664
1694110387117187,-9.815025,0.35124,0.363529,0.502,0.6802,0.764
1694110387125000,-9.826025,0.35124,0.357529,0.569,0.7022,0.2736
1694110387132812,-9.835025,0.36024,0.332529,0.612,0.6002,0.2264
1694110387140625,-9.844025,0.36824,0.303529,0.594,0.5632,0.864
1694110387148437,-9.853025,0.37524,0.282529,0.598,0.6352,0.1036
1694110387156250,-9.835025,0.37324,0.255529,0.58,0.5812,0.2436
1694110387164062,-9.805025,0.38224,0.251529,0.595,0.4502,0.5636
1694110387171875,-9.781025,0.38524,0.278529,0.583,0.4382,0.7336
1694110387179687,-9.790025,0.37324,0.314529,0.55,0.5162,0.8836
1694110387187500,-9.824025,0.36624,0.345529,0.519,0.5672,0.4036
1694110387195312,-9.833025,0.37324,0.348529,0.459,0.6392,0.2164
1694110387203125,-9.846025,0.37724,0.294529,0.406,0.6622,0.964
1694110387210937,-9.848025,0.37524,0.258529,0.427,0.7192,0.2264
1694110387218750,-9.837025,0.38424,0.246529,0.456,0.6992,0.2364
1694110387226562,-9.821025,0.37524,0.264529,0.469,0.5492,0.864
1694110387234375,-9.814025,0.37824,0.296529,0.584,0.5362,0.9036
1694110387242187,-9.803025,0.37324,0.307529,0.454,0.4832,0.636
1694110387250000,-9.814025,0.37524,0.318529,0.483,0.4492,0.2664
1694110387257812,-9.833025,0.36224,0.307529,0.501,0.4362,0.864
1694110387265625,-9.830025,0.37224,0.309529,0.574,0.4282,0.1064
1694110387273437,-9.837025,0.37024,0.318529,0.623,0.4472,0.2564
1694110387281250,-9.839025,0.36124,0.323529,0.607,0.4792,0.964
1694110387289062,-9.835025,0.36124,0.327529,0.624,0.4812,0.2464
1694110387296875,-9.835025,0.36824,0.325529,0.628,0.4852,0.2536
1694110387304687,-9.833025,0.37824,0.312529,0.677,0.4402,0.2636
1694110387312500,-9.823025,0.37524,0.307529,0.684,0.4442,0.2564
1694110387320312,-9.819025,0.38724,0.307529,0.753,0.5512,0.564
1694110387328125,-9.810025,0.37624,0.303529,0.705,0.5022,0.2164
1694110387335937,-9.792025,0.35824,0.309529,0.722,0.6002,0.464
1694110387343750,-9.794025,0.35824,0.287529,0.765,0.5772,0.2264
1694110387351562,-9.812025,0.34424,0.285529,0.687,0.5942,0.764
1694110387359375,-9.831025,0.34224,0.276529,0.641,0.5822,0.3864
1694110387367187,-9.835025,0.33924,0.271529,0.609,0.4982,0.2464
1694110387375000,-9.828025,0.36224,0.264529,0.61,0.4502,0.864
1694110387382812,-9.835025,0.35524,0.269529,0.625,0.3852,0.2464
1694110387390625,-9.831025,0.34024,0.303529,0.61,0.4342,0.864
1694110387398437,-9.833025,0.35124,0.312529,0.627,0.4052,0.2264
1694110387406250,-9.828025,0.34324,0.332529,0.637,0.4442,0.2564
1694110387414062,-9.824025,0.34624,0.327529,0.608,0.5942,0.2464
1694110387421875,-9.819025,0.34624,0.305529,0.626,0.5812,0.664
1694110387429687,-9.822025,0.34924,0.280529,0.612,0.6002,0.664
1694110387437500,-9.826025,0.34224,0.276529,0.629,0.5862,0.2164
1694110387445312,-9.813025,0.34924,0.305529,0.612,0.5842,0.664
1694110387453125,-9.817025,0.33824,0.309529,0.613,0.6022,0.2164
1694110387460937,-9.815025,0.34024,0.314529,0.625,0.5632,0.764
1694110387468750,-9.817025,0.34224,0.321529,0.61,0.5472,0.836
1694110387476562,-9.804025,0.34024,0.336529,0.63,0.5502,0.12236
1694110387484375,-9.815025,0.34724,0.323529,0.621,0.5602,0.12536
1694110387492187,-9.815025,0.34424,0.298529,0.595,0.5812,0.836
1694110387500000,-9.817025,0.34924,0.292529,0.632,0.6552,0.364
1694110387507812,-9.824025,0.34424,0.276529,0.623,0.5282,0.2464
1694110387515625,-9.824025,0.34824,0.276529,0.514,0.5452,0.964
1694110387523437,-9.821025,0.34224,0.296529,0.548,0.5472,0.7136
1694110387531250,-9.815025,0.34024,0.323529,0.563,0.5792,0.2336
1694110387539062,-9.815025,0.34224,0.321529,0.474,0.6022,0.7336
1694110387546875,-9.815025,0.34024,0.323529,0.552,0.5552,0.2636
1694110387554687,-9.815025,0.34224,0.321529,0.61,0.6102,0.7236
1694110387562500,-9.820025,0.33824,0.321529,0.631,0.6342,0.9136
1694110387570312,-9.828025,0.33524,0.323529,0.627,0.5982,0.4136
1694110387578125,-9.824025,0.33124,0.327529,0.597,0.6332,0.936
1694110387585937,-9.815025,0.32724,0.319529,0.615,0.6512,0.4336
1694110387593750,-9.820025,0.32724,0.314529,0.632,0.6532,0.7636
1694110387601562,-9.815025,0.30924,0.321529,0.613,0.6962,0.9036
1694110387609375,-9.813025,0.30724,0.307529,0.629,0.7142,0.2636
1694110387617187,-9.813025,0.31824,0.294529,0.613,0.6962,0.9036
1694110387625000,-9.817025,0.32424,0.273529,0.627,0.6772,0.7336
1694110387632812,-9.820025,0.32224,0.273529,0.565,0.6962,0.2536
1694110387640625,-9.831025,0.32624,0.291529,0.468,0.6102,0.3836
1694110387648437,-9.833025,0.32224,0.307529,0.501,0.5802,0.3936
1694110387656250,-9.824025,0.33324,0.314529,0.532,0.6592,0.8736
1694110387664062,-9.830025,0.34224,0.291529,0.471,0.6452,0.8736
1694110387671875,-9.833025,0.35124,0.289529,0.583,0.6492,0.10636
1694110387679687,-9.819025,0.33724,0.300529,0.535,0.5162,0.13636
1694110387687500,-9.815025,0.31524,0.314529,0.566,0.5482,0.12036
1694110387695312,-9.818025,0.31624,0.328529,0.522,0.5362,0.13736
1694110387703125,-9.809025,0.30524,0.334529,0.539,0.5892,0.7536
1694110387710937,-9.796025,0.28524,0.321529,0.43,0.5922,0.5836
1694110387718750,-9.802025,0.28024,0.318529,0.357,0.5432,0.3636
1694110387726562,-9.816025,0.26824,0.318529,0.371,0.5922,0.2764
1694110387734375,-9.818025,0.28224,0.327529,0.388,0.5122,0.1164
1694110387742187,-9.820025,0.28024,0.330529,0.36,0.6312,0.964
1694110387750000,-9.820025,0.29124,0.323529,0.376,0.6152,0.964
1694110387757812,-9.827025,0.30224,0.300529,0.312,0.6152,0.7464
1694110387765625,-9.797025,0.30924,0.273529,0.326,0.6272,0.4364
1694110387773437,-9.792025,0.32424,0.282529,0.292,0.6212,0.1836
1694110387781250,-9.795025,0.32424,0.289529,0.389,0.6272,0.2664
1694110387789062,-9.808025,0.30824,0.291529,0.276,0.5742,0.1364
1694110387796875,-9.831025,0.31924,0.291529,0.201,0.5972,0.2864
1694110387804687,-9.855025,0.33624,0.280529,0.182,0.5272,0.4664
1694110387812500,-9.849025,0.33924,0.258529,0.327,0.4372,0.9064
1694110387820312,-9.839025,0.34824,0.260529,0.308,0.4002,0.10864
1694110387828125,-9.817025,0.35424,0.264529,0.33,0.3422,0.4264
1694110387835937,-9.785025,0.36924,0.282529,0.198,0.3682,0.11064
1694110387843750,-9.779025,0.36524,0.323529,0.332,0.3282,0.2564
1694110387851562,-9.786025,0.35424,0.346529,0.188,0.3922,0.9164
1694110387859375,-9.794025,0.36024,0.350529,0.101,0.3802,0.14464
1694110387867187,-9.806025,0.35424,0.332529,0.124,0.3902,0.12564
1694110387875000,-9.797025,0.34924,0.291529,0.119,0.4802,0.11164
1694110387882812,-9.808025,0.36224,0.271529,0.218,0.3412,0.10864
1694110387890625,-9.799025,0.36224,0.271529,0.321,0.2672,0.15864
1694110387898437,-9.779025,0.36524,0.278529,0.198,0.3702,0.18964
1694110387906250,-9.779025,0.35824,0.291529,0.168,0.2742,0.17464
1694110387914062,-9.783025,0.36324,0.294529,0.182,0.2412,0.20664
1694110387921875,-9.799025,0.36024,0.314529,0.291,0.2392,0.18964
1694110387929687,-9.814025,0.36024,0.325529,0.196,0.2372,0.19164
1694110387937500,-9.822025,0.36024,0.323529,0.152,0.3112,0.28564
1694110387945312,-9.819025,0.36224,0.323529,0.182,0.3402,0.27064
1694110387953125,-9.823025,0.36624,0.311529,0.98,0.3152,0.25764
1694110387960937,-9.827025,0.38124,0.305529,0.177,0.3642,0.24064
1694110387968750,-9.821025,0.38924,0.298529,0.182,0.3212,0.17464
1694110387976562,-9.832025,0.40824,0.287529,0.211,0.3502,0.19164
1694110387984375,-9.823025,0.41324,0.280529,0.276,0.3372,0.20564
1694110387992187,-9.811025,0.41124,0.271529,0.226,0.3502,0.23964
1694110388000000,-9.812025,0.41124,0.260529,0.276,0.3862,0.23764
1694110388007812,-9.814025,0.41324,0.273529,0.277,0.3882,0.22064
1694110388015625,-9.819025,0.40924,0.262529,0.233,0.3292,0.25164
1694110388023437,-9.832025,0.37924,0.257529,0.287,0.3312,0.25564
1694110388031250,-9.821025,0.37724,0.269529,0.226,0.3192,0.28764
1694110388039062,-9.828025,0.38224,0.271529,0.274,0.2862,0.22264
1694110388046875,-9.830025,0.38224,0.289529,0.321,0.2862,0.20564
1694110388054687,-9.836025,0.38824,0.325529,0.178,0.2162,0.14564
1694110388062500,-9.841025,0.39024,0.345529,0.102,0.2352,0.11364
1694110388070312,-9.839025,0.39324,0.346529,0.123,0.2122,0.17364
1694110388078125,-9.827025,0.40624,0.332529,0.1,0.2492,0.12964
1694110388085937,-9.816025,0.40724,0.305529,0.121,0.3232,0.17464
1694110388093750,-9.818025,0.42924,0.291529,0.104,0.3232,0.22264
1694110388101562,-9.804025,0.44424,0.289529,0.117,0.3382,0.28764
1694110388109375,-9.807025,0.44524,0.298529,0.106,0.3272,0.26964
1694110388117187,-9.816025,0.44724,0.314529,0.123,0.3432,0.20564
1694110388125000,-9.808025,0.46424,0.312529,0.118,0.1742,0.19264
1694110388132812,-9.812025,0.46724,0.300529,0.174,0.2762,0.21064
1694110388140625,-9.824025,0.47524,0.303529,0.337,0.3352,0.20564
1694110388148437,-9.826025,0.48924,0.307529,0.345,0.2462,0.12264
1694110388156250,-9.826025,0.48424,0.312529,0.419,0.1772,0.17164
1694110388164062,-9.826025,0.47524,0.336529,0.433,0.2222,0.17264
1694110388171875,-9.817025,0.47324,0.345529,0.497,0.2572,0.15464
1694110388179687,-9.813025,0.46924,0.343529,0.403,0.3222,0.17164
1694110388187500,-9.818025,0.46524,0.339529,0.469,0.2932,0.15364
1694110388195312,-9.825025,0.45524,0.336529,0.561,0.3732,0.18464
1694110388203125,-9.818025,0.44324,0.332529,0.63,0.4422,0.5364
1694110388210937,-9.814025,0.44124,0.350529,0.584,0.3672,0.13264
1694110388218750,-9.816025,0.43624,0.355529,0.627,0.3752,0.11864
1694110388226562,-9.805025,0.41824,0.346529,0.628,0.5552,0.10164
1694110388234375,-9.805025,0.42524,0.341529,0.596,0.4552,0.5564
1694110388242187,-9.814025,0.41724,0.325529,0.592,0.5312,0.8864
1694110388250000,-9.814025,0.41724,0.309529,0.561,0.4022,0.8964
1694110388257812,-9.814025,0.42424,0.330529,0.596,0.3892,0.764
1694110388265625,-9.814025,0.42024,0.348529,0.64,0.4512,0.7164
1694110388273437,-9.811025,0.41324,0.345529,0.56,0.4632,0.2564
1694110388281250,-9.807025,0.40424,0.345529,0.592,0.5782,0.2464
1694110388289062,-9.807025,0.42024,0.341529,0.609,0.5632,0.3964
1694110388296875,-9.800025,0.41124,0.316529,0.484,0.5962,0.2564
1694110388304687,-9.809025,0.41824,0.303529,0.547,0.5982,0.5564
1694110388312500,-9.816025,0.41524,0.309529,0.47,0.5022,0.864
1694110388320312,-9.814025,0.42324,0.303529,0.474,0.5242,0.2264
1694110388328125,-9.829025,0.42924,0.312529,0.423,0.4862,0.964
1694110388335937,-9.825025,0.43524,0.318529,0.389,0.4332,0.2764
1694110388343750,-9.818025,0.43324,0.348529,0.41,0.4902,0.864
1694110388351562,-9.815025,0.43524,0.343529,0.419,0.5122,0.2764
1694110388359375,-9.814025,0.43324,0.332529,0.471,0.6002,0.764
1694110388367187,-9.814025,0.43624,0.334529,0.535,0.5862,0.2264
1694110388375000,-9.813025,0.43324,0.327529,0.483,0.5942,0.964
1694110388382812,-9.825025,0.42624,0.341529,0.61,0.5652,0.2364
1694110388390625,-9.827025,0.42824,0.343529,0.56,0.5432,0.964
1694110388398437,-9.834025,0.43524,0.350529,0.597,0.5672,0.936
1694110388406250,-9.834025,0.42624,0.343529,0.624,0.5472,0.5664
1694110388414062,-9.836025,0.42624,0.318529,0.609,0.5472,0.764
1694110388421875,-9.823025,0.42924,0.305529,0.628,0.5362,0.2164
1694110388429687,-9.813025,0.42224,0.314529,0.608,0.5452,0.2464
1694110388437500,-9.811025,0.41724,0.323529,0.606,0.5262,0.964
1694110388445312,-9.818025,0.42224,0.336529,0.607,0.4812,0.7264
1694110388453125,-9.836025,0.42424,0.323529,0.609,0.4832,0.5564
1694110388460937,-9.852025,0.42424,0.309529,0.564,0.4692,0.2364
1694110388468750,-9.868025,0.43924,0.291529,0.566,0.3912,0.664
1694110388476562,-9.853025,0.45224,0.289529,0.607,0.3172,0.2564
1694110388484375,-9.824025,0.47124,0.298529,0.63,0.3442,0.564
1694110388492187,-9.788025,0.46924,0.321529,0.561,0.2382,0.2664
1694110388500000,-9.788025,0.48024,0.379529,0.609,0.3192,0.2564
1694110388507812,-9.800025,0.48024,0.413529,0.597,0.3582,0.664
1694110388515625,-9.806025,0.47324,0.417529,0.579,0.4362,0.2364
1694110388523437,-9.811025,0.48424,0.390529,0.627,0.4382,0.7064
1694110388531250,-9.820025,0.47724,0.352529,0.61,0.5352,0.10364
1694110388539062,-9.819025,0.48024,0.318529,0.609,0.4182,0.5664
1694110388546875,-9.813025,0.47524,0.311529,0.619,0.3492,0.17064
1694110388554687,-9.802025,0.46224,0.321529,0.688,0.3242,0.10364
1694110388562500,-9.786025,0.45824,0.350529,0.813,0.2912,0.11864
1694110388570312,-9.782025,0.44924,0.375529,0.748,0.2232,0.11964
1694110388578125,-9.791025,0.44524,0.381529,0.732,0.3052,0.16764
1694110388585937,-9.793025,0.44324,0.368529,0.783,0.3112,0.16564
1694110388593750,-9.818025,0.43824,0.370529,0.781,0.3262,0.19764
1694110388601562,-9.835025,0.44824,0.368529,0.761,0.2832,0.10564
1694110388609375,-9.845025,0.45324,0.375529,0.812,0.2892,0.10264
1694110388617187,-9.831025,0.45024,0.379529,0.748,0.2872,0.8764
1694110388625000,-9.815025,0.46024,0.386529,0.811,0.2872,0.7164
1694110388632812,-9.815025,0.46724,0.386529,0.844,0.3072,0.11764
1694110388640625,-9.795025,0.45624,0.388529,0.735,0.3712,0.7064
1694110388648437,-9.777025,0.45124,0.395529,0.667,0.4162,0.18564
1694110388656250,-9.778025,0.44124,0.384529,0.737,0.4752,0.16464
1694110388664062,-9.782025,0.44024,0.386529,0.746,0.4982,0.18364
1694110388671875,-9.813025,0.44424,0.379529,0.762,0.4492,0.16764
1694110388679687,-9.804025,0.44224,0.386529,0.651,0.4312,0.16964
1694110388687500,-9.797025,0.45124,0.381529,0.607,0.4182,0.12064
1694110388695312,-9.797025,0.45724,0.354529,0.617,0.3782,0.17164
1694110388703125,-9.788025,0.46624,0.365529,0.604,0.3302,0.9164
1694110388710937,-9.793025,0.46424,0.375529,0.592,0.3202,0.5764
1694110388718750,-9.801025,0.46624,0.397529,0.557,0.3442,0.1264
1694110388726562,-9.806025,0.48424,0.395529,0.593,0.4022,0.5664
1694110388734375,-9.802025,0.48224,0.377529,0.656,0.3712,0.10364
1694110388742187,-9.801025,0.48124,0.374529,0.604,0.4612,0.12264
1694110388750000,-9.799025,0.47924,0.352529,0.622,0.5592,0.2564
1694110388757812,-9.806025,0.48224,0.352529,0.613,0.5202,0.2264
1694110388765625,-9.813025,0.48624,0.366529,0.624,0.4342,0.7264
1694110388773437,-9.820025,0.48224,0.395529,0.564,0.4222,0.7164
1694110388781250,-9.826025,0.47524,0.411529,0.544,0.4332,0.8964
1694110388789062,-9.826025,0.46824,0.424529,0.548,0.5022,0.2364
1694110388796875,-9.815025,0.47424,0.435529,0.511,0.4752,0.2036
1694110388804687,-9.813025,0.47124,0.433529,0.579,0.5492,0.2364
1694110388812500,-9.800025,0.46024,0.426529,0.596,0.5022,0.764
1694110388820312,-9.795025,0.45624,0.420529,0.548,0.5512,0.3964
1694110388828125,-9.797025,0.46624,0.402529,0.592,0.5942,0.5664
1694110388835937,-9.798025,0.45624,0.379529,0.488,0.5862,0.2364
1694110388843750,-9.819025,0.45724,0.366529,0.497,0.5922,0.4264
1694110388851562,-9.824025,0.46624,0.357529,0.451,0.4142,0.436
1694110388859375,-9.815025,0.44624,0.359529,0.402,0.4942,0.2864
1694110388867187,-9.811025,0.45324,0.357529,0.374,0.4792,0.5236
1694110388875000,-9.809025,0.44724,0.359529,0.363,0.4222,0.5436
1694110388882812,-9.815025,0.46424,0.363529,0.375,0.4162,0.6836
1694110388890625,-9.817025,0.46824,0.375529,0.356,0.3962,0.5136
1694110388898437,-9.811025,0.47624,0.381529,0.363,0.4552,0.5436
1694110388906250,-9.804025,0.47924,0.366529,0.358,0.5292,0.5236
1694110388914062,-9.813025,0.47324,0.370529,0.36,0.5822,0.2236
1694110388921875,-9.807025,0.45924,0.388529,0.383,0.5942,0.2164
1694110388929687,-9.811025,0.45024,0.372529,0.357,0.5942,0.1164
1694110388937500,-9.802025,0.44924,0.357529,0.375,0.5822,0.2564
1694110388945312,-9.818025,0.45824,0.361529,0.362,0.5372,0.864
1694110388953125,-9.829025,0.46424,0.368529,0.326,0.4332,0.2864
1694110388960937,-9.836025,0.47124,0.379529,0.378,0.3612,0.5664
1694110388968750,-9.844025,0.46624,0.399529,0.341,0.3202,0.6064
1694110388976562,-9.831025,0.47424,0.388529,0.318,0.2482,0.2236
1694110388984375,-9.819025,0.47924,0.377529,0.321,0.2982,0.11064
1694110388992187,-9.817025,0.49024,0.361529,0.293,0.2852,0.2964
1694110389000000,-9.808025,0.50024,0.361529,0.346,0.3102,0.1064
1694110389007812,-9.794025,0.49524,0.363529,0.322,0.2482,0.3064
1694110389015625,-9.790025,0.50624,0.377529,0.354,0.2812,0.136
1694110389023437,-9.806025,0.50924,0.390529,0.359,0.2712,0.3636
1694110389031250,-9.817025,0.50424,0.384529,0.371,0.3182,0.9264
1694110389039062,-9.826025,0.50624,0.379529,0.338,0.3162,0.7764
1694110389046875,-9.825025,0.49924,0.356529,0.351,0.3622,0.14264
1694110389054687,-9.843025,0.50124,0.350529,0.366,0.3622,0.15864
1694110389062500,-9.848025,0.49924,0.343529,0.352,0.3802,0.15864
1694110389070312,-9.837025,0.49624,0.352529,0.351,0.3312,0.15864
1694110389078125,-9.819025,0.49924,0.354529,0.279,0.3202,0.2864
1694110389085937,-9.812025,0.51324,0.386529,0.324,0.3182,0.7764
1694110389093750,-9.796025,0.51524,0.406529,0.308,0.2672,0.3064
1694110389101562,-9.796025,0.51924,0.433529,0.278,0.3002,0.1736
1694110389109375,-9.808025,0.52424,0.433529,0.296,0.3532,0.336
1694110389117187,-9.803025,0.52624,0.424529,0.281,0.3222,0.436
1694110389125000,-9.807025,0.53124,0.395529,0.358,0.3042,0.2864
1694110389132812,-9.801025,0.54024,0.361529,0.376,0.3382,0.2136
1694110389140625,-9.796025,0.54224,0.357529,0.359,0.3202,0.2036
1694110389148437,-9.787025,0.52724,0.375529,0.373,0.1722,0.1264
1694110389156250,-9.778025,0.51624,0.386529,0.358,0.1722,0.1936
1694110389164062,-9.785025,0.52324,0.413529,0.422,0.2262,0.2664
1694110389171875,-9.808025,0.51724,0.417529,0.465,0.1872,0.2864
1694110389179687,-9.815025,0.50424,0.413529,0.371,0.2222,0.9264
1694110389187500,-9.818025,0.50724,0.417529,0.397,0.2282,0.6364
1694110389195312,-9.831025,0.49724,0.415529,0.42,0.3062,0.10664
1694110389203125,-9.830025,0.51524,0.426529,0.45,0.3362,0.10764
1694110389210937,-9.816025,0.51924,0.424529,0.385,0.4292,0.6064
1694110389218750,-9.809025,0.51924,0.424529,0.351,0.4062,0.3164
1694110389226562,-9.794025,0.52624,0.429529,0.371,0.5272,0.1264
1694110389234375,-9.781025,0.53224,0.415529,0.41,0.5552,0.2364
1694110389242187,-9.785025,0.54024,0.404529,0.482,0.5452,0.1064
1694110389250000,-9.812025,0.53924,0.395529,0.466,0.5292,0.2664
1694110389257812,-9.800025,0.53224,0.388529,0.462,0.4242,0.1364
1694110389265625,-9.793025,0.53924,0.395529,0.556,0.4242,0.2864
1694110389273437,-9.791025,0.53724,0.401529,0.463,0.3942,0.1264
1694110389281250,-9.787025,0.52424,0.417529,0.51,0.3442,0.336
1694110389289062,-9.794025,0.52624,0.444529,0.625,0.3852,0.2464
1694110389296875,-9.789025,0.51924,0.451529,0.604,0.3932,0.1164
1694110389304687,-9.796025,0.51524,0.453529,0.625,0.3852,0.864
1694110389312500,-9.810025,0.50824,0.440529,0.623,0.4792,0.2564
1694110389320312,-9.805025,0.51324,0.429529,0.607,0.4792,0.4164
1694110389328125,-9.812025,0.50624,0.424529,0.59,0.4452,0.1064
1694110389335937,-9.821025,0.50324,0.429529,0.607,0.4302,0.964
1694110389343750,-9.828025,0.50324,0.444529,0.545,0.4462,0.2236
1694110389351562,-9.828025,0.50424,0.449529,0.593,0.3852,0.2464
1694110389359375,-9.812025,0.50424,0.447529,0.623,0.3812,0.2236
1694110389367187,-9.806025,0.50624,0.442529,0.58,0.2882,0.7136
1694110389375000,-9.794025,0.50424,0.429529,0.56,0.3182,0.2664
1694110389382812,-9.790025,0.50624,0.417529,0.544,0.4302,0.1064
1694110389390625,-9.787025,0.49524,0.424529,0.477,0.3262,0.2964
1694110389398437,-9.798025,0.49624,0.415529,0.555,0.3892,0.1364
1694110389406250,-9.814025,0.50624,0.411529,0.451,0.4322,0.2664
1694110389414062,-9.817025,0.49724,0.404529,0.432,0.4102,0.1264
1694110389421875,-9.821025,0.50324,0.390529,0.447,0.4242,0.236
1694110389429687,-9.819025,0.50224,0.388529,0.467,0.4002,0.2664
1694110389437500,-9.830025,0.51424,0.392529,0.433,0.3792,0.1264
1694110389445312,-9.827025,0.51424,0.399529,0.494,0.3772,0.1264
1694110389453125,-9.819025,0.52024,0.395529,0.486,0.3712,0.2236
1694110389460937,-9.829025,0.52024,0.397529,0.41,0.3842,0.1664
1694110389468750,-9.834025,0.52324,0.408529,0.496,0.3302,0.1936
1694110389476562,-9.836025,0.52324,0.417529,0.559,0.3442,0.8436
1694110389484375,-9.832025,0.51324,0.444529,0.516,0.3032,0.7036
1694110389492187,-9.823025,0.51424,0.449529,0.527,0.3772,0.5236
1694110389500000,-9.828025,0.50124,0.440529,0.572,0.4082,0.1264
1694110389507812,-9.821025,0.50624,0.438529,0.59,0.3792,0.536
1694110389515625,-9.816025,0.50124,0.440529,0.48,0.3772,0.6736
1694110389523437,-9.821025,0.50324,0.440529,0.545,0.2992,0.5336
1694110389531250,-9.814025,0.50624,0.453529,0.529,0.2362,0.1164
1694110389539062,-9.801025,0.50824,0.444529,0.514,0.2352,0.5236
1694110389546875,-9.798025,0.52424,0.449529,0.577,0.1702,0.5336
1694110389554687,-9.810025,0.52124,0.440529,0.589,0.1822,0.1936
1694110389562500,-9.796025,0.52224,0.442529,0.589,0.702,0.336
1694110389570312,-9.798025,0.52624,0.442529,0.571,0.0,0.136
1694110389578125,-9.803025,0.53324,0.435529,0.51,0.212,0.1364
1694110389585937,-9.796025,0.52224,0.420529,0.623,0.82,0.436
1694110389593750,-9.814025,0.53024,0.413529,0.603,0.468,0.236
1694110389601562,-9.817025,0.51724,0.413529,0.622,0.98,0.3636
1694110389609375,-9.825025,0.51924,0.399529,0.602,0.1588,0.6264
1694110389617187,-9.834025,0.51224,0.410529,0.614,0.1978,0.6464
1694110389625000,-9.839025,0.51724,0.404529,0.606,0.3338,0.236
1694110389632812,-9.840025,0.51524,0.409529,0.61,0.4428,0.5236
1694110389640625,-9.846025,0.50024,0.445529,0.623,0.5258,0.236
1694110389648437,-9.873025,0.50424,0.494529,0.607,0.6718,0.1364
1694110389656250,-9.817025,0.51324,0.503529,0.622,0.5428,0.4564
1694110389664062,-9.801025,0.50424,0.530529,0.604,0.6588,0.4764
1694110389671875,-9.803025,0.50224,0.575529,0.584,0.6978,0.4964
1694110389679687,-9.790025,0.50424,0.616529,0.618,0.6468,0.1564
1694110389687500,-9.788025,0.50224,0.647529,0.602,0.5808,0.3164
1694110389695312,-9.779025,0.51624,0.665529,0.607,0.4608,0.1264
1694110389703125,-9.776025,0.51824,0.659529,0.623,0.4278,0.1264
1694110389710937,-9.787025,0.52024,0.629529,0.603,0.3868,0.3064
1694110389718750,-9.794025,0.53824,0.607529,0.764,0.3158,0.1064
1694110389726562,-9.785025,0.53224,0.586529,0.866,0.2458,0.2864
1694110389734375,-9.771025,0.54724,0.577529,0.856,0.3038,0.2136
1694110389742187,-9.751025,0.54324,0.586529,0.876,0.2178,0.5536
1694110389750000,-9.740025,0.53424,0.634529,0.891,0.2998,0.7136
1694110389757812,-9.779025,0.52824,0.659529,0.868,0.2078,0.13936
1694110389765625,-9.804025,0.50924,0.654529,0.863,0.848,0.10536
1694110389773437,-9.833025,0.48224,0.636529,0.721,0.868,0.10336
1694110389781250,-9.827025,0.47824,0.613529,0.658,0.1008,0.3836
1694110389789062,-9.850025,0.46024,0.557529,0.724,0.1128,0.8836
1694110389796875,-9.827025,0.44924,0.562529,0.644,0.1618,0.3936
1694110389804687,-9.820025,0.44624,0.541529,0.61,0.1188,0.3736
1694110389812500,-9.811025,0.43824,0.571529,0.656,0.1208,0.8536
1694110389820312,-9.791025,0.44024,0.607529,0.705,0.1338,0.7136
1694110389828125,-9.784025,0.44424,0.629529,0.449,0.1248,0.6536
1694110389835937,-9.793025,0.44024,0.631529,0.359,0.388,0.9836
1694110389843750,-9.789025,0.45824,0.668529,0.378,0.508,0.13236
1694110389851562,-9.784025,0.47224,0.674529,0.362,0.312,0.6836
1694110389859375,-9.786025,0.48324,0.706529,0.379,0.822,0.8536
1694110389867187,-9.792025,0.49624,0.724529,0.362,0.782,0.13236
1694110389875000,-9.790025,0.50224,0.726529,0.362,0.612,0.14836
1694110389882812,-9.786025,0.49124,0.713529,0.378,0.2092,0.13336
1694110389890625,-9.759025,0.49724,0.704529,0.369,0.1392,0.8836
1694110389898437,-9.774025,0.50524,0.688529,0.472,0.962,0.8636
1694110389906250,-9.777025,0.51224,0.654529,0.616,0.482,0.15236
1694110389914062,-9.783025,0.49524,0.670529,0.627,0.88,0.19736
1694110389921875,-9.810025,0.50024,0.672529,0.708,0.218,0.23136
1694110389929687,-9.819025,0.48824,0.663529,0.613,0.728,0.27836
1694110389937500,-9.820025,0.47824,0.668529,0.742,0.688,0.31336
1694110389945312,-9.795025,0.47124,0.652529,0.709,0.1338,0.26336
1694110389953125,-9.796025,0.44824,0.665529,0.731,0.1918,0.31436
1694110389960937,-9.791025,0.43624,0.677529,0.774,0.508,0.26536
1694110389968750,-9.791025,0.43624,0.674529,0.692,0.708,0.23136
1694110389976562,-9.785025,0.43624,0.641529,0.647,0.198,0.23136
1694110389984375,-9.803025,0.42724,0.677529,0.619,0.832,0.26536
1694110389992187,-9.803025,0.41124,0.686529,0.632,0.602,0.31236
1694110390000000,-9.823025,0.41324,0.686529,0.556,0.1142,0.26436
1694110390007812,-9.812025,0.41124,0.677529,0.616,0.2242,0.24836
1694110390015625,-9.785025,0.41324,0.667529,0.568,0.1892,0.26336
1694110390023437,-9.782025,0.40924,0.667529,0.595,0.2162,0.22936
1694110390031250,-9.794025,0.40924,0.661529,0.63,0.1732,0.24736
1694110390039062,-9.753025,0.42024,0.676529,0.624,0.2122,0.24436
1694110390046875,-9.781025,0.41324,0.717529,0.592,0.2532,0.22036
1694110390054687,-9.857025,0.39124,0.713529,0.539,0.2762,0.21636
1694110390062500,-9.830025,0.41124,0.697529,0.474,0.1452,0.16636
1694110390070312,-9.813025,0.44024,0.701529,0.346,0.68,0.21136
1694110390078125,-9.815025,0.44124,0.721529,0.342,0.1578,0.20836
1694110390085937,-9.809025,0.43824,0.769529,0.379,0.2278,0.11636
1694110390093750,-9.820025,0.44924,0.753529,0.299,0.2148,0.14636
1694110390101562,-9.811025,0.45424,0.731529,0.286,0.2768,0.17936
1694110390109375,-9.773025,0.46824,0.765529,0.35,0.3568,0.22836
1694110390117187,-9.766025,0.47124,0.753529,0.343,0.3528,0.24036
1694110390125000,-9.757025,0.47924,0.778529,0.394,0.3628,0.25836
1694110390132812,-9.741025,0.48124,0.812529,0.424,0.2668,0.22636
1694110390140625,-9.761025,0.46324,0.825529,0.377,0.2198,0.24236
1694110390148437,-9.762025,0.45924,0.834529,0.445,0.1128,0.23036
1694110390156250,-9.766025,0.45624,0.818529,0.362,0.592,0.19536
1694110390164062,-9.773025,0.45424,0.821529,0.52,0.28,0.15036
1694110390171875,-9.773025,0.45124,0.818529,0.561,0.202,0.14736
1694110390179687,-9.777025,0.44924,0.780529,0.483,0.882,0.9936
1694110390187500,-9.784025,0.45324,0.771529,0.627,0.1572,0.8736
1694110390195312,-9.800025,0.44224,0.749529,0.564,0.592,0.10136
1694110390203125,-9.790025,0.44824,0.739529,0.59,0.672,0.8336
1694110390210937,-9.749025,0.41824,0.771529,0.578,0.572,0.8536
1694110390218750,-9.770025,0.35124,0.681529,0.685,0.758,0.5236
1694110390226562,-9.819025,0.49524,0.859529,0.839,0.1738,0.4264
1694110390234375,-9.849025,0.46324,0.877529,0.667,0.842,0.2036
1694110390242187,-9.856025,0.47224,0.836529,0.625,0.1082,0.2236
1694110390250000,-9.846025,0.47024,0.791529,0.559,0.268,0.3536
1694110390257812,-9.813025,0.48424,0.773529,0.514,0.1228,0.8336
1694110390265625,-9.813025,0.47924,0.782529,0.514,0.2208,0.13036
1694110390273437,-9.793025,0.46024,0.794529,0.378,0.1498,0.14736
1694110390281250,-9.784025,0.46724,0.823529,0.395,0.838,0.19636
1694110390289062,-9.789025,0.45624,0.872529,0.582,0.142,0.11836
1694110390296875,-9.788025,0.46224,0.875529,0.56,0.372,0.9936
1694110390304687,-9.793025,0.45824,0.870529,0.456,0.472,0.10136
1694110390312500,-9.800025,0.44524,0.884529,0.519,0.518,0.13336
1694110390320312,-9.804025,0.44624,0.895529,0.591,0.42,0.9936
1694110390328125,-9.797025,0.43924,0.884529,0.497,0.778,0.13036
1694110390335937,-9.820025,0.44024,0.839529,0.532,0.368,0.6936
1694110390343750,-9.802025,0.46024,0.809529,0.627,0.538,0.8636
1694110390351562,-9.777025,0.43124,0.825529,0.607,0.1248,0.9936
1694110390359375,-9.783025,0.41124,0.816529,0.61,0.1678,0.10136
1694110390367187,-9.751025,0.42824,0.848529,0.628,0.1658,0.11836
1694110390375000,-9.742025,0.41224,0.845529,0.642,0.858,0.7036
1694110390382812,-9.767025,0.41824,0.843529,0.61,0.1048,0.10136
1694110390390625,-9.778025,0.41724,0.854529,0.622,0.2088,0.14636
1694110390398437,-9.787025,0.42224,0.908529,0.623,0.1888,0.8336
1694110390406250,-9.760025,0.41224,0.963529,0.597,0.2018,0.19736
1694110390414062,-9.769025,0.41124,1.1529,0.463,0.2108,0.11236
1694110390421875,-9.762025,0.38424,0.980529,0.447,0.1448,0.8036
1694110390429687,-9.747025,0.38524,0.951529,0.452,0.718,0.6736
1694110390437500,-9.762025,0.37724,0.929529,0.387,0.182,0.16136
1694110390445312,-9.742025,0.40024,0.902529,0.403,0.702,0.9836
1694110390453125,-9.738025,0.40324,0.913529,0.424,0.282,0.10036
1694110390460937,-9.733025,0.41624,0.962529,0.483,0.408,0.8336
1694110390468750,-9.747025,0.40524,0.996529,0.518,0.452,0.13336
1694110390476562,-9.771025,0.40524,1.10529,0.485,0.762,0.10036
1694110390484375,-9.774025,0.41624,1.10529,0.6,0.1122,0.20036
1694110390492187,-9.762025,0.40724,0.992529,0.533,0.1882,0.13336
1694110390500000,-9.762025,0.40024,0.985529,0.533,0.1882,0.13336
1694110390507812,-9.772025,0.38624,0.954529,0.636,0.1062,0.12336
1694110390515625,-9.758025,0.39424,0.951529,0.612,0.282,0.10236
1694110390523437,-9.760025,0.38924,0.998529,0.626,0.402,0.14936
1694110390531250,-9.765025,0.37224,1.8529,0.629,0.442,0.15136
1694110390539062,-9.754025,0.36324,1.1529,0.612,0.1222,0.18236
1694110390546875,-9.754025,0.36424,0.998529,0.623,0.1162,0.18036
1694110390554687,-9.740025,0.35624,1.7529,0.64,0.1672,0.13336
1694110390562500,-9.767025,0.36024,0.989529,0.752,0.2702,0.10436
1694110390570312,-9.763025,0.36124,0.963529,0.678,0.2102,0.15336
1694110390578125,-9.756025,0.37624,0.962529,0.611,0.2532,0.11936
1694110390585937,-9.758025,0.37424,0.965529,0.657,0.2702,0.7136
1694110390593750,-9.772025,0.39224,0.981529,0.616,0.2622,0.8936
1694110390601562,-9.751025,0.41424,0.976529,0.52,0.3092,0.7236
1694110390609375,-9.769025,0.39824,0.940529,0.38,0.3422,0.8636
1694110390617187,-9.781025,0.38024,0.965529,0.549,0.2722,0.7036
1694110390625000,-9.778025,0.37624,0.996529,0.564,0.2862,0.8636
1694110390632812,-9.778025,0.39824,1.23529,0.504,0.1962,0.3936
1694110390640625,-9.778025,0.40024,1.34529,0.482,0.2662,0.3636
1694110390648437,-9.778025,0.40724,1.17529,0.439,0.3382,0.5436
1694110390656250,-9.765025,0.41424,0.999529,0.52,0.2932,0.3936
1694110390664062,-9.775025,0.41524,0.994529,0.433,0.1992,0.5036
1694110390671875,-9.778025,0.42024,0.992529,0.458,0.2582,0.15036
1694110390679687,-9.776025,0.41824,0.985529,0.52,0.1782,0.10336
1694110390687500,-9.760025,0.42024,1.10529,0.548,0.2212,0.13436
1694110390695312,-9.764025,0.43124,1.12529,0.577,0.2992,0.11736
1694110390703125,-9.767025,0.42524,1.10529,0.535,0.3072,0.10336
1694110390710937,-9.774025,0.41424,1.28529,0.444,0.3442,0.10436
1694110390718750,-9.776025,0.40924,1.28529,0.471,0.3382,0.7036
1694110390726562,-9.760025,0.40324,1.30529,0.566,0.3232,0.7236
1694110390734375,-9.755025,0.40724,1.21529,0.5,0.4182,0.2236
1694110390742187,-9.751025,0.42124,1.1529,0.505,0.4242,0.4036
1694110390750000,-9.740025,0.41224,0.967529,0.533,0.3052,0.7136
1694110390757812,-9.749025,0.39924,0.956529,0.583,0.3392,0.12036
1694110390765625,-9.754025,0.39824,0.990529,0.645,0.3232,0.7336
1694110390773437,-9.769025,0.40324,1.10529,0.551,0.3402,0.8836
1694110390781250,-9.778025,0.40324,1.30529,0.583,0.3252,0.7336
1694110390789062,-9.778025,0.39824,1.59529,0.52,0.3402,0.8736
1694110390796875,-9.778025,0.40224,1.43529,0.514,0.3152,0.6836
1694110390804687,-9.767025,0.40024,1.41529,0.468,0.3342,0.5336
1694110390812500,-9.762025,0.40924,1.3529,0.518,0.4362,0.5536
1694110390820312,-9.760025,0.41424,0.992529,0.596,0.4672,0.5636
1694110390828125,-9.755025,0.42024,1.10529,0.621,0.3932,0.2136
1694110390835937,-9.755025,0.42524,1.21529,0.547,0.3662,0.8636
1694110390843750,-9.747025,0.40924,1.35529,0.597,0.4192,0.8836
1694110390851562,-9.742025,0.40624,1.48529,0.622,0.3272,0.11736
1694110390859375,-9.730025,0.41824,1.32529,0.624,0.4602,0.11836
1694110390867187,-9.742025,0.40324,1.32529,0.603,0.3922,0.17036
1694110390875000,-9.742025,0.40924,1.23529,0.611,0.4322,0.10336
1694110390882812,-9.744025,0.40524,1.44529,0.629,0.4052,0.5736
1694110390890625,-9.751025,0.38624,1.66529,0.619,0.2932,0.5136
1694110390898437,-9.783025,0.37124,1.64529,0.61,0.3332,0.8636
1694110390906250,-9.798025,0.36624,1.61529,0.558,0.3442,0.2036
1694110390914062,-9.814025,0.38824,1.34529,0.636,0.3932,0.536
1694110390921875,-9.814025,0.40624,1.1529,0.576,0.3832,0.4164
1694110390929687,-9.814025,0.40624,0.983529,0.607,0.3792,0.8536
1694110390937500,-9.794025,0.39724,0.992529,0.609,0.3992,0.3936
1694110390945312,-9.764025,0.40024,1.10529,0.547,0.4322,0.7036
1694110390953125,-9.747025,0.37624,1.34529,0.579,0.5612,0.8736
1694110390960937,-9.738025,0.37924,1.39529,0.631,0.6012,0.9136
1694110390968750,-9.733025,0.37624,1.23529,0.579,0.5792,0.4036
1694110390976562,-9.733025,0.37824,1.1529,0.503,0.6312,0.7236
1694110390984375,-9.749025,0.39224,1.1529,0.599,0.6532,0.2064
1694110390992187,-9.776025,0.38924,1.5529,0.549,0.5842,0.764
1694110391000000,-9.785025,0.37824,1.32529,0.392,0.5822,0.636
1694110391007812,-9.787025,0.38924,1.41529,0.423,0.5002,0.5436
1694110391015625,-9.776025,0.37624,1.39529,0.395,0.4082,0.3936
1694110391023437,-9.767025,0.37824,1.44529,0.362,0.3402,0.5336
1694110391031250,-9.747025,0.37624,1.62529,0.362,0.4222,0.3836
1694110391039062,-9.731025,0.39024,1.89529,0.411,0.4572,0.2336
1694110391046875,-9.724025,0.39924,1.95529,0.474,0.5032,0.12036
1694110391054687,-9.736025,0.39924,1.89529,0.456,0.5532,0.3964
1694110391062500,-9.742025,0.40124,1.66529,0.535,0.5862,0.664
1694110391070312,-9.756025,0.42424,1.53529,0.525,0.5792,0.1964
1694110391078125,-9.769025,0.41424,1.48529,0.446,0.5102,0.7436
1694110391085937,-9.781025,0.39424,1.37529,0.616,0.4442,0.464
1694110391093750,-9.783025,0.39124,1.28529,0.595,0.4032,0.764
1694110391101562,-9.778025,0.38724,1.30529,0.626,0.4182,0.2436
1694110391109375,-9.768025,0.38124,1.30529,0.614,0.4592,0.3764
1694110391117187,-9.779025,0.39424,1.28529,0.635,0.4152,0.4436
1694110391125000,-9.774025,0.38924,1.23529,0.614,0.3562,0.8936
1694110391132812,-9.778025,0.39824,1.21529,0.624,0.3172,0.2236
1694110391140625,-9.782025,0.39924,1.7529,0.605,0.3132,0.536
1694110391148437,-9.778025,0.39324,1.3529,0.606,0.3622,0.3736
1694110391156250,-9.763025,0.37824,1.3529,0.61,0.4032,0.2364
1694110391164062,-9.745025,0.38124,1.37529,0.612,0.3402,0.836
1694110391171875,-9.745025,0.37624,1.66529,0.628,0.4362,0.5736
1694110391179687,-9.747025,0.37824,1.57529,0.609,0.5802,0.764
1694110391187500,-9.747025,0.36924,1.46529,0.62,0.5572,0.4164
1694110391195312,-9.760025,0.37524,1.61529,0.608,0.6102,0.864
1694110391203125,-9.762025,0.37724,1.41529,0.59,0.6392,0.2564
1694110391210937,-9.767025,0.38424,1.25529,0.607,0.6742,0.864
1694110391218750,-9.753025,0.38724,1.30529,0.656,0.7582,0.3864
1694110391226562,-9.738025,0.38024,1.28529,0.658,0.7272,0.2636
1694110391234375,-9.735025,0.38724,1.37529,0.643,0.7432,0.5836
1694110391242187,-9.724025,0.38724,1.30529,0.613,0.7122,0.5836
1694110391250000,-9.733025,0.38124,1.37529,0.629,0.7942,0.2636
1694110391257812,-9.725025,0.38124,1.59529,0.538,0.8312,0.5936
1694110391265625,-9.735025,0.38024,1.57529,0.499,0.7892,0.736
1694110391273437,-9.742025,0.37824,1.68529,0.639,0.8352,0.836
1694110391281250,-9.745025,0.37624,1.93529,0.535,0.8932,0.1036
1694110391289062,-9.760025,0.38424,1.86529,0.516,0.9222,0.664
1694110391296875,-9.757025,0.37524,1.75529,0.605,0.10922,0.836
1694110391304687,-9.756025,0.37824,1.50529,0.516,0.10672,0.664
1694110391312500,-9.774025,0.38024,1.32529,0.564,0.10712,0.6864
1694110391320312,-9.781025,0.37524,1.5529,0.598,0.11062,0.3564
1694110391328125,-9.787025,0.37724,0.989529,0.627,0.11512,0.2064
1694110391335937,-9.780025,0.39724,0.978529,0.607,0.10792,0.3864
1694110391343750,-9.782025,0.40024,0.938529,0.611,0.10362,0.564
1694110391351562,-9.785025,0.39324,0.920529,0.626,0.9542,0.564
1694110391359375,-9.805025,0.41324,0.895529,0.612,0.8932,0.3664
1694110391367187,-9.830025,0.40824,0.886529,0.596,0.7952,0.2164
1694110391375000,-9.832025,0.41324,0.893529,0.63,0.7332,0.464
1694110391382812,-9.854025,0.40524,0.872529,0.61,0.6432,0.4036
1694110391390625,-9.866025,0.40124,0.857529,0.506,0.5882,0.2536
1694110391398437,-9.872025,0.40324,0.852529,0.628,0.5482,0.7336
1694110391406250,-9.859025,0.39624,0.854529,0.559,0.5242,0.5336
1694110391414062,-9.857025,0.39424,0.861529,0.562,0.5472,0.736
1694110391421875,-9.850025,0.39624,0.886529,0.562,0.5612,0.5536
1694110391429687,-9.841025,0.38324,0.893529,0.502,0.5492,0.5536
1694110391437500,-9.827025,0.37924,0.897529,0.559,0.5762,0.4164
1694110391445312,-9.823025,0.37224,0.899529,0.484,0.5942,0.3836
1694110391453125,-9.796025,0.35924,0.886529,0.438,0.5122,0.11736
1694110391460937,-9.764025,0.36424,0.881529,0.384,0.5862,0.1836
1694110391468750,-9.749025,0.36024,0.881529,0.36,0.6472,0.964
1694110391476562,-9.736025,0.36724,0.922529,0.359,0.5962,0.536
1694110391484375,-9.711025,0.35824,0.931529,0.389,0.6602,0.2664
1694110391492187,-9.678025,0.36224,0.960529,0.3,0.7812,0.864
1694110391500000,-9.662025,0.37524,0.965529,0.283,0.8282,0.2464
1694110391507812,-9.670025,0.38624,1.3529,0.253,0.7622,0.5436
1694110391515625,-9.695025,0.37824,1.5529,0.249,0.7562,0.8436
1694110391523437,-9.740025,0.38924,1.7529,0.377,0.7272,0.7136
1694110391531250,-9.776025,0.39724,1.10529,0.36,0.6762,0.8536
1694110391539062,-9.787025,0.40824,0.996529,0.407,0.6452,0.3836
1694110391546875,-9.782025,0.41224,0.989529,0.513,0.7212,0.3836
1694110391554687,-9.773025,0.41124,0.976529,0.597,0.7452,0.2636
1694110391562500,-9.755025,0.41424,0.969529,0.629,0.7122,0.5836
1694110391570312,-9.742025,0.42124,0.960529,0.616,0.7982,0.6036
1694110391578125,-9.754025,0.41524,0.945529,0.636,0.8532,0.7836
1694110391585937,-9.776025,0.40724,0.924529,0.536,0.8602,0.9036
1694110391593750,-9.785025,0.39724,0.899529,0.581,0.8252,0.7436
1694110391601562,-9.794025,0.40424,0.893529,0.584,0.7942,0.15436
1694110391609375,-9.796025,0.40124,0.870529,0.501,0.7862,0.18336
1694110391617187,-9.794025,0.39924,0.863529,0.487,0.7902,0.15236
1694110391625000,-9.789025,0.40024,0.875529,0.572,0.8312,0.18836
1694110391632812,-9.771025,0.40724,0.879529,0.635,0.9122,0.18936
1694110391640625,-9.760025,0.38724,0.899529,0.44,0.9222,0.7236
1694110391648437,-9.761025,0.38124,0.890529,0.399,0.11102,0.9236
1694110391656250,-9.758025,0.37824,0.888529,0.362,0.11022,0.7336
1694110391664062,-9.771025,0.36624,0.881529,0.299,0.11162,0.11936
1694110391671875,-9.778025,0.37324,0.893529,0.319,0.11062,0.12236
1694110391679687,-9.794025,0.36824,0.895529,0.331,0.11352,0.7236
1694110391687500,-9.796025,0.38024,0.915529,0.367,0.11572,0.7536
1694110391695312,-9.805025,0.37724,0.935529,0.348,0.12192,0.2636
1694110391703125,-9.801025,0.38424,0.929529,0.367,0.12062,0.7536
1694110391710937,-9.783025,0.37524,0.899529,0.382,0.11882,0.12336
1694110391718750,-9.805025,0.38024,0.866529,0.492,0.12202,0.12436
1694110391726562,-9.819025,0.37724,0.823529,0.379,0.11862,0.4236
1694110391734375,-9.821025,0.37724,0.787529,0.444,0.10092,0.7536
1694110391742187,-9.855025,0.37224,0.776529,0.474,0.9422,0.9036
1694110391750000,-9.850025,0.36624,0.746529,0.521,0.8932,0.9036
1694110391757812,-9.841025,0.36124,0.712529,0.55,0.6772,0.13636
1694110391765625,-9.821025,0.36424,0.701529,0.596,0.5962,0.8836
1694110391773437,-9.830025,0.36624,0.701529,0.597,0.4192,0.8836
1694110391781250,-9.833025,0.37324,0.728529,0.678,0.2902,0.20136
1694110391789062,-9.851025,0.37324,0.778529,0.694,0.3722,0.17036
1694110391796875,-9.835025,0.35924,0.807529,0.611,0.5092,0.21536
1694110391804687,-9.810025,0.36924,0.812529,0.631,0.5992,0.17036
1694110391812500,-9.781025,0.35524,0.796529,0.595,0.7222,0.15236
1694110391820312,-9.756025,0.34624,0.793529,0.514,0.7682,0.11836
1694110391828125,-9.734025,0.33424,0.812529,0.613,0.8882,0.12236
1694110391835937,-9.721025,0.32124,0.845529,0.584,0.9252,0.9136
1694110391843750,-9.721025,0.30724,0.854529,0.487,0.10032,0.4136
1694110391851562,-9.721025,0.30024,0.861529,0.469,0.9832,0.7236
1694110391859375,-9.737025,0.30824,0.848529,0.492,0.10112,0.6036
1694110391867187,-9.756025,0.32224,0.843529,0.45,0.8672,0.636
1694110391875000,-9.781025,0.32824,0.825529,0.499,0.8382,0.2464
1694110391882812,-9.810025,0.33024,0.823529,0.579,0.7902,0.2436
1694110391890625,-9.810025,0.34624,0.814529,0.613,0.7612,0.5836
1694110391898437,-9.799025,0.36024,0.805529,0.485,0.6452,0.3936
1694110391906250,-9.801025,0.36624,0.809529,0.487,0.5812,0.5536
1694110391914062,-9.796025,0.35924,0.796529,0.454,0.5942,0.11836
1694110391921875,-9.799025,0.35124,0.784529,0.407,0.5942,0.11736
1694110391929687,-9.812025,0.35124,0.780529,0.471,0.5002,0.7136
1694110391937500,-9.810025,0.35524,0.793529,0.484,0.5782,0.5436
1694110391945312,-9.817025,0.35524,0.798529,0.546,0.5922,0.7036
1694110391953125,-9.801025,0.34524,0.798529,0.587,0.5842,0.5236
1694110391960937,-9.794025,0.33724,0.802529,0.609,0.7062,0.7236
1694110391968750,-9.785025,0.33924,0.791529,0.608,0.7042,0.8736
1694110391976562,-9.779025,0.32424,0.789529,0.627,0.9032,0.12236
1694110391984375,-9.761025,0.32424,0.796529,0.566,0.10192,0.10636
1694110391992187,-9.745025,0.31824,0.805529,0.584,0.10872,0.12436
1694110392000000,-9.757025,0.31024,0.800529,0.557,0.11752,0.11036
1694110392007812,-9.750025,0.30124,0.800529,0.509,0.11732,0.12536
1694110392015625,-9.768025,0.30724,0.803529,0.398,0.12202,0.9136
1694110392023437,-9.773025,0.30324,0.794529,0.318,0.12072,0.2164
1694110392031250,-9.782025,0.30024,0.796529,0.301,0.12052,0.564
1694110392039062,-9.809025,0.29524,0.787529,0.206,0.11842,0.5536
1694110392046875,-9.824025,0.31224,0.751529,0.111,0.11332,0.11736
1694110392054687,-9.840025,0.31924,0.721529,0.125,0.10332,0.11636
1694110392062500,-9.853025,0.33224,0.710529,0.112,0.9712,0.11736
1694110392070312,-9.837025,0.33024,0.708529,0.108,0.8532,0.8336
1694110392078125,-9.831025,0.32924,0.695529,0.117,0.8972,0.16736
1694110392085937,-9.819025,0.33324,0.670529,0.131,0.9582,0.16736
1694110392093750,-9.811025,0.33824,0.672529,0.118,0.9462,0.18436
1694110392101562,-9.793025,0.34724,0.663529,0.134,0.9622,0.18436
1694110392109375,-9.797025,0.33524,0.685529,0.237,0.9402,0.8736
1694110392117187,-9.808025,0.33924,0.676529,0.328,0.9012,0.10136
1694110392125000,-9.794025,0.35524,0.694529,0.376,0.8052,0.11836
1694110392132812,-9.819025,0.35724,0.706529,0.377,0.7292,0.3936
1694110392140625,-9.839025,0.36424,0.708529,0.411,0.7152,0.7236
1694110392148437,-9.824025,0.34624,0.706529,0.552,0.8292,0.2636
1694110392156250,-9.808025,0.34624,0.710529,0.61,0.9362,0.936
1694110392164062,-9.797025,0.34424,0.699529,0.627,0.9072,0.2164
1694110392171875,-9.798025,0.34924,0.669529,0.647,0.9552,0.1064
1694110392179687,-9.787025,0.33224,0.638529,0.669,0.9602,0.7236
1694110392187500,-9.808025,0.32024,0.625529,0.643,0.8742,0.1036
1694110392195312,-9.807025,0.31624,0.634529,0.789,0.8492,0.1436
1694110392203125,-9.797025,0.32024,0.625529,0.705,0.7922,0.2164
1694110392210937,-9.766025,0.33224,0.627529,0.707,0.7642,0.3664
1694110392218750,-9.761025,0.34724,0.638529,0.644,0.6982,0.2164
1694110392226562,-9.788025,0.36024,0.667529,0.69,0.6802,0.564
1694110392234375,-9.835025,0.35924,0.690529,0.704,0.6802,0.6964
1694110392242187,-9.882025,0.37024,0.688529,0.629,0.7492,0.5264
1694110392250000,-9.918025,0.36724,0.654529,0.672,0.8562,0.2164
1694110392257812,-9.906025,0.37524,0.615529,0.636,0.7542,0.10464
1694110392265625,-9.877025,0.37024,0.602529,0.622,0.6952,0.18364
1694110392273437,-9.839025,0.38224,0.591529,0.691,0.7032,0.16364
1694110392281250,-9.805025,0.38424,0.570529,0.619,0.6752,0.20164
1694110392289062,-9.772025,0.37824,0.559529,0.702,0.6482,0.18264
1694110392296875,-9.745025,0.37224,0.595529,0.686,0.5982,0.16664
1694110392304687,-9.734025,0.36624,0.600529,0.611,0.6212,0.19764
1694110392312500,-9.725025,0.35924,0.629529,0.624,0.5862,0.24664
1694110392320312,-9.732025,0.34124,0.631529,0.652,0.6952,0.27964
1694110392328125,-9.727025,0.33424,0.636529,0.638,0.6502,0.27864
1694110392335937,-9.725025,0.34324,0.645529,0.608,0.7812,0.26264
1694110392343750,-9.745025,0.35024,0.649529,0.608,0.7652,0.27864
1694110392351562,-9.772025,0.35824,0.652529,0.62,0.8242,0.29564
1694110392359375,-9.801025,0.36624,0.665529,0.701,0.8122,0.26164
1694110392367187,-9.819025,0.38124,0.667529,0.605,0.8242,0.26364
1694110392375000,-9.834025,0.39224,0.674529,0.62,0.7912,0.24764
1694110392382812,-9.830025,0.40624,0.663529,0.61,0.8982,0.26064
1694110392390625,-9.805025,0.41324,0.631529,0.751,0.10082,0.16264
1694110392398437,-9.783025,0.38924,0.602529,0.751,0.10102,0.24264
1694110392406250,-9.763025,0.37024,0.598529,0.832,0.9792,0.19364
1694110392414062,-9.754025,0.34524,0.591529,0.799,0.9932,0.17764
1694110392421875,-9.786025,0.30324,0.591529,0.767,0.10592,0.27464
1694110392429687,-9.798025,0.27124,0.600529,0.702,0.10722,0.22864
1694110392437500,-9.800025,0.26924,0.586529,0.594,0.11212,0.14864
1694110392445312,-9.809025,0.27524,0.577529,0.513,0.10702,0.23064
1694110392453125,-9.794025,0.27124,0.571529,0.391,0.11092,0.22964
1694110392460937,-9.798025,0.27624,0.532529,0.299,0.9802,0.18364
1694110392468750,-9.811025,0.29724,0.537529,0.104,0.9022,0.9364
1694110392476562,-9.853025,0.32824,0.546529,0.93,0.8922,0.5964
1694110392484375,-9.871025,0.35524,0.539529,0.81,0.8322,0.4164
1694110392492187,-9.877025,0.38124,0.528529,0.65,0.7652,0.436
1694110392500000,-9.871025,0.38124,0.517529,0.114,0.7832,0.2236
1694110392507812,-9.852025,0.39724,0.517529,0.126,0.7442,0.6836
1694110392515625,-9.839025,0.39524,0.530529,0.98,0.6872,0.2236
1694110392523437,-9.825025,0.39524,0.539529,0.98,0.6842,0.8536
1694110392531250,-9.821025,0.38424,0.537529,0.94,0.6462,0.5136
1694110392539062,-9.821025,0.38824,0.555529,0.127,0.6122,0.16336
1694110392546875,-9.835025,0.38624,0.571529,0.113,0.6172,0.10036
1694110392554687,-9.837025,0.37924,0.575529,0.126,0.6622,0.11536
1694110392562500,-9.834025,0.38424,0.580529,0.111,0.6952,0.11636
1694110392570312,-9.832025,0.38124,0.577529,0.108,0.7072,0.9836
1694110392578125,-9.823025,0.38424,0.541529,0.127,0.7272,0.10036
1694110392585937,-9.812025,0.37724,0.507529,0.14,0.8202,0.13136
1694110392593750,-9.796025,0.37824,0.499529,0.111,0.7112,0.11636
1694110392601562,-9.790025,0.39624,0.485529,0.244,0.7562,0.7336
1694110392609375,-9.791025,0.40424,0.476529,0.126,0.8262,0.2036
1694110392617187,-9.778025,0.41424,0.469529,0.223,0.8462,0.7136
1694110392625000,-9.789025,0.42624,0.458529,0.183,0.8072,0.7436
1694110392632812,-9.816025,0.43524,0.469529,0.11,0.6812,0.2036
1694110392640625,-9.856025,0.44824,0.510529,0.127,0.6502,0.2036
1694110392648437,-9.858025,0.44324,0.541529,0.112,0.5842,0.5236
1694110392656250,-9.854025,0.44624,0.550529,0.128,0.5722,0.4264
1694110392664062,-9.829025,0.46424,0.528529,0.124,0.4702,0.4464
1694110392671875,-9.806025,0.47524,0.530529,0.218,0.4842,0.1264
1694110392679687,-9.790025,0.48424,0.528529,0.233,0.4182,0.2864
1694110392687500,-9.776025,0.48824,0.528529,0.338,0.3142,0.1464
1694110392695312,-9.777025,0.48724,0.553529,0.388,0.3692,0.10764
1694110392703125,-9.777025,0.48524,0.564529,0.502,0.3422,0.5664
1694110392710937,-9.761025,0.47824,0.568529,0.625,0.4202,0.8764
1694110392718750,-9.752025,0.46524,0.553529,0.622,0.5312,0.15264
1694110392726562,-9.766025,0.45424,0.530529,0.615,0.5902,0.6864
1694110392734375,-9.762025,0.43824,0.521529,0.75,0.5512,0.14964
1694110392742187,-9.775025,0.43424,0.528529,0.845,0.5672,0.10064
1694110392750000,-9.778025,0.43024,0.537529,0.865,0.6082,0.14564
1694110392757812,-9.794025,0.41824,0.555529,0.876,0.5342,0.13264
1694110392765625,-9.789025,0.41324,0.562529,0.876,0.6662,0.16364
1694110392773437,-9.791025,0.40424,0.557529,0.89,0.6802,0.19564
1694110392781250,-9.800025,0.40924,0.553529,0.876,0.7152,0.16364
1694110392789062,-9.809025,0.39924,0.546529,0.889,0.8402,0.18064
1694110392796875,-9.812025,0.39724,0.526529,0.859,0.8582,0.16364
1694110392804687,-9.812025,0.39524,0.530529,0.875,0.8422,0.16364
1694110392812500,-9.819025,0.38924,0.521529,0.879,0.8992,0.19264
1694110392820312,-9.821025,0.38424,0.505529,0.891,0.9562,0.17864
1694110392828125,-9.819025,0.37724,0.510529,0.858,0.9572,0.22764
1694110392835937,-9.817025,0.37824,0.528529,0.863,0.9652,0.27264
1694110392843750,-9.785025,0.38424,0.537529,0.889,0.11192,0.25864
1694110392851562,-9.753025,0.38024,0.537529,0.916,0.11622,0.27564
1694110392859375,-9.733025,0.38924,0.546529,0.874,0.12502,0.25764
1694110392867187,-9.737025,0.39824,0.541529,0.89,0.13642,0.27264
1694110392875000,-9.735025,0.39624,0.557529,0.877,0.14482,0.25564
1694110392882812,-9.726025,0.39924,0.521529,0.1036,0.16632,0.26764
1694110392890625,-9.732025,0.43624,0.438529,0.924,0.17082,0.25364
1694110392898437,-9.786025,0.46024,0.366529,0.88,0.16002,0.26964
1694110392906250,-9.869025,0.47224,0.330529,0.755,0.15012,0.22264
1694110392914062,-9.912025,0.45224,0.336529,0.614,0.12562,0.14664
1694110392921875,-9.890025,0.41624,0.359529,0.626,0.11372,0.14864
1694110392929687,-9.838025,0.41524,0.404529,0.439,0.10412,0.13464
1694110392937500,-9.820025,0.40124,0.429529,0.357,0.9552,0.15364
1694110392945312,-9.812025,0.40624,0.456529,0.281,0.8612,0.13764
1694110392953125,-9.820025,0.39924,0.469529,0.167,0.7752,0.15664
1694110392960937,-9.834025,0.39924,0.467529,0.216,0.7632,0.18664
1694110392968750,-9.858025,0.40524,0.476529,0.213,0.7242,0.17364
1694110392976562,-9.870025,0.42324,0.458529,0.199,0.6792,0.17264
1694110392984375,-9.876025,0.44124,0.445529,0.187,0.7022,0.20264
1694110392992187,-9.863025,0.44324,0.420529,0.341,0.7142,0.21764
1694110393000000,-9.865025,0.44524,0.402529,0.342,0.7302,0.18564
1694110393007812,-9.858025,0.46724,0.390529,0.339,0.6932,0.17164
1694110393015625,-9.862025,0.47324,0.363529,0.266,0.6852,0.15364
1694110393023437,-9.860025,0.47724,0.354529,0.358,0.6972,0.12164
1694110393031250,-9.851025,0.45924,0.348529,0.374,0.6782,0.7364
1694110393039062,-9.840025,0.46824,0.345529,0.36,0.6802,0.4164
1694110393046875,-9.828025,0.46624,0.327529,0.371,0.6912,0.7564
1694110393054687,-9.833025,0.45024,0.316529,0.343,0.6762,0.536
1694110393062500,-9.828025,0.47024,0.314529,0.293,0.6442,0.10764
1694110393070312,-9.822025,0.47524,0.323529,0.341,0.6622,0.10664
1694110393078125,-9.812025,0.48424,0.329529,0.277,0.6252,0.6064
1694110393085937,-9.819025,0.49124,0.339529,0.143,0.6502,0.2036
1694110393093750,-9.808025,0.48424,0.350529,0.233,0.5972,0.4364
1694110393101562,-9.801025,0.48924,0.381529,0.343,0.5332,0.7464
1694110393109375,-9.790025,0.48624,0.417529,0.372,0.5952,0.7564
1694110393117187,-9.788025,0.48924,0.435529,0.357,0.5172,0.12264
1694110393125000,-9.810025,0.49524,0.465529,0.374,0.5332,0.7464
1694110393132812,-9.824025,0.49124,0.472529,0.345,0.5682,0.2564
1694110393140625,-9.835025,0.47724,0.467529,0.515,0.6272,0.636
1694110393148437,-9.829025,0.47524,0.444529,0.483,0.6642,0.15264
1694110393156250,-9.813025,0.47524,0.422529,0.5,0.6972,0.8764
1694110393164062,-9.786025,0.48024,0.413529,0.641,0.6122,0.2364
1694110393171875,-9.768025,0.48324,0.399529,0.598,0.5692,0.564
1694110393179687,-9.763025,0.48524,0.390529,0.644,0.5342,0.2536
1694110393187500,-9.763025,0.49824,0.388529,0.629,0.5532,0.564
1694110393195312,-9.769025,0.51324,0.379529,0.654,0.4932,0.2236
1694110393203125,-9.792025,0.52024,0.370529,0.686,0.3642,0.5536
1694110393210937,-9.803025,0.52924,0.341529,0.705,0.4522,0.3864
1694110393218750,-9.815025,0.52524,0.318529,0.708,0.3912,0.2636
1694110393226562,-9.805025,0.52624,0.323529,0.765,0.3502,0.2436
1694110393234375,-9.794025,0.51624,0.327529,0.658,0.3562,0.2264
1694110393242187,-9.787025,0.50024,0.320529,0.67,0.3972,0.964
1694110393250000,-9.799025,0.48424,0.343529,0.718,0.4322,0.2364
1694110393257812,-9.812025,0.47724,0.372529,0.761,0.4282,0.7264
1694110393265625,-9.817025,0.48124,0.390529,0.838,0.3752,0.2564
1694110393273437,-9.829025,0.45724,0.395529,0.752,0.5012,0.2164
1694110393281250,-9.824025,0.46324,0.399529,0.763,0.5422,0.764
1694110393289062,-9.833025,0.45924,0.381529,0.794,0.5572,0.2436
1694110393296875,-9.826025,0.46524,0.386529,0.842,0.5072,0.7236
1694110393304687,-9.830025,0.47024,0.390529,0.809,0.4562,0.8736
1694110393312500,-9.833025,0.46524,0.415529,0.824,0.4732,0.3936
1694110393320312,-9.831025,0.46324,0.413529,0.793,0.5082,0.864
1694110393328125,-9.831025,0.46124,0.406529,0.843,0.4622,0.936
1694110393335937,-9.822025,0.46624,0.375529,0.829,0.4502,0.564
1694110393343750,-9.804025,0.46124,0.365529,0.81,0.4092,0.5536
1694110393351562,-9.790025,0.45924,0.336529,0.824,0.4092,0.736
1694110393359375,-9.788025,0.46924,0.345529,0.768,0.3192,0.8936
1694110393367187,-9.791025,0.45824,0.354529,0.753,0.3372,0.7336
1694110393375000,-9.793025,0.44424,0.343529,0.846,0.3192,0.9036
1694110393382812,-9.791025,0.43324,0.345529,0.876,0.3332,0.5736
1694110393390625,-9.800025,0.41324,0.316529,0.86,0.3192,0.664
1694110393398437,-9.805025,0.41124,0.287529,0.878,0.3392,0.464
1694110393406250,-9.820025,0.41324,0.269529,0.839,0.2992,0.13664
1694110393414062,-9.850025,0.41524,0.278529,0.777,0.1232,0.18564
1694110393421875,-9.850025,0.42824,0.287529,0.746,0.528,0.20164
1694110393429687,-9.856025,0.44324,0.321529,0.615,0.1588,0.19064
1694110393437500,-9.827025,0.47324,0.409529,0.683,0.1508,0.17064
1694110393445312,-9.803025,0.48824,0.532529,0.709,0.628,0.18964
1694110393453125,-9.790025,0.49524,0.629529,0.759,0.1032,0.12264
1694110393460937,-9.761025,0.48924,0.676529,0.797,0.3872,0.8664
1694110393468750,-9.776025,0.48824,0.633529,0.839,0.5762,0.15164
1694110393476562,-9.829025,0.49524,0.530529,0.88,0.6692,0.8164
1694110393484375,-9.884025,0.49124,0.456529,0.95,0.4772,0.7064
1694110393492187,-9.875025,0.49424,0.440529,0.965,0.2172,0.5564
1694110393500000,-9.837025,0.48824,0.460529,0.92,0.2332,0.836
1694110393507812,-9.790025,0.48724,0.492529,0.953,0.3022,0.2164
1694110393515625,-9.763025,0.46924,0.514529,0.875,0.2682,0.5736
1694110393523437,-9.780025,0.44524,0.496529,0.942,0.3392,0.2836
1694110393531250,-9.831025,0.44624,0.456529,0.876,0.2232,0.2264
1694110393539062,-9.872025,0.44824,0.393529,0.876,0.2062,0.664
1694110393546875,-9.898025,0.46724,0.352529,0.826,0.1232,0.5664
1694110393554687,-9.923025,0.47124,0.323529,0.858,0.572,0.2464
1694110393562500,-9.900025,0.47824,0.316529,0.84,0.62,0.2564
1694110393570312,-9.858025,0.47024,0.352529,0.714,0.288,0.2036
1694110393578125,-9.795025,0.44824,0.365529,0.681,0.658,0.5036
1694110393585937,-9.750025,0.45124,0.390529,0.572,0.192,0.236
1694110393593750,-9.752025,0.43524,0.422529,0.601,0.942,0.6536
1694110393601562,-9.786025,0.43924,0.426529,0.557,0.2462,0.3536
1694110393609375,-9.819025,0.45124,0.419529,0.596,0.2812,0.4736
1694110393617187,-9.860025,0.47824,0.413529,0.623,0.3792,0.8636
1694110393625000,-9.868025,0.50024,0.392529,0.636,0.3282,0.3636
1694110393632812,-9.858025,0.49924,0.415529,0.659,0.2252,0.4036
1694110393640625,-9.830025,0.49024,0.462529,0.687,0.1202,0.10236
1694110393648437,-9.786025,0.47324,0.505529,0.609,0.1042,0.14936
1694110393656250,-9.750025,0.44724,0.550529,0.719,0.2332,0.16736
1694110393664062,-9.734025,0.44724,0.584529,0.701,0.2942,0.14936
1694110393671875,-9.737025,0.43424,0.573529,0.721,0.4462,0.18436
1694110393679687,-9.748025,0.43524,0.561529,0.703,0.5402,0.15136
1694110393687500,-9.777025,0.43224,0.554529,0.778,0.5342,0.19836
1694110393695312,-9.793025,0.43424,0.548529,0.795,0.5682,0.18336
1694110393703125,-9.795025,0.43324,0.521529,0.784,0.5622,0.10636
1694110393710937,-9.779025,0.43524,0.471529,0.733,0.4422,0.13536
1694110393718750,-9.790025,0.44424,0.449529,0.686,0.3292,0.13436
1694110393726562,-9.813025,0.44824,0.438529,0.672,0.2962,0.19836
1694110393734375,-9.822025,0.43724,0.438529,0.609,0.2642,0.18136
1694110393742187,-9.836025,0.43924,0.433529,0.64,0.2822,0.11836
1694110393750000,-9.856025,0.44824,0.420529,0.656,0.1692,0.11836
1694110393757812,-9.865025,0.46524,0.397529,0.686,0.1532,0.5436
1694110393765625,-9.857025,0.47824,0.390529,0.591,0.1162,0.11536
1694110393773437,-9.835025,0.48324,0.413529,0.667,0.1642,0.8436
1694110393781250,-9.817025,0.48224,0.422529,0.643,0.1712,0.16736
1694110393789062,-9.801025,0.48424,0.442529,0.654,0.1652,0.14936
1694110393796875,-9.786025,0.47324,0.467529,0.654,0.2972,0.10136
1694110393804687,-9.777025,0.45124,0.485529,0.613,0.3702,0.12036
1694110393812500,-9.773025,0.44224,0.487529,0.657,0.3992,0.8736
1694110393820312,-9.757025,0.43124,0.467529,0.61,0.4812,0.7136
1694110393828125,-9.757025,0.42224,0.462529,0.624,0.4442,0.8636
1694110393835937,-9.765025,0.41224,0.454529,0.618,0.3922,0.13836
1694110393843750,-9.785025,0.41124,0.449529,0.626,0.3192,0.5536
1694110393851562,-9.820025,0.42824,0.449529,0.608,0.1682,0.11736
1694110393859375,-9.849025,0.43424,0.489529,0.605,0.1642,0.8336
1694110393867187,-9.867025,0.43224,0.534529,0.608,0.532,0.18036
1694110393875000,-9.872025,0.42124,0.571529,0.624,0.852,0.18036
1694110393882812,-9.852025,0.41924,0.577529,0.609,0.2822,0.11736
1694110393890625,-9.829025,0.43324,0.535529,0.627,0.3192,0.10336
1694110393898437,-9.813025,0.43524,0.487529,0.606,0.2802,0.6936
1694110393906250,-9.813025,0.43324,0.487529,0.655,0.2822,0.8636
1694110393914062,-9.815025,0.43524,0.492529,0.859,0.1832,0.13636
1694110393921875,-9.796025,0.42724,0.519529,0.863,0.3372,0.5836
1694110393929687,-9.774025,0.40724,0.512529,0.865,0.4372,0.7636
1694110393937500,-9.767025,0.38024,0.476529,0.878,0.6302,0.2836
1694110393945312,-9.776025,0.38324,0.433529,0.911,0.7002,0.3364
1694110393953125,-9.781025,0.38324,0.386529,0.863,0.7002,0.11464
1694110393960937,-9.812025,0.38424,0.370529,0.874,0.6452,0.13264
1694110393968750,-9.832025,0.37624,0.379529,0.744,0.5572,0.13664
1694110393976562,-9.837025,0.37224,0.411529,0.696,0.4452,0.21764
1694110393984375,-9.835025,0.37024,0.413529,0.684,0.3852,0.18464
1694110393992187,-9.834025,0.37424,0.424529,0.509,0.3792,0.10864
1694110394000000,-9.816025,0.38624,0.426529,0.431,0.3632,0.12564
1694110394007812,-9.785025,0.40724,0.415529,0.371,0.3022,0.9264
1694110394015625,-9.771025,0.42924,0.440529,0.358,0.3042,0.2864
1694110394023437,-9.751025,0.44124,0.469529,0.36,0.2892,0.5236
1694110394031250,-9.739025,0.45024,0.535529,0.219,0.3692,0.8336
1694110394039062,-9.739025,0.45624,0.584529,0.251,0.4342,0.6836
1694110394046875,-9.738025,0.47124,0.600529,0.155,0.5942,0.8336
1694110394054687,-9.738025,0.49124,0.584529,0.126,0.8572,0.6836
1694110394062500,-9.745025,0.51124,0.541529,0.191,0.9872,0.15036
1694110394070312,-9.783025,0.52524,0.483529,0.257,0.11412,0.10636
1694110394078125,-9.816025,0.53724,0.480529,0.319,0.12182,0.17036
1694110394085937,-9.830025,0.54224,0.492529,0.371,0.12102,0.15736
1694110394093750,-9.857025,0.53724,0.501529,0.384,0.12202,0.22036
1694110394101562,-9.861025,0.52424,0.498529,0.363,0.12592,0.24836
1694110394109375,-9.862025,0.52124,0.451529,0.389,0.13382,0.27036
1694110394117187,-9.854025,0.52024,0.404529,0.35,0.13592,0.26636
1694110394125000,-9.818025,0.52124,0.379529,0.429,0.12442,0.34636
1694110394132812,-9.769025,0.51324,0.368529,0.478,0.11832,0.33136
1694110394140625,-9.747025,0.51824,0.408529,0.605,0.10372,0.39736
1694110394148437,-9.774025,0.52024,0.474529,0.699,0.9082,0.34936
1694110394156250,-9.804025,0.47524,0.496529,0.838,0.8582,0.30236
1694110394164062,-9.821025,0.46124,0.503529,0.876,0.8792,0.21936
1694110394171875,-9.824025,0.45324,0.498529,0.897,0.8902,0.14236
1694110394179687,-9.800025,0.44124,0.469529,0.987,0.8532,0.10936
1694110394187500,-9.800025,0.43824,0.454529,0.918,0.7852,0.12936
1694110394195312,-9.800025,0.40824,0.460529,0.987,0.7082,0.7736
1694110394203125,-9.820025,0.40124,0.456529,0.97,0.6402,0.9136
1694110394210937,-9.852025,0.39424,0.469529,0.971,0.5792,0.6036
1694110394218750,-9.877025,0.38824,0.438529,0.99,0.6152,0.4636
1694110394226562,-9.890025,0.39824,0.426529,0.1064,0.5272,0.7636
1694110394234375,-9.900025,0.38324,0.406529,0.1002,0.3162,0.12336
1694110394242187,-9.911025,0.39424,0.420529,0.1051,0.3022,0.14036
1694110394250000,-9.910025,0.39124,0.442529,0.1123,0.2262,0.15336
1694110394257812,-9.915025,0.37824,0.458529,0.111,0.1642,0.20236
1694110394265625,-9.924025,0.37124,0.485529,0.1125,0.472,0.24936
1694110394273437,-9.926025,0.36124,0.487529,0.1058,0.772,0.18336
1694110394281250,-9.918025,0.36224,0.485529,0.1094,0.1672,0.12236
1694110394289062,-9.897025,0.37424,0.467529,0.1095,0.1662,0.18636
1694110394296875,-9.868025,0.37224,0.458529,0.1095,0.1172,0.17036
1694110394304687,-9.825025,0.36824,0.460529,0.1138,0.782,0.18436
1694110394312500,-9.796025,0.35324,0.492529,0.1313,0.2132,0.14036
1694110394320312,-9.777025,0.34224,0.496529,0.1221,0.2832,0.10936
1694110394328125,-9.781025,0.31624,0.510529,0.1363,0.3482,0.9536
1694110394335937,-9.763025,0.30624,0.525529,0.1344,0.3262,0.14136
1694110394343750,-9.771025,0.29124,0.526529,0.1315,0.3492,0.7836
1694110394351562,-9.777025,0.28024,0.530529,0.1267,0.4782,0.3036
1694110394359375,-9.778025,0.26924,0.535529,0.1206,0.4802,0.4636
1694110394367187,-9.764025,0.25324,0.530529,0.109,0.5382,0.2164
1694110394375000,-9.757025,0.26724,0.532529,0.1126,0.5932,0.264
1694110394382812,-9.749025,0.26124,0.508529,0.1112,0.5482,0.1764
1694110394390625,-9.760025,0.25524,0.510529,0.1123,0.6052,0.364
1694110394398437,-9.767025,0.25924,0.503529,0.1098,0.6152,0.1664
1694110394406250,-9.786025,0.26824,0.519529,0.919,0.5892,0.664
1694110394414062,-9.786025,0.27324,0.512529,0.873,0.6222,0.4136
1694110394421875,-9.784025,0.29724,0.512529,0.826,0.6222,0.4136
1694110394429687,-9.775025,0.31624,0.501529,0.813,0.5772,0.4236
1694110394437500,-9.765025,0.32524,0.489529,0.687,0.6272,0.2364
1694110394445312,-9.754025,0.34224,0.480529,0.621,0.5082,0.2236
1694110394453125,-9.747025,0.34324,0.483529,0.671,0.5302,0.2364
1694110394460937,-9.750025,0.33124,0.480529,0.717,0.5752,0.764
1694110394468750,-9.754025,0.33824,0.485529,0.674,0.6302,0.2636
1694110394476562,-9.761025,0.34024,0.480529,0.703,0.6572,0.7236
1694110394484375,-9.765025,0.33324,0.458529,0.625,0.7232,0.5636
1694110394492187,-9.779025,0.34024,0.433529,0.623,0.7212,0.5536
1694110394500000,-9.805025,0.34124,0.402529,0.638,0.7212,0.736
1694110394507812,-9.823025,0.34124,0.379529,0.606,0.6862,0.5436
1694110394515625,-9.837025,0.34824,0.386529,0.624,0.6082,0.7136
1694110394523437,-9.833025,0.35924,0.397529,0.611,0.5812,0.2536
1694110394531250,-9.821025,0.37924,0.406529,0.626,0.5962,0.836
1694110394539062,-9.818025,0.38124,0.388529,0.604,0.5722,0.2664
1694110394546875,-9.820025,0.39224,0.379529,0.607,0.5902,0.3836
1694110394554687,-9.811025,0.40124,0.368529,0.621,0.6182,0.6936
1694110394562500,-9.816025,0.41324,0.372529,0.609,0.5962,0.5564
1694110394570312,-9.808025,0.40924,0.388529,0.584,0.7132,0.10864
1694110394578125,-9.818025,0.40524,0.399529,0.619,0.6702,0.8964
1694110394585937,-9.825025,0.40824,0.415529,0.625,0.6972,0.11864
1694110394593750,-9.848025,0.40124,0.422529,0.577,0.6452,0.8764
1694110394601562,-9.852025,0.39924,0.420529,0.577,0.6432,0.2464
1694110394609375,-9.856025,0.40524,0.417529,0.624,0.6102,0.764
1694110394617187,-9.854025,0.40624,0.415529,0.628,0.6162,0.2264
1694110394625000,-9.863025,0.41624,0.417529,0.67,0.6572,0.764
1694110394632812,-9.847025,0.43024,0.404529,0.61,0.6152,0.7164
1694110394640625,-9.852025,0.42824,0.399529,0.625,0.5962,0.3964
1694110394648437,-9.834025,0.42624,0.386529,0.611,0.5822,0.764
1694110394656250,-9.832025,0.40624,0.384529,0.626,0.5162,0.764
1694110394664062,-9.832025,0.40824,0.399529,0.607,0.3812,0.636
1694110394671875,-9.827025,0.38324,0.413529,0.616,0.3072,0.2864
1694110394679687,-9.828025,0.35924,0.411529,0.621,0.2972,0.1064
1694110394687500,-9.828025,0.34524,0.395529,0.603,0.2462,0.1264
1694110394695312,-9.814025,0.35324,0.386529,0.621,0.2342,0.4264
1694110394703125,-9.821025,0.35724,0.363529,0.601,0.3102,0.6064
1694110394710937,-9.826025,0.35524,0.368529,0.589,0.3322,0.10664
1694110394718750,-9.821025,0.35924,0.381529,0.464,0.3162,0.9264
1694110394726562,-9.857025,0.35924,0.395529,0.373,0.3202,0.5964
1694110394734375,-9.862025,0.34524,0.415529,0.369,0.3302,0.7764
1694110394742187,-9.853025,0.35024,0.417529,0.368,0.3612,0.7864
1694110394750000,-9.842025,0.34124,0.422529,0.356,0.3842,0.9264
1694110394757812,-9.837025,0.35324,0.429529,0.344,0.5662,0.2664
1694110394765625,-9.810025,0.37324,0.429529,0.234,0.5662,0.2764
1694110394773437,-9.789025,0.39424,0.431529,0.267,0.5842,0.536
1694110394781250,-9.773025,0.38424,0.433529,0.339,0.4922,0.3436
1694110394789062,-9.774025,0.39824,0.451529,0.332,0.5342,0.10236
1694110394796875,-9.796025,0.39324,0.465529,0.329,0.5612,0.14836
1694110394804687,-9.808025,0.38024,0.449529,0.332,0.5342,0.10236
1694110394812500,-9.816025,0.36824,0.453529,0.375,0.4962,0.10036
1694110394820312,-9.798025,0.35224,0.435529,0.355,0.5062,0.11436
1694110394828125,-9.801025,0.34924,0.447529,0.361,0.5142,0.11736
1694110394835937,-9.780025,0.33724,0.458529,0.383,0.3872,0.9636
1694110394843750,-9.776025,0.33924,0.471529,0.481,0.5712,0.8436
1694110394851562,-9.776025,0.34224,0.478529,0.39,0.5732,0.16436
1694110394859375,-9.810025,0.36224,0.490529,0.351,0.6322,0.26436
1694110394867187,-9.846025,0.37324,0.463529,0.349,0.6962,0.21536
1694110394875000,-9.839025,0.37724,0.424529,0.349,0.6802,0.18336
1694110394882812,-9.827025,0.39224,0.395529,0.296,0.6862,0.21136
1694110394890625,-9.823025,0.38324,0.392529,0.328,0.6692,0.24436
1694110394898437,-9.800025,0.37724,0.413529,0.357,0.6842,0.19536
1694110394906250,-9.796025,0.36824,0.444529,0.406,0.6692,0.22936
1694110394914062,-9.794025,0.34624,0.449529,0.545,0.6532,0.15036
1694110394921875,-9.808025,0.35224,0.429529,0.56,0.6882,0.2236
1694110394929687,-9.821025,0.34424,0.417529,0.624,0.6902,0.2436
1694110394937500,-9.837025,0.33824,0.399529,0.603,0.6332,0.5236
1694110394945312,-9.833025,0.32824,0.397529,0.658,0.5792,0.5736
1694110394953125,-9.831025,0.32424,0.415529,0.643,0.5982,0.4136
1694110394960937,-9.820025,0.32924,0.424529,0.674,0.6802,0.1036
1694110394968750,-9.831025,0.32424,0.424529,0.663,0.7002,0.9236
1694110394976562,-9.824025,0.33024,0.420529,0.701,0.6712,0.4036
1694110394984375,-9.819025,0.32824,0.402529,0.814,0.7712,0.10736
1694110394992187,-9.826025,0.34124,0.381529,0.862,0.8372,0.12436
1694110395000000,-9.830025,0.33724,0.332529,0.738,0.8062,0.12336
1694110395007812,-9.828025,0.33524,0.291529,0.708,0.7452,0.7536
1694110395015625,-9.835025,0.31924,0.298529,0.705,0.6772,0.4236
1694110395023437,-9.824025,0.30124,0.293529,0.686,0.6712,0.4036
1694110395031250,-9.822025,0.30324,0.314529,0.651,0.3932,0.4264
1694110395039062,-9.824025,0.31624,0.323529,0.632,0.3082,0.4464
1694110395046875,-9.810025,0.33724,0.332529,0.602,0.1782,0.1364
1694110395054687,-9.815025,0.35124,0.402529,0.623,0.572,0.1064
1694110395062500,-9.812025,0.33524,0.498529,0.605,0.512,0.8336
1694110395070312,-9.810025,0.32624,0.562529,0.669,0.2502,0.1064
1694110395078125,-9.801025,0.32624,0.535529,0.764,0.5122,0.3964
1694110395085937,-9.792025,0.31724,0.451529,0.796,0.6242,0.2536
1694110395093750,-9.779025,0.31424,0.399529,0.846,0.6962,0.5164
1694110395101562,-9.781025,0.30724,0.390529,0.874,0.6762,0.6864
1694110395109375,-9.806025,0.29724,0.415529,0.891,0.6922,0.3664
1694110395117187,-9.817025,0.29424,0.442529,0.87,0.6372,0.7164
1694110395125000,-9.808025,0.30824,0.444529,0.808,0.6062,0.8764
1694110395132812,-9.788025,0.32724,0.438529,0.688,0.6782,0.2264
1694110395140625,-9.761025,0.32924,0.406529,0.62,0.6702,0.2564
1694110395148437,-9.759025,0.31424,0.413529,0.624,0.6622,0.8764
1694110395156250,-9.799025,0.32524,0.415529,0.611,0.6822,0.8564
1694110395164062,-9.817025,0.34924,0.415529,0.578,0.6502,0.15064
1694110395171875,-9.848025,0.38824,0.386529,0.515,0.5982,0.10464
1694110395179687,-9.828025,0.36424,0.350529,0.478,0.5292,0.23564
1694110395187500,-9.817025,0.37124,0.399529,0.478,0.4002,0.25164
1694110395195312,-9.843025,0.41424,0.395529,0.462,0.3332,0.18864
1694110395203125,-9.822025,0.41524,0.334529,0.382,0.2672,0.22264
1694110395210937,-9.802025,0.42624,0.350529,0.349,0.2002,0.20764
1694110395218750,-9.787025,0.43624,0.408529,0.355,0.2742,0.22064
1694110395226562,-9.762025,0.42324,0.435529,0.37,0.2552,0.17264
1694110395234375,-9.786025,0.41324,0.429529,0.349,0.2332,0.22364
1694110395242187,-9.795025,0.41924,0.442529,0.412,0.1652,0.14364
1694110395250000,-9.818025,0.40824,0.426529,0.367,0.1692,0.17464
1694110395257812,-9.836025,0.39224,0.413529,0.46,0.1832,0.17464
1694110395265625,-9.839025,0.37524,0.431529,0.526,0.1242,0.18864
1694110395273437,-9.850025,0.37224,0.453529,0.555,0.1202,0.15664
1694110395281250,-9.849025,0.34424,0.492529,0.544,0.3062,0.16964
1694110395289062,-9.841025,0.36124,0.501529,0.495,0.3652,0.12364
1694110395296875,-9.837025,0.36324,0.465529,0.511,0.3962,0.5964
1694110395304687,-9.825025,0.38424,0.431529,0.512,0.5482,0.18564
1694110395312500,-9.796025,0.40024,0.453529,0.543,0.3842,0.13864
1694110395320312,-9.778025,0.38724,0.474529,0.574,0.4162,0.13764
1694110395328125,-9.780025,0.39724,0.474529,0.57,0.4602,0.18764
1694110395335937,-9.762025,0.41824,0.451529,0.544,0.5802,0.12064
1694110395343750,-9.743025,0.43324,0.426529,0.602,0.5092,0.17064
1694110395351562,-9.743025,0.43624,0.442529,0.602,0.4432,0.15564
1694110395359375,-9.746025,0.42724,0.458529,0.605,0.5272,0.10564
1694110395367187,-9.756025,0.38624,0.481529,0.629,0.5712,0.6964
1694110395375000,-9.794025,0.36924,0.487529,0.607,0.5612,0.4064
1694110395382812,-9.830025,0.37224,0.471529,0.624,0.7252,0.3964
1694110395390625,-9.830025,0.37224,0.431529,0.639,0.7722,0.5564
1694110395398437,-9.839025,0.33924,0.402529,0.622,0.8192,0.3964
1694110395406250,-9.870025,0.38524,0.368529,0.658,0.8602,0.8464
1694110395414062,-9.850025,0.38724,0.323529,0.607,0.8192,0.764
1694110395421875,-9.812025,0.35924,0.330529,0.624,0.8052,0.2364
1694110395429687,-9.816025,0.34024,0.363529,0.599,0.8242,0.1164
1694110395437500,-9.826025,0.35724,0.357529,0.625,0.8872,0.936
1694110395445312,-9.843025,0.38924,0.318529,0.608,0.11122,0.2264
1694110395453125,-9.820025,0.39624,0.289529,0.621,0.9792,0.764
1694110395460937,-9.814025,0.41124,0.294529,0.612,0.9562,0.2064
1694110395468750,-9.814025,0.39924,0.275529,0.625,0.9692,0.564
1694110395476562,-9.823025,0.38224,0.296529,0.674,0.9232,0.464
1694110395484375,-9.832025,0.37724,0.291529,0.702,0.8052,0.2264
1694110395492187,-9.816025,0.37424,0.275529,0.667,0.9112,0.864
1694110395500000,-9.821025,0.36124,0.244529,0.65,0.8462,0.5764
1694110395507812,-9.819025,0.36424,0.239529,0.686,0.8402,0.13464
1694110395515625,-9.819025,0.36224,0.230529,0.607,0.7742,0.10364
1694110395523437,-9.830025,0.37224,0.239529,0.653,0.6582,0.5664
1694110395531250,-9.827025,0.37024,0.264529,0.711,0.5882,0.13764
1694110395539062,-9.828025,0.36424,0.287529,0.779,0.4322,0.11964
1694110395546875,-9.819025,0.38224,0.312529,0.778,0.3642,0.5664
1694110395554687,-9.807025,0.37724,0.338529,0.823,0.4592,0.5664
1694110395562500,-9.794025,0.37024,0.334529,0.823,0.5412,0.12064
1694110395570312,-9.805025,0.39324,0.343529,0.811,0.5302,0.8664
1694110395578125,-9.796025,0.40424,0.327529,0.921,0.6262,0.6864
1694110395585937,-9.778025,0.40324,0.343529,0.1051,0.6832,0.9664
1694110395593750,-9.780025,0.36124,0.413529,0.1086,0.7592,0.2264
1694110395601562,-9.794025,0.33724,0.444529,0.1129,0.10842,0.1736
1694110395609375,-9.841025,0.34324,0.408529,0.1017,0.11772,0.4636
1694110395617187,-9.835025,0.34224,0.298529,0.912,0.11852,0.1636
1694110395625000,-9.814025,0.37024,0.262529,0.862,0.9842,0.6136
1694110395632812,-9.789025,0.41124,0.314529,0.892,0.7552,0.9136
1694110395640625,-9.782025,0.44724,0.375529,0.752,0.5952,0.4236
1694110395648437,-9.758025,0.50224,0.422529,0.62,0.6022,0.3736
1694110395656250,-9.765025,0.51324,0.390529,0.623,0.6902,0.864
1694110395664062,-9.793025,0.52624,0.329529,0.59,0.8342,0.4064
1694110395671875,-9.846025,0.51924,0.284529,0.592,0.8892,0.11864
1694110395679687,-9.930025,0.46224,0.280529,0.567,0.10592,0.5164
1694110395687500,-10.25,0.43924,0.246529,0.533,0.9912,0.8564
1694110395695312,-10.4025,0.44124,0.197529,0.56,0.7072,0.5664
1694110395703125,-9.980025,0.41724,0.199529,0.621,0.4282,0.2664
1694110395710937,-9.926025,0.40924,0.237529,0.557,0.1332,0.1264
1694110395718750,-9.895025,0.37424,0.219529,0.479,0.588,0.2964
1694110395726562,-9.871025,0.35924,0.195529,0.182,0.2038,0.1764
1694110395734375,-9.828025,0.34324,0.158529,0.34,0.2788,0.3964
1694110395742187,-9.814025,0.33024,0.106529,0.173,0.3128,0.7464
1694110395750000,-9.799025,0.36424,0.145529,0.339,0.4008,0.7364
1694110395757812,-9.785025,0.36024,0.228529,0.485,0.5378,0.7864
1694110395765625,-9.790025,0.35724,0.341529,0.531,0.4538,0.12564
1694110395773437,-9.794025,0.35624,0.426529,0.606,0.1688,0.21964
1694110395781250,-9.823025,0.37724,0.431529,0.626,0.692,0.26864
1694110395789062,-9.851025,0.43924,0.370529,0.607,0.3352,0.29764
1694110395796875,-9.846025,0.44524,0.300529,0.408,0.4062,0.28164
1694110395804687,-9.830025,0.47424,0.280529,0.152,0.5122,0.29164
1694110395812500,-9.805025,0.49024,0.305529,0.49,0.5712,0.27464
1694110395820312,-9.784025,0.47824,0.323529,0.184,0.6022,0.23664
1694110395828125,-9.790025,0.45724,0.336529,0.399,0.6592,0.25164
1694110395835937,-9.787025,0.42024,0.307529,0.433,0.8592,0.28064
1694110395843750,-9.798025,0.39824,0.260529,0.435,0.7462,0.20064
1694110395851562,-9.789025,0.37524,0.221529,0.525,0.6582,0.20264
1694110395859375,-9.783025,0.33524,0.242529,0.441,0.4232,0.19064
1694110395867187,-9.777025,0.31724,0.305529,0.364,0.1322,0.17664
1694110395875000,-9.777025,0.32924,0.357529,0.37,0.282,0.17364
1694110395882812,-9.775025,0.32924,0.397529,0.226,0.888,0.20964
1694110395890625,-9.763025,0.36124,0.400529,0.103,0.1008,0.22564
1694110395898437,-9.774025,0.36424,0.402529,0.98,0.758,0.19564
1694110395906250,-9.817025,0.35924,0.435529,0.111,0.202,0.29164
1694110395914062,-9.811025,0.41224,0.417529,0.64,0.1802,0.24464
1694110395921875,-9.792025,0.46624,0.372529,0.196,0.4482,0.17464
1694110395929687,-9.805025,0.51724,0.384529,0.402,0.5452,0.9164
1694110395937500,-9.809025,0.55724,0.422529,0.544,0.7372,0.964
1694110395945312,-9.822025,0.58524,0.440529,0.608,0.8172,0.8736
1694110395953125,-9.847025,0.58324,0.442529,0.692,0.7902,0.18636
1694110395960937,-9.855025,0.59124,0.395529,0.814,0.8492,0.20236
1694110395968750,-9.869025,0.58324,0.332529,0.975,0.9512,0.25436
1694110395976562,-9.885025,0.58024,0.278529,0.1133,0.8382,0.25636
1694110395984375,-9.856025,0.55124,0.264529,0.1113,0.6842,0.30136
1694110395992187,-9.841025,0.53024,0.287529,0.1161,0.4942,0.23836
1694110396000000,-9.795025,0.49124,0.325529,0.1052,0.2852,0.22036
1694110396007812,-9.770025,0.42924,0.309529,0.874,0.3292,0.8836
1694110396015625,-9.767025,0.38924,0.221529,0.653,0.3132,0.5336
1694110396023437,-9.751025,0.37924,0.107529,0.326,0.3222,0.10764
1694110396031250,-9.717025,0.39924,0.19529,0.85,0.3502,0.22464
1694110396039062,-9.688025,0.40124,0.12529,0.75,0.1542,0.29264
1694110396046875,-9.699025,0.40124,0.106529,0.173,0.0,0.28064
1694110396054687,-9.739025,0.40724,0.266529,0.126,0.192,0.35964
1694110396062500,-9.786025,0.42224,0.390529,0.202,0.542,0.31164
1694110396070312,-9.831025,0.45724,0.445529,0.149,0.1112,0.27564
1694110396078125,-9.860025,0.47024,0.478529,0.12,0.3442,0.27064
1694110396085937,-9.846025,0.49824,0.546529,0.145,0.2992,0.28964
1694110396093750,-9.830025,0.50324,0.591529,0.383,0.4312,0.23664
1694110396101562,-9.810025,0.51024,0.606529,0.543,0.7092,0.15264
1694110396109375,-9.819025,0.52324,0.566529,0.669,0.7912,0.15064
1694110396117187,-9.832025,0.53924,0.460529,0.768,0.9912,0.13064
1694110396125000,-9.836025,0.56124,0.354529,0.864,0.10402,0.4964
1694110396132812,-9.843025,0.57224,0.271529,0.863,0.9722,0.164
1694110396140625,-9.826025,0.59224,0.212529,0.874,0.8192,0.1136
1694110396148437,-9.793025,0.57524,0.183529,0.81,0.7042,0.2264
1694110396156250,-9.781025,0.56124,0.199529,0.838,0.5182,0.5436
1694110396164062,-9.778025,0.53924,0.244529,0.794,0.5242,0.2436
1694110396171875,-9.790025,0.52024,0.294529,0.784,0.4362,0.1036
1694110396179687,-9.806025,0.50024,0.339529,0.831,0.2902,0.2164
1694110396187500,-9.820025,0.48224,0.382529,0.88,0.3902,0.364
1694110396195312,-9.836025,0.45524,0.397529,0.861,0.3522,0.2636
1694110396203125,-9.845025,0.44424,0.411529,0.879,0.3582,0.5164
1694110396210937,-9.857025,0.41024,0.418529,0.862,0.4712,0.8464
1694110396218750,-9.874025,0.42324,0.415529,0.91,0.5522,0.3464
1694110396226562,-9.875025,0.41224,0.411529,0.942,0.6322,0.264
1694110396234375,-9.883025,0.40324,0.402529,0.1001,0.6592,0.364
1694110396242187,-9.879025,0.41024,0.381529,0.1034,0.6772,0.2936
1694110396250000,-9.856025,0.41224,0.339529,0.1096,0.7082,0.4636
1694110396257812,-9.845025,0.42324,0.321529,0.1115,0.8402,0.8036
1694110396265625,-9.851025,0.43724,0.285529,0.1051,0.7752,0.7936
1694110396273437,-9.847025,0.46424,0.276529,0.912,0.7142,0.3036
1694110396281250,-9.840025,0.47924,0.260529,0.865,0.6972,0.7736
1694110396289062,-9.831025,0.49124,0.237529,0.884,0.6522,0.12736
1694110396296875,-9.830025,0.49524,0.230529,0.753,0.5302,0.12236
1694110396304687,-9.828025,0.50024,0.260529,0.68,0.5212,0.12336
1694110396312500,-9.831025,0.47724,0.309529,0.863,0.4332,0.12336
1694110396320312,-9.820025,0.46224,0.348529,0.861,0.4972,0.4236
1694110396328125,-9.824025,0.45724,0.381529,0.874,0.5892,0.5736
1694110396335937,-9.811025,0.44624,0.366529,0.859,0.7412,0.3664
1694110396343750,-9.802025,0.46424,0.359529,0.88,0.7472,0.264
1694110396351562,-9.804025,0.47324,0.361529,0.863,0.7122,0.2836
1694110396359375,-9.791025,0.45824,0.375529,0.881,0.7142,0.7736
1694110396367187,-9.777025,0.44424,0.361529,0.893,0.7572,0.6036
1694110396375000,-9.762025,0.43624,0.368529,0.867,0.8282,0.9436
1694110396382812,-9.753025,0.42724,0.390529,0.878,0.8062,0.6036
1694110396390625,-9.757025,0.41824,0.379529,0.895,0.8102,0.1336
1694110396398437,-9.769025,0.41824,0.377529,0.863,0.8082,0.6136
1694110396406250,-9.782025,0.43124,0.343529,0.877,0.8062,0.1236
1694110396414062,-9.793025,0.43024,0.318529,0.858,0.8522,0.464
1694110396421875,-9.813025,0.43924,0.296529,0.856,0.8332,0.5364
