time,Acceleration X (m/s^2),Acceleration Y (m/s^2),Acceleration Z (m/s^2),Angular Velocity X (rad/s),Angular Velocity Y (rad/s),Angular Velocity Z (rad/s)
1694111006789062,-9.917384,-0.698697,,,,
1694111006796875,-9.941384,-1.27697,0.65012,0.62158,0.129127,0.319891
1694111006804687,-9.917384,-1.258697,0.86012,0.2042,0.46827,0.347291
1694111006812500,-9.858384,-1.444697,0.196012,0.55442,0.8573,0.360491
1694111006820312,-9.767384,-1.545697,0.390012,0.95742,0.73473,0.384291
1694111006828125,-9.794384,-1.554697,0.554012,0.133442,0.141773,0.389291
1694111006843750,-10.381384,-1.374697,0.268012,0.292442,0.292473,0.389991
1694111006851562,-10.919384,-1.179697,0.206988,0.406842,0.343273,0.397491
1694111006859375,-11.280384,0.913697,0.729988,0.497742,0.365273,0.412591
1694111006867187,-11.217384,0.679697,1.60988,0.586042,0.335273,0.409291
1694111006890625,-8.750384,0.57697,0.630988,0.975542,0.94473,0.283691
1694111006898437,-8.289384,0.259303,0.545988,1.129342,0.179973,0.249291
1694111006906250,-8.127384,0.803303,0.387988,1.224742,0.298873,0.223491
1694111006914062,-8.299384,1.304303,0.158988,1.272142,0.340473,0.154891
1694111006921875,-8.778384,1.772303,0.147012,1.257542,0.313273,0.72591
1694111006929687,-9.444384,2.112303,0.311012,1.203342,0.312073,0.3091
1694111006937500,-10.44384,2.412303,0.176012,1.60242,0.393273,0.74609
1694111006945312,-10.485384,2.421303,0.192988,0.935642,0.346573,0.136609
1694111006953125,-11.22384,2.427303,0.352012,0.735542,0.288773,0.128809
1694111006960937,-11.187384,2.471303,0.838012,0.502042,0.421073,0.84109
1694111006968750,-10.830384,2.213303,-1.108012,0.388642,0.434673,0.19709
1694111006976562,-10.311384,1.947303,-1.233012,0.305242,0.438073,0.45291
1694111006984375,-9.939384,1.684303,-1.1012,0.280042,0.438273,0.115691
1694111006992187,-9.840384,1.430303,0.580012,0.281342,0.405573,0.167491
1694111007000000,-9.976384,1.163303,0.179012,0.289342,0.322973,0.205491
1694111007007812,-10.123384,1.95303,0.142988,0.298542,0.223873,0.254291
1694111007015625,-10.39384,1.196303,0.279988,0.306442,0.127873,0.311191
1694111007023437,-9.758384,1.311303,0.343988,0.300142,0.91673,0.367891
1694111007031250,-9.524384,1.450303,0.273988,0.302742,0.46273,0.408291
1694111007039062,-9.380384,1.592303,0.61988,0.306742,0.5827,0.442391
1694111007046875,-9.330384,1.686303,0.149012,0.285142,0.35527,0.442391
1694111007054687,-9.265384,1.745303,0.339012,0.264542,0.11027,0.438791
1694111007062500,-9.243384,1.749303,0.314012,0.234342,0.54273,0.438091
1694111007070312,-9.274384,1.705303,0.176012,0.204042,0.113373,0.435591
1694111007078125,-9.332384,1.677303,0.55012,0.158342,0.123073,0.423791
1694111007085937,-9.403384,1.610303,0.118012,0.121942,0.113373,0.410491
1694111007093750,-9.392384,1.483303,0.195012,0.97042,0.114573,0.411891
1694111007101562,-9.394384,1.381303,0.152012,0.98042,0.113473,0.398891
1694111007109375,-9.337384,1.316303,0.82012,0.96542,0.90273,0.387891
1694111007117187,-9.312384,1.253303,0.2988,0.98142,0.78773,0.386291
1694111007125000,-9.302384,1.209303,0.101988,0.96342,0.52973,0.381491
1694111007132812,-9.312384,1.130303,0.200988,0.98242,0.10373,0.380291
1694111007140625,-9.338384,1.70303,0.281988,0.98342,0.6027,0.381991
1694111007148437,-9.335384,1.32303,0.333988,0.97442,0.13227,0.390391
1694111007156250,-9.294384,0.978303,0.293988,0.104142,0.39827,0.397191
1694111007164062,-9.196384,0.895303,0.191988,0.133742,0.50227,0.406891
1694111007171875,-9.69384,0.846303,0.137988,0.149642,0.55127,0.413591
1694111007179687,-8.900384,0.812303,0.10012,0.173142,0.58327,0.412191
1694111007187500,-8.851384,0.858303,0.180988,0.202842,0.51527,0.417291
1694111007195312,-8.827384,0.911303,0.28012,0.229942,0.153127,0.403891
1694111007203125,-8.769384,1.86303,0.6012,0.281142,0.74327,0.407091
1694111007210937,-8.920384,1.348303,0.406988,0.297642,0.18773,0.395391
1694111007218750,-9.165384,1.638303,0.286988,0.301942,0.27227,0.360391
1694111007226562,-9.484384,1.967303,0.196988,0.319742,0.61327,0.309291
1694111007234375,-9.669384,2.273303,0.55988,0.323742,0.94927,0.247091
1694111007242187,-9.781384,2.523303,0.68012,0.295042,0.201927,0.178491
1694111007250000,-9.677384,2.668303,0.372012,0.281242,0.250727,0.122191
1694111007257812,-9.636384,2.791303,0.219988,0.212142,0.165227,0.86791
1694111007265625,-9.547384,2.817303,0.66988,0.87942,0.310827,0.57991
1694111007273437,-9.504384,2.781303,0.259012,0.10842,0.335427,0.44291
1694111007281250,-9.533384,2.670303,0.356012,0.80758,0.305727,0.31691
1694111007289062,-9.596384,2.469303,0.586012,0.138658,0.314427,0.23191
1694111007296875,-9.640384,2.299303,0.706012,0.162858,0.296127,0.6591
1694111007304687,-9.760384,2.203303,0.760012,0.176058,0.240727,0.14809
1694111007312500,-9.748384,2.19303,0.699012,0.203458,0.128227,0.27109
1694111007320312,-9.711384,1.954303,0.532012,0.190258,0.96727,0.46609
1694111007328125,-9.746384,1.886303,0.458012,0.182558,0.136327,0.71909
1694111007335937,-9.797384,1.851303,0.282012,0.187258,0.146627,0.84609
1694111007343750,-9.869384,1.854303,0.165012,0.195158,0.187427,0.100509
1694111007351562,-9.929384,1.895303,0.188012,0.212158,0.215627,0.100409
1694111007359375,-10.2384,1.834303,0.192012,0.232858,0.223827,0.116709
1694111007367187,-10.55384,1.822303,0.197012,0.254958,0.238227,0.118609
1694111007375000,-10.98384,1.842303,0.163012,0.289558,0.207127,0.116009
1694111007382812,-10.124384,1.758303,0.192012,0.331658,0.187727,0.105309
1694111007390625,-10.177384,1.614303,0.280012,0.357358,0.168527,0.91609
1694111007398437,-10.167384,1.473303,0.321012,0.362958,0.149627,0.78709
1694111007406250,-10.127384,1.382303,0.206012,0.358358,0.116527,0.64509
1694111007414062,-10.137384,1.329303,0.132012,0.359858,0.95227,0.53409
1694111007421875,-10.168384,1.305303,0.208012,0.361158,0.77127,0.35809
1694111007429687,-10.215384,1.237303,0.296012,0.353258,0.70527,0.27809
1694111007437500,-10.293384,1.233303,0.314012,0.325758,0.69427,0.4809
1694111007445312,-10.296384,1.249303,0.62012,0.255358,0.65327,0.5491
1694111007453125,-10.179384,1.230303,0.234988,0.217358,0.71727,0.20391
1694111007460937,-10.83384,1.166303,0.399988,0.207958,0.92827,0.23791
1694111007468750,-10.63384,1.163303,0.406988,0.189958,0.108327,0.30791
1694111007476562,-10.102384,1.190303,0.406988,0.148758,0.106527,0.48991
1694111007484375,-10.131384,1.200303,0.415988,0.115858,0.83127,0.68291
1694111007492187,-10.126384,1.180303,0.462988,0.95358,0.36927,0.95491
1694111007500000,-10.198384,1.170303,0.568988,0.61558,0.1027,0.137491
1694111007507812,-10.300384,1.187303,0.739988,0.12358,0.25173,0.171691
1694111007515625,-10.328384,1.172303,0.937988,0.47342,0.35873,0.201091
1694111007523437,-10.227384,1.117303,1.45988,0.77642,0.58073,0.212791
1694111007531250,-10.32384,1.41303,1.74988,0.108542,0.88473,0.220591
1694111007539062,-9.808384,0.946303,0.923988,0.129142,0.112473,0.220891
1694111007546875,-9.560384,0.867303,0.716988,0.146042,0.141973,0.212891
1694111007554687,-9.395384,0.830303,0.552988,0.166642,0.201873,0.197791
1694111007562500,-9.396384,0.882303,0.541988,0.191842,0.266373,0.193191
1694111007570312,-9.526384,1.37303,0.561988,0.202242,0.310873,0.184791
1694111007578125,-9.705384,1.224303,0.484988,0.214842,0.303873,0.175491
1694111007585937,-9.829384,1.428303,0.228988,0.230342,0.289173,0.162891
1694111007593750,-9.891384,1.626303,0.16988,0.280242,0.294073,0.152191
1694111007601562,-9.859384,1.810303,0.129012,0.315742,0.273573,0.139591
1694111007609375,-9.792384,1.946303,0.275012,0.345642,0.272973,0.124091
1694111007617187,-9.675384,2.51303,0.224012,0.372342,0.257773,0.115091
1694111007625000,-9.593384,2.141303,0.111012,0.377142,0.228473,0.112091
1694111007632812,-9.522384,2.209303,0.12988,0.350342,0.210873,0.113291
1694111007640625,-9.426384,2.267303,0.156988,0.336642,0.170373,0.132591
1694111007648437,-9.309384,2.252303,0.291988,0.314142,0.146573,0.148891
1694111007656250,-9.203384,2.208303,0.375988,0.290942,0.141673,0.161591
1694111007664062,-9.112384,2.158303,0.338988,0.255242,0.115273,0.167891
1694111007671875,-9.84384,2.98303,0.201988,0.236242,0.99573,0.169091
1694111007679687,-9.136384,2.83303,0.151988,0.239542,0.94073,0.164591
1694111007687500,-9.278384,2.101303,0.217988,0.243842,0.92973,0.154791
1694111007695312,-9.431384,2.141303,0.341988,0.227542,0.107573,0.131991
1694111007703125,-9.476384,2.110303,0.420988,0.213342,0.83573,0.98491
1694111007710937,-9.466384,2.75303,0.426988,0.198542,0.74373,0.74091
1694111007718750,-9.454384,2.21303,0.406988,0.187042,0.66273,0.51391
1694111007726562,-9.426384,1.939303,0.345988,0.177442,0.85473,0.36791
1694111007734375,-9.325384,1.799303,0.305988,0.151842,0.101873,0.21891
1694111007742187,-9.129384,1.623303,0.318988,0.129742,0.113173,0.15191
1694111007750000,-8.926384,1.450303,0.351988,0.105442,0.127173,0.11291
1694111007757812,-8.771384,1.285303,0.381988,0.82542,0.123073,0.12891
1694111007765625,-8.719384,1.158303,0.432988,0.63642,0.105373,0.17491
1694111007773437,-8.714384,1.98303,0.520988,0.67242,0.92173,0.30591
1694111007781250,-8.774384,1.73303,0.572988,0.89242,0.81173,0.38791
1694111007789062,-8.839384,1.73303,0.529988,0.118042,0.62873,0.47391
1694111007796875,-8.926384,1.143303,0.500988,0.174442,0.53073,0.43291
1694111007804687,-8.997384,1.249303,0.491988,0.251442,0.41373,0.37991
1694111007812500,-9.128384,1.460303,0.435988,0.338342,0.25573,0.8291
1694111007820312,-9.309384,1.682303,0.246988,0.392242,0.14273,0.40909
1694111007828125,-9.497384,1.897303,0.77988,0.439842,0.18373,0.102909
1694111007835937,-9.757384,2.110303,0.244988,0.499742,0.42873,0.160309
1694111007843750,-10.24384,2.279303,0.647988,0.495042,0.29873,0.226309
1694111007851562,-10.181384,2.419303,0.861988,0.423842,0.25927,0.271809
1694111007859375,-10.232384,2.497303,0.841988,0.321742,0.65927,0.307909
1694111007867187,-10.175384,2.443303,0.735988,0.238442,0.84327,0.329509
1694111007875000,-9.971384,2.318303,0.629988,0.169542,0.99427,0.333309
1694111007882812,-9.770384,2.221303,0.600988,0.114742,0.89827,0.327509
1694111007890625,-9.678384,2.122303,0.622988,0.93442,0.97927,0.300409
1694111007898437,-9.647384,2.27303,0.690988,0.98342,0.97127,0.271609
1694111007906250,-9.615384,1.948303,0.741988,0.100742,0.97927,0.255209
1694111007914062,-9.616384,1.884303,0.658988,0.102242,0.90827,0.245809
1694111007921875,-9.635384,1.823303,0.435988,0.95342,0.76727,0.241409
1694111007929687,-9.673384,1.818303,0.226988,0.99042,0.54927,0.239609
1694111007937500,-9.640384,1.844303,0.219988,0.114342,0.25427,0.246109
1694111007945312,-9.521384,1.862303,0.298988,0.116842,0.1027,0.270309
1694111007953125,-9.394384,1.898303,0.309988,0.94342,0.13773,0.291709
1694111007960937,-9.298384,1.952303,0.309988,0.81342,0.15573,0.306309
1694111007968750,-9.203384,1.960303,0.352988,0.82842,0.2227,0.311109
1694111007976562,-9.192384,1.962303,0.381988,0.64242,0.17627,0.320709
1694111007984375,-9.249384,1.965303,0.449988,0.57842,0.17627,0.325509
1694111007992187,-9.301384,1.977303,0.570988,0.59542,0.42227,0.325309
1694111008000000,-9.315384,1.940303,0.626988,0.59142,0.61127,0.330309
1694111008007812,-9.313384,1.886303,0.649988,0.46842,0.70327,0.346109
1694111008015625,-9.314384,1.808303,0.602988,0.32542,0.83327,0.357509
1694111008023437,-9.335384,1.749303,0.525988,0.54242,0.97727,0.365309
1694111008031250,-9.406384,1.725303,0.489988,0.54742,0.97727,0.367409
1694111008039062,-9.455384,1.691303,0.590988,0.89942,0.95627,0.369909
1694111008046875,-9.489384,1.656303,0.813988,0.126342,0.98027,0.375609
1694111008054687,-9.586384,1.603303,0.896988,0.123842,0.112827,0.380809
1694111008062500,-9.655384,1.544303,0.770988,0.109542,0.126027,0.392109
1694111008070312,-9.672384,1.462303,0.635988,0.101842,0.110227,0.400209
1694111008078125,-9.621384,1.388303,0.687988,0.101742,0.79127,0.392409
1694111008085937,-9.549384,1.350303,0.770988,0.91542,0.81727,0.385809
1694111008093750,-9.533384,1.330303,0.818988,0.70842,0.55927,0.400609
1694111008101562,-9.580384,1.311303,0.836988,0.56342,0.30127,0.413709
1694111008109375,-9.670384,1.297303,0.777988,0.48042,0.13527,0.426909
1694111008117187,-9.698384,1.258303,0.775988,0.51842,0.9427,0.449609
1694111008125000,-9.708384,1.180303,0.860988,0.56642,0.1127,0.440009
1694111008132812,-9.723384,1.96303,0.971988,0.56642,0.10727,0.436809
1694111008140625,-9.755384,1.14303,1.7988,0.68242,0.34427,0.434609
1694111008148437,-9.797384,0.953303,1.4988,0.82642,0.40727,0.421609
1694111008156250,-9.785384,0.884303,0.899988,0.104742,0.68327,0.414809
1694111008164062,-9.721384,0.834303,0.824988,0.144142,0.81327,0.411009
1694111008171875,-9.595384,0.810303,0.799988,0.183642,0.114227,0.410309
1694111008179687,-9.462384,0.821303,0.806988,0.223242,0.148327,0.398409
1694111008187500,-9.362384,0.833303,0.813988,0.242642,0.171727,0.388209
1694111008195312,-9.372384,0.833303,0.700988,0.242542,0.184027,0.380309
1694111008203125,-9.619384,0.929303,0.716988,0.259542,0.170327,0.369109
1694111008210937,-10.43384,1.53303,0.840988,0.283142,0.171427,0.351309
1694111008218750,-10.395384,1.9303,0.725988,0.285242,0.201527,0.355709
1694111008226562,-10.466384,0.937303,0.446988,0.282042,0.206227,0.352509
1694111008234375,-10.260384,0.872303,0.229988,0.291142,0.174627,0.344709
1694111008242187,-10.24384,0.833303,0.124988,0.310242,0.168427,0.339609
1694111008250000,-10.249384,0.860303,0.277988,0.330942,0.158927,0.332909
1694111008257812,-10.696384,0.832303,0.723988,0.321542,0.126427,0.331609
1694111008265625,-11.230384,0.738303,1.275988,0.277742,0.118227,0.324109
1694111008273437,-11.586384,0.511303,1.563988,0.183942,0.146027,0.310509
1694111008281250,-11.574384,0.193303,1.446988,0.75642,0.166627,0.274309
1694111008289062,-11.275384,0.97697,1.177988,0.17758,0.147827,0.216309
1694111008296875,-11.4384,0.285697,0.968988,0.87458,0.111027,0.140409
1694111008304687,-10.851384,0.217697,0.981988,0.128658,0.62827,0.103909
1694111008312500,-10.806384,0.40697,1.207988,0.167858,0.79127,0.104309
1694111008320312,-10.954384,0.343303,1.322988,0.223458,0.128327,0.146409
1694111008328125,-10.953384,0.689303,1.423988,0.267058,0.173127,0.230109
1694111008335937,-10.669384,0.974303,1.407988,0.342958,0.197327,0.322709
1694111008343750,-10.47384,1.148303,1.146988,0.437958,0.188327,0.378309
1694111008351562,-9.99384,1.126303,0.829988,0.555158,0.131927,0.362209
1694111008359375,-8.156384,0.921303,0.565988,0.665758,0.31327,0.279109
1694111008367187,-7.492384,0.597303,0.259988,0.737758,0.60473,0.172809
1694111008375000,-7.432384,0.197303,0.20988,0.741758,0.187373,0.83909
1694111008382812,-7.891384,0.178697,0.85012,0.699558,0.286473,0.40909
1694111008390625,-8.661384,0.532697,0.99012,0.599758,0.404373,0.34209
1694111008398437,-9.798384,0.821697,0.371988,0.510158,0.483273,0.64409
1694111008406250,-10.750384,-1.201697,0.406988,0.428958,0.422473,0.109509
1694111008414062,-11.416384,-1.444697,0.715988,0.373358,0.472573,0.152509
1694111008421875,-11.552384,-1.662697,0.886988,0.338658,0.457273,0.163109
1694111008429687,-11.200384,-1.787697,0.697988,0.317958,0.445873,0.151509
1694111008437500,-10.587384,-1.832697,0.431988,0.242358,0.392573,0.136009
1694111008445312,-10.59384,-1.825697,0.143988,0.128158,0.270073,0.112909
1694111008453125,-9.792384,-1.703697,0.178012,0.4042,0.132573,0.131309
1694111008460937,-9.918384,-1.566697,0.141988,0.102642,0.121873,0.165209
1694111008468750,-10.295384,-1.315697,0.533988,0.114642,0.41673,0.214309
1694111008476562,-10.456384,-1.6697,0.438988,0.102342,0.38127,0.286509
1694111008484375,-10.416384,0.867697,0.657988,0.40842,0.97273,0.341209
1694111008492187,-10.238384,0.856697,0.645988,0.55258,0.130673,0.402309
1694111008500000,-9.910384,0.855697,0.65012,0.108358,0.827,0.440409
1694111008507812,-9.669384,0.775697,0.984012,0.82258,0.55627,0.434709
1694111008515625,-9.620384,0.583697,0.669012,0.54658,0.117973,0.413109
1694111008523437,-9.672384,0.429697,0.457012,0.126358,0.12873,0.429209
1694111008531250,-9.688384,0.307697,0.378012,0.153458,0.4573,0.450309
1694111008539062,-9.591384,0.181697,0.319988,0.228758,0.15573,0.459209
1694111008546875,-9.484384,0.211697,0.195988,0.319558,0.163527,0.473809
1694111008554687,-9.378384,0.282697,0.74988,0.367458,0.221327,0.467309
1694111008562500,-9.261384,0.428697,0.40012,0.407158,0.242927,0.438609
1694111008570312,-9.267384,0.608697,0.250012,0.420458,0.264327,0.411209
1694111008578125,-9.174384,0.785697,0.234012,0.415558,0.218127,0.381009
1694111008585937,-9.110384,0.992697,0.3988,0.426958,0.135827,0.360909
1694111008593750,-9.125384,-1.87697,0.332988,0.459658,0.50127,0.351909
1694111008601562,-9.153384,-1.146697,0.661988,0.501258,0.22773,0.345209
1694111008609375,-9.257384,-1.278697,0.848988,0.533858,0.48573,0.331209
1694111008617187,-9.324384,-1.417697,0.848988,0.547558,0.53573,0.310409
1694111008625000,-9.343384,-1.512697,0.787988,0.521858,0.43373,0.293809
1694111008632812,-9.329384,-1.543697,0.751988,0.452158,0.23773,0.268709
1694111008640625,-9.342384,-1.609697,0.699988,0.373358,0.25927,0.243609
1694111008648437,-9.446384,-1.688697,0.593988,0.299758,0.80027,0.197309
1694111008656250,-9.557384,-1.784697,0.514988,0.229658,0.92727,0.146609
1694111008664062,-9.611384,-1.894697,0.512988,0.161358,0.106727,0.94409
1694111008671875,-9.687384,-1.964697,0.557988,0.94158,0.142827,0.49809
1694111008679687,-9.683384,-1.922697,0.616988,0.52658,0.165627,0.21909
1694111008687500,-9.576384,-1.839697,0.690988,0.18058,0.170227,0.11909
1694111008695312,-9.475384,-1.712697,0.710988,0.5458,0.178627,0.16409
1694111008703125,-9.398384,-1.589697,0.625988,0.3942,0.178627,0.21109
1694111008710937,-9.303384,-1.508697,0.370988,0.14642,0.165527,0.27609
1694111008718750,-9.206384,-1.492697,0.114988,0.53142,0.139127,0.45109
1694111008726562,-9.132384,-1.511697,0.138012,0.93742,0.101727,0.51209
1694111008734375,-9.91384,-1.539697,0.311012,0.128242,0.75427,0.42909
1694111008742187,-9.98384,-1.541697,0.388012,0.167942,0.70727,0.21509
1694111008750000,-9.136384,-1.551697,0.379012,0.207442,0.83327,0.3409
1694111008757812,-9.183384,-1.543697,0.329012,0.238942,0.127927,0.20991
1694111008765625,-9.239384,-1.533697,0.298012,0.252442,0.179027,0.37691
1694111008773437,-9.280384,-1.505697,0.309012,0.281842,0.238427,0.57991
1694111008781250,-9.290384,-1.457697,0.318012,0.313742,0.288427,0.85891
1694111008789062,-9.299384,-1.406697,0.320012,0.333042,0.342227,0.100891
1694111008796875,-9.332384,-1.339697,0.365012,0.374842,0.395127,0.113191
1694111008804687,-9.385384,-1.254697,0.333012,0.403542,0.435927,0.126691
1694111008812500,-9.478384,-1.192697,0.241012,0.433542,0.471327,0.141491
1694111008820312,-9.623384,-1.131697,0.126012,0.448642,0.509727,0.155091
1694111008828125,-9.761384,-1.91697,0.52012,0.447342,0.517827,0.164791
1694111008835937,-9.890384,-1.42697,0.9012,0.447542,0.489927,0.183891
1694111008843750,-9.967384,-1.3697,0.40012,0.450642,0.433927,0.205991
1694111008851562,-10.41384,0.973697,0.90012,0.469342,0.370227,0.216991
1694111008859375,-10.137384,0.921697,0.6988,0.480342,0.298027,0.242391
1694111008867187,-10.218384,0.855697,0.116988,0.464542,0.271127,0.262691
1694111008875000,-10.240384,0.775697,0.260988,0.431842,0.247027,0.267091
1694111008882812,-10.208384,0.658697,0.292988,0.404142,0.249527,0.276791
1694111008890625,-10.189384,0.589697,0.204988,0.393942,0.266827,0.250691
1694111008898437,-10.218384,0.580697,0.53988,0.396642,0.271827,0.228291
1694111008906250,-10.277384,0.581697,0.11988,0.399342,0.250927,0.204191
1694111008914062,-10.393384,0.588697,0.85988,0.379942,0.245527,0.190891
1694111008921875,-10.497384,0.562697,0.224988,0.352542,0.240427,0.167891
1694111008929687,-10.604384,0.449697,0.477988,0.333842,0.240627,0.166091
1694111008937500,-10.701384,0.288697,0.704988,0.321242,0.246027,0.148491
1694111008945312,-10.675384,0.122697,0.815988,0.320442,0.248027,0.103491
1694111008953125,-10.578384,0.17303,0.684988,0.318142,0.243227,0.68091
1694111008960937,-10.485384,0.114303,0.506988,0.318942,0.243127,0.35891
1694111008968750,-10.497384,0.162303,0.376988,0.287142,0.233827,0.8191
1694111008976562,-10.644384,0.189303,0.482988,0.207842,0.189927,0.21909
1694111008984375,-10.697384,0.261303,0.775988,0.89242,0.149327,0.57309
1694111008992187,-10.642384,0.384303,0.973988,0.49558,0.141527,0.97509
1694111009000000,-10.494384,0.522303,0.977988,0.159758,0.140127,0.116509
1694111009007812,-10.311384,0.628303,0.856988,0.233358,0.127627,0.122009
1694111009015625,-10.188384,0.637303,0.698988,0.246358,0.97527,0.121009
1694111009023437,-10.121384,0.568303,0.660988,0.228158,0.57627,0.119709
1694111009031250,-10.118384,0.463303,0.680988,0.203858,0.51827,0.101509
1694111009039062,-10.117384,0.263303,0.626988,0.188358,0.7427,0.92009
1694111009046875,-10.93384,0.23303,0.425988,0.193358,0.90573,0.81409
1694111009054687,-10.63384,0.285697,0.87988,0.209758,0.192473,0.77709
1694111009062500,-10.18384,0.608697,0.202012,0.211658,0.298973,0.60809
1694111009070312,-9.962384,0.893697,0.398012,0.226358,0.361373,0.66309
1694111009078125,-9.933384,-1.126697,0.457012,0.237758,0.420173,0.70009
1694111009085937,-10.7384,-1.347697,0.261012,0.233258,0.459073,0.73309
1694111009093750,-10.33384,-1.506697,0.50012,0.266258,0.458873,0.80109
1694111009101562,-9.961384,-1.507697,0.224988,0.296358,0.446173,0.91809
1694111009109375,-10.86384,-1.747697,0.303988,0.313558,0.378873,0.110809
1694111009117187,-10.106384,-1.751697,0.235988,0.316758,0.344573,0.120309
1694111009125000,-9.993384,-1.766697,0.219988,0.308558,0.288973,0.123009
1694111009132812,-9.806384,-1.703697,0.159988,0.290858,0.234373,0.127009
1694111009140625,-9.627384,-1.610697,0.120988,0.248358,0.182173,0.131009
1694111009148437,-9.503384,-1.503697,0.136988,0.194258,0.121173,0.125009
1694111009156250,-9.457384,-1.395697,0.141988,0.140758,0.54873,0.120909
1694111009164062,-9.477384,-1.279697,0.289988,0.76158,0.20573,0.119909
1694111009171875,-9.546384,-1.183697,0.443988,0.62058,0.2973,0.116509
1694111009179687,-9.689384,-1.107697,0.456988,0.87258,0.6727,0.118409
1694111009187500,-9.836384,-1.50697,0.357988,0.99258,0.12427,0.111809
1694111009195312,-9.943384,-1.66697,0.287988,0.113558,0.14173,0.107509
1694111009203125,-9.979384,-1.63697,0.321988,0.132658,0.51773,0.106409
1694111009210937,-9.955384,-1.70697,0.463988,0.131058,0.67973,0.104809
1694111009218750,-9.907384,-1.81697,0.535988,0.131258,0.62073,0.98509
1694111009226562,-9.826384,-1.90697,0.562988,0.105358,0.59573,0.85009
1694111009234375,-9.729384,-1.118697,0.607988,0.85158,0.123973,0.62909
1694111009242187,-9.632384,-1.175697,0.528988,0.64258,0.151273,0.40109
1694111009250000,-9.572384,-1.213697,0.328988,0.36158,0.166873,0.25709
1694111009257812,-9.512384,-1.221697,0.177988,0.6542,0.191673,0.2909
1694111009265625,-9.440384,-1.229697,0.55988,0.28642,0.200973,0.909
1694111009273437,-9.332384,-1.209697,0.36012,0.51142,0.176373,0.17191
1694111009281250,-9.283384,-1.189697,0.178012,0.73242,0.141273,0.31891
1694111009289062,-9.270384,-1.176697,0.324012,0.89542,0.116473,0.43591
1694111009296875,-9.274384,-1.190697,0.390012,0.108742,0.86873,0.50591
1694111009304687,-9.283384,-1.167697,0.405012,0.116942,0.44473,0.55691
1694111009312500,-9.284384,-1.132697,0.374012,0.123442,0.13573,0.62391
1694111009320312,-9.309384,-1.100697,0.243012,0.118642,0.26827,0.62391
1694111009328125,-9.359384,-1.56697,0.171012,0.118842,0.78827,0.67491
1694111009335937,-9.420384,-1.49697,0.61012,0.121442,0.135027,0.80991
1694111009343750,-9.462384,-1.78697,0.33988,0.116142,0.201127,0.91291
1694111009351562,-9.471384,-1.95697,0.44988,0.121642,0.264927,0.111091
1694111009359375,-9.474384,-1.191697,0.63012,0.117942,0.314127,0.138791
1694111009367187,-9.434384,-1.284697,0.86012,0.133742,0.313427,0.159691
1694111009375000,-9.416384,-1.316697,0.2012,0.146942,0.312227,0.180991
1694111009382812,-9.389384,-1.305697,0.109988,0.158042,0.325127,0.184291
1694111009390625,-9.410384,-1.247697,0.256988,0.157842,0.324827,0.184191
1694111009398437,-9.468384,-1.155697,0.382988,0.169242,0.344927,0.187891
1694111009406250,-9.486384,-1.31697,0.258988,0.174142,0.379527,0.180191
1694111009414062,-9.533384,-1.1697,0.41012,0.178442,0.370427,0.184691
1694111009421875,-9.587384,-1.7697,0.351012,0.200642,0.337727,0.200791
1694111009429687,-9.491384,0.980697,0.529012,0.223942,0.231427,0.221291
1694111009437500,-9.550384,0.952697,0.92012,0.215542,0.115027,0.233191
1694111009445312,-9.643384,0.984697,0.288012,0.191442,0.270527,0.235591
1694111009453125,-9.662384,0.937697,0.561012,0.198442,0.257827,0.259891
1694111009460937,-9.688384,0.850697,0.37988,0.181842,0.118627,0.263491
1694111009468750,-9.674384,0.791697,0.200988,0.135342,0.219027,0.249391
1694111009476562,-9.596384,0.681697,0.44988,0.107342,0.318527,0.236791
1694111009484375,-9.517384,0.582697,0.6012,0.80642,0.323527,0.231691
1694111009492187,-9.617384,0.504697,0.22988,0.60842,0.257027,0.232191
1694111009500000,-9.815384,0.504697,0.72012,0.42642,0.262927,0.232391
1694111009507812,-9.965384,0.558697,0.162012,0.31842,0.284227,0.237291
1694111009515625,-10.58384,0.598697,0.40012,0.4058,0.298627,0.246491
1694111009523437,-10.174384,0.678697,0.20988,0.53858,0.287727,0.257291
1694111009531250,-10.339384,0.776697,0.29988,0.114958,0.297727,0.255091
1694111009539062,-10.364384,0.871697,0.248012,0.130058,0.387827,0.257191
1694111009546875,-10.256384,0.897697,0.130012,0.144358,0.371127,0.258391
1694111009554687,-10.122384,0.875697,0.184988,0.183658,0.353727,0.248391
1694111009562500,-10.28384,0.840697,0.310988,0.234058,0.361827,0.238091
1694111009570312,-9.966384,0.768697,0.231988,0.275058,0.342327,0.232691
1694111009578125,-9.931384,0.693697,0.121988,0.308358,0.285527,0.224091
1694111009585937,-9.892384,0.603697,0.62988,0.305658,0.221327,0.228291
1694111009593750,-9.761384,0.496697,0.132988,0.321558,0.180427,0.229491
1694111009601562,-9.641384,0.418697,0.58988,0.346458,0.209527,0.238891
1694111009609375,-9.617384,0.354697,0.101012,0.355858,0.212827,0.238791
1694111009617187,-9.636384,0.341697,0.180012,0.375958,0.180427,0.252991
1694111009625000,-9.633384,0.361697,0.236012,0.382258,0.186727,0.256091
1694111009632812,-9.623384,0.425697,0.202012,0.408658,0.178227,0.274891
1694111009640625,-9.619384,0.498697,0.99012,0.452458,0.166827,0.285491
1694111009648437,-9.622384,0.605697,0.45012,0.499558,0.177927,0.289791
1694111009656250,-9.928384,0.598697,0.110012,0.506558,0.182027,0.309391
1694111009664062,-10.795384,0.369697,0.173988,0.398858,0.103227,0.309991
1694111009671875,-11.666384,0.109697,1.225988,0.283058,0.15127,0.172391
1694111009679687,-12.337384,0.251303,1.619988,0.301558,0.49627,0.38509
1694111009687500,-12.326384,0.581303,1.160988,0.470058,0.168827,0.198509
1694111009695312,-11.291384,0.634303,0.358988,0.640658,0.274527,0.231709
1694111009703125,-10.207384,0.711303,0.187988,0.674358,0.266727,0.161709
1694111009710937,-9.442384,0.808303,0.583988,0.645958,0.300627,0.84009
1694111009718750,-9.443384,0.563303,0.955988,0.648958,0.325727,0.29009
1694111009726562,-9.743384,0.42303,0.590988,0.723658,0.327427,0.909
1694111009734375,-9.940384,0.557697,0.416012,0.780358,0.169227,0.61391
1694111009742187,-10.43384,-1.169697,0.887012,0.773958,0.84573,0.133691
1694111009750000,-10.77384,-1.712697,-1.16012,0.737658,0.200673,0.175191
1694111009757812,-9.979384,-2.69697,0.944012,0.690658,0.245473,0.199391
1694111009765625,-9.648384,-2.318697,0.802012,0.643758,0.312373,0.205991
1694111009773437,-9.98384,-2.519697,0.372012,0.572358,0.438773,0.212191
1694111009781250,-8.692384,-2.497697,0.115988,0.472258,0.456073,0.194291
1694111009789062,-8.456384,-2.356697,0.260988,0.354858,0.409373,0.179591
1694111009796875,-8.316384,-2.105697,0.458988,0.204158,0.369773,0.167291
1694111009804687,-8.333384,-1.878697,0.580988,0.658,0.197073,0.183491
1694111009812500,-8.680384,-1.493697,0.611988,0.256842,0.24727,0.215291
1694111009820312,-9.98384,-1.116697,1.1988,0.535642,0.111327,0.243291
1694111009828125,-9.512384,0.797697,1.731988,0.768042,0.132227,0.255691
1694111009835937,-9.972384,0.516697,1.842988,0.887942,0.185927,0.273491
1694111009843750,-10.148384,0.206697,1.319988,0.926142,0.112127,0.252491
1694111009851562,-9.955384,0.4303,0.767988,0.943742,0.10127,0.238891
1694111009859375,-9.741384,0.217303,0.191988,1.12442,0.20527,0.206191
1694111009867187,-9.595384,0.505303,0.79988,1.89342,0.52973,0.155091
1694111009875000,-9.594384,0.767303,0.311988,1.90342,0.185373,0.94691
1694111009882812,-9.610384,0.925303,0.324988,1.34942,0.240473,0.5291
1694111009890625,-9.663384,1.159303,0.133988,0.945142,0.258573,0.78109
1694111009898437,-9.568384,1.246303,0.318988,0.958042,0.169373,0.172009
1694111009906250,-9.953384,1.166303,0.77988,0.862942,0.99573,0.224309
1694111009914062,-10.402384,1.268303,0.111012,0.689842,0.221673,0.228609
1694111009921875,-10.597384,1.251303,0.271012,0.632342,0.267873,0.181509
1694111009929687,-10.975384,1.301303,0.348012,0.545942,0.366073,0.85009
1694111009937500,-11.206384,1.258303,0.240012,0.482942,0.441673,0.491
1694111009945312,-11.362384,1.177303,0.186012,0.434342,0.498073,0.108791
1694111009953125,-11.226384,1.124303,0.46012,0.391542,0.549473,0.194591
1694111009960937,-10.891384,0.898303,0.151988,0.348042,0.537173,0.255591
1694111009968750,-10.547384,0.793303,0.131988,0.292642,0.419673,0.278191
1694111009976562,-10.281384,0.607303,0.24012,0.303142,0.293373,0.284191
1694111009984375,-10.209384,0.568303,0.132012,0.333342,0.223173,0.286591
1694111009992187,-10.106384,0.591303,0.42012,0.375042,0.199673,0.306791
1694111010000000,-10.56384,0.690303,0.47988,0.387842,0.136573,0.318391
1694111010007812,-9.971384,0.877303,0.88988,0.374442,0.111273,0.326691
1694111010015625,-9.965384,1.44303,0.124988,0.334142,0.2927,0.322091
1694111010023437,-9.777384,1.132303,0.465012,0.339442,0.104527,0.318091
1694111010031250,-9.737384,1.176303,0.206012,0.355442,0.94173,0.335891
1694111010039062,-9.640384,1.145303,0.96012,0.319042,0.128073,0.320891
1694111010046875,-9.606384,1.127303,0.357012,0.327342,0.94973,0.321391
1694111010054687,-9.605384,1.59303,0.391012,0.333042,0.68273,0.317991
1694111010062500,-9.579384,0.935303,0.364012,0.367142,0.13627,0.303591
1694111010070312,-9.507384,0.784303,0.141012,0.396642,0.76627,0.287991
1694111010078125,-9.419384,0.636303,0.92988,0.399942,0.75327,0.289691
1694111010085937,-9.443384,0.568303,0.671988,0.388242,0.8327,0.272991
1694111010093750,-9.574384,0.492303,0.633988,0.327542,0.102127,0.258691
1694111010101562,-9.627384,0.454303,0.340988,0.314042,0.146427,0.245391
1694111010109375,-9.594384,0.489303,0.364988,0.326442,0.147827,0.242191
1694111010117187,-9.574384,0.540303,0.628988,0.345542,0.138327,0.250591
1694111010125000,-9.567384,0.603303,0.880988,0.351242,0.129827,0.260691
1694111010132812,-9.528384,0.669303,1.4988,0.335442,0.108527,0.265191
1694111010140625,-9.533384,0.731303,0.833988,0.317142,0.117027,0.281291
1694111010148437,-9.456384,0.816303,0.568988,0.335742,0.104827,0.285891
1694111010156250,-9.331384,0.930303,0.349988,0.349842,0.72027,0.297091
1694111010164062,-9.213384,1.119303,0.543988,0.369042,0.79373,0.307291
1694111010171875,-9.291384,1.396303,0.878988,0.326342,0.116973,0.300091
1694111010179687,-9.426384,1.659303,0.611988,0.270142,0.47373,0.271191
1694111010187500,-9.458384,1.849303,0.523988,0.216042,0.37973,0.249591
1694111010195312,-9.418384,1.996303,0.316988,0.186142,0.1373,0.219091
1694111010203125,-9.417384,2.115303,0.388988,0.149442,0.14973,0.208691
1694111010210937,-9.389384,2.178303,0.320988,0.90442,0.30427,0.192691
1694111010218750,-9.349384,2.226303,0.269988,0.33942,0.40327,0.185691
1694111010226562,-9.246384,2.236303,0.320988,0.27658,0.61027,0.179991
1694111010234375,-9.214384,2.235303,0.347988,0.85658,0.82627,0.169891
1694111010242187,-9.197384,2.248303,0.311988,0.124558,0.125727,0.153891
1694111010250000,-9.198384,2.193303,0.210988,0.168758,0.163427,0.135891
1694111010257812,-9.266384,2.63303,0.98012,0.247358,0.191427,0.112691
1694111010265625,-9.303384,1.924303,0.485012,0.322058,0.206827,0.98691
1694111010273437,-9.321384,1.730303,0.762012,0.348158,0.230827,0.86091
1694111010281250,-9.297384,1.480303,0.828012,0.375258,0.222327,0.77491
1694111010289062,-9.504384,1.370303,0.731012,0.379858,0.235627,0.74391
1694111010296875,-9.605384,1.184303,0.652012,0.412658,0.244527,0.58291
1694111010304687,-9.716384,1.126303,0.483012,0.395658,0.283527,0.44091
1694111010312500,-9.981384,1.5303,0.434012,0.382358,0.312227,0.21691
1694111010320312,-10.154384,0.913303,0.222012,0.380658,0.279127,0.609
1694111010328125,-10.288384,0.860303,0.21012,0.382058,0.295527,0.1091
1694111010335937,-10.339384,0.839303,0.97988,0.380658,0.304927,0.4291
1694111010343750,-10.367384,0.811303,0.176988,0.397958,0.275027,0.24591
1694111010351562,-10.406384,0.794303,0.173988,0.422658,0.227827,0.44991
1694111010359375,-10.437384,0.808303,0.97988,0.429358,0.181327,0.57291
1694111010367187,-10.427384,0.749303,0.40988,0.427558,0.145927,0.65291
1694111010375000,-10.350384,0.662303,0.85012,0.407358,0.144027,0.58991
1694111010382812,-10.185384,0.649303,0.31012,0.384358,0.97727,0.61991
1694111010390625,-9.985384,0.630303,0.106988,0.365558,0.83327,0.55791
1694111010398437,-9.814384,0.587303,0.83988,0.379758,0.93227,0.47691
1694111010406250,-9.773384,0.564303,0.72988,0.371458,0.71427,0.47991
1694111010414062,-9.796384,0.584303,0.191988,0.332058,0.64327,0.69191
1694111010421875,-9.787384,0.575303,0.410988,0.308258,0.72327,0.82291
1694111010429687,-9.693384,0.498303,0.520988,0.309358,0.86727,0.104791
1694111010437500,-9.622384,0.429303,0.554988,0.298058,0.86427,0.127391
1694111010445312,-9.754384,0.392303,0.662988,0.238758,0.69127,0.148491
1694111010453125,-10.18384,0.415303,0.943988,0.143458,0.56927,0.174091
1694111010460937,-10.206384,0.518303,1.250988,0.39558,0.59027,0.181991
1694111010468750,-10.154384,0.491303,1.522988,0.15742,0.7127,0.168891
1694111010476562,-10.12384,0.485303,1.594988,0.35142,0.40773,0.149391
1694111010484375,-9.812384,0.474303,1.313988,0.69442,0.33773,0.122591
1694111010492187,-9.530384,0.412303,0.835988,0.90542,0.30373,0.81091
1694111010500000,-9.368384,0.400303,0.389988,0.108342,0.66073,0.37691
1694111010507812,-9.434384,0.405303,0.218988,0.132042,0.139273,0.15509
1694111010515625,-9.671384,0.491303,0.344988,0.159242,0.189773,0.55709
1694111010523437,-9.819384,0.631303,0.482988,0.163042,0.166773,0.100609
1694111010531250,-9.879384,0.737303,0.444988,0.164042,0.163873,0.123209
1694111010539062,-9.885384,0.835303,0.399988,0.188542,0.195373,0.129709
1694111010546875,-9.856384,0.969303,0.250988,0.218542,0.199573,0.137209
1694111010554687,-9.806384,1.81303,0.50988,0.262442,0.188273,0.136709
1694111010562500,-9.817384,1.208303,0.11988,0.322342,0.160273,0.138909
1694111010570312,-9.886384,1.335303,0.75012,0.349242,0.129573,0.128809
1694111010578125,-9.897384,1.473303,0.21012,0.379142,0.106873,0.125209
1694111010585937,-9.896384,1.571303,0.135988,0.415342,0.53273,0.122909
1694111010593750,-9.909384,1.651303,0.235988,0.405042,0.36573,0.106709
1694111010601562,-9.878384,1.655303,0.316988,0.389942,0.26373,0.90609
1694111010609375,-9.857384,1.622303,0.300988,0.360342,0.7573,0.68509
1694111010617187,-9.871384,1.546303,0.277988,0.326742,0.273,0.46109
1694111010625000,-9.920384,1.453303,0.329988,0.305342,0.13073,0.22209
1694111010632812,-10.4384,1.371303,0.469988,0.277342,0.29773,0.1809
1694111010640625,-10.114384,1.293303,0.635988,0.253442,0.60073,0.11891
1694111010648437,-10.226384,1.224303,0.822988,0.235942,0.86173,0.6691
1694111010656250,-10.252384,1.142303,0.921988,0.215742,0.98873,0.9691
1694111010664062,-10.172384,1.63303,0.838988,0.200342,0.113273,0.19191
1694111010671875,-9.969384,1.4303,0.664988,0.201942,0.124273,0.14491
1694111010679687,-9.716384,0.976303,0.527988,0.226742,0.139673,0.17591
1694111010687500,-9.490384,1.4303,0.484988,0.256042,0.146673,0.8091
1694111010695312,-9.398384,1.35303,0.529988,0.287542,0.144673,0.2191
1694111010703125,-9.476384,1.121303,0.644988,0.291942,0.146473,0.4309
1694111010710937,-9.663384,1.277303,0.741988,0.293442,0.143373,0.4309
1694111010718750,-9.833384,1.391303,0.705988,0.274542,0.132073,0.4509
1694111010726562,-9.872384,1.429303,0.570988,0.256042,0.121573,0.14109
1694111010734375,-9.818384,1.430303,0.363988,0.238442,0.116873,0.24009
1694111010742187,-9.718384,1.389303,0.241988,0.239842,0.94073,0.33509
1694111010750000,-9.598384,1.310303,0.284988,0.234542,0.81273,0.56109
1694111010757812,-9.493384,1.244303,0.347988,0.222742,0.66973,0.82009
1694111010765625,-9.382384,1.160303,0.399988,0.194742,0.43373,0.99709
1694111010773437,-9.312384,1.123303,0.466988,0.171442,0.7073,0.106009
1694111010781250,-9.314384,1.112303,0.514988,0.148542,0.36227,0.109009
1694111010789062,-9.433384,1.125303,0.579988,0.142642,0.68727,0.96009
1694111010796875,-9.528384,1.147303,0.696988,0.156942,0.89527,0.78109
1694111010804687,-9.551384,1.178303,0.804988,0.160942,0.104327,0.47409
1694111010812500,-9.510384,1.151303,0.874988,0.147342,0.117427,0.26509
1694111010820312,-9.393384,1.134303,0.883988,0.149042,0.121827,0.10509
1694111010828125,-9.235384,1.84303,0.779988,0.154642,0.160027,0.1291
1694111010835937,-9.65384,1.35303,0.619988,0.165742,0.172727,0.15791
1694111010843750,-8.950384,1.27303,0.518988,0.189042,0.196827,0.12891
1694111010851562,-8.940384,1.69303,0.448988,0.215842,0.223027,0.10191
1694111010859375,-9.16384,1.172303,0.387988,0.220642,0.249827,0.10309
1694111010867187,-9.111384,1.326303,0.325988,0.236342,0.261727,0.26009
1694111010875000,-9.182384,1.455303,0.205988,0.239142,0.263627,0.48409
1694111010882812,-9.181384,1.542303,0.79988,0.228842,0.250527,0.85609
1694111010890625,-9.114384,1.567303,0.19012,0.220442,0.237927,0.116209
1694111010898437,-9.83384,1.578303,0.77012,0.197742,0.218027,0.140909
1694111010906250,-9.91384,1.568303,0.102012,0.148242,0.201027,0.149809
1694111010914062,-9.136384,1.557303,0.78012,0.118742,0.199827,0.151709
1694111010921875,-9.204384,1.542303,0.41988,0.98442,0.213127,0.158209
1694111010929687,-9.243384,1.492303,0.64012,0.57742,0.267327,0.172709
1694111010937500,-9.304384,1.460303,0.143012,0.38642,0.259227,0.181009
1694111010945312,-9.325384,1.409303,0.48012,0.39842,0.262527,0.200309
1694111010953125,-9.267384,1.392303,0.7988,0.28842,0.300527,0.220909
1694111010960937,-9.113384,1.389303,0.32988,0.9042,0.317727,0.245509
1694111010968750,-8.976384,1.382303,0.29988,0.26042,0.358727,0.272309
1694111010976562,-8.934384,1.403303,0.17012,0.35742,0.401927,0.287809
1694111010984375,-9.9384,1.461303,0.138012,0.58042,0.451527,0.299909
1694111010992187,-9.165384,1.549303,0.109012,0.88842,0.496827,0.325109
1694111011000000,-9.393384,1.604303,0.89012,0.108942,0.561927,0.348609
1694111011007812,-9.585384,1.635303,0.95012,0.113742,0.594027,0.375509
1694111011015625,-9.695384,1.662303,0.84012,0.83042,0.601527,0.400109
1694111011023437,-9.796384,1.618303,0.325012,0.80142,0.602627,0.420709
1694111011031250,-9.871384,1.539303,0.242012,0.77942,0.525427,0.418209
1694111011039062,-9.940384,1.347303,0.280012,0.56442,0.530727,0.407009
1694111011046875,-10.12384,1.195303,0.222012,0.73742,0.536827,0.400509
1694111011054687,-10.97384,1.3303,0.57012,0.86942,0.583027,0.391809
1694111011062500,-10.123384,0.821303,0.191988,0.92342,0.547627,0.392309
1694111011070312,-10.77384,0.649303,0.626988,0.68942,0.505227,0.381609
1694111011078125,-9.920384,0.458303,0.819988,0.59642,0.490727,0.378509
1694111011085937,-9.704384,0.295303,0.867988,0.59842,0.481027,0.372109
1694111011093750,-9.485384,0.229303,0.603988,0.74342,0.514127,0.373209
1694111011101562,-9.392384,0.242303,0.391988,0.137942,0.499727,0.363209
1694111011109375,-9.611384,0.255303,0.450988,0.193242,0.427027,0.356409
1694111011117187,-10.217384,0.282303,0.668988,0.232242,0.330027,0.347609
1694111011125000,-11.59384,0.322303,0.894988,0.239842,0.282127,0.310509
1694111011132812,-11.704384,0.188303,0.750988,0.198542,0.270727,0.264309
1694111011140625,-11.857384,0.17303,0.416988,0.184242,0.233127,0.192309
1694111011148437,-11.643384,0.187697,0.198988,0.202742,0.182227,0.120009
1694111011156250,-11.442384,0.386697,0.164988,0.244342,0.139327,0.62009
1694111011164062,-11.525384,0.646697,0.443988,0.304542,0.75027,0.8809
1694111011171875,-11.857384,0.865697,0.950988,0.344542,0.18827,0.52291
1694111011179687,-12.169384,0.963697,1.355988,0.347242,0.12827,0.133991
1694111011187500,-11.999384,-1.226697,1.425988,0.368942,0.47227,0.184391
1694111011195312,-11.70384,-1.429697,1.127988,0.392942,0.86927,0.181891
1694111011203125,-9.912384,-1.489697,0.683988,0.418642,0.86327,0.154591
1694111011210937,-9.60384,-1.152697,0.116988,0.454942,0.59827,0.109691
1694111011218750,-8.634384,0.555697,0.257012,0.558942,0.8573,0.67091
1694111011226562,-8.404384,0.130303,0.121012,0.690642,0.60573,0.2409
1694111011234375,-8.475384,0.763303,0.20988,0.767642,0.69873,0.81909
1694111011242187,-8.736384,1.207303,0.261988,0.812942,0.56673,0.166609
1694111011250000,-9.289384,1.697303,0.471988,0.817742,0.26873,0.245109
1694111011257812,-9.724384,1.757303,0.921988,0.786342,0.46473,0.313209
1694111011265625,-10.44384,1.935303,1.334988,0.695942,0.42273,0.309109
1694111011273437,-10.11384,2.15303,1.550988,0.508842,0.114673,0.299009
1694111011281250,-9.569384,1.776303,1.579988,0.253342,0.213273,0.246609
1694111011289062,-8.897384,1.447303,0.971988,0.2542,0.258373,0.169109
1694111011296875,-8.104384,1.70303,0.14988,0.198158,0.328573,0.77009
1694111011304687,-7.596384,0.761303,0.756012,0.307158,0.411173,0.2991
1694111011312500,-7.630384,0.466303,-1.112012,0.329358,0.474973,0.76291
1694111011320312,-8.364384,0.142303,-1.85012,0.316258,0.452373,0.107091
1694111011328125,-9.560384,0.262697,0.867012,0.285558,0.381873,0.122491
1694111011335937,-10.921384,0.652697,0.610012,0.245758,0.303073,0.118791
1694111011343750,-11.932384,-1.66697,0.259012,0.240758,0.272173,0.127091
1694111011351562,-12.381384,-1.110697,0.186988,0.291358,0.300373,0.129391
1694111011359375,-12.84384,-1.121697,0.188988,0.346258,0.362673,0.84691
1694111011367187,-11.160384,-1.140697,0.67988,0.379658,0.363273,0.36391
1694111011375000,-10.260384,-1.176697,0.282012,0.364258,0.261873,0.6209
1694111011382812,-9.517384,-1.135697,0.926012,0.302658,0.186173,0.20909
1694111011390625,-9.525384,0.757697,0.583012,0.217958,0.370573,0.11909
1694111011398437,-10.135384,0.420697,0.385012,0.213458,0.256373,0.13809
1694111011406250,-10.508384,0.157697,0.526012,0.235558,0.138273,0.56609
1694111011414062,-10.412384,0.107697,0.497012,0.346658,0.66173,0.68609
1694111011421875,-10.386384,0.176697,0.952012,0.365758,0.100673,0.69209
1694111011429687,-10.24384,0.229697,0.860012,0.325558,0.341373,0.20509
1694111011437500,-10.594384,0.82697,0.639012,0.321158,0.309073,0.34909
1694111011445312,-10.592384,0.411697,0.948012,0.339158,0.128273,0.136609
1694111011453125,-10.589384,0.455697,-1.114012,0.332558,0.152373,0.196109
1694111011460937,-10.234384,0.545697,-1.497012,0.208758,0.168973,0.267309
1694111011468750,-9.886384,0.672697,0.923012,0.91458,0.295573,0.300809
1694111011476562,-9.924384,0.743697,0.619012,0.75158,0.209673,0.320609
1694111011484375,-9.801384,0.680697,0.340012,0.63358,0.214673,0.349509
1694111011492187,-9.703384,0.898697,0.337988,0.1358,0.211973,0.371509
1694111011500000,-10.69384,0.939697,0.436988,0.56858,0.104773,0.374409
1694111011507812,-10.51384,0.767697,0.297988,0.143058,0.106473,0.372209
1694111011515625,-9.833384,0.653697,0.116988,0.125758,0.73673,0.378209
1694111011523437,-9.730384,0.616697,0.175012,0.85058,0.10273,0.390209
1694111011531250,-9.620384,0.596697,0.430012,0.72158,0.11573,0.382009
1694111011539062,-9.452384,0.545697,0.551012,0.48658,0.10173,0.376909
1694111011546875,-9.407384,0.449697,0.646012,0.11742,0.16227,0.358209
1694111011554687,-9.416384,0.424697,0.576012,0.44442,0.5527,0.343709
1694111011562500,-9.531384,0.276697,0.425012,0.54642,0.17173,0.306709
1694111011570312,-9.448384,0.273697,0.155012,0.56542,0.41273,0.297009
1694111011578125,-9.241384,0.420697,0.123988,0.99542,0.6327,0.280009
1694111011585937,-9.518384,0.498697,0.292988,0.84842,0.43727,0.243009
1694111011593750,-9.853384,0.514697,0.195988,0.21758,0.2027,0.207809
1694111011601562,-9.706384,0.573697,0.27012,0.115058,0.61273,0.168909
1694111011609375,-9.554384,0.650697,0.236012,0.81358,0.63073,0.129909
1694111011617187,-9.362384,0.855697,0.344012,0.14658,0.33973,0.95309
1694111011625000,-9.497384,0.997697,0.446012,0.33142,0.29573,0.49709
1694111011632812,-9.501384,-1.48697,0.439012,0.47442,0.57673,0.27309
1694111011640625,-9.519384,-1.123697,0.419012,0.66242,0.63073,0.12809
1694111011648437,-9.394384,-1.218697,0.406012,0.77642,0.23873,0.6009
1694111011656250,-9.307384,-1.362697,0.466012,0.90942,0.17627,0.509
1694111011664062,-9.293384,-1.427697,0.435012,0.115042,0.45827,0.9691
1694111011671875,-9.421384,-1.445697,0.507012,0.105842,0.90027,0.5091
1694111011679687,-9.146384,-1.577697,0.390012,0.81342,0.143727,0.27591
1694111011687500,-9.192384,-1.433697,0.489012,0.33442,0.283527,0.76591
1694111011695312,-9.544384,-1.337697,0.905012,0.54242,0.350127,0.83591
1694111011703125,-9.803384,-1.270697,-1.34012,0.102942,0.367127,0.111291
1694111011710937,-9.998384,-1.190697,-1.227012,0.139942,0.389327,0.118691
1694111011718750,-10.109384,-1.95697,-1.349012,0.190542,0.392427,0.141791
1694111011726562,-10.166384,-1.25697,-1.356012,0.257642,0.368327,0.162891
1694111011734375,-10.203384,0.944697,-1.207012,0.322142,0.335827,0.173191
1694111011742187,-10.178384,0.859697,0.880012,0.394542,0.282027,0.188191
1694111011750000,-10.148384,0.741697,0.389012,0.420842,0.219427,0.200791
1694111011757812,-10.177384,0.601697,0.67988,0.420842,0.191827,0.200691
1694111011765625,-10.301384,0.488697,0.378988,0.395342,0.180627,0.181091
1694111011773437,-10.466384,0.356697,0.641988,0.343842,0.111227,0.163691
1694111011781250,-10.567384,0.223697,0.930988,0.287642,0.32827,0.123891
1694111011789062,-10.628384,0.67697,1.234988,0.231942,0.10973,0.89191
1694111011796875,-10.655384,0.41303,1.439988,0.174842,0.12173,0.51691
1694111011804687,-10.604384,0.89303,1.587988,0.128642,0.19027,0.9491
1694111011812500,-10.418384,0.128303,1.677988,0.80042,0.55827,0.17909
1694111011820312,-10.207384,0.163303,1.653988,0.36142,0.95027,0.29409
1694111011828125,-10.68384,0.176303,1.549988,0.1642,0.134427,0.40809
1694111011835937,-9.984384,0.215303,1.337988,0.24558,0.174127,0.39109
1694111011843750,-9.970384,0.201303,1.56988,0.59658,0.170227,0.49409
1694111011851562,-9.968384,0.146303,0.666988,0.79058,0.140427,0.53209
1694111011859375,-9.982384,0.49303,0.236988,0.89258,0.56527,0.52409
1694111011867187,-10.26384,0.41697,0.78012,0.70558,0.36073,0.54209
1694111011875000,-10.92384,0.158697,0.191012,0.39758,0.122973,0.51309
1694111011882812,-10.139384,0.276697,0.106012,0.21758,0.179273,0.53309
1694111011890625,-10.185384,0.372697,0.83988,0.21558,0.199773,0.62909
1694111011898437,-10.222384,0.451697,0.315988,0.39358,0.206673,0.74509
1694111011906250,-10.151384,0.534697,0.641988,0.58358,0.234173,0.84509
1694111011914062,-10.31384,0.591697,0.936988,0.98058,0.224673,0.99509
1694111011921875,-9.892384,0.609697,1.152988,0.160858,0.217273,0.122409
1694111011929687,-9.821384,0.583697,1.274988,0.228158,0.174173,0.143709
1694111011937500,-9.852384,0.549697,1.319988,0.299258,0.141773,0.162109
1694111011945312,-9.893384,0.549697,1.274988,0.338258,0.100073,0.183009
1694111011953125,-9.884384,0.565697,1.206988,0.376458,0.91973,0.209109
1694111011960937,-9.818384,0.563697,1.184988,0.392558,0.88773,0.228609
1694111011968750,-9.760384,0.566697,1.132988,0.388458,0.101773,0.254409
1694111011976562,-9.728384,0.589697,1.35988,0.365458,0.113473,0.265509
1694111011984375,-9.667384,0.613697,0.918988,0.354458,0.147073,0.273509
1694111011992187,-9.645384,0.559697,0.805988,0.337758,0.183873,0.269009
1694111012000000,-9.637384,0.540697,0.747988,0.325058,0.237273,0.265809
1694111012007812,-9.654384,0.460697,0.758988,0.334458,0.270273,0.246909
1694111012015625,-9.695384,0.388697,0.740988,0.354158,0.260473,0.221309
1694111012023437,-9.735384,0.319697,0.673988,0.368158,0.250773,0.215009
1694111012031250,-9.674384,0.313697,0.556988,0.384758,0.240573,0.192409
1694111012039062,-9.599384,0.359697,0.342988,0.395158,0.237473,0.162009
1694111012046875,-9.544384,0.436697,0.103988,0.406058,0.237373,0.120809
1694111012054687,-9.517384,0.586697,0.72012,0.420358,0.230073,0.82109
1694111012062500,-9.525384,0.736697,0.162012,0.413858,0.232673,0.43709
1694111012070312,-9.581384,0.832697,0.115012,0.414358,0.208873,0.30309
1694111012078125,-9.638384,0.935697,0.130988,0.407758,0.189073,0.26809
1694111012085937,-9.645384,-1.37697,0.348988,0.408858,0.131173,0.29409
1694111012093750,-9.596384,-1.149697,0.492988,0.411758,0.65973,0.32309
1694111012101562,-9.506384,-1.294697,0.557988,0.430158,0.827,0.30609
1694111012109375,-9.403384,-1.414697,0.530988,0.420058,0.68327,0.21809
1694111012117187,-9.325384,-1.503697,0.429988,0.376858,0.136627,0.3191
1694111012125000,-9.322384,-1.566697,0.427988,0.337058,0.172527,0.23191
1694111012132812,-9.407384,-1.604697,0.231988,0.332858,0.242627,0.54191
1694111012140625,-9.356384,-1.667697,0.44988,0.310458,0.247427,0.76991
1694111012148437,-9.217384,-1.674697,0.170988,0.277558,0.188127,0.100991
1694111012156250,-9.104384,-1.691697,0.262988,0.228258,0.199327,0.132191
1694111012164062,-9.86384,-1.711697,0.179988,0.175458,0.233927,0.160491
1694111012171875,-9.36384,-1.745697,0.32988,0.128358,0.216527,0.194391
1694111012179687,-8.896384,-1.791697,0.133012,0.88458,0.163827,0.247491
1694111012187500,-8.782384,-1.767697,0.181012,0.23658,0.119627,0.283391
1694111012195312,-8.740384,-1.730697,0.160012,0.51142,0.120827,0.299291
1694111012203125,-8.824384,-1.680697,0.120012,0.115542,0.142927,0.311091
1694111012210937,-8.941384,-1.634697,0.129012,0.181542,0.152827,0.315291
1694111012218750,-9.34384,-1.597697,0.52012,0.242842,0.160927,0.317591
1694111012226562,-9.169384,-1.546697,0.95012,0.285142,0.251827,0.305591
1694111012234375,-9.180384,-1.475697,0.428012,0.342642,0.358927,0.304091
1694111012242187,-9.89384,-1.368697,0.396012,0.391342,0.369927,0.314191
1694111012250000,-9.1384,-1.247697,0.270012,0.418042,0.358427,0.316091
1694111012257812,-9.178384,-1.109697,0.79012,0.419442,0.364827,0.312791
1694111012265625,-9.406384,-1.34697,0.392012,0.415242,0.467827,0.313491
1694111012273437,-9.522384,0.977697,0.473012,0.453942,0.362927,0.319591
1694111012281250,-9.845384,0.892697,0.13012,0.444242,0.305527,0.325491
1694111012289062,-9.951384,0.880697,0.592012,0.409442,0.486427,0.315391
1694111012296875,-10.11384,0.792697,0.774012,0.434642,0.475027,0.317291
1694111012304687,-10.86384,0.720697,0.754012,0.439542,0.522427,0.315991
1694111012312500,-10.65384,0.630697,0.662012,0.441342,0.517827,0.320891
1694111012320312,-10.3384,0.541697,0.342012,0.428642,0.509127,0.326891
1694111012328125,-10.1384,0.481697,0.153012,0.407842,0.508527,0.326491
1694111012335937,-10.30384,0.405697,0.58012,0.381542,0.507327,0.329491
1694111012343750,-10.151384,0.313697,0.22012,0.372242,0.511227,0.321591
1694111012351562,-10.187384,0.285697,0.112012,0.358842,0.531627,0.300391
1694111012359375,-10.131384,0.269697,0.234012,0.319542,0.530527,0.279191
1694111012367187,-10.73384,0.232697,0.346012,0.252942,0.532427,0.243091
1694111012375000,-10.43384,0.239697,0.491012,0.162942,0.525727,0.227391
1694111012382812,-9.965384,0.218697,0.509012,0.84442,0.511327,0.218391
1694111012390625,-9.836384,0.153697,0.443012,0.17142,0.503427,0.224091
1694111012398437,-9.655384,0.61697,0.292012,0.54658,0.508427,0.237791
1694111012406250,-9.498384,0.47697,0.126012,0.99758,0.550927,0.243991
1694111012414062,-9.409384,0.8303,0.11988,0.130558,0.602127,0.245791
1694111012421875,-9.451384,0.35697,0.60012,0.153458,0.638327,0.260291
1694111012429687,-9.738384,0.72697,0.132012,0.151258,0.586727,0.251591
1694111012437500,-10.147384,0.92697,0.180012,0.132358,0.509527,0.217391
1694111012445312,-10.633384,0.50697,0.128012,0.109558,0.446927,0.169291
1694111012453125,-11.4384,0.72303,0.99988,0.115658,0.422727,0.103191
1694111012460937,-11.180384,0.169303,0.229988,0.168358,0.455227,0.56091
1694111012468750,-11.122384,0.211303,0.319988,0.243058,0.462427,0.43591
1694111012476562,-10.838384,0.261303,0.376988,0.287658,0.477727,0.64291
1694111012484375,-10.464384,0.473303,0.421988,0.297058,0.512427,0.117691
1694111012492187,-10.130384,0.561303,0.453988,0.265158,0.533727,0.200291
1694111012500000,-10.183384,0.590303,0.428988,0.178858,0.541627,0.275391
1694111012507812,-10.510384,0.571303,0.441988,0.58258,0.416627,0.312691
1694111012515625,-10.939384,0.566303,0.644988,0.88842,0.208427,0.290391
1694111012523437,-11.95384,0.411303,0.934988,0.251642,0.69627,0.239891
1694111012531250,-11.422384,0.674303,1.63988,0.404842,0.9927,0.173391
1694111012539062,-10.797384,0.259303,1.148988,0.479042,0.63973,0.81891
1694111012546875,-11.132384,0.956303,0.930988,0.556142,0.107173,0.63609
1694111012554687,-9.110384,-1.43697,0.958988,0.582742,0.44273,0.308909
1694111012562500,-8.282384,0.938697,0.75988,0.451542,0.52727,0.65509
1694111012570312,-9.185384,0.531697,0.295012,0.434042,0.230473,0.69309
1694111012578125,-8.665384,0.584697,0.269988,0.402942,0.486973,0.69809
1694111012585937,-8.446384,0.334697,0.609988,0.382042,0.612073,0.104909
1694111012593750,-8.164384,0.165697,0.988988,0.299942,0.760573,0.171209
1694111012601562,-8.435384,0.106303,0.810988,0.213442,0.844873,0.243409
1694111012609375,-9.116384,0.235303,0.515988,0.239942,0.857973,0.318909
1694111012617187,-10.227384,0.451303,0.225988,0.261142,0.867473,0.360409
1694111012625000,-10.614384,0.592303,0.583988,0.434142,0.908373,0.402109
1694111012632812,-11.994384,0.630303,0.955988,0.429042,0.799173,0.366109
1694111012640625,-13.62384,0.937303,0.286988,0.283842,0.653773,0.296109
1694111012648437,-12.922384,0.755303,0.265012,0.262542,0.581473,0.224909
1694111012656250,-12.273384,0.649303,0.636012,0.253742,0.548473,0.144209
1694111012664062,-11.541384,0.553303,0.702012,0.319842,0.401773,0.92709
1694111012671875,-11.140384,0.649303,0.787012,0.359142,0.295973,0.33709
1694111012679687,-11.51384,0.846303,0.263012,0.352742,0.265673,0.46691
1694111012687500,-10.974384,0.937303,0.436012,0.381742,0.43973,0.137391
1694111012695312,-10.595384,0.971303,0.456012,0.425142,0.4773,0.242791
1694111012703125,-10.184384,0.996303,0.328012,0.450342,0.26473,0.336191
1694111012710937,-9.892384,1.9303,0.445012,0.453542,0.53173,0.424391
1694111012718750,-9.748384,0.993303,0.456012,0.470542,0.67673,0.485791
1694111012726562,-9.650384,1.30303,0.670012,0.490842,0.10427,0.539491
1694111012734375,-9.492384,1.303,0.864012,0.530442,0.29727,0.559291
1694111012742187,-9.349384,0.932303,0.686012,0.514542,0.30873,0.566691
1694111012750000,-9.200384,0.870303,0.366012,0.497842,0.60873,0.546791
1694111012757812,-9.158384,0.792303,0.290012,0.477642,0.67127,0.510491
1694111012765625,-9.70384,0.749303,0.551012,0.479242,0.207627,0.480891
1694111012773437,-9.26384,0.825303,0.463012,0.502742,0.237827,0.449391
1694111012781250,-9.75384,0.964303,0.143012,0.495342,0.230627,0.421691
1694111012789062,-9.87384,1.111303,0.103988,0.465242,0.239127,0.397291
1694111012796875,-9.44384,1.263303,0.223988,0.437142,0.231827,0.382791
1694111012804687,-8.997384,1.447303,0.333988,0.385942,0.172427,0.370291
1694111012812500,-8.969384,1.443303,0.147988,0.296742,0.108027,0.370791
1694111012820312,-8.927384,1.390303,0.244012,0.192342,0.25527,0.370291
1694111012828125,-9.11384,1.289303,0.672012,0.92842,0.65973,0.363691
1694111012835937,-9.54384,1.165303,0.902012,0.68842,0.100373,0.355191
1694111012843750,-8.959384,1.17303,0.844012,0.49742,0.111773,0.345191
1694111012851562,-8.913384,0.773303,0.646012,0.10442,0.93773,0.336791
1694111012859375,-8.809384,0.580303,0.454012,0.22558,0.54373,0.322191
1694111012867187,-8.764384,0.437303,0.369012,0.39058,0.27927,0.319591
1694111012875000,-8.776384,0.330303,0.452012,0.53958,0.94227,0.318591
1694111012882812,-8.796384,0.315303,0.526012,0.25258,0.132927,0.338291
1694111012890625,-8.886384,0.377303,0.499012,0.25142,0.132127,0.369191
1694111012898437,-9.42384,0.551303,0.369012,0.114942,0.120327,0.397391
1694111012906250,-9.247384,0.842303,0.172012,0.205242,0.109627,0.414791
1694111012914062,-9.568384,1.271303,0.182988,0.287342,0.128327,0.389791
1694111012921875,-9.826384,1.277303,0.176988,0.317842,0.210627,0.315191
1694111012929687,-10.13384,1.542303,0.217012,0.262242,0.247327,0.255491
1694111012937500,-9.860384,1.690303,0.665012,0.223642,0.320027,0.178491
1694111012945312,-9.770384,1.562303,0.805012,0.192942,0.331227,0.142791
1694111012953125,-9.679384,1.479303,0.758012,0.122742,0.345927,0.90491
1694111012960937,-9.602384,1.448303,0.735012,0.38242,0.336827,0.78391
1694111012968750,-9.638384,1.321303,0.602012,0.44358,0.282627,0.59291
1694111012976562,-9.749384,1.169303,0.744012,0.119458,0.299627,0.48991
1694111012984375,-9.870384,1.62303,-1.44012,0.141758,0.296227,0.37391
1694111012992187,-9.974384,0.951303,-1.265012,0.136458,0.282527,0.14691
1694111013000000,-10.116384,0.829303,-1.400012,0.118158,0.241827,0.6209
1694111013007812,-10.241384,0.806303,-1.409012,0.87458,0.205627,0.17509
1694111013015625,-10.340384,0.793303,-1.330012,0.61158,0.215227,0.33309
1694111013023437,-10.376384,0.779303,-1.170012,0.29958,0.220627,0.53609
1694111013031250,-10.362384,0.734303,-1.30012,0.8058,0.201527,0.71009
1694111013039062,-10.327384,0.710303,0.914012,0.6642,0.174327,0.77809
1694111013046875,-10.249384,0.729303,0.796012,0.33842,0.170227,0.75709
1694111013054687,-10.126384,0.774303,0.655012,0.69642,0.168027,0.73809
1694111013062500,-10.4384,0.855303,0.438012,0.88242,0.170727,0.67309
1694111013070312,-9.906384,0.903303,0.206012,0.114042,0.197627,0.68209
1694111013078125,-9.830384,0.947303,0.24012,0.107842,0.231827,0.64909
1694111013085937,-9.762384,1.23303,0.23988,0.91342,0.270127,0.59709
1694111013093750,-9.747384,1.114303,0.0,0.69242,0.303727,0.53609
1694111013101562,-9.740384,1.223303,0.87012,0.47342,0.308927,0.63409
1694111013109375,-9.742384,1.309303,0.226012,0.8242,0.293227,0.70209
1694111013117187,-9.726384,1.362303,0.420012,0.39858,0.255127,0.88909
1694111013125000,-9.899384,1.326303,0.530012,0.77358,0.201927,0.91009
1694111013132812,-10.411384,1.447303,0.465012,0.75558,0.167627,0.73509
1694111013140625,-10.908384,1.726303,0.32012,0.542,0.174127,0.37209
1694111013148437,-10.907384,1.673303,0.476988,0.19642,0.170527,0.19409
1694111013156250,-10.432384,1.313303,1.255988,0.48042,0.111427,0.9491
1694111013164062,-9.868384,1.61303,1.687988,0.30542,0.135227,0.12391
1694111013171875,-9.368384,0.798303,1.236988,0.25558,0.186627,0.2209
1694111013179687,-9.132384,0.656303,0.270988,0.71358,0.194727,0.15609
1694111013187500,-9.70384,0.444303,0.411012,0.108258,0.95127,0.31109
1694111013195312,-9.188384,0.366303,0.378012,0.121658,0.52973,0.41709
1694111013203125,-9.441384,0.452303,0.311988,0.142258,0.212273,0.67409
1694111013210937,-9.665384,0.587303,0.912988,0.171558,0.263773,0.79609
1694111013218750,-9.796384,0.615303,0.914988,0.205758,0.244973,0.94209
1694111013226562,-9.767384,0.606303,0.338988,0.205858,0.200973,0.105109
1694111013234375,-9.677384,0.649303,0.441012,0.147758,0.173373,0.106009
1694111013242187,-9.620384,0.705303,0.956012,0.43958,0.184673,0.98309
1694111013250000,-9.671384,0.777303,-1.175012,0.40842,0.194273,0.94109
1694111013257812,-9.785384,0.945303,0.954012,0.123642,0.214673,0.90309
1694111013265625,-9.898384,1.132303,0.546012,0.173942,0.180773,0.79909
1694111013273437,-10.51384,1.285303,0.287012,0.212842,0.98673,0.56309
1694111013281250,-10.161384,1.384303,0.183012,0.195242,0.23173,0.26909
1694111013289062,-10.157384,1.430303,0.294012,0.189742,0.29327,0.8809
1694111013296875,-10.73384,1.392303,0.391012,0.180542,0.31727,0.19791
1694111013304687,-10.36384,1.271303,0.375012,0.178142,0.11027,0.43891
1694111013312500,-10.78384,1.87303,0.208012,0.190942,0.10373,0.64791
1694111013320312,-10.192384,0.901303,0.70988,0.214942,0.16773,0.86091
1694111013328125,-10.337384,0.692303,0.279988,0.186742,0.46573,0.103091
1694111013335937,-10.479384,0.559303,0.317988,0.156942,0.100073,0.110591
1694111013343750,-10.486384,0.437303,0.239988,0.121742,0.154573,0.101491
1694111013351562,-10.340384,0.322303,0.148988,0.114442,0.246473,0.86191
1694111013359375,-10.103384,0.283303,0.94988,0.127142,0.299373,0.55191
1694111013367187,-9.902384,0.320303,0.85988,0.189542,0.320273,0.31791
1694111013375000,-9.773384,0.418303,0.182988,0.254742,0.340173,0.14691
1694111013382812,-9.717384,0.557303,0.293988,0.300242,0.341673,0.11991
1694111013390625,-9.780384,0.715303,0.286988,0.352342,0.339773,0.12691
1694111013398437,-9.855384,0.896303,0.270988,0.400942,0.344573,0.11691
1694111013406250,-9.880384,1.56303,0.311988,0.465042,0.361073,0.9091
1694111013414062,-9.840384,1.117303,0.333988,0.489742,0.379273,0.1091
1694111013421875,-9.721384,1.118303,0.234988,0.468642,0.378073,0.17009
1694111013429687,-9.615384,1.103303,0.35012,0.445642,0.336473,0.23209
1694111013437500,-9.503384,1.114303,0.287012,0.420542,0.293573,0.42409
1694111013445312,-9.345384,1.97303,0.461012,0.391742,0.255173,0.55609
1694111013453125,-9.264384,1.93303,0.407012,0.373342,0.241473,0.55509
1694111013460937,-9.267384,1.95303,0.206012,0.357942,0.221373,0.61809
1694111013468750,-9.362384,1.118303,0.48012,0.333142,0.184773,0.68109
1694111013476562,-9.456384,1.167303,0.74988,0.307842,0.129873,0.76309
1694111013484375,-9.480384,1.209303,0.113988,0.288042,0.83573,0.74509
1694111013492187,-9.531384,1.215303,0.133988,0.269042,0.54673,0.76309
1694111013500000,-9.543384,1.235303,0.106988,0.245942,0.13473,0.74609
1694111013507812,-9.550384,1.246303,0.70988,0.228042,0.17227,0.67709
1694111013515625,-9.520384,1.232303,0.11988,0.207842,0.50727,0.50309
1694111013523437,-9.417384,1.193303,0.46012,0.190942,0.77127,0.48609
1694111013531250,-9.324384,1.180303,0.89012,0.172042,0.94927,0.52009
1694111013539062,-9.227384,1.161303,0.211012,0.145242,0.117927,0.65009
1694111013546875,-9.186384,1.158303,0.348012,0.121342,0.127427,0.73409
1694111013554687,-9.223384,1.172303,0.438012,0.104042,0.113527,0.92709
1694111013562500,-9.271384,1.246303,0.391012,0.91242,0.115227,0.107309
1694111013570312,-9.307384,1.348303,0.235012,0.81542,0.102027,0.112409
1694111013578125,-9.337384,1.413303,0.80012,0.51342,0.107427,0.141509
1694111013585937,-9.299384,1.457303,0.30012,0.742,0.138027,0.156609
1694111013593750,-9.216384,1.445303,0.181012,0.52258,0.188027,0.174309
1694111013601562,-9.179384,1.418303,0.368012,0.91958,0.219927,0.186009
1694111013609375,-9.203384,1.378303,0.433012,0.88858,0.233327,0.198709
1694111013617187,-9.252384,1.310303,0.285012,0.101058,0.248927,0.208109
1694111013625000,-9.352384,1.272303,0.148012,0.131358,0.270927,0.213409
1694111013632812,-9.450384,1.231303,0.105012,0.156558,0.303527,0.226409
1694111013640625,-9.459384,1.184303,0.174012,0.187558,0.330627,0.236009
1694111013648437,-9.416384,1.154303,0.391012,0.220358,0.339727,0.248809
1694111013656250,-9.382384,1.170303,0.632012,0.214658,0.328927,0.254009
1694111013664062,-9.345384,1.202303,0.688012,0.187958,0.332127,0.256909
1694111013671875,-9.385384,1.187303,0.679012,0.172558,0.331127,0.277509
1694111013679687,-9.470384,1.189303,0.733012,0.190058,0.324727,0.288909
1694111013687500,-9.579384,1.246303,0.776012,0.188258,0.325227,0.290309
1694111013695312,-9.616384,1.280303,0.755012,0.163558,0.331027,0.296709
1694111013703125,-9.581384,1.233303,0.508012,0.137158,0.320927,0.301409
1694111013710937,-9.589384,1.131303,0.409012,0.169758,0.383627,0.312409
1694111013718750,-9.641384,1.32303,0.720012,0.197758,0.474927,0.321909
1694111013726562,-9.646384,0.952303,0.920012,0.185158,0.500927,0.321609
1694111013734375,-9.593384,0.867303,0.934012,0.158658,0.485927,0.315109
1694111013742187,-9.547384,0.787303,0.591012,0.137558,0.371027,0.312509
1694111013750000,-9.682384,0.674303,0.193012,0.170758,0.356327,0.324309
1694111013757812,-9.813384,0.557303,0.605012,0.193458,0.478027,0.338009
1694111013765625,-9.865384,0.558303,0.659012,0.148158,0.427127,0.326609
1694111013773437,-9.870384,0.574303,0.305012,0.94558,0.386427,0.306909
1694111013781250,-9.813384,0.555303,0.2988,0.58358,0.387827,0.296909
1694111013789062,-9.714384,0.516303,0.214988,0.37458,0.401527,0.288209
1694111013796875,-9.659384,0.485303,0.175988,0.18758,0.424927,0.278609
1694111013804687,-9.655384,0.482303,0.10012,0.22542,0.434827,0.263509
1694111013812500,-9.659384,0.473303,0.114012,0.58942,0.418827,0.251809
1694111013820312,-9.712384,0.416303,0.143012,0.105942,0.408827,0.248209
1694111013828125,-10.14384,0.308303,0.51012,0.147942,0.382327,0.252809
1694111013835937,-10.599384,0.242303,0.232988,0.185642,0.316427,0.217509
1694111013843750,-11.213384,0.222303,0.747988,0.173742,0.233827,0.184109
1694111013851562,-11.575384,0.9303,0.765988,0.76542,0.242027,0.147109
1694111013859375,-11.976384,0.404697,0.317988,0.20858,0.267427,0.112409
1694111013867187,-12.806384,0.812697,0.20012,0.49358,0.223927,0.15209
1694111013875000,-14.4384,-1.89697,0.351988,0.38958,0.60327,0.144791
1694111013882812,-14.442384,-1.519697,1.154988,0.66458,0.17173,0.280591
1694111013890625,-12.964384,-2.538697,1.417988,0.111558,0.123627,0.329291
1694111013898437,-10.149384,-2.893697,0.613988,0.101458,0.212027,0.334891
1694111013906250,-8.294384,-2.214697,0.147988,0.35842,0.28627,0.357791
1694111013914062,-7.207384,-1.321697,0.160012,0.231842,0.98073,0.326791
1694111013921875,-7.4384,0.328697,0.205012,0.463242,0.204373,0.249891
1694111013929687,-7.208384,0.668303,0.98012,0.593342,0.300773,0.123691
1694111013937500,-7.487384,1.556303,0.406988,0.732442,0.461373,0.64309
1694111013945312,-8.467384,2.299303,1.550988,0.744642,0.655373,0.253609
1694111013953125,-9.856384,2.690303,2.652988,0.642142,0.567673,0.392309
1694111013960937,-10.745384,3.109303,2.629988,0.444542,0.278673,0.487309
1694111013968750,-11.5384,3.58303,1.920988,0.267742,0.168373,0.509309
1694111013976562,-10.516384,2.846303,1.303988,0.70042,0.204573,0.426709
1694111013984375,-9.451384,2.387303,0.312988,0.140758,0.240573,0.300609
1694111013992187,-8.401384,1.893303,0.791012,0.329758,0.359773,0.160309
1694111014000000,-7.691384,1.378303,-1.451012,0.466558,0.576673,0.25309
1694111014007812,-7.643384,0.874303,-1.632012,0.545558,0.699673,0.64591
1694111014015625,-8.334384,0.407303,-1.528012,0.601658,0.739773,0.106791
1694111014023437,-9.782384,0.170697,-1.191012,0.647658,0.674273,0.135691
1694111014031250,-11.589384,0.899697,-1.153012,0.682358,0.503673,0.144591
1694111014039062,-12.850384,-1.323697,0.732012,0.658058,0.458173,0.169291
1694111014046875,-12.828384,-1.723697,0.128012,0.689558,0.444573,0.151491
1694111014054687,-11.784384,-1.981697,0.210012,0.817358,0.501073,0.119291
1694111014062500,-10.523384,-1.963697,0.554012,0.850558,0.566773,0.61991
1694111014070312,-9.670384,-1.884697,0.935012,0.727858,0.520273,0.16691
1694111014078125,-9.512384,-1.479697,0.991012,0.521758,0.443773,0.12009
1694111014085937,-9.954384,0.858697,0.788012,0.367258,0.309573,0.12409
1694111014093750,-10.501384,0.208697,0.921012,0.276658,0.137873,0.5409
1694111014101562,-10.750384,0.97303,0.715012,0.249058,0.221473,0.8909
1694111014109375,-10.749384,0.192303,0.328012,0.271458,0.266473,0.3409
1694111014117187,-10.706384,0.183303,0.522012,0.263458,0.212673,0.6209
1694111014125000,-10.377384,0.59697,0.725012,0.262458,0.242073,0.20909
1694111014132812,-9.909384,0.259697,0.781012,0.226058,0.223273,0.29609
1694111014140625,-9.543384,0.485697,-1.45012,0.214858,0.153073,0.38809
1694111014148437,-9.168384,0.639697,-1.11012,0.177258,0.281173,0.68409
1694111014156250,-9.11384,0.772697,0.58012,0.190958,0.403573,0.88609
1694111014164062,-9.79384,0.873697,0.53988,0.255758,0.127973,0.133909
1694111014171875,-9.6384,0.921697,0.293012,0.234158,0.49573,0.170209
1694111014179687,-9.158384,0.840697,0.720988,0.187158,0.219873,0.191809
1694111014187500,-9.455384,0.816697,1.8988,0.215958,0.14327,0.219409
1694111014195312,-9.558384,0.876697,0.468988,0.213758,0.177127,0.250109
1694111014203125,-9.499384,-1.8697,0.215988,0.173358,0.124827,0.254809
1694111014210937,-9.370384,-1.108697,0.26988,0.124258,0.75927,0.222309
1694111014218750,-9.205384,-1.164697,0.250012,0.75358,0.81327,0.191509
1694111014226562,-9.137384,-1.147697,0.480012,0.8958,0.71027,0.153909
1694111014234375,-9.154384,-1.73697,0.579012,0.50842,0.63627,0.124609
1694111014242187,-9.165384,0.976697,0.522012,0.101942,0.49627,0.98009
1694111014250000,-9.185384,0.816697,0.261012,0.156942,0.18527,0.83109
1694111014257812,-9.290384,0.563697,0.49988,0.155442,0.21527,0.76809
1694111014265625,-9.435384,0.359697,0.177988,0.133842,0.44427,0.64009
1694111014273437,-9.520384,0.202697,0.216988,0.118142,0.53427,0.48309
1694111014281250,-9.553384,0.128697,0.162988,0.114142,0.48627,0.19409
1694111014289062,-9.538384,0.109697,0.128988,0.111842,0.21027,0.17491
1694111014296875,-9.590384,0.111697,0.20012,0.120742,0.41027,0.54891
1694111014304687,-9.611384,0.148697,0.276012,0.129042,0.66827,0.75991
1694111014312500,-9.646384,0.219697,0.461012,0.158142,0.86827,0.102391
1694111014320312,-9.690384,0.285697,0.569012,0.169242,0.87927,0.118391
1694111014328125,-9.740384,0.397697,0.540012,0.160042,0.73127,0.132691
1694111014335937,-9.763384,0.514697,0.416012,0.128842,0.37427,0.146691
1694111014343750,-9.764384,0.616697,0.288012,0.98942,0.27127,0.154091
1694111014351562,-9.723384,0.672697,0.92012,0.74042,0.34027,0.155591
1694111014359375,-9.698384,0.686697,0.26988,0.61542,0.88127,0.136491
1694111014367187,-9.657384,0.657697,0.60988,0.47042,0.157727,0.122091
1694111014375000,-9.600384,0.592697,0.16012,0.45942,0.238427,0.106691
1694111014382812,-9.580384,0.525697,0.239012,0.66242,0.293527,0.102291
1694111014390625,-9.645384,0.441697,0.416012,0.105042,0.342027,0.113191
1694111014398437,-9.737384,0.344697,0.596012,0.162342,0.378627,0.132091
1694111014406250,-9.891384,0.271697,0.677012,0.226942,0.377727,0.161391
1694111014414062,-10.101384,0.289697,0.689012,0.293342,0.370727,0.190991
1694111014421875,-10.290384,0.275697,0.527012,0.343342,0.320927,0.215091
1694111014429687,-10.453384,0.232697,0.252012,0.393042,0.241927,0.226291
1694111014437500,-10.598384,0.146697,0.146988,0.417542,0.168627,0.210091
1694111014445312,-10.742384,0.19697,0.605988,0.426442,0.117027,0.185991
1694111014453125,-10.906384,0.158303,1.58988,0.396942,0.90327,0.146591
1694111014460937,-11.29384,0.373303,1.497988,0.333342,0.115427,0.86591
1694111014468750,-10.969384,0.579303,1.783988,0.250642,0.159627,0.27991
1694111014476562,-10.792384,0.791303,1.914988,0.173542,0.205927,0.6209
1694111014484375,-10.499384,0.912303,1.901988,0.104542,0.275927,0.11509
1694111014492187,-10.72384,0.988303,1.660988,0.69842,0.352027,0.4991
1694111014500000,-9.656384,0.971303,1.462988,0.100742,0.358727,0.48891
1694111014507812,-9.409384,0.825303,1.362988,0.154542,0.337027,0.83091
1694111014515625,-9.391384,0.549303,1.47988,0.208142,0.295827,0.110691
1694111014523437,-9.540384,0.287303,0.711988,0.223042,0.190827,0.113291
1694111014531250,-9.787384,0.32303,0.421988,0.221842,0.58027,0.100891
1694111014539062,-10.58384,0.185697,0.238988,0.192742,0.54573,0.85491
1694111014546875,-10.231384,0.335697,0.87988,0.142742,0.151573,0.66291
1694111014554687,-10.266384,0.411697,0.13012,0.123242,0.274873,0.46291
1694111014562500,-10.129384,0.413697,0.141988,0.113842,0.365573,0.13091
1694111014570312,-9.918384,0.349697,0.229988,0.107942,0.340173,0.22509
1694111014578125,-9.692384,0.279697,0.247988,0.86442,0.265773,0.46109
1694111014585937,-9.538384,0.240697,0.270988,0.67342,0.208073,0.82809
1694111014593750,-9.552384,0.172697,0.303988,0.41842,0.146273,0.103709
1694111014601562,-9.659384,0.113697,0.312988,0.32842,0.62273,0.127209
1694111014609375,-9.735384,0.42697,0.364988,0.14042,0.727,0.160609
1694111014617187,-9.787384,0.12303,0.448988,0.942,0.36327,0.184709
1694111014625000,-9.810384,0.54303,0.509988,0.13358,0.48127,0.205709
1694111014632812,-9.824384,0.97303,0.563988,0.35558,0.56327,0.217109
1694111014640625,-9.874384,0.160303,0.587988,0.57958,0.49527,0.224009
1694111014648437,-9.963384,0.201303,0.610988,0.85458,0.58027,0.208009
1694111014656250,-10.56384,0.255303,0.648988,0.130658,0.63427,0.205109
1694111014664062,-10.95384,0.310303,0.734988,0.174858,0.59227,0.188309
1694111014671875,-10.96384,0.379303,0.810988,0.224558,0.72127,0.166309
1694111014679687,-10.18384,0.406303,0.811988,0.289158,0.106027,0.148709
1694111014687500,-9.826384,0.412303,0.659988,0.342158,0.144427,0.117209
1694111014695312,-9.587384,0.320303,0.434988,0.379258,0.132827,0.87209
1694111014703125,-9.495384,0.198303,0.238988,0.389358,0.81127,0.55209
1694111014710937,-9.599384,0.60303,0.135988,0.381858,0.1273,0.33409
1694111014718750,-9.784384,0.70697,0.76988,0.364158,0.11673,0.31309
1694111014726562,-9.909384,0.218697,0.162012,0.345858,0.14473,0.29909
1694111014734375,-10.42384,0.379697,0.198012,0.333258,0.64273,0.31409
1694111014742187,-10.123384,0.493697,0.169012,0.327358,0.92673,0.30109
1694111014750000,-10.83384,0.607697,0.142012,0.335258,0.107373,0.31909
1694111014757812,-9.924384,0.705697,0.184012,0.338458,0.109073,0.31909
1694111014765625,-9.658384,0.762697,0.270012,0.342858,0.80973,0.30109
1694111014773437,-9.480384,0.776697,0.380012,0.337658,0.38673,0.18609
1694111014781250,-9.425384,0.854697,0.317012,0.323558,0.3073,0.15009
1694111014789062,-9.474384,0.897697,0.275012,0.297958,0.81827,0.14209
1694111014796875,-9.520384,0.957697,0.320012,0.248658,0.172327,0.19309
1694111014804687,-9.563384,0.981697,0.239012,0.196458,0.194427,0.24609
1694111014812500,-9.499384,-1.28697,0.169012,0.158058,0.198427,0.45409
1694111014820312,-9.386384,-1.108697,0.151012,0.131258,0.179827,0.54509
1694111014828125,-9.324384,-1.153697,0.227012,0.96958,0.169727,0.57509
1694111014835937,-9.319384,-1.160697,0.347012,0.54758,0.152927,0.52409
1694111014843750,-9.333384,-1.127697,0.430012,0.10958,0.129727,0.47309
1694111014851562,-9.373384,-1.44697,0.421012,0.40842,0.126027,0.32409
1694111014859375,-9.408384,0.950697,0.342012,0.78942,0.141327,0.30009
1694111014867187,-9.434384,0.859697,0.212012,0.121442,0.199727,0.27709
1694111014875000,-9.479384,0.743697,0.121012,0.154942,0.265527,0.29909
1694111014882812,-9.559384,0.639697,0.27012,0.183442,0.312627,0.26209
1694111014890625,-9.532384,0.626697,0.2012,0.180442,0.351527,0.19609
1694111014898437,-9.527384,0.551697,0.207012,0.153242,0.370427,0.2991
1694111014906250,-9.269384,0.932697,0.376012,0.140442,0.292627,0.34191
1694111014914062,-9.184384,0.909697,0.34012,0.24842,0.250227,0.135691
1694111014921875,-9.622384,0.639697,0.840012,0.58958,0.289627,0.162291
1694111014929687,-9.672384,0.591697,-1.299012,0.67042,0.163227,0.156391
1694111014937500,-9.631384,0.630697,-1.83012,0.187542,0.115727,0.159091
1694111014945312,-9.800384,0.447697,0.718012,0.197442,0.184327,0.162791
1694111014953125,-10.14384,0.406697,0.720012,0.163842,0.335127,0.157091
1694111014960937,-10.10384,0.399697,0.896012,0.153342,0.418227,0.160691
1694111014968750,-9.993384,0.315697,0.639012,0.172442,0.379427,0.176891
1694111014976562,-10.35384,0.257697,0.380012,0.154042,0.428327,0.186691
1694111014984375,-9.952384,0.225697,0.457012,0.144842,0.475727,0.181991
1694111014992187,-9.799384,0.234697,0.267012,0.154142,0.434727,0.189791
1694111015000000,-9.662384,0.225697,0.18988,0.173042,0.435027,0.190191
1694111015007812,-9.684384,0.218697,0.220988,0.166842,0.504927,0.183991
1694111015015625,-9.735384,0.303697,0.94988,0.105542,0.541227,0.164291
1694111015023437,-9.900384,0.363697,0.65012,0.12642,0.535127,0.135891
1694111015031250,-9.924384,0.310697,0.281012,0.49058,0.528727,0.112691
1694111015039062,-9.843384,0.300697,0.387012,0.74558,0.466527,0.113491
1694111015046875,-9.879384,0.286697,0.72012,0.111658,0.483327,0.124591
1694111015054687,-9.664384,0.114697,0.306012,0.175658,0.524327,0.128991
1694111015062500,-9.504384,0.254697,0.256012,0.147658,0.456927,0.141691
1694111015070312,-9.345384,0.250697,0.20012,0.161158,0.496027,0.159391
1694111015078125,-9.140384,0.406697,0.142012,0.177458,0.545427,0.187091
1694111015085937,-9.116384,0.515697,0.263012,0.179958,0.566227,0.214391
1694111015093750,-9.433384,0.603697,0.477012,0.143858,0.554527,0.229091
1694111015101562,-9.935384,0.551697,0.597012,0.68458,0.467427,0.192291
1694111015109375,-10.370384,0.392697,0.421012,0.34942,0.394427,0.120691
1694111015117187,-10.761384,0.86697,0.105012,0.103942,0.404227,0.45991
1694111015125000,-10.977384,0.239303,0.209988,0.108642,0.439927,0.26309
1694111015132812,-10.914384,0.482303,0.558988,0.51842,0.411927,0.66909
1694111015140625,-11.323384,0.837303,0.790988,0.4658,0.409327,0.111409
1694111015148437,-12.345384,1.358303,0.973988,0.29942,0.379827,0.208909
1694111015156250,-13.270384,1.899303,1.411988,0.77442,0.330527,0.384209
1694111015164062,-13.588384,2.584303,1.841988,0.32742,0.405427,0.569409
1694111015171875,-13.30384,2.909303,1.870988,0.166558,0.606727,0.598809
1694111015179687,-11.726384,2.596303,1.235988,0.407558,0.863927,0.435609
1694111015187500,-10.650384,1.445303,0.150012,0.572358,0.906027,0.228109
1694111015195312,-9.789384,0.40303,-1.281012,0.639858,0.647927,0.58809
1694111015203125,-9.851384,-1.314697,-1.982012,0.586758,0.338827,0.124191
1694111015210937,-11.133384,-2.599697,-1.762012,0.508158,0.19027,0.304591
1694111015218750,-12.382384,-3.493697,-1.195012,0.441158,0.40873,0.463991
1694111015226562,-12.642384,-3.245697,-1.190012,0.600058,0.240873,0.581291
1694111015234375,-10.792384,-3.400697,0.769012,0.573258,0.748773,0.529591
1694111015242187,-9.115384,-3.619697,0.221988,0.304058,-1.153173,0.473491
1694111015250000,-8.313384,-3.313697,1.547988,0.78458,-1.321673,0.360691
1694111015257812,-7.720384,-2.579697,2.331988,0.206842,-1.124073,0.195291
1694111015265625,-6.218384,-1.599697,2.183988,0.501542,0.949773,0.6591
1694111015273437,-5.212384,0.909697,1.417988,0.717242,-1.22573,0.57609
1694111015281250,-5.279384,0.241697,0.2012,0.964142,0.946973,0.134509
1694111015289062,-5.847384,0.276303,-1.252012,1.299442,0.895773,0.183209
1694111015296875,-6.967384,0.906303,-1.305012,1.589142,0.908073,0.254209
1694111015304687,-8.88384,1.328303,0.580012,1.842542,0.765973,0.322709
1694111015312500,-9.853384,1.990303,0.377012,1.620142,0.698373,0.334309
1694111015320312,-11.285384,2.566303,0.430012,1.306042,0.708273,0.382709
1694111015328125,-12.569384,2.784303,0.316012,1.188142,0.723573,0.440709
1694111015335937,-12.915384,3.78303,0.261012,0.918742,0.753373,0.516209
1694111015343750,-12.12384,3.63303,0.764012,0.596642,0.764373,0.540809
1694111015351562,-10.866384,2.677303,-1.615012,0.408842,0.819373,0.519109
1694111015359375,-10.180384,2.358303,-1.867012,0.366142,0.991973,0.469509
1694111015367187,-10.514384,1.848303,-1.354012,0.403042,-1.8573,0.419409
1694111015375000,-11.574384,0.967303,0.931012,0.375842,0.856673,0.339909
1694111015382812,-12.284384,0.348303,0.159012,0.299942,0.783673,0.226209
1694111015390625,-12.396384,0.100697,0.364988,0.256542,0.652373,0.108109
1694111015398437,-11.693384,0.397697,0.576988,0.162842,0.671073,0.6291
1694111015406250,-10.406384,0.350697,0.785988,0.31142,0.745873,0.84791
1694111015414062,-9.237384,0.39697,0.817988,0.24342,0.677873,0.133291
1694111015421875,-8.785384,0.174303,0.635988,0.130842,0.527173,0.151791
1694111015429687,-8.889384,0.250303,0.709988,0.253842,0.418573,0.174591
1694111015437500,-9.76384,0.408303,0.792988,0.322442,0.246473,0.168591
1694111015445312,-9.111384,0.397303,0.344988,0.346542,0.151473,0.167991
1694111015453125,-9.9384,0.392303,0.133988,0.346542,0.273173,0.170691
1694111015460937,-9.6384,0.372303,0.88988,0.301742,0.420373,0.170791
1694111015468750,-8.968384,0.383303,0.27988,0.278542,0.485073,0.160091
1694111015476562,-9.141384,0.266303,0.144012,0.326142,0.440973,0.170591
1694111015484375,-9.248384,0.216303,0.164012,0.357642,0.391673,0.158491
1694111015492187,-8.618384,0.11303,0.87012,0.400342,0.327673,0.219091
1694111015500000,-9.451384,0.113303,0.90012,0.426442,0.336573,0.285091
1694111015507812,-9.801384,0.108303,0.382988,0.439842,0.384173,0.202791
1694111015515625,-9.677384,0.42303,0.610988,0.400642,0.323473,0.178691
1694111015523437,-9.672384,0.108697,0.754988,0.391242,0.303273,0.161191
1694111015531250,-9.720384,0.200697,1.47988,0.367142,0.318173,0.146191
1694111015539062,-9.700384,0.203697,1.193988,0.313742,0.300173,0.137691
1694111015546875,-9.529384,0.199697,1.211988,0.271342,0.253773,0.108691
1694111015554687,-9.308384,0.163697,1.85988,0.265642,0.192473,0.98091
1694111015562500,-9.222384,0.20697,1.24988,0.292042,0.136973,0.71391
1694111015570312,-9.200384,0.170303,0.963988,0.317042,0.35773,0.46491
1694111015578125,-9.204384,0.380303,0.923988,0.346842,0.50527,0.3609
1694111015585937,-8.992384,0.510303,0.912988,0.384042,0.135027,0.35009
1694111015593750,-8.819384,0.665303,0.802988,0.392342,0.148227,0.23509
1694111015601562,-9.292384,0.838303,0.957988,0.410742,0.104427,0.37909
1694111015609375,-9.400384,0.863303,0.973988,0.385142,0.130427,0.60709
1694111015617187,-9.397384,0.814303,0.998988,0.354642,0.69727,0.71209
1694111015625000,-9.452384,0.754303,1.94988,0.316542,0.42873,0.70709
1694111015632812,-9.600384,0.697303,1.54988,0.237142,0.123173,0.86709
1694111015640625,-9.667384,0.569303,0.797988,0.135742,0.180373,0.115709
1694111015648437,-9.625384,0.453303,0.518988,0.50442,0.215573,0.148909
1694111015656250,-9.596384,0.315303,0.218988,0.18842,0.175973,0.177809
1694111015664062,-9.286384,0.1303,0.117988,0.11942,0.88973,0.162709
1694111015671875,-9.575384,0.117303,0.40012,0.5558,0.32127,0.137909
1694111015679687,-10.162384,0.121303,0.152012,0.34942,0.83127,0.174009
1694111015687500,-10.344384,0.10697,0.175988,0.84942,0.149927,0.194009
1694111015695312,-10.209384,0.98697,0.348988,0.89442,0.278127,0.209509
1694111015703125,-10.28384,0.232697,0.522988,0.125242,0.329727,0.193909
1694111015710937,-10.152384,0.252697,0.826988,0.166842,0.318427,0.156409
1694111015718750,-10.593384,0.181697,1.139988,0.205742,0.292027,0.88609
1694111015726562,-11.125384,0.73303,1.475988,0.293142,0.278027,0.13909
1694111015734375,-11.236384,0.388303,2.58988,0.425042,0.252827,0.80591
1694111015742187,-10.668384,0.459303,3.83988,0.607342,0.309727,0.158691
1694111015750000,-9.767384,0.604303,3.921988,0.776842,0.566027,0.175191
1694111015757812,-8.882384,0.316303,3.466988,0.624142,0.711327,0.81491
1694111015765625,-8.381384,0.244697,2.258988,0.341842,0.501227,0.18009
1694111015773437,-8.483384,0.449697,0.907988,0.136142,0.218127,0.85209
1694111015781250,-8.802384,0.460697,0.58012,0.83942,0.12527,0.130509
1694111015789062,-9.230384,0.227697,0.60012,0.154542,0.105973,0.154909
1694111015796875,-9.545384,0.86303,0.718988,0.239542,0.195373,0.164509
1694111015804687,-9.566384,0.384303,1.918988,0.252042,0.254173,0.153509
1694111015812500,-9.359384,0.690303,2.918988,0.226142,0.227973,0.126309
1694111015820312,-9.61384,0.891303,3.193988,0.213042,0.140573,0.120809
1694111015828125,-8.911384,0.907303,2.747988,0.203742,0.93473,0.122209
1694111015835937,-8.958384,0.776303,1.916988,0.196942,0.119873,0.130609
1694111015843750,-9.88384,0.621303,1.214988,0.201242,0.175773,0.126209
1694111015851562,-9.411384,0.688303,0.957988,0.150542,0.231573,0.130509
1694111015859375,-9.742384,0.612303,1.58988,0.160642,0.204173,0.136209
1694111015867187,-9.940384,0.639303,1.304988,0.137542,0.39873,0.137309
1694111015875000,-9.883384,0.675303,1.401988,0.97442,0.135327,0.123109
1694111015882812,-9.687384,0.641303,1.498988,0.63842,0.220127,0.102009
1694111015890625,-9.600384,0.522303,1.574988,0.9942,0.238227,0.62309
1694111015898437,-9.687384,0.394303,1.574988,0.45858,0.254027,0.24409
1694111015906250,-9.839384,0.208303,1.274988,0.81258,0.294827,0.2009
1694111015914062,-9.991384,0.0,0.997988,0.71158,0.299327,0.39891
1694111015921875,-10.241384,0.146697,0.740988,0.23258,0.317127,0.77491
1694111015929687,-10.503384,0.298697,0.567988,0.33942,0.313827,0.105491
1694111015937500,-10.769384,0.438697,0.481988,0.87842,0.264827,0.146091
1694111015945312,-10.919384,0.447697,0.560988,0.144542,0.191927,0.197491
1694111015953125,-10.853384,0.390697,0.581988,0.172042,0.144927,0.236291
1694111015960937,-10.665384,0.296697,0.513988,0.185742,0.57927,0.246991
1694111015968750,-10.457384,0.88697,0.466988,0.195842,0.38873,0.239891
1694111015976562,-10.319384,0.117303,0.495988,0.210742,0.94573,0.217091
1694111015984375,-10.292384,0.388303,0.630988,0.261742,0.112573,0.188591
1694111015992187,-10.284384,0.605303,0.991988,0.295742,0.102873,0.166491
1694111016000000,-10.256384,0.703303,1.308988,0.286442,0.68273,0.155491
1694111016007812,-10.178384,0.719303,1.394988,0.223542,0.58473,0.146691
1694111016015625,-10.52384,0.711303,1.351988,0.163742,0.85773,0.134691
1694111016023437,-9.948384,0.665303,1.103988,0.89242,0.90873,0.109591
1694111016031250,-9.920384,0.602303,0.720988,0.51242,0.66373,0.88391
1694111016039062,-9.947384,0.615303,0.383988,0.24642,0.23073,0.59691
1694111016046875,-9.965384,0.676303,0.121988,0.5342,0.56627,0.30791
1694111016054687,-9.904384,0.750303,0.76012,0.41758,0.150427,0.9109
1694111016062500,-9.799384,0.806303,0.209012,0.79358,0.251927,0.36209
1694111016070312,-9.709384,0.822303,0.245012,0.102358,0.349127,0.53309
1694111016078125,-9.635384,0.829303,0.119012,0.139758,0.438427,0.46909
1694111016085937,-9.552384,0.806303,0.72988,0.185258,0.507127,0.36709
1694111016093750,-9.482384,0.770303,0.234988,0.239658,0.545927,0.14809
1694111016101562,-9.466384,0.770303,0.421988,0.284258,0.556427,0.13991
1694111016109375,-9.435384,0.803303,0.606988,0.347058,0.519727,0.32091
1694111016117187,-9.364384,0.864303,0.667988,0.411158,0.478827,0.55191
1694111016125000,-9.288384,0.885303,0.552988,0.464258,0.446827,0.64191
1694111016132812,-9.208384,0.923303,0.414988,0.484758,0.444527,0.68591
1694111016140625,-9.233384,0.982303,0.347988,0.469158,0.463527,0.76691
1694111016148437,-9.248384,1.44303,0.408988,0.456558,0.496527,0.64291
1694111016156250,-9.219384,1.70303,0.574988,0.467458,0.544027,0.51691
1694111016164062,-9.93384,1.71303,0.662988,0.482958,0.601427,0.43891
1694111016171875,-8.983384,1.40303,0.581988,0.518558,0.632827,0.46991
1694111016179687,-8.917384,1.23303,0.311988,0.574858,0.625027,0.49591
1694111016187500,-8.879384,1.303,0.62012,0.604858,0.598727,0.48991
1694111016195312,-8.885384,0.991303,0.391012,0.601658,0.564427,0.60091
1694111016203125,-8.977384,1.97303,0.537012,0.570458,0.538427,0.57191
1694111016210937,-9.91384,1.66303,0.517012,0.566758,0.534527,0.29591
1694111016218750,-9.254384,1.294303,0.627012,0.588758,0.539927,0.10191
1694111016226562,-9.188384,1.249303,0.506012,0.604958,0.522027,0.80209
1694111016234375,-8.837384,1.86303,0.607012,0.664158,0.585127,0.97909
1694111016242187,-8.936384,1.227303,0.796012,0.698758,0.649827,0.102909
1694111016250000,-8.991384,1.334303,-1.123012,0.711058,0.815727,0.151609
1694111016257812,-8.812384,1.329303,-1.580012,0.652058,0.896027,0.203409
1694111016265625,-8.684384,1.374303,-1.316012,0.618258,0.786527,0.208609
1694111016273437,-8.902384,1.405303,0.931012,0.612758,0.805227,0.221609
1694111016281250,-9.163384,1.397303,0.593012,0.585558,0.858627,0.243109
1694111016289062,-9.371384,1.420303,0.204012,0.596758,0.893627,0.273309
1694111016296875,-9.452384,1.166303,0.53012,0.631558,0.936427,0.303909
1694111016304687,-9.650384,0.930303,0.3012,0.663258,0.953827,0.312409
1694111016312500,-10.167384,0.446303,0.55012,0.625258,0.988127,0.306909
1694111016320312,-11.363384,0.63697,0.40988,0.583458,0.980027,0.261409
1694111016328125,-12.889384,0.516697,0.441988,0.603358,0.902027,0.186909
1694111016335937,-14.318384,-1.112697,0.709988,0.675958,0.860527,0.110909
1694111016343750,-14.937384,-1.949697,0.449988,0.779858,0.809627,0.2609
1694111016351562,-14.515384,-2.923697,0.77988,0.787658,0.631827,0.138991
1694111016359375,-13.61384,-4.230697,0.511988,0.668658,0.453827,0.273991
1694111016367187,-11.198384,-4.523697,1.51988,0.550158,0.524127,0.369191
1694111016375000,-9.700384,-4.29697,0.921988,0.547558,0.500927,0.425391
1694111016382812,-8.449384,-3.361697,0.745988,0.499958,0.323327,0.448491
1694111016390625,-7.652384,-2.894697,0.451988,0.340158,0.177127,0.418591
1694111016398437,-7.710384,-2.358697,0.208988,0.181558,0.181273,0.384091
1694111016406250,-8.534384,-1.688697,1.172988,0.60258,0.633373,0.327491
1694111016414062,-9.511384,-1.243697,1.319988,0.42442,0.598573,0.200391
1694111016421875,-10.483384,-1.39697,1.208988,0.132942,0.550973,0.87491
1694111016429687,-10.930384,0.915697,1.44988,0.182142,0.642273,0.9009
1694111016437500,-10.758384,0.700697,0.947988,0.253442,0.786073,0.83209
1694111016445312,-9.934384,0.499697,0.896988,0.368042,0.916273,0.163509
1694111016453125,-9.284384,0.178303,1.493988,0.522842,-1.122373,0.201809
1694111016460937,-8.852384,0.750303,2.988,0.601842,0.981373,0.227109
1694111016468750,-8.774384,1.215303,1.597988,0.635942,0.756973,0.239609
1694111016476562,-9.27384,1.574303,1.489988,0.616842,0.667173,0.202209
1694111016484375,-9.449384,1.717303,0.717988,0.623542,0.433073,0.182709
1694111016492187,-10.33384,1.664303,0.507988,0.604842,0.508473,0.149709
1694111016500000,-10.471384,1.245303,0.291988,0.526542,0.592273,0.111109
1694111016507812,-10.754384,0.807303,0.88988,0.444842,0.654073,0.41509
1694111016515625,-10.864384,0.253303,0.94012,0.303342,0.730273,0.7009
1694111016523437,-10.658384,0.321697,0.526012,0.138242,0.762073,0.34591
1694111016531250,-10.266384,0.781697,0.964012,0.36058,0.782073,0.45091
1694111016539062,-9.817384,-1.225697,-1.232012,0.133758,0.729573,0.8991
1694111016546875,-9.414384,-1.436697,0.953012,0.267858,0.600773,0.18809
1694111016554687,-9.756384,0.971697,0.964012,0.427758,0.417073,0.70709
1694111016562500,-10.11384,0.916697,0.937012,0.456258,0.151073,0.180009
1694111016570312,-10.383384,0.668697,0.928012,0.516658,0.192627,0.234609
1694111016578125,-10.671384,0.487697,0.578012,0.474558,0.306727,0.239309
1694111016585937,-11.79384,0.253697,0.236988,0.403858,0.288927,0.195609
1694111016593750,-11.390384,0.85697,0.569988,0.363258,0.282927,0.149909
1694111016601562,-11.451384,0.55697,0.511988,0.331658,0.189127,0.97309
1694111016609375,-11.310384,0.165697,0.412988,0.319258,0.39627,0.51709
1694111016617187,-11.134384,0.333697,0.65988,0.324358,0.40673,0.42709
1694111016625000,-10.906384,0.576697,0.299012,0.320358,0.114473,0.49709
1694111016632812,-10.540384,0.675697,0.486012,0.296058,0.172073,0.61109
1694111016640625,-10.122384,0.717697,0.387012,0.255458,0.218973,0.73709
1694111016648437,-9.842384,0.770697,0.94012,0.214758,0.218773,0.81209
1694111016656250,-9.716384,0.770697,0.301988,0.196058,0.210473,0.93709
1694111016664062,-9.630384,0.811697,0.522988,0.185458,0.184373,0.117609
1694111016671875,-9.480384,0.824697,0.603988,0.190458,0.159873,0.132009
1694111016679687,-9.295384,0.802697,0.576988,0.189258,0.146973,0.149609
1694111016687500,-9.147384,0.803697,0.465988,0.190358,0.128173,0.150909
1694111016695312,-9.86384,0.812697,0.267988,0.189358,0.97673,0.171809
1694111016703125,-9.34384,0.898697,0.157988,0.200058,0.87273,0.174909
1694111016710937,-8.913384,0.991697,0.73988,0.196858,0.79273,0.173209
1694111016718750,-8.835384,0.970697,0.13012,0.173058,0.98673,0.158509
1694111016726562,-8.889384,0.969697,0.157988,0.138858,0.136573,0.156909
1694111016734375,-8.940384,0.979697,0.296988,0.105958,0.122273,0.151709
1694111016742187,-9.98384,0.972697,0.335988,0.86558,0.112373,0.135209
1694111016750000,-9.137384,-1.13697,0.323988,0.90258,0.122973,0.130809
1694111016757812,-9.155384,0.989697,0.233988,0.83658,0.132673,0.119509
1694111016765625,-9.146384,-1.49697,0.154988,0.73458,0.141673,0.103009
1694111016773437,-9.193384,-1.22697,0.107988,0.62658,0.142473,0.91909
1694111016781250,-9.187384,0.959697,0.114988,0.35758,0.116573,0.80209
1694111016789062,-9.116384,0.965697,0.186988,0.16158,0.85073,0.68409
1694111016796875,-9.41384,0.869697,0.269988,0.33058,0.64673,0.71409
1694111016804687,-9.16384,0.848697,0.287988,0.38258,0.43273,0.60609
1694111016812500,-9.63384,0.846697,0.213988,0.10658,0.18073,0.46909
1694111016820312,-9.130384,0.919697,0.4988,0.11558,0.12673,0.29009
1694111016828125,-9.251384,-1.57697,0.248012,0.26542,0.33073,0.11291
1694111016835937,-9.340384,-1.107697,0.381012,0.74842,0.40973,0.61791
1694111016843750,-9.369384,-1.157697,0.412012,0.111442,0.36373,0.92691
1694111016851562,-9.424384,-1.167697,0.354012,0.146242,0.22873,0.131491
1694111016859375,-9.509384,-1.108697,0.207012,0.186442,0.7873,0.162691
1694111016867187,-9.625384,-1.49697,0.88012,0.182542,0.10627,0.180691
1694111016875000,-9.762384,-1.22697,0.97012,0.168742,0.43027,0.196691
1694111016882812,-9.890384,-1.40697,0.151012,0.194542,0.49927,0.213291
1694111016890625,-10.18384,-1.54697,0.185012,0.205642,0.64527,0.221491
1694111016898437,-10.76384,-1.64697,0.185012,0.242242,0.89327,0.230291
1694111016906250,-10.46384,-1.75697,0.104012,0.295642,0.127827,0.238991
1694111016914062,-10.7384,-1.36697,0.51988,0.351142,0.167527,0.246491
1694111016921875,-10.44384,0.942697,0.281988,0.410442,0.156827,0.253291
1694111016929687,-10.228384,0.833697,0.668988,0.462242,0.128227,0.244291
1694111016937500,-10.386384,0.625697,1.179988,0.473342,0.117627,0.197391
1694111016945312,-10.569384,0.310697,1.682988,0.463342,0.151127,0.144691
1694111016953125,-10.766384,0.24697,2.173988,0.415042,0.211027,0.91191
1694111016960937,-10.839384,0.165303,2.405988,0.309942,0.301927,0.45791
1694111016968750,-10.774384,0.336303,2.308988,0.187642,0.347227,0.9591
1694111016976562,-10.528384,0.532303,2.18988,0.99542,0.364027,0.12109
1694111016984375,-10.142384,0.710303,1.594988,0.82342,0.383527,0.13809
1694111016992187,-9.850384,0.910303,1.268988,0.116842,0.405627,0.3909
1694111017000000,-9.832384,1.40303,1.259988,0.156542,0.377127,0.7991
1694111017007812,-9.876384,1.94303,1.491988,0.211242,0.312327,0.33591
1694111017015625,-9.979384,1.102303,1.586988,0.212542,0.225827,0.42791
1694111017023437,-9.983384,1.38303,1.504988,0.177342,0.113927,0.54191
1694111017031250,-9.947384,0.917303,1.137988,0.114442,0.34127,0.64291
1694111017039062,-9.843384,0.691303,0.572988,0.65442,0.32973,0.64891
1694111017046875,-9.746384,0.435303,0.139988,0.38642,0.88773,0.78591
1694111017054687,-9.706384,0.168303,0.33012,0.23642,0.149973,0.76091
1694111017062500,-9.761384,0.85697,0.76988,0.6042,0.192273,0.62791
1694111017070312,-9.793384,0.280697,0.339988,0.26158,0.210373,0.36591
1694111017078125,-9.796384,0.425697,0.619988,0.68258,0.215273,0.10791
1694111017085937,-9.725384,0.541697,0.835988,0.136358,0.218573,0.15709
1694111017093750,-9.710384,0.587697,0.938988,0.173058,0.184873,0.38709
1694111017101562,-9.732384,0.642697,0.936988,0.200258,0.161773,0.72609
1694111017109375,-9.795384,0.611697,0.950988,0.190958,0.144773,0.97909
1694111017117187,-9.895384,0.564697,0.954988,0.191558,0.104173,0.128409
1694111017125000,-9.957384,0.486697,0.963988,0.163358,0.64473,0.150209
1694111017132812,-9.963384,0.395697,0.957988,0.145058,0.53373,0.172509
1694111017140625,-9.969384,0.295697,0.878988,0.126458,0.57873,0.189909
1694111017148437,-9.984384,0.188697,0.743988,0.112758,0.64773,0.199609
1694111017156250,-9.997384,0.95697,0.590988,0.101658,0.77173,0.204109
1694111017164062,-10.16384,0.26697,0.482988,0.116058,0.85873,0.206109
1694111017171875,-10.25384,0.10697,0.398988,0.152358,0.103973,0.205109
1694111017179687,-9.973384,0.42697,0.335988,0.194158,0.111473,0.194209
1694111017187500,-9.896384,0.77697,0.324988,0.258258,0.140873,0.175809
1694111017195312,-9.838384,0.151697,0.263988,0.314558,0.167273,0.157409
1694111017203125,-9.785384,0.232697,0.202988,0.331558,0.170873,0.135209
1694111017210937,-9.735384,0.290697,0.211988,0.316658,0.167473,0.106009
1694111017218750,-9.714384,0.321697,0.283988,0.313258,0.133673,0.88209
1694111017226562,-9.646384,0.373697,0.297988,0.306658,0.70373,0.76609
1694111017234375,-9.569384,0.457697,0.243988,0.297758,0.12173,0.70909
1694111017242187,-9.514384,0.611697,0.152988,0.300658,0.22427,0.72209
1694111017250000,-9.476384,0.751697,0.26988,0.307058,0.39927,0.70809
1694111017257812,-9.490384,0.867697,0.13012,0.294058,0.42227,0.68709
1694111017265625,-9.549384,0.979697,0.15988,0.285958,0.64927,0.57309
1694111017273437,-9.591384,-1.31697,0.78988,0.279358,0.106927,0.44209
1694111017281250,-9.594384,-1.131697,0.236988,0.250158,0.159927,0.30409
1694111017289062,-9.591384,-1.213697,0.420988,0.237258,0.203927,0.23509
1694111017296875,-9.587384,-1.318697,0.483988,0.227358,0.221827,0.2409
1694111017304687,-9.538384,-1.429697,0.474988,0.211458,0.215027,0.12091
1694111017312500,-9.457384,-1.555697,0.382988,0.206858,0.196627,0.23191
1694111017320312,-9.352384,-1.676697,0.183988,0.168858,0.203327,0.34991
1694111017328125,-9.261384,-1.735697,0.8988,0.107458,0.214627,0.42191
1694111017335937,-9.216384,-1.776697,0.95012,0.45958,0.221327,0.49491
1694111017343750,-9.248384,-1.738697,0.153012,0.21542,0.221427,0.53491
1694111017351562,-9.303384,-1.633697,0.138012,0.74642,0.215927,0.52291
1694111017359375,-9.341384,-1.490697,0.29012,0.134542,0.224427,0.54791
1694111017367187,-9.351384,-1.312697,0.48988,0.190742,0.245527,0.42691
1694111017375000,-9.338384,-1.146697,0.55988,0.232842,0.276327,0.28791
1694111017382812,-9.322384,0.988697,0.10988,0.277842,0.306827,0.11591
1694111017390625,-9.351384,0.893697,0.85012,0.316442,0.347527,0.14491
1694111017398437,-9.427384,0.885697,0.252012,0.343642,0.396027,0.32691
1694111017406250,-9.424384,0.952697,0.574012,0.359942,0.433427,0.53891
1694111017414062,-9.467384,-1.51697,0.698012,0.371142,0.410027,0.84291
1694111017421875,-9.531384,-1.123697,0.856012,0.365242,0.391627,0.111391
1694111017429687,-9.559384,-1.199697,0.908012,0.372342,0.377527,0.138991
1694111017437500,-9.577384,-1.225697,0.818012,0.372542,0.377127,0.156491
1694111017445312,-9.575384,-1.216697,0.644012,0.363742,0.400027,0.179091
1694111017453125,-9.505384,-1.197697,0.536012,0.328442,0.462427,0.193691
1694111017460937,-9.463384,-1.147697,0.473012,0.318142,0.504827,0.214691
1694111017468750,-9.449384,-1.81697,0.498012,0.304942,0.557627,0.232891
1694111017476562,-9.373384,-1.32697,0.475012,0.331542,0.569727,0.248991
1694111017484375,-9.377384,-1.36697,0.261012,0.353742,0.562927,0.268391
1694111017492187,-9.475384,0.929697,0.500012,0.407442,0.558027,0.281891
1694111017500000,-9.719384,0.894697,0.37988,0.456642,0.379327,0.295591
1694111017507812,-9.935384,0.869697,0.236012,0.435342,0.468627,0.278591
1694111017515625,-10.22384,0.776697,0.216012,0.462242,0.342227,0.261791
1694111017523437,-10.115384,0.686697,0.13988,0.424642,0.417727,0.239391
1694111017531250,-9.988384,0.655697,0.252012,0.412242,0.519127,0.217391
1694111017539062,-9.934384,0.606697,0.202988,0.347942,0.477827,0.241991
1694111017546875,-9.904384,0.527697,0.26988,0.261342,0.566727,0.259491
1694111017554687,-9.776384,0.534697,0.310012,0.197642,0.587027,0.268791
1694111017562500,-9.603384,0.510697,0.401012,0.198842,0.502627,0.296791
1694111017570312,-9.828384,0.511697,0.74012,0.211642,0.427627,0.322291
1694111017578125,-10.360384,0.452697,0.15012,0.225842,0.464327,0.303691
1694111017585937,-10.933384,0.307697,0.56988,0.256542,0.404927,0.222891
1694111017593750,-11.424384,0.60697,0.860988,0.272542,0.274627,0.122591
1694111017601562,-11.653384,0.187303,1.432988,0.226042,0.395827,0.37591
1694111017609375,-11.638384,0.500303,1.457988,0.135642,0.542827,0.991
1694111017617187,-11.481384,0.849303,1.421988,0.49342,0.610527,0.3291
1694111017625000,-11.194384,1.230303,1.241988,0.11242,0.656027,0.48191
1694111017632812,-11.50384,1.476303,1.151988,0.60342,0.703827,0.115191
1694111017640625,-11.301384,1.418303,1.90988,0.127442,0.683827,0.184891
1694111017648437,-11.634384,1.152303,0.987988,0.160942,0.526427,0.187391
1694111017656250,-11.605384,0.757303,0.869988,0.185142,0.323527,0.131491
1694111017664062,-11.504384,0.473303,0.732988,0.211242,0.143827,0.79191
1694111017671875,-11.95384,0.127303,0.671988,0.212442,0.7827,0.31491
1694111017679687,-10.660384,0.31697,0.702988,0.197642,0.102273,0.43191
1694111017687500,-10.144384,0.317697,0.621988,0.186242,0.210673,0.66291
1694111017695312,-9.726384,0.715697,0.362988,0.186242,0.324673,0.126291
1694111017703125,-9.599384,-1.80697,0.145988,0.176042,0.480973,0.181791
1694111017710937,-9.876384,-1.621697,0.61012,0.240542,0.622573,0.248791
1694111017718750,-10.543384,-1.829697,0.208988,0.357342,0.812673,0.338891
1694111017726562,-10.686384,-1.577697,1.400988,0.494442,-1.173,0.371091
1694111017734375,-9.859384,-1.287697,2.445988,0.565742,0.935073,0.319191
1694111017742187,-9.39384,-1.396697,2.465988,0.602742,0.760273,0.206991
1694111017750000,-8.16384,-1.148697,1.665988,0.634142,0.692573,0.106591
1694111017757812,-7.160384,0.849697,0.573988,0.700542,0.717473,0.5691
1694111017765625,-6.927384,0.469697,0.335012,0.881542,0.586473,0.78109
1694111017773437,-7.7384,0.3303,-1.182012,1.155342,0.461973,0.152809
1694111017781250,-7.685384,0.594303,0.535012,1.301442,0.665673,0.207509
1694111017789062,-8.234384,1.22303,0.194988,1.383442,0.530673,0.318009
1694111017796875,-9.454384,1.296303,0.237988,1.314242,0.484373,0.352209
1694111017804687,-10.609384,1.990303,0.66988,1.84342,0.479173,0.327409
1694111017812500,-11.284384,2.103303,0.514012,1.116142,0.370073,0.318409
1694111017820312,-11.846384,2.202303,0.395012,1.6542,0.510273,0.285109
1694111017828125,-11.796384,2.330303,0.595012,0.777142,0.410973,0.280309
1694111017835937,-11.312384,2.140303,-1.446012,0.712242,0.241373,0.270409
1694111017843750,-10.889384,1.832303,-1.230012,0.692242,0.357073,0.231009
1694111017851562,-10.684384,1.514303,0.429012,0.597842,0.302173,0.170909
1694111017859375,-10.697384,1.197303,0.397012,0.537842,0.95973,0.107309
1694111017867187,-10.732384,0.947303,0.131988,0.504342,0.158373,0.37409
1694111017875000,-10.651384,0.835303,0.507988,0.422942,0.159973,0.42091
1694111017882812,-10.365384,0.784303,0.295988,0.385442,0.92573,0.93791
1694111017890625,-9.963384,0.904303,0.221988,0.387842,0.66673,0.130891
1694111017898437,-9.679384,1.33303,0.144988,0.372742,0.3127,0.151991
1694111017906250,-9.548384,1.115303,0.52988,0.368842,0.51127,0.158891
1694111017914062,-9.454384,1.162303,0.64012,0.345442,0.60827,0.166691
1694111017921875,-9.271384,1.217303,0.174012,0.312742,0.56127,0.171191
1694111017929687,-9.89384,1.261303,0.310012,0.262942,0.61227,0.186791
1694111017937500,-9.44384,1.236303,0.357012,0.240942,0.61127,0.184891
1694111017945312,-9.77384,1.229303,0.218012,0.244642,0.66327,0.181191
1694111017953125,-9.137384,1.169303,0.44012,0.226542,0.73827,0.182991
1694111017960937,-9.131384,1.84303,0.25988,0.179442,0.72527,0.172891
1694111017968750,-9.137384,0.991303,0.83988,0.125942,0.71027,0.161091
1694111017976562,-9.133384,0.895303,0.115988,0.113542,0.70027,0.157891
1694111017984375,-9.109384,0.793303,0.209988,0.100842,0.61827,0.154491
1694111017992187,-9.144384,0.722303,0.299988,0.93042,0.68727,0.148191
1694111018000000,-9.237384,0.644303,0.353988,0.94242,0.74627,0.138291
1694111018007812,-9.362384,0.602303,0.428988,0.92542,0.92727,0.125491
1694111018015625,-9.458384,0.521303,0.475988,0.92442,0.91627,0.114491
1694111018023437,-9.508384,0.429303,0.484988,0.81042,0.73227,0.104391
1694111018031250,-9.519384,0.378303,0.482988,0.81042,0.89727,0.98091
1694111018039062,-9.512384,0.382303,0.403988,0.90542,0.112527,0.98291
1694111018046875,-9.420384,0.446303,0.349988,0.90242,0.131527,0.98291
1694111018054687,-9.389384,0.558303,0.275988,0.97242,0.166327,0.106791
1694111018062500,-9.357384,0.686303,0.178988,0.117842,0.179127,0.123091
1694111018070312,-9.316384,0.848303,0.76988,0.119442,0.180327,0.132591
1694111018078125,-9.265384,0.953303,0.38988,0.118942,0.184827,0.150791
1694111018085937,-9.207384,1.16303,0.30012,0.120642,0.188127,0.155691
1694111018093750,-9.243384,1.43303,0.143012,0.87742,0.178127,0.166391
1694111018101562,-9.356384,0.943303,0.224012,0.56842,0.176427,0.185391
1694111018109375,-9.479384,0.885303,0.258012,0.27142,0.179427,0.197791
1694111018117187,-9.580384,0.864303,0.181012,0.2058,0.193327,0.204291
1694111018125000,-9.665384,0.837303,0.91012,0.38558,0.199527,0.190891
1694111018132812,-9.773384,0.812303,0.20988,0.56258,0.196727,0.163491
1694111018140625,-9.981384,0.938303,0.135988,0.56058,0.197427,0.122891
1694111018148437,-10.110384,1.2303,0.77988,0.64858,0.217327,0.68291
1694111018156250,-10.255384,1.179303,0.70988,0.82758,0.232827,0.12091
1694111018164062,-10.342384,0.921303,0.78012,0.77958,0.310727,0.53509
1694111018171875,-10.246384,0.806303,0.317012,0.99358,0.347427,0.59709
1694111018179687,-10.244384,0.689303,0.441012,0.110658,0.362127,0.75909
1694111018187500,-10.231384,0.559303,0.418012,0.85158,0.359327,0.69009
1694111018195312,-10.250384,0.460303,0.236012,0.85258,0.341127,0.66009
1694111018203125,-10.207384,0.338303,0.110012,0.101658,0.315727,0.66609
1694111018210937,-10.159384,0.237303,0.15012,0.126758,0.288327,0.68609
1694111018218750,-10.104384,0.221303,0.4988,0.153558,0.245327,0.50009
1694111018226562,-10.64384,0.234303,0.76012,0.180258,0.175127,0.36309
1694111018234375,-10.96384,0.218303,0.249012,0.186658,0.113027,0.27109
1694111018242187,-10.196384,0.189303,0.306012,0.164758,0.62227,0.12809
1694111018250000,-10.503384,0.133303,0.258012,0.125558,0.4927,0.191
1694111018257812,-10.853384,0.260303,0.162988,0.62758,0.25573,0.38991
1694111018265625,-10.854384,0.304303,0.788988,0.6942,0.773,0.52891
1694111018273437,-10.519384,0.142303,1.634988,0.88842,0.28027,0.74791
1694111018281250,-10.114384,0.54697,2.436988,0.146342,0.43227,0.99891
1694111018289062,-9.835384,0.103697,2.765988,0.159942,0.82527,0.135791
1694111018296875,-9.613384,0.162697,2.314988,0.145042,0.167227,0.156991
1694111018304687,-9.480384,0.218697,1.180988,0.107642,0.187427,0.148791
1694111018312500,-9.300384,0.259697,0.164988,0.74442,0.56827,0.97691
1694111018320312,-9.320384,0.219697,0.254012,0.118042,0.128073,0.59991
1694111018328125,-9.595384,0.44697,0.108012,0.218242,0.251273,0.26291
1694111018335937,-9.842384,0.210303,0.184988,0.292242,0.297373,0.10309
1694111018343750,-9.963384,0.460303,0.320988,0.317242,0.331173,0.22909
1694111018351562,-10.22384,0.652303,0.252988,0.316842,0.377073,0.28109
1694111018359375,-10.32384,0.790303,0.49988,0.311642,0.374773,0.20409
1694111018367187,-10.67384,0.857303,0.254012,0.345342,0.330673,0.2791
1694111018375000,-10.89384,0.932303,0.380012,0.388642,0.290873,0.14991
1694111018382812,-10.158384,1.35303,0.305012,0.423742,0.253073,0.28691
1694111018390625,-10.243384,1.177303,0.84012,0.443142,0.201173,0.53191
1694111018398437,-10.258384,1.274303,0.162988,0.443042,0.143073,0.82891
1694111018406250,-10.231384,1.234303,0.372988,0.404642,0.85773,0.102191
1694111018414062,-10.177384,1.127303,0.493988,0.353742,0.43373,0.132391
1694111018421875,-10.104384,1.4303,0.595988,0.332342,0.17373,0.158091
1694111018429687,-9.970384,0.812303,0.770988,0.332542,0.24573,0.181891
1694111018437500,-9.896384,0.639303,0.941988,0.337742,0.63573,0.209191
1694111018445312,-9.831384,0.545303,0.959988,0.342542,0.96473,0.223391
1694111018453125,-9.756384,0.462303,0.865988,0.362042,0.113173,0.197691
1694111018460937,-9.730384,0.379303,0.743988,0.375742,0.133773,0.167291
1694111018468750,-9.653384,0.361303,0.684988,0.419842,0.134473,0.124091
1694111018476562,-9.496384,0.394303,0.700988,0.451842,0.119573,0.76391
1694111018484375,-9.342384,0.451303,0.583988,0.468342,0.114173,0.22091
1694111018492187,-9.213384,0.520303,0.500988,0.465442,0.182573,0.28209
1694111018500000,-9.189384,0.606303,0.351988,0.445342,0.239273,0.78609
1694111018507812,-9.190384,0.688303,0.1012,0.417342,0.223673,0.120909
1694111018515625,-9.216384,0.768303,0.227012,0.409042,0.218173,0.159409
1694111018523437,-9.277384,0.878303,0.208012,0.413342,0.193073,0.197709
1694111018531250,-9.383384,0.940303,0.31012,0.399842,0.169173,0.233309
1694111018539062,-9.490384,0.976303,0.223988,0.363942,0.141873,0.255709
1694111018546875,-9.594384,1.56303,0.426988,0.312342,0.78373,0.257609
1694111018554687,-9.737384,1.149303,0.428988,0.273542,0.43773,0.259309
1694111018562500,-9.820384,1.122303,0.417988,0.262942,0.227,0.247909
1694111018570312,-9.894384,1.114303,0.358988,0.236942,0.45927,0.223809
1694111018578125,-9.889384,1.89303,0.306988,0.206442,0.80627,0.204509
1694111018585937,-9.837384,1.62303,0.315988,0.186942,0.100427,0.169109
1694111018593750,-9.758384,1.54303,0.372988,0.170742,0.143027,0.138409
1694111018601562,-9.691384,1.88303,0.417988,0.136742,0.168927,0.116209
1694111018609375,-9.634384,1.116303,0.471988,0.107842,0.199027,0.91909
1694111018617187,-9.573384,1.158303,0.574988,0.73742,0.226327,0.74609
1694111018625000,-9.518384,1.217303,0.698988,0.22542,0.241827,0.63609
1694111018632812,-9.426384,1.278303,0.770988,0.43658,0.269927,0.56609
1694111018640625,-9.333384,1.354303,0.728988,0.109558,0.286527,0.65209
1694111018648437,-9.197384,1.403303,0.552988,0.168858,0.303827,0.78409
1694111018656250,-9.95384,1.445303,0.390988,0.206758,0.297327,0.90109
1694111018664062,-9.36384,1.471303,0.239988,0.229058,0.300327,0.98509
1694111018671875,-9.25384,1.471303,0.86988,0.263958,0.328127,0.121309
1694111018679687,-9.15384,1.415303,0.132012,0.298058,0.358227,0.129309
1694111018687500,-9.57384,1.363303,0.359012,0.323358,0.382327,0.132809
1694111018695312,-9.137384,1.335303,0.521012,0.323458,0.408327,0.139109
1694111018703125,-9.139384,1.292303,0.562012,0.305858,0.431927,0.149809
1694111018710937,-9.98384,1.228303,0.519012,0.300258,0.462527,0.173809
1694111018718750,-9.99384,1.148303,0.463012,0.313058,0.489027,0.199409
1694111018726562,-9.104384,1.59303,0.389012,0.314758,0.510327,0.212109
1694111018734375,-9.224384,0.995303,0.362012,0.325958,0.549327,0.223409
1694111018742187,-9.331384,0.936303,0.323012,0.324058,0.577827,0.235809
1694111018750000,-9.359384,0.877303,0.137012,0.314958,0.575527,0.232709
1694111018757812,-9.483384,0.816303,0.14988,0.325458,0.589827,0.245209
1694111018765625,-9.531384,0.778303,0.2988,0.329258,0.598627,0.250409
1694111018773437,-9.562384,0.711303,0.6012,0.317758,0.587627,0.237309
1694111018781250,-9.615384,0.657303,0.13988,0.289658,0.587227,0.232309
1694111018789062,-9.640384,0.533303,0.49988,0.254958,0.573927,0.217509
1694111018796875,-9.705384,0.408303,0.85988,0.217358,0.559127,0.215609
1694111018804687,-9.772384,0.331303,0.121988,0.173258,0.557827,0.216609
1694111018812500,-9.798384,0.287303,0.169988,0.124258,0.563327,0.214109
1694111018820312,-9.760384,0.268303,0.180988,0.107558,0.551827,0.236609
1694111018828125,-9.669384,0.247303,0.108988,0.88258,0.517327,0.272109
1694111018835937,-9.746384,0.248303,0.288988,0.84958,0.399327,0.300309
1694111018843750,-10.230384,0.208303,0.716988,0.96658,0.359627,0.310509
1694111018851562,-11.77384,0.217303,0.819988,0.168658,0.387227,0.301609
1694111018859375,-11.956384,0.167303,0.849988,0.276058,0.353727,0.277109
1694111018867187,-12.377384,0.78697,0.655988,0.390258,0.317327,0.241809
1694111018875000,-12.134384,0.450697,0.249988,0.479358,0.198727,0.171509
1694111018882812,-11.574384,-1.697,0.461988,0.529858,0.33827,0.78109
1694111018890625,-11.194384,-1.403697,0.573988,0.562058,0.36027,0.53191
1694111018898437,-11.155384,-1.745697,1.242988,0.506158,0.27073,0.204391
1694111018906250,-11.797384,-1.828697,2.291988,0.559458,0.127373,0.386391
1694111018914062,-12.396384,-2.697,2.739988,0.653758,0.142773,0.541091
1694111018921875,-12.378384,-2.171697,2.604988,0.678058,0.75673,0.626591
1694111018929687,-11.663384,-2.295697,1.730988,0.634358,0.10573,0.608091
1694111018937500,-10.719384,-2.81697,0.753988,0.479758,0.171273,0.512791
1694111018945312,-9.817384,-1.513697,0.814988,0.178058,0.468073,0.346591
1694111018953125,-9.43384,0.844697,1.226988,0.116142,0.692273,0.164991
1694111018960937,-8.410384,0.84697,1.691988,0.348942,0.876673,0.16891
1694111018968750,-8.91384,0.772303,1.919988,0.482642,0.896873,0.89709
1694111018976562,-8.238384,1.577303,1.930988,0.536942,0.778173,0.173209
1694111018984375,-8.547384,2.79303,1.739988,0.576342,0.551973,0.237109
1694111018992187,-8.892384,2.137303,1.507988,0.561642,0.359473,0.264509
1694111019000000,-9.273384,1.912303,0.750988,0.505542,0.247073,0.272609
1694111019007812,-9.543384,1.149303,0.395012,0.374642,0.341473,0.243009
1694111019015625,-9.877384,0.882303,-1.213012,0.235742,0.538673,0.179809
1694111019023437,-10.135384,0.300303,-2.62012,0.127842,0.785873,0.163509
1694111019031250,-10.268384,0.35303,-2.96012,0.5142,-1.94673,0.99309
1694111019039062,-10.507384,0.113697,-1.353012,0.179558,-1.173473,0.50609
1694111019046875,-10.597384,0.357697,-1.137012,0.321458,0.973773,0.2191
1694111019054687,-10.506384,0.540697,0.511012,0.488458,0.930373,0.50191
1694111019062500,-10.384,0.708697,0.403012,0.664958,0.778773,0.20491
1694111019070312,-9.353384,0.736697,0.243012,0.703858,0.558673,0.47309
1694111019078125,-8.993384,0.651697,0.660012,0.649758,0.238473,0.126209
1694111019085937,-9.44384,0.512697,0.31012,0.523558,0.117973,0.190109
1694111019093750,-9.553384,0.428697,0.229012,0.470058,0.284627,0.222009
1694111019101562,-10.83384,0.445697,0.554012,0.300858,0.394727,0.207809
1694111019109375,-10.622384,0.329697,0.224988,0.201058,0.271627,0.145309
1694111019117187,-11.1384,0.268697,0.319988,0.189658,0.244527,0.74409
1694111019125000,-11.134384,0.332697,0.321988,0.183358,0.102727,0.4809
1694111019132812,-10.990384,0.388697,0.175988,0.221558,0.38673,0.56891
1694111019140625,-10.674384,0.453697,0.195012,0.259758,0.173173,0.74691
1694111019148437,-10.222384,0.634697,0.362012,0.258958,0.298873,0.72291
1694111019156250,-9.719384,0.779697,0.209012,0.239558,0.356473,0.46291
1694111019164062,-9.357384,0.891697,0.133012,0.226458,0.333973,0.6191
1694111019171875,-9.261384,0.979697,0.224988,0.181958,0.372973,0.38609
1694111019179687,-9.323384,-1.68697,0.704988,0.179658,0.343973,0.70709
1694111019187500,-9.341384,-1.54697,0.758988,0.171858,0.256873,0.105209
1694111019195312,-9.328384,-1.33697,0.668988,0.142458,0.217473,0.136809
1694111019203125,-9.220384,-1.29697,0.596988,0.109958,0.205073,0.142909
1694111019210937,-9.21384,0.989697,0.476988,0.70058,0.176473,0.143609
1694111019218750,-8.967384,0.843697,0.476988,0.19858,0.157273,0.133409
1694111019226562,-9.32384,0.738697,0.447988,0.54942,0.82973,0.126909
1694111019234375,-9.173384,0.634697,0.427988,0.108742,0.14073,0.127409
1694111019242187,-9.203384,0.554697,0.396988,0.131742,0.14227,0.99309
1694111019250000,-9.195384,0.372697,0.299988,0.100242,0.3627,0.85609
1694111019257812,-9.219384,0.241697,0.144988,0.78942,0.12873,0.50609
1694111019265625,-9.223384,0.129697,0.42012,0.54042,0.13273,0.28509
1694111019273437,-9.233384,0.60697,0.218012,0.44942,0.30373,0.11291
1694111019281250,-9.298384,0.91697,0.290012,0.62342,0.24573,0.58491
1694111019289062,-9.297384,0.160697,0.249012,0.77042,0.10273,0.90791
1694111019296875,-9.257384,0.262697,0.135012,0.76942,0.11127,0.150591
1694111019304687,-9.234384,0.425697,0.83012,0.65142,0.13027,0.181191
1694111019312500,-9.299384,0.608697,0.92012,0.68842,0.4627,0.211691
1694111019320312,-9.449384,0.783697,0.110012,0.76942,0.10673,0.238791
1694111019328125,-9.607384,0.889697,0.112012,0.95842,0.17473,0.248591
1694111019335937,-9.727384,0.950697,0.25012,0.120042,0.1127,0.263691
1694111019343750,-9.844384,0.956697,0.64988,0.145542,0.43227,0.277091
1694111019351562,-9.900384,0.940697,0.193988,0.178542,0.70527,0.283791
1694111019359375,-9.934384,0.966697,0.299988,0.209042,0.128627,0.278491
1694111019367187,-9.988384,0.936697,0.287988,0.239842,0.169927,0.268991
1694111019375000,-9.969384,0.845697,0.353988,0.289842,0.187727,0.263191
1694111019382812,-9.984384,0.739697,0.407988,0.339242,0.216427,0.265991
1694111019390625,-10.15384,0.651697,0.418988,0.383042,0.253427,0.264891
1694111019398437,-10.102384,0.573697,0.396988,0.452642,0.291427,0.267691
1694111019406250,-10.236384,0.480697,0.457988,0.511542,0.283227,0.239391
1694111019414062,-10.360384,0.271697,0.758988,0.543342,0.265127,0.196091
1694111019421875,-10.515384,0.23303,1.150988,0.534442,0.283327,0.138291
1694111019429687,-10.752384,0.356303,1.479988,0.470642,0.342027,0.81491
1694111019437500,-10.919384,0.673303,1.732988,0.385342,0.382327,0.21591
1694111019445312,-10.934384,0.969303,1.745988,0.287142,0.420427,0.43609
1694111019453125,-10.747384,1.203303,1.514988,0.215642,0.433627,0.87809
1694111019460937,-10.472384,1.270303,1.315988,0.182742,0.422827,0.99309
1694111019468750,-10.258384,1.253303,1.304988,0.141542,0.375027,0.97009
1694111019476562,-10.63384,1.272303,1.606988,0.96242,0.307827,0.65809
1694111019484375,-9.873384,1.318303,2.16988,0.31042,0.255927,0.29809
1694111019492187,-9.731384,1.460303,2.288988,0.28258,0.205327,0.3409
1694111019500000,-9.526384,1.564303,2.225988,0.47058,0.195327,0.4291
1694111019507812,-9.346384,1.552303,1.741988,0.68958,0.181827,0.19891
1694111019515625,-9.256384,1.404303,1.52988,0.65858,0.136127,0.30891
1694111019523437,-9.330384,1.92303,0.511988,0.56758,0.51027,0.40091
1694111019531250,-9.454384,0.730303,0.214988,0.38658,0.18273,0.37991
1694111019539062,-9.620384,0.397303,0.146988,0.59458,0.80073,0.30991
1694111019546875,-9.771384,0.138303,0.268988,0.110558,0.156873,0.5691
1694111019554687,-9.945384,0.112697,0.331988,0.186458,0.197273,0.17809
1694111019562500,-10.76384,0.316697,0.254988,0.289958,0.276573,0.47209
1694111019570312,-10.210384,0.527697,0.49988,0.362458,0.314673,0.75309
1694111019578125,-10.308384,0.722697,0.110012,0.407458,0.309073,0.105109
1694111019585937,-10.313384,0.829697,0.187012,0.416858,0.259073,0.140009
1694111019593750,-10.313384,0.860697,0.22988,0.415458,0.205073,0.167009
1694111019601562,-10.345384,0.840697,0.346988,0.434258,0.142473,0.186009
1694111019609375,-10.311384,0.834697,0.583988,0.441758,0.53673,0.204609
1694111019617187,-10.120384,0.863697,0.772988,0.439858,0.21227,0.207409
1694111019625000,-9.868384,0.869697,0.826988,0.445358,0.106327,0.197209
1694111019632812,-9.643384,0.853697,0.609988,0.434658,0.206327,0.168909
1694111019640625,-9.577384,0.774697,0.416988,0.391458,0.284627,0.148609
1694111019648437,-9.689384,0.666697,0.328988,0.340358,0.346827,0.125009
1694111019656250,-9.897384,0.567697,0.252988,0.272258,0.370227,0.109409
1694111019664062,-10.79384,0.422697,0.445988,0.225958,0.315527,0.119109
1694111019671875,-10.135384,0.306697,0.596988,0.198258,0.284427,0.131909
1694111019679687,-10.60384,0.219697,0.635988,0.177758,0.245827,0.128409
1694111019687500,-9.917384,0.143697,0.632988,0.164158,0.191227,0.127309
1694111019695312,-9.778384,0.145697,0.549988,0.126358,0.185927,0.112509
1694111019703125,-9.649384,0.196697,0.346988,0.79058,0.193827,0.97509
1694111019710937,-9.500384,0.270697,0.202988,0.25358,0.161727,0.80809
1694111019718750,-9.348384,0.367697,0.130988,0.15642,0.149727,0.58009
1694111019726562,-9.228384,0.520697,0.0,0.28742,0.165527,0.30609
1694111019734375,-9.111384,0.681697,0.117012,0.17942,0.163627,0.11509
1694111019742187,-9.57384,0.836697,0.241012,0.158,0.165927,0.2991
1694111019750000,-9.55384,0.996697,0.356012,0.24758,0.167527,0.26891
1694111019757812,-9.50384,-1.144697,0.426012,0.18358,0.163427,0.50791
1694111019765625,-9.161384,-1.207697,0.455012,0.13158,0.163927,0.63891
1694111019773437,-9.321384,-1.178697,0.477012,0.3942,0.157227,0.62391
1694111019781250,-9.525384,-1.117697,0.311012,0.46142,0.144227,0.57991
1694111019789062,-9.721384,-1.49697,0.22012,0.81742,0.158827,0.34291
1694111019796875,-9.857384,0.967697,0.283988,0.95442,0.196127,0.7291
1694111019804687,-9.950384,0.924697,0.573988,0.100342,0.228027,0.8209
1694111019812500,-9.964384,0.903697,0.754988,0.90842,0.276927,0.19409
1694111019820312,-9.906384,0.893697,0.724988,0.93042,0.336927,0.28209
1694111019828125,-9.767384,0.869697,0.540988,0.111442,0.381827,0.44109
1694111019835937,-9.595384,0.922697,0.294988,0.145942,0.415727,0.43609
1694111019843750,-9.439384,0.967697,0.87988,0.195142,0.458227,0.31509
1694111019851562,-9.292384,-1.697,0.284012,0.193142,0.452927,0.38109
1694111019859375,-9.186384,-1.80697,0.511012,0.194942,0.350627,0.19209
1694111019867187,-9.150384,-1.72697,0.556012,0.226142,0.257427,0.1491
1694111019875000,-9.160384,-1.7697,0.410012,0.277742,0.160627,0.25491
1694111019882812,-9.148384,0.930697,0.13988,0.306942,0.14327,0.50291
1694111019890625,-9.302384,0.818697,0.675988,0.280342,0.13827,0.64291
1694111019898437,-9.442384,0.799697,0.179988,0.261942,0.283227,0.59891
1694111019906250,-9.355384,0.789697,0.329012,0.269042,0.320927,0.82791
1694111019914062,-9.139384,0.763697,0.121012,0.292442,0.171827,0.122291
1694111019921875,-9.122384,0.715697,0.53988,0.277642,0.261427,0.145091
1694111019929687,-9.74384,0.783697,0.829012,0.284142,0.466227,0.162791
1694111019937500,-9.68384,0.820697,0.835012,0.319642,0.337327,0.203691
1694111019945312,-9.172384,0.832697,0.500012,0.304642,0.288827,0.232391
1694111019953125,-9.333384,0.845697,0.565012,0.247142,0.355927,0.240191
1694111019960937,-9.416384,0.846697,0.610012,0.186242,0.378727,0.247691
1694111019968750,-9.349384,0.845697,0.543012,0.131542,0.358027,0.253591
1694111019976562,-9.449384,0.787697,0.49012,0.82242,0.300327,0.244291
