time,Acceleration X (m/s^2),Acceleration Y (m/s^2),Acceleration Z (m/s^2),Angular Velocity X (rad/s),Angular Velocity Y (rad/s),Angular Velocity Z (rad/s)
1700767208054687,-9.17077,3.302873,-0.044502,,,
1700767208062500,-9.16177,0.835777,3.304873,0.23707,0.34902,0.18031
1700767208070312,-9.17077,0.844777,3.286873,0.19007,0.33402,0.10031
1700767208078125,-9.17777,0.842777,3.286873,0.23807,0.31502,0.22731
1700767208085937,-9.17777,0.839777,3.297873,0.24207,0.39402,0.21031
1700767208093750,-9.17977,0.837777,3.304873,0.19107,0.38102,0.18031
1700767208109375,-9.17277,0.840777,3.320873,0.28007,0.33602,0.18131
1700767208117187,-9.17277,0.839777,3.322873,0.25207,0.33302,0.19631
1700767208125000,-9.16577,0.837777,3.320873,0.14107,0.35002,0.16531
1700767208132812,-9.17077,0.837777,3.329873,0.17307,0.34902,0.21331
1700767208156250,-9.16377,0.844777,3.315873,0.19107,0.33302,0.14831
1700767208164062,-9.16177,0.852777,3.360873,0.36907,0.28002,0.12731
1700767208171875,-9.16477,0.868777,3.383873,0.35307,0.24902,0.6331
1700767208179687,-9.16177,0.850777,3.417873,0.36407,0.20202,0.16131
1700767208187500,-9.16077,0.828777,3.232873,0.17207,0.698,0.13131
1700767208195312,-9.14377,0.832777,3.90873,0.11407,0.18402,0.17931
1700767208203125,-9.14177,0.857777,3.266873,0.18607,0.33502,0.19831
1700767208210937,-9.20677,0.871777,3.320873,0.25607,0.13502,0.16131
1700767208218750,-9.20477,0.864777,3.291873,0.16307,0.25002,0.9931
1700767208226562,-9.18377,0.858777,3.286873,0.27607,0.43702,0.15031
1700767208234375,-9.15477,0.859777,3.333873,0.27707,0.58302,0.16731
1700767208242187,-9.16377,0.859777,3.365873,0.37607,0.41602,0.16331
1700767208250000,-9.18677,0.849777,3.378873,0.31207,0.33602,0.14831
1700767208257812,-9.17277,0.835777,3.360873,0.35107,0.31602,0.8131
1700767208265625,-9.16177,0.835777,3.322873,0.36407,0.33302,0.8131
1700767208273437,-9.16177,0.837777,3.311873,0.27607,0.29602,0.11231
1700767208281250,-9.16177,0.848777,3.315873,0.20307,0.25402,0.16531
1700767208289062,-9.16877,0.850777,3.313873,0.17607,0.23302,0.22731
1700767208296875,-9.16877,0.853777,3.293873,0.12307,0.22002,0.23031
1700767208304687,-9.18677,0.842777,3.282873,0.7907,0.20102,0.26131
1700767208312500,-9.20177,0.845777,3.277873,0.2493,0.27302,0.28231
1700767208320312,-9.20477,0.844777,3.248873,0.5993,0.16702,0.26231
1700767208328125,-9.20877,0.858777,3.241873,0.7807,0.17002,0.24531
1700767208335937,-9.20677,0.847777,3.245873,0.7407,0.31802,0.29631
1700767208343750,-9.19977,0.849777,3.266873,0.10507,0.31802,0.32831
1700767208351562,-9.19577,0.847777,3.268873,0.9107,0.35002,0.31131
1700767208359375,-9.19377,0.848777,3.277873,0.9907,0.36102,0.27631
1700767208367187,-9.18177,0.846777,3.268873,0.10807,0.39802,0.32731
1700767208375000,-9.17977,0.840777,3.248873,0.12207,0.36802,0.21531
1700767208382812,-9.17977,0.835777,3.250873,0.10907,0.38102,0.26231
1700767208390625,-9.16677,0.843777,3.250873,0.20907,0.46002,0.22731
1700767208398437,-9.16577,0.835777,3.275873,0.17107,0.51302,0.26231
1700767208406250,-9.17777,0.839777,3.282873,0.14807,0.47602,0.16431
1700767208414062,-9.17777,0.837777,3.279873,0.14007,0.41402,0.29431
1700767208421875,-9.17777,0.853777,3.214873,0.19807,0.45102,0.21531
1700767208429687,-9.17977,0.858777,3.227873,0.8707,0.59802,0.23431
1700767208437500,-9.17477,0.853777,3.363873,0.8507,0.64902,0.23531
1700767208445312,-9.18377,0.853777,3.329873,0.13607,0.56402,0.23231
1700767208453125,-9.18477,0.857777,3.270873,0.18807,0.54402,0.29431
1700767208460937,-9.17977,0.860777,3.279873,0.10407,0.53302,0.18531
1700767208468750,-9.18177,0.873777,3.331873,0.6807,0.43902,0.18631
1700767208476562,-9.19777,0.865777,3.376873,0.8307,0.32402,0.23431
1700767208484375,-9.19977,0.858777,3.349873,0.13807,0.31902,0.21431
1700767208492187,-9.17977,0.845777,3.293873,0.8407,0.35702,0.16931
1700767208500000,-9.16177,0.844777,3.277873,0.10407,0.43502,0.21631
1700767208507812,-9.17277,0.846777,3.288873,0.10307,0.48402,0.26531
1700767208515625,-9.17077,0.866777,3.304873,0.8907,0.48202,0.26431
1700767208523437,-9.17277,0.842777,3.288873,0.10007,0.37202,0.24931
1700767208531250,-9.16577,0.846777,3.272873,0.12607,0.39802,0.21431
1700767208539062,-9.16177,0.844777,3.279873,0.12307,0.36602,0.26331
1700767208546875,-9.15477,0.840777,3.281873,0.10207,0.35402,0.28131
1700767208554687,-9.15477,0.826777,3.279873,0.11907,0.43602,0.16831
1700767208562500,-9.16277,0.829777,3.286873,0.11207,0.45602,0.20331
1700767208570312,-9.15277,0.830777,3.281873,0.14007,0.36702,0.19831
1700767208578125,-9.16077,0.831777,3.281873,0.18107,0.37102,0.21531
1700767208585937,-9.16577,0.831777,3.288873,0.24707,0.35302,0.18231
1700767208593750,-9.16577,0.833777,3.281873,0.23207,0.40102,0.21431
1700767208601562,-9.17677,0.840777,3.284873,0.10107,0.35402,0.31331
1700767208609375,-9.17477,0.842777,3.295873,0.16407,0.40302,0.28031
1700767208617187,-9.17477,0.840777,3.291873,0.15107,0.35302,0.28031
1700767208625000,-9.18377,0.847777,3.284873,0.8807,0.40302,0.18431
1700767208632812,-9.17977,0.847777,3.286873,0.11507,0.40402,0.26531
1700767208640625,-9.18377,0.844777,3.275873,0.15707,0.41402,0.24631
1700767208648437,-9.17777,0.851777,3.266873,0.15107,0.38602,0.24831
1700767208656250,-9.17477,0.849777,3.266873,0.9807,0.43902,0.23431
1700767208664062,-9.17477,0.848777,3.272873,0.18907,0.38202,0.21331
1700767208671875,-9.17977,0.851777,3.277873,0.13607,0.32002,0.23131
1700767208679687,-9.19277,0.838777,3.266873,0.11307,0.34202,0.21831
1700767208687500,-9.18177,0.842777,3.281873,0.8407,0.32402,0.18531
1700767208695312,-9.18177,0.840777,3.279873,0.8807,0.33802,0.20031
1700767208703125,-9.17977,0.842777,3.286873,0.10607,0.33502,0.26331
1700767208710937,-9.17477,0.838777,3.291873,0.11707,0.32302,0.21631
1700767208718750,-9.17277,0.840777,3.286873,0.8307,0.34002,0.26631
1700767208726562,-9.15477,0.840777,3.272873,0.10207,0.30502,0.26431
1700767208734375,-9.16577,0.824777,3.263873,0.7907,0.31602,0.24631
1700767208742187,-9.17677,0.831777,3.311873,0.19607,0.37102,0.26431
1700767208750000,-9.18377,0.842777,3.367873,0.35907,0.31902,0.18031
1700767208757812,-9.18377,0.824777,3.374873,0.36307,0.20202,0.17731
1700767208765625,-9.17177,0.811777,3.392873,0.20307,0.4102,0.21131
1700767208773437,-9.15777,0.786777,3.126873,0.2607,0.2298,0.26331
1700767208781250,-9.14677,0.795777,3.113873,0.5507,0.22302,0.31331
1700767208789062,-9.15877,0.833777,3.309873,0.11907,0.30302,0.31231
1700767208796875,-9.18577,0.842777,3.266873,0.24607,0.18902,0.27731
1700767208804687,-9.18377,0.847777,3.232873,0.14507,0.30802,0.26531
1700767208812500,-9.18177,0.827777,3.279873,0.8707,0.33602,0.31231
1700767208820312,-9.17277,0.824777,3.342873,0.12207,0.48102,0.28031
1700767208828125,-9.19477,0.822777,3.345873,0.29307,0.30402,0.21331
1700767208835937,-9.19977,0.818777,3.345873,0.36007,0.31802,0.21131
1700767208843750,-9.19477,0.818777,3.354873,0.28107,0.36702,0.19631
1700767208851562,-9.18377,0.813777,3.331873,0.26407,0.28602,0.21331
1700767208859375,-9.17877,0.820777,3.313873,0.26307,0.25502,0.19731
1700767208867187,-9.17477,0.822777,3.275873,0.17607,0.22702,0.21631
1700767208875000,-9.16577,0.842777,3.279873,0.11707,0.22402,0.26431
1700767208882812,-9.16777,0.829777,3.300873,0.493,0.16602,0.30131
1700767208890625,-9.17477,0.817777,3.284873,0.7907,0.10302,0.30931
1700767208898437,-9.19277,0.818777,3.245873,0.4007,0.14102,0.29631
1700767208906250,-9.19677,0.825777,3.227873,0.5707,0.18902,0.32831
1700767208914062,-9.19977,0.827777,3.236873,0.9007,0.26902,0.27931
1700767208921875,-9.19077,0.833777,3.245873,0.10507,0.33502,0.31231
1700767208929687,-9.18377,0.827777,3.248873,0.6407,0.39102,0.28331
1700767208937500,-9.19277,0.825777,3.252873,0.8407,0.40402,0.28231
1700767208945312,-9.19677,0.820777,3.259873,0.10307,0.37102,0.21631
1700767208953125,-9.19077,0.809777,3.248873,0.11107,0.34902,0.19731
1700767208960937,-9.18177,0.815777,3.234873,0.9007,0.41702,0.26431
1700767208968750,-9.19277,0.813777,3.232873,0.11707,0.37002,0.28131
1700767208976562,-9.19077,0.809777,3.236873,0.10907,0.44702,0.26331
1700767208984375,-9.18777,0.807777,3.257873,0.8507,0.43702,0.18531
1700767208992187,-9.19677,0.805777,3.266873,0.10107,0.35502,0.21731
1700767209000000,-9.19677,0.806777,3.275873,0.17807,0.39402,0.27631
1700767209007812,-9.19677,0.813777,3.223873,0.13507,0.50002,0.21631
1700767209015625,-9.19677,0.815777,3.178873,0.9507,0.51102,0.24631
1700767209023437,-9.19877,0.814777,3.315873,0.8707,0.60902,0.27131
1700767209031250,-9.20977,0.806777,3.327873,0.6807,0.61202,0.22431
1700767209039062,-9.21077,0.807777,3.275873,0.10707,0.54702,0.24831
1700767209046875,-9.19777,0.820777,3.266873,0.9607,0.47802,0.23031
1700767209054687,-9.19877,0.816777,3.306873,0.10607,0.40202,0.16731
1700767209062500,-9.20577,0.829777,3.338873,0.8907,0.41802,0.20031
1700767209070312,-9.19977,0.825777,3.340873,0.12307,0.33502,0.21531
1700767209078125,-9.19477,0.813777,3.320873,0.15907,0.33102,0.22831
1700767209085937,-9.18177,0.817777,3.270873,0.10007,0.41002,0.21231
1700767209093750,-9.17077,0.837777,3.279873,0.11207,0.41302,0.21331
1700767209101562,-9.17877,0.817777,3.300873,0.9407,0.43102,0.23031
1700767209109375,-9.17677,0.828777,3.297873,0.11107,0.33302,0.19731
1700767209117187,-9.17477,0.828777,3.295873,0.7807,0.44902,0.15131
1700767209125000,-9.18877,0.815777,3.297873,0.6907,0.44502,0.13331
1700767209132812,-9.18777,0.820777,3.302873,0.9007,0.41802,0.16831
1700767209140625,-9.18177,0.818777,3.286873,0.1407,0.45002,0.12031
1700767209148437,-9.18177,0.815777,3.297873,0.7507,0.56502,0.15231
1700767209156250,-9.18777,0.802777,3.299873,0.7507,0.45102,0.12031
1700767209164062,-9.18577,0.813777,3.290873,0.11107,0.46402,0.18231
1700767209171875,-9.19677,0.807777,3.300873,0.12107,0.45302,0.8831
1700767209179687,-9.19677,0.809777,3.306873,0.11107,0.44902,0.5431
1700767209187500,-9.19677,0.815777,3.302873,0.12807,0.47902,0.18131
1700767209195312,-9.18977,0.805777,3.311873,0.8407,0.50302,0.23431
1700767209203125,-9.18977,0.809777,3.309873,0.10607,0.46802,0.13631
1700767209210937,-9.18577,0.815777,3.309873,0.9807,0.51002,0.21431
1700767209218750,-9.18377,0.820777,3.302873,0.10107,0.53602,0.17031
1700767209226562,-9.18377,0.818777,3.297873,0.8407,0.52102,0.13831
1700767209234375,-9.17477,0.817777,3.288873,0.9107,0.49902,0.15231
1700767209242187,-9.17377,0.811777,3.304873,0.8107,0.52202,0.18731
1700767209250000,-9.17477,0.820777,3.297873,0.8707,0.50202,0.18531
1700767209257812,-9.17477,0.809777,3.293873,0.9107,0.43502,0.12031
1700767209265625,-9.18377,0.811777,3.304873,0.9007,0.41902,0.15231
1700767209273437,-9.18377,0.811777,3.295873,0.11307,0.41502,0.8531
1700767209281250,-9.17477,0.804777,3.295873,0.9807,0.34902,0.6831
1700767209289062,-9.17877,0.806777,3.313873,0.11207,0.31802,0.5331
1700767209296875,-9.17677,0.818777,3.306873,0.8607,0.43902,0.5731
1700767209304687,-9.17477,0.811777,3.320873,0.8407,0.37302,0.18631
1700767209312500,-9.18177,0.818777,3.313873,0.10607,0.35302,0.15131
1700767209320312,-9.19077,0.809777,3.306873,0.22407,0.35002,0.5131
1700767209328125,-9.19077,0.818777,3.374873,0.24707,0.38602,0.13431
1700767209335937,-9.18977,0.811777,3.387873,0.35207,0.40702,0.8631
1700767209343750,-9.17677,0.800777,3.383873,0.29307,0.37102,0.11731
1700767209351562,-9.16077,0.786777,3.290873,0.15907,0.8702,0.22731
1700767209359375,-9.16977,0.773777,3.49873,0.6107,0.15502,0.21431
1700767209367187,-9.14577,0.808777,3.297873,0.14407,0.51102,0.18131
1700767209375000,-9.18377,0.835777,3.462873,0.36607,0.31602,0.11331
1700767209382812,-9.18177,0.826777,3.236873,0.31707,0.8702,0.17731
1700767209390625,-9.16277,0.808777,3.135873,0.12507,0.20402,0.13331
1700767209398437,-9.16077,0.784777,3.270873,0.5707,0.48402,0.20131
1700767209406250,-9.16577,0.809777,3.405873,0.27607,0.53502,0.11931
1700767209414062,-9.18377,0.829777,3.403873,0.40407,0.36802,0.22831
1700767209421875,-9.17677,0.827777,3.347873,0.41707,0.34002,0.10031
1700767209429687,-9.17277,0.820777,3.390873,0.32707,0.41902,0.8431
1700767209437500,-9.19277,0.818777,3.405873,0.36407,0.31702,0.9731
1700767209445312,-9.18577,0.806777,3.347873,0.32307,0.24702,0.9531
1700767209453125,-9.17277,0.813777,3.300873,0.35107,0.26502,0.16031
1700767209460937,-9.14577,0.815777,3.295873,0.18707,0.31902,0.13331
1700767209468750,-9.16077,0.820777,3.315873,0.13907,0.31902,0.19831
1700767209476562,-9.16277,0.813777,3.318873,0.9007,0.23802,0.23131
1700767209484375,-9.17677,0.811777,3.311873,0.10407,0.14102,0.23131
1700767209492187,-9.17877,0.817777,3.288873,0.9507,0.21802,0.27731
1700767209500000,-9.18077,0.818777,3.275873,0.10407,0.28902,0.20031
1700767209507812,-9.17977,0.826777,3.295873,0.9407,0.38302,0.15031
1700767209515625,-9.17477,0.822777,3.284873,0.10707,0.36802,0.19931
1700767209523437,-9.16077,0.815777,3.288873,0.18607,0.35002,0.24631
1700767209531250,-9.15877,0.802777,3.290873,0.9107,0.45002,0.20031
1700767209539062,-9.16377,0.806777,3.279873,0.14207,0.29802,0.32531
1700767209546875,-9.16077,0.804777,3.270873,0.16707,0.30402,0.24731
1700767209554687,-9.16077,0.809777,3.275873,0.18107,0.43602,0.21631
1700767209562500,-9.15677,0.806777,3.268873,0.29507,0.41702,0.21331
1700767209570312,-9.16377,0.810777,3.309873,0.36407,0.36602,0.9831
1700767209578125,-9.16777,0.799777,3.313873,0.33007,0.44702,0.21231
1700767209585937,-9.19277,0.800777,3.315873,0.31107,0.38502,0.19731
1700767209593750,-9.17877,0.811777,3.306873,0.34307,0.48302,0.13231
1700767209601562,-9.17877,0.820777,3.223873,0.25907,0.40502,0.13531
1700767209609375,-9.18777,0.809777,3.295873,0.12107,0.54802,0.20031
1700767209617187,-9.17677,0.804777,3.392873,0.10007,0.58302,0.26631
1700767209625000,-9.19877,0.807777,3.358873,0.9107,0.38402,0.19931
1700767209632812,-9.18077,0.807777,3.318873,0.26107,0.42002,0.15031
1700767209640625,-9.16377,0.812777,3.318873,0.17907,0.36102,0.22731
1700767209648437,-9.15677,0.815777,3.338873,0.7807,0.31702,0.21431
1700767209656250,-9.17277,0.820777,3.376873,0.11107,0.33302,0.19731
1700767209664062,-9.17677,0.824777,3.354873,0.20307,0.31802,0.21331
1700767209671875,-9.16077,0.820777,3.313873,0.24507,0.32302,0.10231
1700767209679687,-9.15477,0.828777,3.327873,0.20307,0.26802,0.21231
1700767209687500,-9.15877,0.831777,3.338873,0.15107,0.37102,0.18431
1700767209695312,-9.17277,0.824777,3.349873,0.16807,0.35302,0.18331
1700767209703125,-9.17277,0.820777,3.333873,0.9107,0.38402,0.19931
1700767209710937,-9.16777,0.818777,3.333873,0.10507,0.37102,0.10331
1700767209718750,-9.16077,0.817777,3.336873,0.8807,0.35402,0.18431
1700767209726562,-9.16177,0.819777,3.315873,0.11307,0.31502,0.22931
1700767209734375,-9.16077,0.813777,3.322873,0.8207,0.34202,0.20231
1700767209742187,-9.16077,0.804777,3.320873,0.9207,0.31902,0.16631
1700767209750000,-9.16277,0.806777,3.327873,0.15707,0.33402,0.16531
1700767209757812,-9.16777,0.804777,3.338873,0.14907,0.31202,0.17931
1700767209765625,-9.16577,0.804777,3.340873,0.14407,0.33102,0.22831
1700767209773437,-9.17477,0.807777,3.345873,0.16607,0.37102,0.21631
1700767209781250,-9.17477,0.804777,3.354873,0.8307,0.39502,0.22931
1700767209789062,-9.17477,0.811777,3.347873,0.10507,0.36902,0.21631
1700767209796875,-9.18377,0.816777,3.345873,0.9007,0.32002,0.18331
1700767209804687,-9.18377,0.813777,3.329873,0.10907,0.43202,0.19931
1700767209812500,-9.17677,0.813777,3.320873,0.12407,0.38302,0.21431
1700767209820312,-9.17477,0.815777,3.322873,0.10607,0.33702,0.16731
1700767209828125,-9.16977,0.818777,3.313873,0.15407,0.33702,0.11831
1700767209835937,-9.17677,0.826777,3.311873,0.9107,0.37002,0.11931
1700767209843750,-9.18177,0.829777,3.320873,0.10307,0.32102,0.20031
1700767209851562,-9.17877,0.822777,3.315873,0.9307,0.35002,0.19831
1700767209859375,-9.17677,0.813777,3.313873,0.11107,0.33202,0.21331
1700767209867187,-9.17677,0.822777,3.324873,0.12707,0.38302,0.10131
1700767209875000,-9.17877,0.826777,3.327873,0.9207,0.36802,0.15131
1700767209882812,-9.18177,0.817777,3.322873,0.11107,0.38202,0.19831
1700767209890625,-9.17477,0.813777,3.327873,0.9007,0.35302,0.18331
1700767209898437,-9.15877,0.815777,3.329873,0.9307,0.39902,0.18231
1700767209906250,-9.16377,0.808777,3.324873,0.11107,0.33302,0.19731
1700767209914062,-9.16277,0.804777,3.333873,0.13507,0.30502,0.21531
1700767209921875,-9.16577,0.815777,3.383873,0.24507,0.35302,0.24631
1700767209929687,-9.17877,0.815777,3.385873,0.23207,0.27002,0.22931
1700767209937500,-9.16777,0.791777,3.405873,0.15307,0.23802,0.21431
1700767209945312,-9.16277,0.784777,3.248873,0.3007,0.2402,0.26231
1700767209953125,-9.14877,0.777777,3.79873,0.13393,0.10902,0.28231
1700767209960937,-9.15477,0.822777,3.383873,0.16207,0.45402,0.28131
1700767209968750,-9.19077,0.849777,3.486873,0.31907,0.25902,0.21431
1700767209976562,-9.18977,0.820777,3.234873,0.16807,0.7602,0.21331
1700767209984375,-9.17177,0.787777,3.133873,0.4193,0.22502,0.25031
1700767209992187,-9.15777,0.773777,3.263873,0.17493,0.53002,0.23531
1700767210000000,-9.16377,0.808777,3.448873,0.17007,0.53002,0.21531
1700767210007812,-9.19777,0.840777,3.390873,0.34407,0.31902,0.13131
1700767210015625,-9.18177,0.840777,3.327873,0.33007,0.33602,0.5131
1700767210023437,-9.17277,0.820777,3.369873,0.17607,0.31702,0.8331
1700767210031250,-9.19277,0.813777,3.387873,0.8207,0.31702,0.8431
1700767210039062,-9.17877,0.807777,3.347873,0.10307,0.22502,0.16831
1700767210046875,-9.16277,0.804777,3.284873,0.8707,0.27402,0.18431
1700767210054687,-9.14977,0.808777,3.297873,0.10607,0.27102,0.19931
1700767210062500,-9.16077,0.822777,3.309873,0.4707,0.22102,0.10231
1700767210070312,-9.15877,0.810777,3.315873,0.6907,0.21502,0.17931
1700767210078125,-9.18077,0.804777,3.313873,0.1593,0.23502,0.19931
1700767210085937,-9.18577,0.809777,3.279873,0.493,0.25602,0.18431
1700767210093750,-9.18377,0.813777,3.254873,0.8507,0.32302,0.23331
1700767210101562,-9.17677,0.818777,3.272873,0.8707,0.35402,0.23331
1700767210109375,-9.17177,0.804777,3.275873,0.2207,0.38802,0.21831
1700767210117187,-9.16977,0.804777,3.275873,0.7007,0.37002,0.28131
1700767210125000,-9.16277,0.797777,3.261873,0.5807,0.43502,0.16831
1700767210132812,-9.17877,0.784777,3.259873,0.4007,0.45202,0.21831
1700767210140625,-9.18277,0.785777,3.275873,0.8507,0.43702,0.21831
1700767210148437,-9.18977,0.793777,3.275873,0.11307,0.46202,0.16531
1700767210156250,-9.17877,0.787777,3.268873,0.8307,0.39002,0.20231
1700767210164062,-9.18077,0.787777,3.281873,0.11707,0.40502,0.16931
1700767210171875,-9.19377,0.785777,3.299873,0.14907,0.43902,0.5631
1700767210179687,-9.20377,0.792777,3.302873,0.15107,0.43602,0.13631
1700767210187500,-9.20177,0.809777,3.290873,0.15107,0.43502,0.21631
1700767210195312,-9.19277,0.811777,3.216873,0.10607,0.49902,0.20031
1700767210203125,-9.19477,0.807777,3.261873,0.8407,0.53602,0.21831
1700767210210937,-9.18077,0.789777,3.378873,0.2093,0.59802,0.15431
1700767210218750,-9.20077,0.796777,3.331873,0.13207,0.45402,0.18531
1700767210226562,-9.18377,0.800777,3.293873,0.16907,0.35202,0.23031
1700767210234375,-9.16077,0.807777,3.277873,0.9907,0.48802,0.17031
1700767210242187,-9.16077,0.804777,3.315873,0.10607,0.43502,0.13531
1700767210250000,-9.17177,0.800777,3.340873,0.7507,0.40202,0.10331
1700767210257812,-9.17677,0.806777,3.340873,0.15607,0.45002,0.7031
1700767210265625,-9.16777,0.809777,3.297873,0.23207,0.40302,0.11831
1700767210273437,-9.16077,0.811777,3.300873,0.12207,0.41902,0.10331
1700767210281250,-9.15677,0.804777,3.322873,0.22907,0.40402,0.15131
1700767210289062,-9.17477,0.820777,3.324873,0.10107,0.32402,0.13731
1700767210296875,-9.17177,0.818777,3.306873,0.10507,0.40402,0.12031
1700767210304687,-9.17377,0.807777,3.302873,0.8807,0.42202,0.5631
1700767210312500,-9.17677,0.804777,3.299873,0.10507,0.42002,0.8831
1700767210320312,-9.17677,0.811777,3.304873,0.9207,0.38402,0.16731
1700767210328125,-9.16577,0.811777,3.302873,0.13007,0.35702,0.21731
1700767210335937,-9.17177,0.796777,3.304873,0.11407,0.43902,0.21831
1700767210343750,-9.16277,0.804777,3.302873,0.13607,0.38602,0.21531
1700767210351562,-9.17677,0.798777,3.315873,0.22907,0.38702,0.16731
1700767210359375,-9.17677,0.804777,3.320873,0.8707,0.33802,0.21631
1700767210367187,-9.18077,0.805777,3.315873,0.11807,0.42102,0.13731
1700767210375000,-9.18077,0.806777,3.322873,0.31407,0.40002,0.14831
1700767210382812,-9.18577,0.804777,3.322873,0.23607,0.41502,0.19631
1700767210390625,-9.17677,0.811777,3.322873,0.16807,0.36902,0.19931
1700767210398437,-9.17477,0.815777,3.318873,0.16907,0.40102,0.23131
1700767210406250,-9.17477,0.816777,3.311873,0.10207,0.35602,0.16831
1700767210414062,-9.18277,0.820777,3.297873,0.25107,0.41102,0.13831
1700767210421875,-9.17477,0.818777,3.295873,0.20107,0.37002,0.11831
1700767210429687,-9.17677,0.824777,3.284873,0.18407,0.35302,0.16631
1700767210437500,-9.17477,0.815777,3.297873,0.24907,0.38502,0.16531
1700767210445312,-9.17477,0.816777,3.297873,0.11807,0.37202,0.13631
1700767210453125,-9.18177,0.815777,3.304873,0.21907,0.35202,0.10131
1700767210460937,-9.18377,0.818777,3.302873,0.16607,0.38902,0.7131
1700767210468750,-9.17477,0.806777,3.297873,0.9307,0.39902,0.18231
1700767210476562,-9.17877,0.809777,3.318873,0.12707,0.32702,0.20231
1700767210484375,-9.17677,0.804777,3.302873,0.17107,0.33402,0.22931
1700767210492187,-9.17177,0.804777,3.304873,0.19607,0.30702,0.18331
1700767210500000,-9.18077,0.811777,3.302873,0.21407,0.32202,0.15031
1700767210507812,-9.17477,0.811777,3.304873,0.21607,0.33502,0.23031
1700767210515625,-9.17377,0.795777,3.302873,0.23307,0.30302,0.21331
1700767210523437,-9.17677,0.804777,3.324873,0.31507,0.31702,0.17931
1700767210531250,-9.18577,0.816777,3.369873,0.32207,0.34002,0.15031
1700767210539062,-9.19177,0.807777,3.372873,0.33507,0.29202,0.21431
1700767210546875,-9.16977,0.802777,3.372873,0.19907,0.10902,0.19731
1700767210554687,-9.16877,0.778777,3.99873,0.3507,0.1602,0.18531
1700767210562500,-9.14877,0.788777,3.153873,0.10107,0.33902,0.23331
1700767210570312,-9.17277,0.851777,3.462873,0.33407,0.42302,0.18331
1700767210578125,-9.20177,0.849777,3.363873,0.36107,0.12102,0.21031
1700767210585937,-9.19477,0.816777,3.144873,0.19607,0.6102,0.24631
1700767210593750,-9.17377,0.787777,3.149873,0.11693,0.33702,0.26731
1700767210601562,-9.16277,0.800777,3.347873,0.7907,0.58702,0.26931
1700767210609375,-9.18577,0.838777,3.439873,0.35507,0.45202,0.19731
1700767210617187,-9.19977,0.840777,3.338873,0.34307,0.41802,0.13231
1700767210625000,-9.19277,0.833777,3.338873,0.34007,0.48602,0.10231
1700767210632812,-9.19277,0.831777,3.372873,0.22907,0.43602,0.16731
1700767210640625,-9.18577,0.811777,3.363873,0.19807,0.38902,0.7131
1700767210648437,-9.16977,0.802777,3.315873,0.13107,0.29902,0.11531
1700767210656250,-9.15677,0.820777,3.293873,0.8807,0.30702,0.12031
1700767210664062,-9.16377,0.840777,3.300873,0.9807,0.32502,0.20231
1700767210671875,-9.16577,0.829777,3.300873,0.7907,0.26102,0.26731
1700767210679687,-9.17677,0.816777,3.309873,0.10207,0.15902,0.23231
1700767210687500,-9.18077,0.820777,3.290873,0.3807,0.25702,0.24931
1700767210695312,-9.17677,0.818777,3.259873,0.7007,0.27302,0.23331
1700767210703125,-9.17477,0.818777,3.239873,0.9907,0.34002,0.21731
1700767210710937,-9.17477,0.824777,3.261873,0.8507,0.37202,0.23331
1700767210718750,-9.16977,0.824777,3.272873,0.10507,0.36902,0.20031
1700767210726562,-9.17177,0.811777,3.281873,0.8307,0.35702,0.21831
1700767210734375,-9.17477,0.804777,3.275873,0.11007,0.38202,0.23031
1700767210742187,-9.17377,0.796777,3.268873,0.8607,0.29002,0.21731
1700767210750000,-9.18377,0.802777,3.272873,0.13907,0.43202,0.26331
1700767210757812,-9.17477,0.806777,3.272873,0.21707,0.36802,0.19831
1700767210765625,-9.18777,0.807777,3.266873,0.20007,0.45002,0.24731
1700767210773437,-9.19677,0.800777,3.297873,0.10807,0.49802,0.19931
1700767210781250,-9.19677,0.800777,3.306873,0.23007,0.46802,0.21531
1700767210789062,-9.20377,0.805777,3.286873,0.23407,0.36702,0.19731
1700767210796875,-9.20577,0.811777,3.254873,0.12207,0.48302,0.18331
1700767210804687,-9.19977,0.818777,3.221873,0.12207,0.49902,0.18331
1700767210812500,-9.19677,0.804777,3.363873,0.6207,0.66002,0.20031
1700767210820312,-9.19877,0.814777,3.383873,0.10407,0.54902,0.20131
1700767210828125,-9.20777,0.816777,3.302873,0.8507,0.45402,0.21831
1700767210835937,-9.17177,0.813777,3.284873,0.6907,0.53602,0.18631
1700767210843750,-9.16577,0.824777,3.297873,0.4907,0.58702,0.20431
1700767210851562,-9.17677,0.827777,3.345873,0.8007,0.53802,0.23631
1700767210859375,-9.17477,0.824777,3.349873,0.10907,0.38302,0.21431
1700767210867187,-9.17277,0.820777,3.322873,0.11807,0.40302,0.23331
1700767210875000,-9.15677,0.824777,3.302873,0.9007,0.51502,0.21631
1700767210882812,-9.15877,0.837777,3.315873,0.10807,0.46502,0.23131
1700767210890625,-9.16377,0.833777,3.338873,0.9307,0.33402,0.21431
1700767210898437,-9.16177,0.837777,3.327873,0.10607,0.41702,0.23131
1700767210906250,-9.17277,0.826777,3.306873,0.13907,0.43402,0.15131
1700767210914062,-9.16777,0.824777,3.313873,0.8807,0.37102,0.18431
1700767210921875,-9.17477,0.815777,3.306873,0.11207,0.34902,0.16531
1700767210929687,-9.16977,0.815777,3.311873,0.4007,0.45202,0.21831
1700767210937500,-9.16077,0.815777,3.297873,0.8107,0.34702,0.21331
1700767210945312,-9.17677,0.818777,3.302873,0.10507,0.38602,0.20031
1700767210953125,-9.16977,0.813777,3.304873,0.8507,0.35502,0.23331
1700767210960937,-9.17477,0.820777,3.297873,0.15507,0.35002,0.23031
1700767210968750,-9.17677,0.813777,3.309873,0.15407,0.33502,0.19831
1700767210976562,-9.17477,0.804777,3.313873,0.6007,0.33502,0.21531
1700767210984375,-9.17277,0.813777,3.300873,0.11107,0.34902,0.21331
1700767210992187,-9.18077,0.811777,3.306873,0.8807,0.40302,0.18431
1700767211000000,-9.17877,0.820777,3.320873,0.11107,0.38202,0.19831
1700767211007812,-9.18077,0.813777,3.324873,0.8507,0.38802,0.21731
1700767211015625,-9.17877,0.808777,3.333873,0.9907,0.39502,0.19731
1700767211023437,-9.17477,0.811777,3.324873,0.10007,0.35702,0.16931
1700767211031250,-9.18377,0.813777,3.327873,0.11607,0.45402,0.20131
1700767211039062,-9.17677,0.807777,3.311873,0.10007,0.32402,0.20131
1700767211046875,-9.17477,0.811777,3.302873,0.13307,0.35602,0.20031
1700767211054687,-9.17877,0.815777,3.297873,0.9107,0.40102,0.18331
1700767211062500,-9.17677,0.811777,3.290873,0.10307,0.37102,0.18431
1700767211070312,-9.17477,0.804777,3.299873,0.8907,0.36902,0.21631
1700767211078125,-9.18077,0.807777,3.295873,0.10107,0.32302,0.23331
1700767211085937,-9.16977,0.811777,3.297873,0.12507,0.33402,0.21431
1700767211093750,-9.16577,0.813777,3.295873,0.9207,0.31902,0.16631
1700767211101562,-9.16077,0.813777,3.297873,0.10007,0.37302,0.18531
1700767211109375,-9.16077,0.808777,3.302873,0.9807,0.36402,0.18131
1700767211117187,-9.16377,0.820777,3.309873,0.10507,0.32002,0.23131
1700767211125000,-9.17477,0.808777,3.313873,0.9507,0.31602,0.21331
1700767211132812,-9.16777,0.802777,3.324873,0.18307,0.35302,0.23131
1700767211140625,-9.16777,0.804777,3.324873,0.14307,0.33302,0.18131
1700767211148437,-9.16777,0.804777,3.318873,0.9807,0.31502,0.18031
1700767211156250,-9.17877,0.798777,3.322873,0.18507,0.31902,0.21431
1700767211164062,-9.17677,0.811777,3.372873,0.21907,0.33402,0.18131
1700767211171875,-9.18377,0.816777,3.378873,0.34007,0.37002,0.19731
1700767211179687,-9.17477,0.800777,3.403873,0.23407,0.25402,0.16431
1700767211187500,-9.16277,0.782777,3.257873,0.7307,0.12502,0.19931
1700767211195312,-9.16077,0.768777,3.81873,0.6307,0.17002,0.19731
1700767211203125,-9.16577,0.826777,3.354873,0.16507,0.50202,0.21731
1700767211210937,-9.19777,0.851777,3.450873,0.36307,0.33302,0.16231
1700767211218750,-9.20377,0.823777,3.214873,0.29407,0.9302,0.14831
1700767211226562,-9.18777,0.798777,3.124873,0.8807,0.23902,0.21631
1700767211234375,-9.16277,0.780777,3.268873,0.3693,0.51602,0.21831
1700767211242187,-9.16777,0.807777,3.435873,0.22707,0.51802,0.23231
1700767211250000,-9.19677,0.840777,3.369873,0.35207,0.34102,0.13431
1700767211257812,-9.17977,0.829777,3.306873,0.34507,0.38502,0.6731
1700767211265625,-9.16977,0.813777,3.351873,0.37307,0.33702,0.14831
1700767211273437,-9.18077,0.800777,3.365873,0.20207,0.25502,0.10131
1700767211281250,-9.17377,0.802777,3.313873,0.18107,0.24302,0.10331
1700767211289062,-9.16477,0.798777,3.290873,0.14807,0.33902,0.23231
1700767211296875,-9.16077,0.833777,3.293873,0.15107,0.25602,0.18331
1700767211304687,-9.17677,0.822777,3.300873,0.10807,0.30202,0.18231
1700767211312500,-9.18577,0.813777,3.313873,0.907,0.23902,0.23331
1700767211320312,-9.18977,0.803777,3.295873,0.6507,0.19602,0.23431
1700767211328125,-9.17677,0.802777,3.257873,0.9707,0.22702,0.26631
1700767211335937,-9.17477,0.804777,3.245873,0.10407,0.30502,0.20031
1700767211343750,-9.17377,0.807777,3.243873,0.8407,0.33902,0.26531
1700767211351562,-9.17477,0.809777,3.250873,0.10407,0.38502,0.24831
1700767211359375,-9.17877,0.805777,3.270873,0.16307,0.33902,0.23231
1700767211367187,-9.18077,0.802777,3.266873,0.7007,0.37002,0.29731
1700767211375000,-9.19477,0.787777,3.268873,0.15207,0.36902,0.21531
1700767211382812,-9.20377,0.787777,3.266873,0.16907,0.35302,0.16631
1700767211390625,-9.19877,0.787777,3.270873,0.19107,0.39702,0.19631
1700767211398437,-9.19677,0.796777,3.268873,0.30307,0.45602,0.16831
1700767211406250,-9.20077,0.783777,3.277873,0.33907,0.40402,0.16631
1700767211414062,-9.20977,0.783777,3.295873,0.19707,0.40302,0.21631
1700767211421875,-9.21277,0.787777,3.286873,0.27907,0.43402,0.21431
1700767211429687,-9.21477,0.800777,3.281873,0.32507,0.43402,0.22931
1700767211437500,-9.20577,0.816777,3.216873,0.16907,0.53202,0.19931
1700767211445312,-9.20577,0.800777,3.293873,0.11907,0.58202,0.20131
1700767211453125,-9.19677,0.805777,3.376873,0.8607,0.50102,0.25031
1700767211460937,-9.20977,0.805777,3.318873,0.13207,0.42102,0.23331
1700767211468750,-9.18577,0.811777,3.272873,0.16507,0.46902,0.21631
1700767211476562,-9.16277,0.806777,3.284873,0.9107,0.59602,0.21631
1700767211484375,-9.16777,0.804777,3.327873,0.16707,0.38602,0.23131
1700767211492187,-9.16977,0.808777,3.358873,0.25007,0.30102,0.24431
1700767211500000,-9.16977,0.809777,3.338873,0.19507,0.33902,0.21631
1700767211507812,-9.16577,0.822777,3.293873,0.9507,0.31602,0.21331
1700767211515625,-9.16077,0.813777,3.309873,0.14207,0.36502,0.22931
1700767211523437,-9.18077,0.814777,3.331873,0.11507,0.40602,0.20231
1700767211531250,-9.17177,0.811777,3.315873,0.16607,0.32202,0.21531
1700767211539062,-9.17677,0.805777,3.304873,0.12707,0.34302,0.20231
1700767211546875,-9.17377,0.800777,3.306873,0.11907,0.32102,0.21631
1700767211554687,-9.17477,0.800777,3.306873,0.15407,0.40102,0.18231
1700767211562500,-9.18377,0.802777,3.304873,0.8907,0.36902,0.20031
1700767211570312,-9.16977,0.800777,3.304873,0.16407,0.38902,0.16831
1700767211578125,-9.16977,0.794777,3.304873,0.9507,0.40902,0.18731
1700767211585937,-9.18077,0.789777,3.313873,0.17607,0.37502,0.18531
1700767211593750,-9.17677,0.798777,3.313873,0.23107,0.38602,0.16631
1700767211601562,-9.17877,0.800777,3.302873,0.15007,0.33802,0.23231
1700767211609375,-9.17677,0.793777,3.306873,0.15407,0.33502,0.21431
1700767211617187,-9.17377,0.795777,3.315873,0.23007,0.35302,0.23031
1700767211625000,-9.17477,0.793777,3.320873,0.12507,0.33402,0.18231
1700767211632812,-9.17377,0.793777,3.311873,0.10307,0.42002,0.18431
1700767211640625,-9.17677,0.802777,3.318873,0.15707,0.36702,0.16531
1700767211648437,-9.16977,0.798777,3.311873,0.16607,0.38702,0.18331
1700767211656250,-9.17377,0.798777,3.318873,0.14307,0.35802,0.25031
1700767211664062,-9.17677,0.804777,3.311873,0.9007,0.35302,0.16731
1700767211671875,-9.17877,0.798777,3.309873,0.13707,0.36902,0.18331
1700767211679687,-9.17877,0.789777,3.311873,0.12407,0.35002,0.21431
1700767211687500,-9.17677,0.802777,3.311873,0.16807,0.43302,0.24731
1700767211695312,-9.17677,0.805777,3.311873,0.14607,0.35702,0.23331
1700767211703125,-9.16777,0.806777,3.311873,0.9707,0.36402,0.21331
1700767211710937,-9.16777,0.795777,3.299873,0.10207,0.35602,0.16831
1700767211718750,-9.17177,0.796777,3.299873,0.8507,0.37302,0.13731
1700767211726562,-9.16277,0.800777,3.299873,0.10107,0.30802,0.13731
1700767211734375,-9.16777,0.800777,3.299873,0.8907,0.35302,0.21631
1700767211742187,-9.17177,0.807777,3.295873,0.10207,0.33902,0.18531
1700767211750000,-9.17377,0.801777,3.288873,0.13807,0.26502,0.17131
1700767211757812,-9.16777,0.802777,3.299873,0.11307,0.32502,0.20231
1700767211765625,-9.16777,0.800777,3.309873,0.12907,0.37502,0.17031
1700767211773437,-9.17577,0.798777,3.302873,0.14207,0.37602,0.20231
1700767211781250,-9.18277,0.785777,3.308873,0.13807,0.21602,0.20331
1700767211789062,-9.17377,0.796777,3.313873,0.9907,0.27502,0.23331
1700767211796875,-9.17877,0.796777,3.311873,0.13407,0.33802,0.21631
1700767211804687,-9.17577,0.787777,3.313873,0.8807,0.28902,0.18431
1700767211812500,-9.17377,0.778777,3.306873,0.8807,0.33802,0.20031
1700767211820312,-9.18777,0.787777,3.302873,0.13507,0.22302,0.23131
1700767211828125,-9.19677,0.800777,3.349873,0.31107,0.28602,0.19631
1700767211835937,-9.19877,0.805777,3.367873,0.37407,0.25402,0.21131
1700767211843750,-9.18777,0.794777,3.387873,0.22907,0.20702,0.23031
1700767211851562,-9.16877,0.773777,3.252873,0.4007,0.2802,0.23131
1700767211859375,-9.16477,0.773777,3.63873,0.1107,0.7402,0.27931
1700767211867187,-9.16377,0.808777,3.306873,0.15707,0.44702,0.23031
1700767211875000,-9.19477,0.834777,3.423873,0.36807,0.27402,0.22931
1700767211882812,-9.20377,0.809777,3.205873,0.21707,0.7502,0.21231
1700767211890625,-9.19477,0.782777,3.144873,0.7607,0.25302,0.23131
1700767211898437,-9.16677,0.773777,3.281873,0.8407,0.51902,0.21831
1700767211906250,-9.16977,0.802777,3.392873,0.33607,0.47102,0.16731
1700767211914062,-9.19877,0.816777,3.356873,0.33807,0.37302,0.11831
1700767211921875,-9.19877,0.814777,3.327873,0.35207,0.42302,0.10231
1700767211929687,-9.18777,0.784777,3.354873,0.30507,0.32902,0.17731
1700767211937500,-9.19877,0.787777,3.336873,0.20207,0.35302,0.8531
1700767211945312,-9.19177,0.767777,3.297873,0.18107,0.29202,0.8731
1700767211953125,-9.18077,0.791777,3.270873,0.19407,0.28302,0.9831
1700767211960937,-9.17877,0.802777,3.281873,0.11907,0.17602,0.15131
1700767211968750,-9.19477,0.807777,3.288873,0.10607,0.23802,0.18231
1700767211976562,-9.19477,0.798777,3.272873,0.4407,0.9102,0.21431
1700767211984375,-9.19877,0.787777,3.272873,0.3707,0.16002,0.23331
1700767211992187,-9.19677,0.782777,3.239873,0.9607,0.18502,0.21231
1700767212000000,-9.19877,0.787777,3.230873,0.9407,0.23502,0.23031
1700767212007812,-9.19277,0.804777,3.227873,0.10707,0.25302,0.23031
1700767212015625,-9.18577,0.804777,3.230873,0.9007,0.27102,0.21531
1700767212023437,-9.18577,0.805777,3.232873,0.10307,0.33802,0.23231
1700767212031250,-9.19377,0.785777,3.230873,0.11107,0.32702,0.21931
1700767212039062,-9.19677,0.774777,3.232873,0.8807,0.32002,0.26431
1700767212046875,-9.20277,0.769777,3.230873,0.9907,0.42102,0.28231
1700767212054687,-9.20077,0.767777,3.243873,0.11807,0.42002,0.23331
1700767212062500,-9.21377,0.763777,3.254873,0.8107,0.52202,0.20431
1700767212070312,-9.21377,0.776777,3.261873,0.12807,0.44002,0.21931
1700767212078125,-9.21377,0.777777,3.272873,0.9607,0.36002,0.20331
1700767212085937,-9.23177,0.772777,3.281873,0.13007,0.47202,0.20231
1700767212093750,-9.22977,0.786777,3.266873,0.16007,0.50602,0.17031
1700767212101562,-9.22777,0.792777,3.196873,0.14807,0.50302,0.16931
1700767212109375,-9.21877,0.787777,3.306873,0.12907,0.61902,0.20331
1700767212117187,-9.21877,0.787777,3.369873,0.8807,0.66202,0.25031
1700767212125000,-9.23277,0.799777,3.288873,0.16207,0.58702,0.12231
1700767212132812,-9.20977,0.787777,3.259873,0.24007,0.52102,0.18531
1700767212140625,-9.18077,0.800777,3.270873,0.12707,0.54002,0.12331
1700767212148437,-9.17877,0.803777,3.315873,0.7707,0.47602,0.18831
1700767212156250,-9.18077,0.798777,3.351873,0.12307,0.51002,0.17331
1700767212164062,-9.17677,0.805777,3.324873,0.18907,0.34302,0.23431
1700767212171875,-9.17577,0.798777,3.275873,0.14307,0.45802,0.13831
1700767212179687,-9.16077,0.802777,3.275873,0.12807,0.42402,0.21831
1700767212187500,-9.16277,0.802777,3.295873,0.8707,0.37202,0.10431
1700767212195312,-9.17877,0.800777,3.290873,0.13407,0.42002,0.21631
1700767212203125,-9.17577,0.798777,3.275873,0.15407,0.37902,0.22031
1700767212210937,-9.17577,0.794777,3.270873,0.15607,0.41002,0.21931
1700767212218750,-9.17177,0.785777,3.263873,0.12607,0.34502,0.15531
1700767212226562,-9.17877,0.780777,3.250873,0.8707,0.32302,0.13631
1700767212234375,-9.18577,0.778777,3.257873,0.14107,0.33402,0.16531
1700767212242187,-9.19677,0.773777,3.268873,0.14007,0.35002,0.19831
1700767212250000,-9.20077,0.780777,3.266873,0.7807,0.31702,0.18231
1700767212257812,-9.20277,0.787777,3.277873,0.15107,0.33802,0.18331
1700767212265625,-9.20077,0.784777,3.277873,0.17407,0.31602,0.18031
1700767212273437,-9.20477,0.765777,3.272873,0.8807,0.33802,0.18431
1700767212281250,-9.19877,0.769777,3.281873,0.16407,0.37202,0.18431
1700767212289062,-9.20477,0.763777,3.263873,0.16607,0.47102,0.8831
1700767212296875,-9.19677,0.780777,3.272873,0.11807,0.40502,0.12031
1700767212304687,-9.20077,0.769777,3.281873,0.21407,0.51902,0.10331
1700767212312500,-9.19877,0.769777,3.288873,0.18107,0.48702,0.7231
1700767212320312,-9.19677,0.791777,3.281873,0.15407,0.53202,0.16731
1700767212328125,-9.19677,0.785777,3.288873,0.16507,0.42102,0.13631
1700767212335937,-9.19877,0.792777,3.286873,0.11607,0.50502,0.8931
1700767212343750,-9.18977,0.785777,3.281873,0.18307,0.45302,0.8731
1700767212351562,-9.18277,0.780777,3.297873,0.18207,0.42202,0.7131
1700767212359375,-9.18477,0.787777,3.304873,0.16507,0.43802,0.12031
1700767212367187,-9.18077,0.774777,3.302873,0.11707,0.35702,0.8831
1700767212375000,-9.18277,0.780777,3.304873,0.8807,0.43802,0.5631
1700767212382812,-9.18977,0.778777,3.295873,0.16607,0.34002,0.10331
1700767212390625,-9.18077,0.794777,3.286873,0.22007,0.36302,0.5831
1700767212398437,-9.18077,0.787777,3.286873,0.27307,0.32602,0.3931
1700767212406250,-9.18777,0.791777,3.281873,0.28007,0.33702,0.6831
1700767212414062,-9.17877,0.784777,3.275873,0.23207,0.32202,0.5331
1700767212421875,-9.17377,0.787777,3.254873,0.13607,0.32302,0.7131
1700767212429687,-9.17377,0.802777,3.254873,0.18507,0.27302,0.5331
1700767212437500,-9.17877,0.796777,3.266873,0.18307,0.32302,0.7131
1700767212445312,-9.19277,0.807777,3.275873,0.15707,0.31902,0.5331
1700767212453125,-9.19877,0.800777,3.279873,0.26107,0.33802,0.15031
1700767212460937,-9.18077,0.800777,3.284873,0.22707,0.32502,0.11931
1700767212468750,-9.18377,0.811777,3.302873,0.26307,0.33702,0.14931
1700767212476562,-9.19277,0.797777,3.302873,0.27607,0.34602,0.9731
1700767212484375,-9.19677,0.802777,3.304873,0.21807,0.33602,0.13331
1700767212492187,-9.19677,0.795777,3.318873,0.23707,0.34902,0.18031
1700767212500000,-9.18777,0.782777,3.293873,0.22107,0.31802,0.11631
1700767212507812,-9.19677,0.791777,3.300873,0.33807,0.24702,0.14431
1700767212515625,-9.19677,0.798777,3.324873,0.35307,0.24102,0.18131
1700767212523437,-9.19677,0.805777,3.340873,0.33907,0.32402,0.8531
1700767212531250,-9.18277,0.798777,3.376873,0.35707,0.17502,0.11531
1700767212539062,-9.17177,0.784777,3.160873,0.19807,0.11898,0.22831
1700767212546875,-9.15877,0.788777,3.45873,0.8407,0.8602,0.17931
1700767212554687,-9.16577,0.833777,3.302873,0.33207,0.25102,0.17831
1700767212562500,-9.18877,0.853777,3.331873,0.39207,0.4302,0.4931
1700767212570312,-9.21477,0.825777,3.205873,0.28007,0.1102,0.11531
1700767212578125,-9.18777,0.820777,3.223873,0.18007,0.33902,0.16731
1700767212585937,-9.16977,0.813777,3.259873,0.20407,0.38502,0.6931
1700767212593750,-9.18877,0.833777,3.345873,0.32907,0.32002,0.6731
1700767212601562,-9.20177,0.825777,3.367873,0.40007,0.34202,0.5331
1700767212609375,-9.18777,0.807777,3.342873,0.42507,0.30402,0.1469
1700767212617187,-9.17677,0.798777,3.295873,0.32707,0.19102,0.3531
1700767212625000,-9.16977,0.785777,3.279873,0.35507,0.17802,0.431
1700767212632812,-9.16077,0.804777,3.275873,0.34307,0.22402,0.1931
1700767212640625,-9.15577,0.807777,3.268873,0.33607,0.14602,0.10131
1700767212648437,-9.16577,0.804777,3.266873,0.18407,0.17402,0.13331
1700767212656250,-9.19677,0.807777,3.268873,0.7307,0.12502,0.21531
1700767212664062,-9.20077,0.805777,3.241873,0.9907,0.11202,0.21631
1700767212671875,-9.21677,0.807777,3.227873,0.9507,0.5502,0.19631
1700767212679687,-9.21477,0.810777,3.216873,0.7007,0.22602,0.16931
1700767212687500,-9.21677,0.823777,3.212873,0.10307,0.20802,0.18431
1700767212695312,-9.21277,0.821777,3.223873,0.9807,0.32602,0.18631
1700767212703125,-9.21477,0.820777,3.232873,0.7207,0.37102,0.20131
1700767212710937,-9.21677,0.814777,3.236873,0.8807,0.38702,0.15231
1700767212718750,-9.20777,0.801777,3.254873,0.9307,0.41002,0.23631
1700767212726562,-9.20377,0.810777,3.216873,0.7807,0.37602,0.26831
1700767212734375,-9.18777,0.800777,3.207873,0.10307,0.32102,0.21631
1700767212742187,-9.18277,0.800777,3.207873,0.13607,0.33802,0.15131
1700767212750000,-9.18277,0.807777,3.225873,0.11707,0.35602,0.18431
1700767212757812,-9.18777,0.806777,3.245873,0.20407,0.38302,0.16531
1700767212765625,-9.19677,0.802777,3.263873,0.18307,0.36902,0.21531
1700767212773437,-9.21077,0.805777,3.259873,0.10607,0.32002,0.18331
1700767212781250,-9.20577,0.807777,3.216873,0.14207,0.41402,0.21431
1700767212789062,-9.20377,0.815777,3.182873,0.14307,0.56102,0.18231
1700767212796875,-9.19677,0.818777,3.327873,0.8707,0.63102,0.21831
1700767212804687,-9.21277,0.809777,3.331873,0.13707,0.54802,0.23231
1700767212812500,-9.20577,0.818777,3.261873,0.32307,0.46902,0.15031
1700767212820312,-9.19277,0.818777,3.261873,0.19607,0.55102,0.21731
1700767212828125,-9.19277,0.825777,3.304873,0.8407,0.47002,0.23431
1700767212835937,-9.19277,0.829777,3.331873,0.19607,0.43602,0.21631
1700767212843750,-9.18577,0.811777,3.318873,0.27407,0.41202,0.8231
1700767212851562,-9.17877,0.813777,3.263873,0.19707,0.51802,0.16831
1700767212859375,-9.17077,0.819777,3.248873,0.27007,0.39702,0.17931
1700767212867187,-9.17877,0.815777,3.281873,0.21607,0.43402,0.19831
1700767212875000,-9.19777,0.829777,3.297873,0.31407,0.35102,0.16331
1700767212882812,-9.19077,0.824777,3.281873,0.34007,0.48402,0.18231
1700767212890625,-9.18777,0.825777,3.272873,0.32107,0.38902,0.19931
1700767212898437,-9.19477,0.822777,3.268873,0.27807,0.46802,0.13431
1700767212906250,-9.17877,0.800777,3.268873,0.23007,0.41902,0.19831
1700767212914062,-9.16977,0.804777,3.261873,0.11007,0.39802,0.23031
1700767212921875,-9.18777,0.807777,3.257873,0.20107,0.40102,0.21431
1700767212929687,-9.18577,0.820777,3.266873,0.24907,0.36702,0.22931
1700767212937500,-9.17877,0.811777,3.272873,0.21107,0.38902,0.18431
1700767212945312,-9.18577,0.818777,3.277873,0.19907,0.46602,0.24731
1700767212953125,-9.19077,0.820777,3.270873,0.27907,0.40102,0.19731
1700767212960937,-9.19477,0.809777,3.266873,0.11807,0.48502,0.18531
1700767212968750,-9.19277,0.822777,3.272873,0.23207,0.46602,0.18231
1700767212976562,-9.19877,0.813777,3.281873,0.23207,0.35202,0.23031
1700767212984375,-9.19677,0.805777,3.275873,0.18307,0.38602,0.23131
1700767212992187,-9.19877,0.807777,3.277873,0.16907,0.38402,0.21431
1700767213000000,-9.19677,0.806777,3.279873,0.20607,0.34802,0.22831
1700767213007812,-9.19977,0.820777,3.277873,0.23007,0.41902,0.21531
1700767213015625,-9.19177,0.809777,3.270873,0.27207,0.37402,0.20031
1700767213023437,-9.19277,0.813777,3.270873,0.21507,0.45102,0.16731
1700767213031250,-9.19977,0.816777,3.281873,0.15707,0.40002,0.14931
1700767213039062,-9.19677,0.818777,3.279873,0.10907,0.31702,0.23031
1700767213046875,-9.19477,0.811777,3.277873,0.20307,0.38302,0.21331
1700767213054687,-9.19477,0.800777,3.286873,0.22707,0.33902,0.18331
1700767213062500,-9.18777,0.796777,3.281873,0.19807,0.45302,0.13531
1700767213070312,-9.18277,0.796777,3.268873,0.22307,0.39102,0.20131
1700767213078125,-9.18077,0.811777,3.288873,0.13707,0.43502,0.15131
1700767213085937,-9.17877,0.820777,3.270873,0.24407,0.42002,0.19931
1700767213093750,-9.17877,0.813777,3.261873,0.25207,0.34902,0.19631
1700767213101562,-9.17877,0.820777,3.250873,0.28407,0.34902,0.17931
1700767213109375,-9.17277,0.819777,3.250873,0.23807,0.31502,0.21131
1700767213117187,-9.18577,0.813777,3.263873,0.23007,0.35302,0.24631
1700767213125000,-9.19277,0.813777,3.272873,0.20307,0.31802,0.19731
1700767213132812,-9.19277,0.820777,3.281873,0.15607,0.25202,0.22931
1700767213140625,-9.19677,0.816777,3.277873,0.22807,0.35402,0.21531
1700767213148437,-9.19277,0.818777,3.290873,0.19407,0.27502,0.21631
1700767213156250,-9.19477,0.814777,3.300873,0.21107,0.42102,0.16831
1700767213164062,-9.19877,0.809777,3.302873,0.21407,0.45102,0.21531
1700767213171875,-9.18377,0.807777,3.286873,0.21507,0.38602,0.19831
1700767213179687,-9.18777,0.809777,3.272873,0.28807,0.33902,0.26331
1700767213187500,-9.18577,0.818777,3.315873,0.32807,0.33402,0.21231
1700767213195312,-9.19477,0.827777,3.345873,0.31407,0.31602,0.22731
1700767213203125,-9.18577,0.811777,3.376873,0.36207,0.30002,0.21031
1700767213210937,-9.18077,0.802777,3.200873,0.16907,0.2502,0.24531
1700767213218750,-9.15877,0.802777,3.77873,0.7807,0.15402,0.22931
1700767213226562,-9.15477,0.826777,3.227873,0.13907,0.23702,0.21431
1700767213234375,-9.19977,0.840777,3.263873,0.29207,0.22302,0.22931
1700767213242187,-9.19077,0.844777,3.259873,0.34607,0.36602,0.19531
1700767213250000,-9.17277,0.837777,3.270873,0.35307,0.46002,0.11331
1700767213257812,-9.16377,0.826777,3.293873,0.35807,0.50002,0.16531
1700767213265625,-9.18077,0.813777,3.349873,0.37207,0.46802,0.14931
1700767213273437,-9.18277,0.791777,3.329873,0.33907,0.40402,0.16631
1700767213281250,-9.17677,0.802777,3.281873,0.36307,0.38202,0.14631
1700767213289062,-9.14977,0.811777,3.277873,0.35807,0.33702,0.10031
1700767213296875,-9.16077,0.819777,3.313873,0.34607,0.33502,0.9831
1700767213304687,-9.16377,0.826777,3.311873,0.30107,0.25302,0.6631
1700767213312500,-9.16977,0.811777,3.277873,0.17307,0.26902,0.14831
1700767213320312,-9.18377,0.815777,3.257873,0.10107,0.26502,0.13131
1700767213328125,-9.19877,0.812777,3.243873,0.10007,0.17702,0.21631
1700767213335937,-9.21077,0.818777,3.230873,0.9207,0.22002,0.23031
1700767213343750,-9.22177,0.818777,3.225873,0.7807,0.23502,0.21431
1700767213351562,-9.21777,0.818777,3.227873,0.7507,0.36802,0.23131
1700767213359375,-9.21977,0.818777,3.232873,0.9507,0.30002,0.22931
1700767213367187,-9.21077,0.816777,3.230873,0.10707,0.31902,0.23131
1700767213375000,-9.20577,0.811777,3.232873,0.13007,0.33002,0.21231
1700767213382812,-9.19977,0.811777,3.234873,0.9307,0.38302,0.23131
1700767213390625,-9.19077,0.815777,3.230873,0.10907,0.48002,0.23131
1700767213398437,-9.17177,0.806777,3.218873,0.8907,0.45102,0.21631
1700767213406250,-9.17477,0.804777,3.212873,0.9107,0.51502,0.16831
1700767213414062,-9.17677,0.797777,3.214873,0.11107,0.39802,0.18231
1700767213421875,-9.17677,0.804777,3.230873,0.9507,0.46402,0.16631
1700767213429687,-9.18977,0.802777,3.257873,0.13907,0.53002,0.19931
1700767213437500,-9.19477,0.800777,3.284873,0.16907,0.35302,0.15031
1700767213445312,-9.20577,0.807777,3.300873,0.14407,0.43002,0.16531
1700767213453125,-9.21277,0.811777,3.272873,0.13707,0.58302,0.12031
1700767213460937,-9.19777,0.831777,3.178873,0.10807,0.61402,0.7231
1700767213468750,-9.21477,0.822777,3.254873,0.10807,0.76002,0.10431
1700767213476562,-9.19977,0.818777,3.363873,0.9107,0.72702,0.16931
1700767213484375,-9.22377,0.823777,3.293873,0.18307,0.59902,0.16831
1700767213492187,-9.19977,0.829777,3.245873,0.18607,0.61302,0.16731
1700767213500000,-9.19277,0.835777,3.297873,0.7607,0.67802,0.15231
1700767213507812,-9.19477,0.845777,3.374873,0.10207,0.53402,0.18531
1700767213515625,-9.19077,0.831777,3.367873,0.10707,0.53202,0.16831
1700767213523437,-9.17677,0.818777,3.300873,0.20207,0.43402,0.11831
1700767213531250,-9.15177,0.819777,3.257873,0.15707,0.44902,0.13431
1700767213539062,-9.15877,0.817777,3.290873,0.12807,0.47902,0.19731
1700767213546875,-9.15877,0.826777,3.306873,0.9507,0.44702,0.16631
1700767213554687,-9.17277,0.826777,3.279873,0.12807,0.44602,0.19731
1700767213562500,-9.16577,0.817777,3.272873,0.15607,0.48302,0.8631
1700767213570312,-9.16077,0.819777,3.279873,0.9607,0.36502,0.16531
1700767213578125,-9.15677,0.813777,3.266873,0.14107,0.36702,0.14931
1700767213585937,-9.16077,0.804777,3.266873,0.10007,0.36302,0.16431
1700767213593750,-9.16077,0.806777,3.272873,0.9707,0.31502,0.21331
1700767213601562,-9.16777,0.812777,3.277873,0.11807,0.40902,0.19531
1700767213609375,-9.17677,0.817777,3.279873,0.24107,0.31402,0.17831
1700767213617187,-9.17477,0.822777,3.286873,0.23307,0.35202,0.16531
1700767213625000,-9.18177,0.817777,3.281873,0.20307,0.40002,0.18131
1700767213632812,-9.18577,0.809777,3.266873,0.13607,0.45102,0.20031
1700767213640625,-9.18577,0.804777,3.266873,0.9207,0.43402,0.16731
1700767213648437,-9.19877,0.809777,3.279873,0.13707,0.38602,0.15131
1700767213656250,-9.19077,0.813777,3.290873,0.19207,0.51202,0.10031
1700767213664062,-9.18777,0.815777,3.277873,0.17707,0.47902,0.10031
1700767213671875,-9.18377,0.817777,3.286873,0.17607,0.38102,0.16431
1700767213679687,-9.17677,0.820777,3.295873,0.12407,0.36802,0.13431
1700767213687500,-9.17677,0.826777,3.297873,0.13707,0.35302,0.16731
1700767213695312,-9.16977,0.817777,3.279873,0.15607,0.35002,0.21431
1700767213703125,-9.16777,0.813777,3.263873,0.8407,0.34002,0.20231
1700767213710937,-9.16977,0.813777,3.266873,0.10607,0.32002,0.15131
1700767213718750,-9.16077,0.811777,3.266873,0.9307,0.30102,0.23031
1700767213726562,-9.16577,0.822777,3.254873,0.12507,0.31702,0.19831
1700767213734375,-9.16577,0.813777,3.250873,0.11407,0.33102,0.16431
1700767213742187,-9.17477,0.815777,3.259873,0.16007,0.28202,0.22831
1700767213750000,-9.17277,0.837777,3.248873,0.20307,0.30102,0.21331
1700767213757812,-9.17277,0.829777,3.252873,0.13407,0.30502,0.23231
1700767213765625,-9.17477,0.826777,3.272873,0.15507,0.31702,0.24631
1700767213773437,-9.17677,0.826777,3.281873,0.9307,0.28402,0.26231
1700767213781250,-9.18877,0.822777,3.279873,0.9407,0.28302,0.26231
1700767213789062,-9.19477,0.818777,3.281873,0.14007,0.33402,0.24631
1700767213796875,-9.19977,0.813777,3.279873,0.14007,0.35002,0.21431
1700767213804687,-9.19177,0.807777,3.299873,0.17607,0.35802,0.20131
1700767213812500,-9.19677,0.811777,3.288873,0.16907,0.33702,0.16631
1700767213820312,-9.19677,0.813777,3.277873,0.18807,0.30102,0.18131
1700767213828125,-9.20577,0.825777,3.311873,0.29407,0.37002,0.16531
1700767213835937,-9.21277,0.816777,3.331873,0.31107,0.38502,0.16431
1700767213843750,-9.19877,0.807777,3.378873,0.32107,0.24102,0.24631
1700767213851562,-9.18777,0.799777,3.205873,0.11607,0.5002,0.32231
1700767213859375,-9.15377,0.799777,3.63873,0.7807,0.8802,0.27731
1700767213867187,-9.16977,0.822777,3.173873,0.14007,0.18602,0.26131
1700767213875000,-9.20677,0.855777,3.315873,0.34607,0.26702,0.21031
1700767213882812,-9.19377,0.875777,3.279873,0.36207,0.30002,0.22631
1700767213890625,-9.18377,0.853777,3.230873,0.29107,0.37102,0.21431
1700767213898437,-9.18577,0.824777,3.295873,0.16807,0.46602,0.23131
1700767213906250,-9.18377,0.813777,3.336873,0.23307,0.41602,0.22931
1700767213914062,-9.18377,0.808777,3.300873,0.30307,0.34702,0.21031
1700767213921875,-9.16577,0.808777,3.275873,0.33507,0.38002,0.16131
1700767213929687,-9.16077,0.817777,3.300873,0.35907,0.27202,0.8331
1700767213937500,-9.16377,0.830777,3.291873,0.22307,0.23502,0.11531
1700767213945312,-9.15977,0.830777,3.279873,0.22707,0.21402,0.22531
1700767213953125,-9.16577,0.822777,3.281873,0.12407,0.20402,0.16531
1700767213960937,-9.17477,0.813777,3.277873,0.8107,0.12002,0.19631
1700767213968750,-9.19477,0.813777,3.248873,0.6507,0.3802,0.22831
1700767213976562,-9.20177,0.820777,3.225873,0.12393,0.10302,0.26331
1700767213984375,-9.21477,0.825777,3.218873,0.2193,0.18802,0.32931
1700767213992187,-9.21377,0.833777,3.225873,0.4207,0.22302,0.27431
1700767214000000,-9.22477,0.838777,3.236873,0.5907,0.30202,0.28031
1700767214007812,-9.22377,0.829777,3.254873,0.9107,0.31902,0.23131
1700767214015625,-9.21977,0.827777,3.239873,0.4707,0.33202,0.24631
1700767214023437,-9.20577,0.820777,3.230873,0.6207,0.36502,0.29531
1700767214031250,-9.20377,0.807777,3.216873,0.11107,0.34702,0.27731
1700767214039062,-9.19977,0.811777,3.203873,0.10107,0.31002,0.29131
1700767214046875,-9.19977,0.804777,3.191873,0.11407,0.32802,0.32431
1700767214054687,-9.20177,0.802777,3.180873,0.8807,0.41802,0.24831
1700767214062500,-9.20577,0.798777,3.194873,0.9707,0.34702,0.22931
1700767214070312,-9.19977,0.809777,3.200873,0.11107,0.33102,0.27731
1700767214078125,-9.21277,0.805777,3.232873,0.9307,0.33402,0.23031
1700767214085937,-9.21277,0.800777,3.241873,0.11007,0.33402,0.14931
1700767214093750,-9.23277,0.809777,3.234873,0.13307,0.49302,0.13231
1700767214101562,-9.20677,0.829777,3.185873,0.11107,0.56002,0.21431
1700767214109375,-9.20577,0.816777,3.137873,0.7507,0.49702,0.26431
1700767214117187,-9.21477,0.802777,3.293873,0.4807,0.62402,0.29631
1700767214125000,-9.21277,0.805777,3.272873,0.7207,0.56602,0.20131
1700767214132812,-9.22177,0.814777,3.214873,0.9307,0.56202,0.23131
1700767214140625,-9.20377,0.822777,3.234873,0.10507,0.59702,0.21731
1700767214148437,-9.19777,0.837777,3.261873,0.9807,0.42802,0.21331
1700767214156250,-9.19777,0.831777,3.297873,0.10907,0.39902,0.16631
1700767214164062,-9.19677,0.820777,3.309873,0.9007,0.33702,0.18331
1700767214171875,-9.19277,0.820777,3.257873,0.10607,0.38602,0.13531
1700767214179687,-9.17677,0.818777,3.227873,0.6907,0.37302,0.13731
1700767214187500,-9.19277,0.818777,3.245873,0.9607,0.39802,0.13331
1700767214195312,-9.19677,0.820777,3.250873,0.10507,0.40202,0.20031
1700767214203125,-9.19677,0.818777,3.245873,0.8607,0.42102,0.18531
1700767214210937,-9.19877,0.814777,3.254873,0.6907,0.48602,0.20231
1700767214218750,-9.18777,0.806777,3.243873,0.4807,0.46302,0.18331
1700767214226562,-9.19077,0.802777,3.227873,0.8207,0.33102,0.19731
1700767214234375,-9.19077,0.802777,3.232873,0.8107,0.34702,0.22931
1700767214242187,-9.19677,0.811777,3.239873,0.6107,0.46502,0.21631
1700767214250000,-9.19677,0.807777,3.236873,0.10407,0.51702,0.20131
1700767214257812,-9.19877,0.807777,3.243873,0.8707,0.38702,0.23331
1700767214265625,-9.20377,0.814777,3.243873,0.8407,0.50302,0.21831
1700767214273437,-9.20077,0.805777,3.243873,0.13307,0.51802,0.23331
1700767214281250,-9.19677,0.793777,3.245873,0.19907,0.48402,0.18331
1700767214289062,-9.20577,0.794777,3.259873,0.8207,0.50402,0.21931
1700767214296875,-9.21477,0.798777,3.250873,0.9807,0.50402,0.21931
1700767214304687,-9.20977,0.796777,3.261873,0.10007,0.48702,0.20231
1700767214312500,-9.21477,0.801777,3.261873,0.11407,0.48802,0.18631
1700767214320312,-9.21477,0.805777,3.268873,0.8707,0.51802,0.16931
1700767214328125,-9.21277,0.807777,3.268873,0.10407,0.50202,0.13731
1700767214335937,-9.20577,0.805777,3.259873,0.8507,0.43702,0.20231
1700767214343750,-9.19677,0.816777,3.243873,0.10807,0.36802,0.15031
1700767214351562,-9.19477,0.811777,3.241873,0.12007,0.38702,0.11931
1700767214359375,-9.18077,0.804777,3.207873,0.11107,0.33402,0.11731
1700767214367187,-9.17877,0.813777,3.221873,0.13607,0.46902,0.7131
1700767214375000,-9.18777,0.798777,3.234873,0.11807,0.40502,0.12031
1700767214382812,-9.18077,0.816777,3.234873,0.11907,0.35602,0.10431
1700767214390625,-9.19477,0.805777,3.232873,0.8307,0.40802,0.13831
1700767214398437,-9.19177,0.805777,3.250873,0.10207,0.43802,0.15331
1700767214406250,-9.19177,0.798777,3.252873,0.8407,0.37302,0.16931
1700767214414062,-9.18577,0.800777,3.254873,0.10107,0.40502,0.18531
1700767214421875,-9.19477,0.807777,3.243873,0.8507,0.38802,0.21731
1700767214429687,-9.19877,0.805777,3.245873,0.10207,0.30602,0.18431
1700767214437500,-9.19677,0.798777,3.261873,0.13307,0.42102,0.16931
1700767214445312,-9.19677,0.805777,3.259873,0.14807,0.37402,0.13731
1700767214453125,-9.19877,0.807777,3.290873,0.17107,0.35202,0.13331
1700767214460937,-9.20177,0.813777,3.304873,0.18607,0.33502,0.19831
1700767214468750,-9.19677,0.805777,3.336873,0.18907,0.36002,0.21831
1700767214476562,-9.18077,0.798777,3.284873,0.20207,0.21502,0.23431
1700767214484375,-9.17177,0.773777,3.47873,0.7007,0.1302,0.23231
1700767214492187,-9.16977,0.782777,3.144873,0.8007,0.30002,0.21331
1700767214500000,-9.19277,0.813777,3.383873,0.23707,0.38202,0.18031
1700767214507812,-9.19677,0.809777,3.257873,0.23107,0.10902,0.16531
1700767214515625,-9.19877,0.804777,3.104873,0.12607,0.15402,0.21331
1700767214523437,-9.18077,0.800777,3.126873,0.2207,0.47002,0.21931
1700767214531250,-9.18577,0.800777,3.261873,0.9607,0.59302,0.18331
1700767214539062,-9.20377,0.811777,3.340873,0.10807,0.54702,0.16731
1700767214546875,-9.21277,0.818777,3.313873,0.22107,0.48202,0.6931
1700767214554687,-9.19877,0.814777,3.311873,0.24607,0.50202,0.5431
1700767214562500,-9.20377,0.812777,3.333873,0.21207,0.43802,0.11931
1700767214570312,-9.20377,0.796777,3.295873,0.11807,0.35602,0.13631
1700767214578125,-9.18577,0.798777,3.252873,0.21507,0.32202,0.11831
1700767214585937,-9.16977,0.804777,3.245873,0.18507,0.32002,0.15031
1700767214593750,-9.16277,0.806777,3.266873,0.9407,0.33402,0.18231
1700767214601562,-9.18777,0.804777,3.272873,0.7407,0.25402,0.23131
1700767214609375,-9.20377,0.802777,3.248873,0.7807,0.23502,0.21431
1700767214617187,-9.21077,0.807777,3.236873,0.1293,0.24902,0.27831
1700767214625000,-9.20177,0.807777,3.225873,0.9207,0.25202,0.29431
1700767214632812,-9.20077,0.805777,3.234873,0.8107,0.35802,0.23531
1700767214640625,-9.19677,0.803777,3.236873,0.6507,0.30902,0.28331
1700767214648437,-9.19677,0.794777,3.230873,0.9907,0.43702,0.26631
1700767214656250,-9.19677,0.782777,3.243873,0.9607,0.46202,0.21431
1700767214664062,-9.19877,0.785777,3.234873,0.10007,0.47002,0.25031
1700767214671875,-9.19677,0.782777,3.225873,0.8807,0.48402,0.23331
1700767214679687,-9.19877,0.787777,3.216873,0.12207,0.53002,0.28031
1700767214687500,-9.18977,0.789777,3.223873,0.17707,0.56802,0.26631
1700767214695312,-9.19477,0.789777,3.232873,0.8907,0.57902,0.32931
1700767214703125,-9.19677,0.791777,3.230873,0.12407,0.46302,0.31131
1700767214710937,-9.19877,0.775777,3.239873,0.12807,0.49302,0.27831
1700767214718750,-9.20777,0.778777,3.270873,0.17507,0.52602,0.26131
1700767214726562,-9.20777,0.800777,3.261873,0.28307,0.59302,0.22931
1700767214734375,-9.21077,0.809777,3.236873,0.25407,0.52602,0.24431
1700767214742187,-9.19877,0.809777,3.176873,0.8807,0.61502,0.20231
1700767214750000,-9.20577,0.800777,3.259873,0.10007,0.70002,0.17131
1700767214757812,-9.20377,0.798777,3.340873,0.8207,0.66802,0.18831
1700767214765625,-9.20077,0.791777,3.306873,0.10407,0.54902,0.20131
1700767214773437,-9.19177,0.794777,3.261873,0.8307,0.52102,0.17131
1700767214781250,-9.17177,0.797777,3.245873,0.10907,0.44902,0.15031
1700767214789062,-9.17477,0.806777,3.281873,0.8907,0.51702,0.16931
1700767214796875,-9.17677,0.809777,3.306873,0.8507,0.43702,0.21831
1700767214804687,-9.17477,0.804777,3.290873,0.9207,0.33502,0.19931
1700767214812500,-9.16977,0.807777,3.272873,0.8507,0.37202,0.23331
1700767214820312,-9.17677,0.804777,3.275873,0.8507,0.33902,0.24931
1700767214828125,-9.17477,0.806777,3.302873,0.10407,0.36902,0.23231
1700767214835937,-9.19677,0.805777,3.299873,0.8707,0.35402,0.21631
1700767214843750,-9.20377,0.805777,3.279873,0.10307,0.35402,0.23231
1700767214851562,-9.20177,0.807777,3.275873,0.9007,0.32002,0.18331
1700767214859375,-9.19677,0.804777,3.272873,0.7907,0.36502,0.21431
1700767214867187,-9.19877,0.807777,3.270873,0.10507,0.36902,0.20031
1700767214875000,-9.19277,0.802777,3.266873,0.9107,0.35102,0.21531
1700767214882812,-9.19677,0.789777,3.268873,0.10807,0.38302,0.23131
1700767214890625,-9.19677,0.786777,3.277873,0.9807,0.44402,0.21331
1700767214898437,-9.19677,0.782777,3.268873,0.10707,0.49702,0.26431
1700767214906250,-9.19477,0.782777,3.268873,0.9607,0.31502,0.26131
1700767214914062,-9.19177,0.784777,3.261873,0.9307,0.38102,0.27831
1700767214921875,-9.19677,0.778777,3.272873,0.10107,0.43702,0.20131
1700767214929687,-9.19677,0.786777,3.288873,0.9907,0.42802,0.18131
1700767214937500,-9.19677,0.780777,3.281873,0.10907,0.44902,0.18331
1700767214945312,-9.19677,0.787777,3.286873,0.8407,0.50302,0.21831
1700767214953125,-9.19477,0.787777,3.284873,0.11107,0.38202,0.18131
1700767214960937,-9.18977,0.793777,3.293873,0.9307,0.46502,0.19931
1700767214968750,-9.19477,0.793777,3.290873,0.21807,0.43402,0.11731
1700767214976562,-9.18977,0.800777,3.277873,0.18207,0.43602,0.16831
1700767214984375,-9.17877,0.780777,3.272873,0.9207,0.36602,0.24731
1700767214992187,-9.18777,0.785777,3.272873,0.8807,0.35402,0.18431
1700767215000000,-9.17377,0.800777,3.259873,0.12907,0.32502,0.21831
1700767215007812,-9.19677,0.807777,3.248873,0.12907,0.34902,0.6831
1700767215015625,-9.19677,0.800777,3.257873,0.15707,0.36702,0.13331
1700767215023437,-9.19677,0.805777,3.266873,0.12307,0.36802,0.18331
1700767215031250,-9.19677,0.807777,3.268873,0.10807,0.31902,0.18231
1700767215039062,-9.19677,0.805777,3.266873,0.12007,0.35302,0.23131
1700767215046875,-9.19677,0.794777,3.277873,0.11607,0.42102,0.21731
1700767215054687,-9.19677,0.782777,3.284873,0.14507,0.39702,0.16431
1700767215062500,-9.19677,0.776777,3.293873,0.9007,0.36902,0.18431
1700767215070312,-9.19677,0.778777,3.288873,0.10307,0.40302,0.21731
1700767215078125,-9.19677,0.778777,3.304873,0.15807,0.39802,0.16531
1700767215085937,-9.19677,0.805777,3.336873,0.34107,0.38802,0.8531
1700767215093750,-9.19477,0.784777,3.342873,0.31807,0.38102,0.13031
1700767215101562,-9.17877,0.784777,3.331873,0.28607,0.28202,0.17831
1700767215109375,-9.16777,0.777777,3.106873,0.16307,0.8402,0.22631
1700767215117187,-9.16277,0.770777,3.113873,0.8807,0.37602,0.17931
1700767215125000,-9.18977,0.800777,3.367873,0.20907,0.50502,0.13731
1700767215132812,-9.21977,0.807777,3.401873,0.39407,0.30002,0.16231
1700767215140625,-9.20377,0.794777,3.205873,0.26507,0.23902,0.8431
1700767215148437,-9.19377,0.760777,3.92873,0.3893,0.32802,0.18131
1700767215156250,-9.18077,0.753777,3.232873,0.6793,0.61502,0.17131
1700767215164062,-9.18777,0.789777,3.387873,0.18707,0.64402,0.21531
1700767215171875,-9.19477,0.825777,3.358873,0.33907,0.58402,0.10231
1700767215179687,-9.18577,0.825777,3.302873,0.33907,0.47102,0.5431
1700767215187500,-9.20377,0.814777,3.358873,0.35407,0.50402,0.3831
1700767215195312,-9.20077,0.805777,3.399873,0.26007,0.32502,0.631
1700767215203125,-9.19677,0.792777,3.322873,0.19907,0.34002,0.2231
1700767215210937,-9.18077,0.784777,3.239873,0.18707,0.25502,0.5331
1700767215218750,-9.16777,0.808777,3.259873,0.9507,0.30302,0.3731
1700767215226562,-9.16377,0.817777,3.281873,0.10607,0.33702,0.15131
1700767215234375,-9.17277,0.815777,3.277873,0.9607,0.30002,0.19731
1700767215242187,-9.19477,0.813777,3.268873,0.2907,0.23702,0.21531
1700767215250000,-9.19477,0.805777,3.248873,0.7007,0.27302,0.23331
1700767215257812,-9.19477,0.802777,3.248873,0.9307,0.30102,0.23031
1700767215265625,-9.17877,0.804777,3.266873,0.10907,0.31702,0.19831
1700767215273437,-9.17177,0.797777,3.263873,0.9307,0.33402,0.21431
1700767215281250,-9.18077,0.793777,3.245873,0.10907,0.33402,0.23031
1700767215289062,-9.17377,0.777777,3.252873,0.9207,0.39902,0.23131
1700767215296875,-9.18277,0.778777,3.236873,0.10507,0.35302,0.19931
1700767215304687,-9.18477,0.780777,3.245873,0.9007,0.43502,0.13631
1700767215312500,-9.19377,0.782777,3.248873,0.10507,0.41902,0.16831
1700767215320312,-9.19477,0.793777,3.252873,0.9107,0.40202,0.10331
1700767215328125,-9.19677,0.787777,3.263873,0.19707,0.43602,0.16731
1700767215335937,-9.20277,0.778777,3.272873,0.22807,0.48502,0.20031
1700767215343750,-9.21877,0.785777,3.299873,0.24207,0.48702,0.16831
1700767215351562,-9.21177,0.785777,3.299873,0.25807,0.50302,0.15231
1700767215359375,-9.21477,0.796777,3.281873,0.27807,0.55002,0.13431
1700767215367187,-9.20377,0.805777,3.223873,0.11607,0.56902,0.18631
1700767215375000,-9.19477,0.789777,3.252873,0.7007,0.58302,0.20231
1700767215382812,-9.19377,0.789777,3.356873,0.4293,0.56902,0.22131
1700767215390625,-9.19677,0.785777,3.331873,0.10407,0.50002,0.21731
1700767215398437,-9.18577,0.782777,3.268873,0.15507,0.46702,0.10231
1700767215406250,-9.16077,0.793777,3.252873,0.8407,0.57002,0.12331
1700767215414062,-9.15877,0.802777,3.286873,0.10207,0.56702,0.16931
1700767215421875,-9.17177,0.802777,3.320873,0.10407,0.43602,0.13631
1700767215429687,-9.17277,0.811777,3.331873,0.14307,0.41502,0.16531
1700767215437500,-9.16277,0.820777,3.297873,0.21007,0.45402,0.20031
1700767215445312,-9.16977,0.820777,3.297873,0.17907,0.39002,0.15231
1700767215453125,-9.17677,0.813777,3.311873,0.13607,0.36902,0.19931
1700767215460937,-9.19277,0.807777,3.311873,0.13507,0.36902,0.26431
1700767215468750,-9.18377,0.804777,3.286873,0.17407,0.34902,0.19731
1700767215476562,-9.17477,0.795777,3.288873,0.10107,0.31202,0.21131
1700767215484375,-9.17477,0.809777,3.279873,0.13807,0.33702,0.13431
1700767215492187,-9.17677,0.802777,3.284873,0.9407,0.36802,0.8631
1700767215500000,-9.18077,0.802777,3.281873,0.13407,0.37202,0.13631
1700767215507812,-9.18977,0.789777,3.281873,0.10307,0.42102,0.8831
1700767215515625,-9.19477,0.800777,3.286873,0.18007,0.42102,0.18431
1700767215523437,-9.17877,0.795777,3.295873,0.13607,0.43502,0.20031
1700767215531250,-9.19677,0.794777,3.299873,0.11707,0.43802,0.16931
1700767215539062,-9.18777,0.793777,3.293873,0.15107,0.38702,0.16831
1700767215546875,-9.19177,0.796777,3.286873,0.12007,0.40202,0.21631
1700767215554687,-9.18777,0.796777,3.288873,0.8807,0.42002,0.13631
1700767215562500,-9.18977,0.789777,3.304873,0.11807,0.46902,0.21731
1700767215570312,-9.19477,0.802777,3.311873,0.23107,0.37102,0.10231
1700767215578125,-9.18977,0.802777,3.302873,0.15607,0.38302,0.18231
1700767215585937,-9.19477,0.793777,3.299873,0.15607,0.40002,0.16631
1700767215593750,-9.19877,0.805777,3.297873,0.13007,0.44002,0.13831
1700767215601562,-9.18077,0.804777,3.306873,0.9107,0.48302,0.16831
1700767215609375,-9.17677,0.806777,3.288873,0.15607,0.39902,0.19831
1700767215617187,-9.17877,0.800777,3.284873,0.9007,0.50102,0.12031
1700767215625000,-9.17677,0.800777,3.286873,0.9807,0.48902,0.15531
1700767215632812,-9.16977,0.807777,3.286873,0.8807,0.42002,0.16831
1700767215640625,-9.16977,0.795777,3.279873,0.13807,0.37002,0.11831
1700767215648437,-9.17177,0.800777,3.281873,0.17307,0.31802,0.16531
1700767215656250,-9.17177,0.793777,3.293873,0.9007,0.33702,0.18331
1700767215664062,-9.17677,0.805777,3.304873,0.9907,0.32402,0.21731
1700767215671875,-9.16277,0.800777,3.299873,0.11407,0.34202,0.18631
1700767215679687,-9.17677,0.802777,3.302873,0.21307,0.37102,0.18331
1700767215687500,-9.18077,0.803777,3.320873,0.8107,0.39302,0.13931
1700767215695312,-9.18077,0.798777,3.327873,0.14807,0.37402,0.13731
1700767215703125,-9.18077,0.793777,3.327873,0.21307,0.34002,0.11931
1700767215710937,-9.17677,0.791777,3.311873,0.24407,0.35402,0.19831
1700767215718750,-9.18777,0.791777,3.342873,0.26407,0.31902,0.21331
1700767215726562,-9.18977,0.809777,3.372873,0.32507,0.33702,0.19731
1700767215734375,-9.17877,0.793777,3.381873,0.30507,0.29002,0.23031
1700767215742187,-9.16877,0.771777,3.272873,0.19507,0.6202,0.21431
1700767215750000,-9.16277,0.775777,3.63873,0.593,0.17402,0.23231
1700767215757812,-9.16277,0.811777,3.257873,0.8007,0.50602,0.22031
1700767215765625,-9.19477,0.833777,3.450873,0.35807,0.33702,0.10031
1700767215773437,-9.19977,0.824777,3.300873,0.27007,0.8702,0.17731
1700767215781250,-9.18577,0.791777,3.106873,0.7307,0.15802,0.23131
1700767215789062,-9.16677,0.767777,3.169873,0.12293,0.52202,0.22231
1700767215796875,-9.16977,0.782777,3.372873,0.8507,0.63402,0.15531
1700767215804687,-9.18777,0.825777,3.399873,0.33207,0.47302,0.18431
1700767215812500,-9.17677,0.840777,3.318873,0.35907,0.33602,0.16331
1700767215820312,-9.17477,0.820777,3.333873,0.33407,0.37502,0.13531
1700767215828125,-9.19677,0.816777,3.378873,0.33907,0.34002,0.8531
1700767215835937,-9.19477,0.807777,3.354873,0.16007,0.25102,0.14831
1700767215843750,-9.16977,0.791777,3.275873,0.12307,0.23902,0.13431
1700767215851562,-9.16077,0.811777,3.270873,0.9707,0.20302,0.8431
1700767215859375,-9.16077,0.815777,3.290873,0.10707,0.30202,0.21431
1700767215867187,-9.17177,0.802777,3.302873,0.8107,0.24502,0.18631
1700767215875000,-9.17877,0.802777,3.295873,0.10307,0.12602,0.19931
1700767215882812,-9.19477,0.800777,3.270873,0.8907,0.24002,0.16731
1700767215890625,-9.19477,0.793777,3.250873,0.9007,0.35302,0.18331
1700767215898437,-9.17877,0.802777,3.257873,0.9007,0.30402,0.19931
1700767215906250,-9.18277,0.798777,3.259873,0.8607,0.37202,0.18531
1700767215914062,-9.17877,0.798777,3.263873,0.8307,0.29102,0.26631
1700767215921875,-9.18077,0.795777,3.268873,0.10407,0.28702,0.26331
1700767215929687,-9.17377,0.785777,3.245873,0.8007,0.32702,0.21931
1700767215937500,-9.19177,0.787777,3.250873,0.10307,0.33802,0.23231
1700767215945312,-9.19377,0.785777,3.257873,0.8707,0.33802,0.23231
1700767215953125,-9.19677,0.785777,3.266873,0.11407,0.37302,0.26631
1700767215960937,-9.19677,0.787777,3.266873,0.24107,0.35502,0.28031
1700767215968750,-9.20377,0.782777,3.268873,0.21807,0.33402,0.22931
1700767215976562,-9.21677,0.783777,3.295873,0.13407,0.42002,0.21631
1700767215984375,-9.21877,0.778777,3.293873,0.23007,0.38602,0.21431
1700767215992187,-9.22377,0.801777,3.281873,0.19507,0.48702,0.18531
1700767216000000,-9.20177,0.807777,3.207873,0.21207,0.48502,0.20031
1700767216007812,-9.20077,0.805777,3.275873,0.507,0.56802,0.22031
1700767216015625,-9.19877,0.793777,3.374873,0.9307,0.52902,0.24731
1700767216023437,-9.20777,0.803777,3.318873,0.10307,0.33802,0.23231
1700767216031250,-9.19277,0.807777,3.270873,0.13507,0.43602,0.16831
1700767216039062,-9.16977,0.798777,3.279873,0.7707,0.37702,0.22031
1700767216046875,-9.16277,0.808777,3.315873,0.10807,0.36802,0.16731
1700767216054687,-9.17177,0.802777,3.324873,0.6607,0.37402,0.21931
1700767216062500,-9.18277,0.789777,3.331873,0.16507,0.47102,0.12031
1700767216070312,-9.16277,0.795777,3.295873,0.18507,0.35302,0.13431
1700767216078125,-9.16777,0.800777,3.297873,0.16707,0.46802,0.18331
1700767216085937,-9.18077,0.802777,3.327873,0.16807,0.40202,0.19931
1700767216093750,-9.17177,0.798777,3.320873,0.10407,0.37102,0.16831
1700767216101562,-9.17677,0.800777,3.293873,0.10707,0.33502,0.21531
1700767216109375,-9.17477,0.804777,3.297873,0.9207,0.31902,0.19931
1700767216117187,-9.17677,0.800777,3.290873,0.10307,0.33802,0.21631
1700767216125000,-9.18077,0.802777,3.279873,0.8407,0.35702,0.18531
1700767216132812,-9.19177,0.796777,3.279873,0.12207,0.33502,0.23131
1700767216140625,-9.18577,0.793777,3.279873,0.10507,0.36902,0.21631
1700767216148437,-9.18377,0.795777,3.272873,0.9607,0.33302,0.16531
1700767216156250,-9.19677,0.800777,3.293873,0.16607,0.40402,0.16731
1700767216164062,-9.19877,0.785777,3.295873,0.17707,0.37302,0.21731
1700767216171875,-9.19177,0.780777,3.302873,0.15207,0.43502,0.16731
1700767216179687,-9.19177,0.785777,3.281873,0.9607,0.36002,0.18731
1700767216187500,-9.18977,0.792777,3.279873,0.13007,0.37502,0.15331
1700767216195312,-9.18577,0.805777,3.281873,0.12007,0.43602,0.13631
1700767216203125,-9.18777,0.807777,3.281873,0.10807,0.33502,0.16631
1700767216210937,-9.19477,0.794777,3.299873,0.11807,0.38702,0.21631
1700767216218750,-9.19677,0.787777,3.293873,0.10107,0.42102,0.20131
1700767216226562,-9.19677,0.794777,3.299873,0.15307,0.36902,0.16731
1700767216234375,-9.19677,0.798777,3.295873,0.8707,0.42002,0.20131
1700767216242187,-9.19677,0.803777,3.299873,0.9707,0.39302,0.13931
1700767216250000,-9.19677,0.794777,3.297873,0.8007,0.41002,0.9131
1700767216257812,-9.18977,0.791777,3.281873,0.10307,0.35602,0.13631
1700767216265625,-9.18077,0.793777,3.284873,0.13507,0.37202,0.8831
1700767216273437,-9.17877,0.791777,3.270873,0.14307,0.36002,0.17031
1700767216281250,-9.18077,0.787777,3.261873,0.8107,0.39202,0.15531
1700767216289062,-9.18077,0.787777,3.266873,0.9307,0.34402,0.23631
1700767216296875,-9.18777,0.796777,3.270873,0.11507,0.29102,0.21731
1700767216304687,-9.17377,0.802777,3.268873,0.8207,0.30902,0.18631
1700767216312500,-9.17377,0.800777,3.270873,0.10207,0.30602,0.18431
1700767216320312,-9.17377,0.785777,3.268873,0.10007,0.32402,0.20131
1700767216328125,-9.17377,0.798777,3.295873,0.15207,0.32002,0.23131
1700767216335937,-9.17677,0.793777,3.295873,0.15207,0.33702,0.21531
1700767216343750,-9.18277,0.791777,3.295873,0.9907,0.29102,0.23331
1700767216351562,-9.18977,0.771777,3.297873,0.10707,0.31902,0.21531
1700767216359375,-9.17577,0.773777,3.281873,0.13207,0.32302,0.23231
1700767216367187,-9.18677,0.774777,3.306873,0.14607,0.30802,0.21731
1700767216375000,-9.19877,0.796777,3.351873,0.24007,0.34102,0.21631
1700767216382812,-9.19377,0.778777,3.363873,0.28907,0.29202,0.15031
1700767216390625,-9.18077,0.771777,3.320873,0.18207,0.11002,0.18231
1700767216398437,-9.18477,0.753777,3.88873,0.10407,0.5902,0.24631
1700767216406250,-9.18077,0.771777,3.178873,0.9007,0.35102,0.24731
1700767216414062,-9.20177,0.815777,3.419873,0.30207,0.39602,0.21031
1700767216421875,-9.20877,0.818777,3.349873,0.36107,0.15402,0.19431
1700767216429687,-9.20977,0.796777,3.135873,0.21507,0.2702,0.19631
1700767216437500,-9.19377,0.758777,3.155873,0.1507,0.30102,0.21531
1700767216445312,-9.17577,0.767777,3.324873,0.8207,0.52002,0.25131
1700767216453125,-9.19677,0.809777,3.410873,0.34807,0.41402,0.16231
1700767216460937,-9.21077,0.825777,3.320873,0.34207,0.35402,0.13231
1700767216468750,-9.20177,0.816777,3.320873,0.34807,0.38202,0.8231
1700767216476562,-9.19677,0.803777,3.378873,0.27607,0.33802,0.16631
1700767216484375,-9.20577,0.798777,3.349873,0.23207,0.27002,0.22931
1700767216492187,-9.18277,0.780777,3.272873,0.15007,0.22502,0.18331
1700767216500000,-9.16077,0.795777,3.250873,0.20707,0.28402,0.14731
1700767216507812,-9.16577,0.806777,3.275873,0.7207,0.30502,0.20031
1700767216515625,-9.17477,0.804777,3.277873,0.10807,0.22102,0.18231
1700767216523437,-9.18977,0.798777,3.270873,0.5107,0.21102,0.21831
1700767216531250,-9.19877,0.776777,3.243873,0.10207,0.19202,0.21631
1700767216539062,-9.19377,0.778777,3.236873,0.9007,0.22202,0.23131
1700767216546875,-9.17877,0.784777,3.234873,0.10307,0.27202,0.21631
1700767216554687,-9.18077,0.782777,3.241873,0.8707,0.27202,0.24831
1700767216562500,-9.17377,0.789777,3.234873,0.10507,0.32002,0.23131
1700767216570312,-9.17377,0.780777,3.239873,0.8507,0.33902,0.21731
1700767216578125,-9.19177,0.769777,3.236873,0.10407,0.32002,0.24831
1700767216585937,-9.20077,0.772777,3.239873,0.5407,0.33902,0.23331
1700767216593750,-9.20077,0.769777,3.232873,0.13807,0.35202,0.21431
1700767216601562,-9.20777,0.771777,3.239873,0.17107,0.35002,0.21331
1700767216609375,-9.20077,0.769777,3.241873,0.18107,0.37102,0.23231
1700767216617187,-9.21677,0.765777,3.261873,0.18507,0.41702,0.19831
1700767216625000,-9.22077,0.759777,3.266873,0.19607,0.47102,0.13631
1700767216632812,-9.23177,0.761777,3.263873,0.18007,0.38902,0.16831
1700767216640625,-9.22577,0.767777,3.221873,0.24407,0.43602,0.19931
1700767216648437,-9.21477,0.778777,3.185873,0.20007,0.46602,0.19931
1700767216656250,-9.21877,0.777777,3.329873,0.12607,0.58902,0.17231
1700767216664062,-9.21177,0.776777,3.308873,0.12307,0.54702,0.21531
1700767216671875,-9.21177,0.778777,3.261873,0.16607,0.48402,0.23231
1700767216679687,-9.18277,0.798777,3.245873,0.10007,0.50302,0.23431
1700767216687500,-9.17377,0.800777,3.275873,0.10307,0.37102,0.21631
1700767216695312,-9.18977,0.791777,3.311873,0.7307,0.43502,0.23331
1700767216703125,-9.18977,0.800777,3.324873,0.16407,0.33902,0.20031
1700767216710937,-9.18077,0.800777,3.293873,0.23407,0.31802,0.21331
1700767216718750,-9.17877,0.804777,3.266873,0.11107,0.41302,0.26231
1700767216726562,-9.17477,0.804777,3.288873,0.10607,0.36802,0.23131
1700767216734375,-9.18777,0.807777,3.293873,0.9307,0.36802,0.11831
1700767216742187,-9.18777,0.798777,3.277873,0.10607,0.43302,0.24831
1700767216750000,-9.18777,0.782777,3.263873,0.9007,0.45102,0.15231
1700767216757812,-9.20077,0.785777,3.268873,0.10507,0.43502,0.18431
1700767216765625,-9.18777,0.782777,3.261873,0.9007,0.45102,0.16831
1700767216773437,-9.18277,0.784777,3.266873,0.10507,0.36902,0.20031
1700767216781250,-9.17877,0.775777,3.266873,0.9307,0.35202,0.13431
1700767216789062,-9.17377,0.773777,3.270873,0.14607,0.36302,0.18031
1700767216796875,-9.17877,0.780777,3.268873,0.13607,0.40202,0.19931
1700767216804687,-9.19177,0.767777,3.268873,0.11007,0.35002,0.15031
1700767216812500,-9.19677,0.769777,3.275873,0.25607,0.41202,0.16331
1700767216820312,-9.19677,0.764777,3.266873,0.23707,0.36602,0.14831
1700767216828125,-9.19577,0.765777,3.268873,0.13907,0.35202,0.16631
1700767216835937,-9.20277,0.765777,3.266873,0.13807,0.40102,0.21531
1700767216843750,-9.20277,0.765777,3.270873,0.14107,0.41602,0.16631
1700767216851562,-9.19677,0.778777,3.275873,0.8607,0.32302,0.21731
1700767216859375,-9.19677,0.780777,3.266873,0.11107,0.33202,0.21331
1700767216867187,-9.19677,0.785777,3.281873,0.9207,0.35202,0.18331
1700767216875000,-9.19677,0.782777,3.281873,0.10707,0.38402,0.19931
1700767216882812,-9.19877,0.780777,3.277873,0.19907,0.35302,0.23131
1700767216890625,-9.19377,0.785777,3.279873,0.18107,0.38702,0.21631
1700767216898437,-9.19477,0.798777,3.268873,0.27407,0.42102,0.16731
1700767216906250,-9.19177,0.796777,3.263873,0.15007,0.40302,0.18431
1700767216914062,-9.19177,0.793777,3.263873,0.20307,0.41602,0.18131
1700767216921875,-9.18477,0.792777,3.250873,0.15807,0.32702,0.23431
1700767216929687,-9.18577,0.789777,3.266873,0.12207,0.33702,0.15131
1700767216937500,-9.16977,0.793777,3.261873,0.12707,0.31602,0.21331
1700767216945312,-9.18777,0.793777,3.266873,0.10207,0.32902,0.17931
1700767216953125,-9.19277,0.793777,3.272873,0.11607,0.31202,0.22731
1700767216960937,-9.18977,0.789777,3.270873,0.9207,0.30102,0.26231
1700767216968750,-9.19977,0.795777,3.272873,0.11607,0.32802,0.22731
1700767216976562,-9.19277,0.789777,3.272873,0.11407,0.31302,0.24431
1700767216984375,-9.19677,0.775777,3.281873,0.9507,0.33202,0.21431
1700767216992187,-9.19677,0.773777,3.288873,0.15307,0.40102,0.23131
1700767217000000,-9.19777,0.761777,3.277873,0.22307,0.37502,0.16931
1700767217007812,-9.18977,0.771777,3.266873,0.13607,0.41902,0.18331
1700767217015625,-9.18977,0.789777,3.318873,0.32807,0.36702,0.19631
1700767217023437,-9.19677,0.794777,3.324873,0.33807,0.38702,0.19831
1700767217031250,-9.19177,0.778777,3.349873,0.28407,0.23502,0.21131
1700767217039062,-9.17577,0.766777,3.209873,0.9507,0.2302,0.22831
1700767217046875,-9.17177,0.769777,3.49873,0.2607,0.15702,0.21631
1700767217054687,-9.18777,0.809777,3.281873,0.24907,0.41602,0.22931
1700767217062500,-9.20877,0.838777,3.383873,0.37107,0.28902,0.18031
1700767217070312,-9.20377,0.815777,3.200873,0.30307,0.11902,0.17731
1700767217078125,-9.21477,0.783777,3.108873,0.8907,0.19002,0.19931
1700767217085937,-9.17777,0.760777,3.205873,0.6007,0.49902,0.16831
1700767217093750,-9.17377,0.793777,3.333873,0.13507,0.54902,0.21731
1700767217101562,-9.19477,0.822777,3.333873,0.34207,0.33702,0.13231
1700767217109375,-9.19877,0.818777,3.279873,0.32607,0.33902,0.5231
1700767217117187,-9.20177,0.816777,3.311873,0.27907,0.40302,0.10131
1700767217125000,-9.20077,0.787777,3.327873,0.12107,0.35502,0.11931
1700767217132812,-9.20277,0.765777,3.286873,0.10607,0.27302,0.8731
1700767217140625,-9.18277,0.784777,3.245873,0.9707,0.25202,0.6831
1700767217148437,-9.17677,0.813777,3.245873,0.16507,0.27602,0.8731
1700767217156250,-9.17677,0.813777,3.263873,0.15907,0.26702,0.19631
1700767217164062,-9.19277,0.800777,3.272873,0.9907,0.20002,0.18031
1700767217171875,-9.19677,0.785777,3.266873,0.5407,0.24202,0.16931
1700767217179687,-9.19677,0.778777,3.221873,0.1607,0.18602,0.21431
1700767217187500,-9.20577,0.791777,3.209873,0.7507,0.23802,0.19931
1700767217195312,-9.20177,0.798777,3.218873,0.10107,0.24802,0.16331
1700767217203125,-9.19677,0.793777,3.212873,0.10707,0.36802,0.18331
1700767217210937,-9.19477,0.782777,3.223873,0.9307,0.36702,0.19831
1700767217218750,-9.19677,0.775777,3.232873,0.11107,0.38202,0.16531
1700767217226562,-9.19677,0.778777,3.230873,0.9307,0.33402,0.21431
1700767217234375,-9.20777,0.772777,3.230873,0.10307,0.32102,0.23231
1700767217242187,-9.20977,0.769777,3.232873,0.9107,0.33502,0.21531
1700767217250000,-9.21377,0.774777,3.236873,0.11807,0.40302,0.23331
1700767217257812,-9.21177,0.771777,3.227873,0.25007,0.31802,0.21231
1700767217265625,-9.21377,0.765777,3.236873,0.20107,0.38502,0.18231
1700767217273437,-9.22977,0.770777,3.241873,0.20107,0.35202,0.19831
1700767217281250,-9.22077,0.772777,3.200873,0.11907,0.30502,0.23231
1700767217289062,-9.21877,0.783777,3.149873,0.8807,0.46902,0.15331
1700767217296875,-9.21477,0.783777,3.297873,0.10107,0.60102,0.12231
1700767217304687,-9.21877,0.783777,3.324873,0.8907,0.58202,0.16931
1700767217312500,-9.22177,0.800777,3.243873,0.26507,0.43402,0.11731
1700767217320312,-9.20577,0.802777,3.232873,0.17607,0.41302,0.16431
1700767217328125,-9.19277,0.791777,3.266873,0.8007,0.44702,0.13431
1700767217335937,-9.19677,0.805777,3.309873,0.10807,0.41702,0.13531
1700767217343750,-9.19877,0.798777,3.313873,0.7107,0.33802,0.23331
1700767217351562,-9.20177,0.802777,3.290873,0.15407,0.40202,0.11931
1700767217359375,-9.19177,0.793777,3.252873,0.15507,0.31902,0.18231
1700767217367187,-9.17677,0.791777,3.254873,0.18707,0.44902,0.19831
1700767217375000,-9.19177,0.789777,3.284873,0.18707,0.41602,0.18131
1700767217382812,-9.18977,0.798777,3.279873,0.10207,0.46902,0.20131
1700767217390625,-9.18777,0.795777,3.257873,0.12207,0.49902,0.16731
1700767217398437,-9.18077,0.782777,3.266873,0.13207,0.37202,0.21731
1700767217406250,-9.17877,0.784777,3.261873,0.14307,0.38202,0.14931
1700767217414062,-9.17377,0.778777,3.257873,0.8907,0.33602,0.21631
1700767217421875,-9.17777,0.778777,3.243873,0.9707,0.32502,0.23431
1700767217429687,-9.19177,0.785777,3.252873,0.8907,0.33602,0.23231
1700767217437500,-9.19377,0.782777,3.259873,0.16607,0.32202,0.19931
1700767217445312,-9.19677,0.778777,3.254873,0.15207,0.33702,0.21531
1700767217453125,-9.19877,0.780777,3.252873,0.15207,0.32002,0.23131
1700767217460937,-9.19677,0.773777,3.261873,0.17307,0.33402,0.16531
1700767217468750,-9.19877,0.780777,3.266873,0.7107,0.37002,0.23331
1700767217476562,-9.20077,0.769777,3.268873,0.10707,0.31902,0.19831
1700767217484375,-9.20277,0.774777,3.275873,0.9107,0.35302,0.15131
1700767217492187,-9.19877,0.787777,3.270873,0.13207,0.35702,0.12031
1700767217500000,-9.20977,0.791777,3.275873,0.17107,0.36802,0.13431
1700767217507812,-9.21277,0.793777,3.270873,0.8107,0.36502,0.13331
1700767217515625,-9.21477,0.785777,3.275873,0.15807,0.33402,0.11731
1700767217523437,-9.21477,0.794777,3.281873,0.15107,0.35602,0.8731
1700767217531250,-9.20977,0.782777,3.272873,0.9507,0.33402,0.15031
1700767217539062,-9.19877,0.792777,3.268873,0.10007,0.43902,0.12131
1700767217546875,-9.19677,0.785777,3.257873,0.8707,0.38702,0.20131
1700767217554687,-9.19377,0.776777,3.245873,0.10407,0.38702,0.13631
1700767217562500,-9.17877,0.776777,3.230873,0.8807,0.42002,0.15231
1700767217570312,-9.18277,0.778777,3.248873,0.9007,0.36902,0.18431
1700767217578125,-9.18077,0.778777,3.241873,0.10807,0.41702,0.13531
1700767217585937,-9.18277,0.775777,3.254873,0.14107,0.28602,0.10131
1700767217593750,-9.18477,0.780777,3.261873,0.16907,0.35302,0.15031
1700767217601562,-9.18077,0.778777,3.266873,0.14807,0.29202,0.13631
1700767217609375,-9.17877,0.785777,3.266873,0.11807,0.32302,0.16831
1700767217617187,-9.19377,0.783777,3.286873,0.10207,0.33902,0.16831
1700767217625000,-9.18977,0.782777,3.284873,0.15407,0.30202,0.21431
1700767217632812,-9.19677,0.776777,3.290873,0.15307,0.30602,0.10231
1700767217640625,-9.18977,0.773777,3.288873,0.13707,0.23802,0.19831
1700767217648437,-9.19577,0.772777,3.266873,0.11307,0.27602,0.23431
1700767217656250,-9.19877,0.778777,3.304873,0.27407,0.27402,0.23031
1700767217664062,-9.20577,0.803777,3.331873,0.24507,0.25602,0.18231
1700767217671875,-9.20077,0.780777,3.342873,0.35507,0.28902,0.18131
1700767217679687,-9.19877,0.760777,3.297873,0.17407,0.7598,0.22631
1700767217687500,-9.20277,0.751777,3.63873,0.10007,0.9498,0.21031
1700767217695312,-9.18077,0.771777,3.194873,0.10707,0.23702,0.23031
1700767217703125,-9.20377,0.809777,3.394873,0.34407,0.22102,0.17931
1700767217710937,-9.22577,0.803777,3.275873,0.31107,0.5802,0.21131
1700767217718750,-9.23277,0.774777,3.153873,0.14007,0.5702,0.21231
1700767217726562,-9.20777,0.769777,3.196873,0.3907,0.29002,0.20131
1700767217734375,-9.17377,0.771777,3.257873,0.18507,0.40202,0.13431
1700767217742187,-9.19477,0.807777,3.329873,0.36207,0.35102,0.8231
1700767217750000,-9.21677,0.792777,3.313873,0.34507,0.30302,0.6731
1700767217757812,-9.20977,0.785777,3.306873,0.35207,0.27702,0.5331
1700767217765625,-9.19377,0.767777,3.284873,0.35607,0.9402,0.11531
1700767217773437,-9.19377,0.760777,3.266873,0.29507,0.10902,0.8331
1700767217781250,-9.17777,0.776777,3.259873,0.25807,0.9702,0.11831
1700767217789062,-9.17377,0.791777,3.241873,0.28007,0.2702,0.8331
1700767217796875,-9.18577,0.807777,3.259873,0.23507,0.2402,0.16331
1700767217804687,-9.20277,0.781777,3.263873,0.6907,0.7802,0.23231
1700767217812500,-9.22077,0.776777,3.239873,0.7707,0.5702,0.21331
1700767217820312,-9.22077,0.772777,3.207873,0.7307,0.5902,0.23131
1700767217828125,-9.21277,0.796777,3.196873,0.8907,0.7602,0.21431
1700767217835937,-9.20577,0.798777,3.185873,0.11007,0.10502,0.21231
1700767217843750,-9.19877,0.802777,3.189873,0.10707,0.14002,0.16631
1700767217851562,-9.19677,0.802777,3.185873,0.13507,0.20702,0.21531
1700767217859375,-9.19677,0.785777,3.180873,0.9007,0.22202,0.23131
1700767217867187,-9.19877,0.785777,3.173873,0.16807,0.27102,0.21431
1700767217875000,-9.20577,0.787777,3.185873,0.17407,0.26702,0.22831
1700767217882812,-9.20777,0.783777,3.189873,0.21307,0.32202,0.19931
1700767217890625,-9.20777,0.783777,3.200873,0.14607,0.34202,0.15331
1700767217898437,-9.20277,0.787777,3.200873,0.22407,0.32402,0.23231
1700767217906250,-9.21177,0.787777,3.223873,0.21207,0.22502,0.19931
1700767217914062,-9.21477,0.787777,3.218873,0.24807,0.27102,0.14931
1700767217921875,-9.22077,0.778777,3.185873,0.15807,0.26902,0.13231
1700767217929687,-9.23077,0.791777,3.131873,0.9607,0.38202,0.14931
1700767217937500,-9.23477,0.776777,3.250873,0.11107,0.57902,0.10231
1700767217945312,-9.22977,0.777777,3.288873,0.8207,0.55502,0.12331
1700767217953125,-9.22577,0.778777,3.218873,0.12607,0.40002,0.10131
1700767217960937,-9.21877,0.785777,3.225873,0.23107,0.43702,0.7031
1700767217968750,-9.20377,0.798777,3.248873,0.12507,0.36802,0.8631
1700767217976562,-9.19677,0.805777,3.284873,0.18007,0.30802,0.12031
1700767217984375,-9.20377,0.807777,3.311873,0.24507,0.34002,0.10231
1700767217992187,-9.21077,0.805777,3.306873,0.25307,0.31802,0.8331
1700767218000000,-9.19477,0.807777,3.250873,0.26507,0.33702,0.6831
1700767218007812,-9.19477,0.800777,3.236873,0.14907,0.32502,0.10431
1700767218015625,-9.20077,0.801777,3.263873,0.20907,0.35902,0.12031
1700767218023437,-9.19677,0.809777,3.263873,0.16507,0.33902,0.16831
1700767218031250,-9.20077,0.805777,3.243873,0.16107,0.32402,0.24931
1700767218039062,-9.19677,0.798777,3.230873,0.14207,0.31802,0.11731
1700767218046875,-9.19377,0.783777,3.227873,0.14807,0.34102,0.12031
1700767218054687,-9.19177,0.776777,3.232873,0.13407,0.38902,0.12031
