time,Acceleration X (m/s^2),Acceleration Y (m/s^2),Acceleration Z (m/s^2),Angular Velocity X (rad/s),Angular Velocity Y (rad/s),Angular Velocity Z (rad/s)
1695051683140625,-9.242784,3.521994,-0.098068,,,
1695051683148437,-9.248784,3.515994,0.830238,0.100168,0.52821,0.5218
1695051683156250,-9.251784,3.512994,0.828238,0.98068,0.48321,0.13018
1695051683164062,-9.253784,3.511994,0.830238,0.100068,0.51521,0.13018
1695051683171875,-9.259784,3.511994,0.832238,0.101868,0.50021,0.19418
1695051683179687,-9.249784,3.505994,0.823238,0.99468,0.38121,0.13218
1695051683195312,-9.271784,3.499994,0.812238,0.87468,0.50421,0.19318
1695051683203125,-9.264784,3.501994,0.812238,0.87568,0.47021,0.17918
1695051683210937,-9.278784,3.490994,0.805238,0.87568,0.47321,0.25718
1695051683218750,-9.281784,3.501994,0.805238,0.91668,0.38821,0.32318
1695051683242187,-9.286784,3.491994,0.784238,0.79068,0.37821,0.38618
1695051683250000,-9.303784,3.477994,0.796238,0.80168,0.49721,0.39818
1695051683257812,-9.300784,3.473994,0.796238,0.80168,0.48021,0.39818
1695051683265625,-9.296784,3.448994,0.780238,0.82868,0.44821,0.42918
1695051683273437,-9.291784,3.430994,0.775238,0.75368,0.53321,0.42818
1695051683281250,-9.286784,3.432994,0.780238,0.78768,0.54921,0.42818
1695051683289062,-9.288784,3.426994,0.787238,0.81768,0.54721,0.39718
1695051683296875,-9.287784,3.400994,0.793238,0.74768,0.51721,0.39618
1695051683304687,-9.290784,3.401994,0.810238,0.77268,0.42921,0.38418
1695051683312500,-9.300784,3.410994,0.812238,0.73968,0.52921,0.33518
1695051683320312,-9.288784,3.408994,0.819238,0.83168,0.54421,0.31818
1695051683328125,-9.279784,3.410994,0.835238,0.83168,0.54421,0.31818
1695051683335937,-9.256784,3.394994,0.828238,0.75268,0.49121,0.22618
1695051683343750,-9.241784,3.393994,0.832238,0.82468,0.39121,0.25818
1695051683351562,-9.255784,3.423994,0.835238,0.75168,0.47721,0.27318
1695051683359375,-9.278784,3.445994,0.855238,0.76768,0.44321,0.28918
1695051683367187,-9.298784,3.452994,0.869238,0.78168,0.39521,0.35218
1695051683375000,-9.268784,3.434994,0.866238,0.75368,0.41021,0.30618
1695051683382812,-9.236784,3.403994,0.848238,0.75768,0.36121,0.37018
1695051683390625,-9.222784,3.378994,0.844238,0.76868,0.27621,0.32418
1695051683398437,-9.251784,3.379994,0.826238,0.72468,0.24421,0.35718
1695051683406250,-9.273784,3.384994,0.809238,0.71568,0.19921,0.43518
1695051683414062,-9.305784,3.396994,0.798238,0.65868,0.18321,0.45218
1695051683421875,-9.345784,3.404994,0.787238,0.58368,0.11621,0.43818
1695051683429687,-9.352784,3.405994,0.773238,0.61268,0.23921,0.54518
1695051683437500,-9.330784,3.404994,0.773238,0.54668,0.20721,0.54518
1695051683445312,-9.321784,3.412994,0.759238,0.56668,0.23821,0.49818
1695051683453125,-9.318784,3.410994,0.743238,0.66168,0.32021,0.51218
1695051683460937,-9.336784,3.422994,0.741238,0.62168,0.28821,0.56118
1695051683468750,-9.350784,3.429994,0.739238,0.57368,0.34021,0.57518
1695051683476562,-9.351784,3.441994,0.746238,0.74768,0.33521,0.56018
1695051683484375,-9.338784,3.458994,0.748238,0.70068,0.38721,0.57418
1695051683492187,-9.337784,3.453994,0.755238,0.64968,0.42221,0.55718
1695051683500000,-9.316784,3.446994,0.768238,0.77168,0.40321,0.57218
1695051683507812,-9.303784,3.427994,0.777238,0.75268,0.37021,0.55718
1695051683515625,-9.287784,3.425994,0.775238,0.76868,0.43721,0.54018
1695051683523437,-9.293784,3.408994,0.789238,0.75668,0.40021,0.47918
1695051683531250,-9.290784,3.386994,0.796238,0.80368,0.41321,0.43118
1695051683539062,-9.295784,3.384994,0.789238,0.83368,0.41321,0.43118
1695051683546875,-9.299784,3.375994,0.780238,0.85168,0.34621,0.46418
1695051683554687,-9.288784,3.356994,0.778238,0.88868,0.27621,0.38618
1695051683562500,-9.313784,3.365994,0.778238,0.93268,0.29021,0.32218
1695051683570312,-9.321784,3.353994,0.757238,0.96968,0.32321,0.35418
1695051683578125,-9.330784,3.335994,0.751238,0.96668,0.28421,0.22918
1695051683585937,-9.341784,3.322994,0.748238,0.94968,0.21821,0.24618
1695051683593750,-9.358784,3.328994,0.739238,0.92868,0.27221,0.27518
1695051683601562,-9.357784,3.329994,0.730238,0.87368,0.28621,0.21418
1695051683609375,-9.340784,3.318994,0.709238,0.95668,0.27021,0.22718
1695051683617187,-9.355784,3.297994,0.696238,0.82468,0.28821,0.21318
1695051683625000,-9.353784,3.292994,0.700238,0.75968,0.35521,0.16418
1695051683632812,-9.362784,3.306994,0.694238,0.77868,0.37121,0.16518
1695051683640625,-9.392784,3.331994,0.700238,0.82368,0.40321,0.14818
1695051683648437,-9.428784,3.359994,0.705238,0.76668,0.34921,0.5618
1695051683656250,-9.385784,3.351994,0.707238,0.77768,0.40421,0.13318
1695051683664062,-9.345784,3.341994,0.712238,0.81768,0.36921,0.10118
1695051683671875,-9.331784,3.344994,0.707238,0.76368,0.46821,0.5318
1695051683679687,-9.325784,3.349994,0.716238,0.75468,0.40321,0.6918
1695051683687500,-9.340784,3.364994,0.712238,0.76368,0.38521,0.8618
1695051683695312,-9.353784,3.376994,0.709238,0.76868,0.37021,0.16618
1695051683703125,-9.351784,3.367994,0.714238,0.76968,0.38921,0.21218
1695051683710937,-9.340784,3.382994,0.707238,0.76968,0.45721,0.22718
1695051683718750,-9.356784,3.375994,0.702238,0.76568,0.44321,0.27318
1695051683726562,-9.358784,3.374994,0.705238,0.77268,0.41021,0.33818
1695051683734375,-9.358784,3.358994,0.707238,0.75668,0.47821,0.33618
1695051683742187,-9.358784,3.365994,0.703238,0.78768,0.38021,0.41718
1695051683750000,-9.360784,3.353994,0.714238,0.80268,0.38121,0.46318
1695051683757812,-9.348784,3.329994,0.710238,0.80368,0.50121,0.50818
1695051683765625,-9.353784,3.330994,0.707238,0.87768,0.51821,0.53718
1695051683773437,-9.346784,3.303994,0.712238,0.84668,0.50121,0.52218
1695051683781250,-9.349784,3.280994,0.714238,0.87168,0.38621,0.57118
1695051683789062,-9.346784,3.277994,0.719238,0.97068,0.44921,0.55418
1695051683796875,-9.335784,3.258994,0.709238,0.91768,0.50221,0.53718
1695051683804687,-9.336784,3.250994,0.719238,0.83168,0.52021,0.56918
1695051683812500,-9.343784,3.230994,0.723238,0.84968,0.41821,0.55618
1695051683820312,-9.354784,3.207994,0.721238,0.91968,0.44821,0.49118
1695051683828125,-9.363784,3.196994,0.726238,0.78268,0.41821,0.49318
1695051683835937,-9.372784,3.172994,0.732238,0.84368,0.45021,0.47618
1695051683843750,-9.363784,3.154994,0.717238,0.82668,0.39721,0.41518
1695051683851562,-9.385784,3.150994,0.703238,0.78268,0.36521,0.43218
1695051683859375,-9.380784,3.128994,0.705238,0.79868,0.39321,0.32118
1695051683867187,-9.389784,3.108994,0.703238,0.76668,0.35921,0.29118
1695051683875000,-9.391784,3.99994,0.692238,0.79668,0.36921,0.13418
1695051683882812,-9.393784,3.72994,0.687238,0.85368,0.34621,0.818
1695051683890625,-9.406784,3.57994,0.662238,0.77768,0.42821,0.10282
1695051683898437,-9.412784,3.33994,0.651238,0.83768,0.45421,0.24382
1695051683906250,-9.427784,3.14994,0.639238,0.73468,0.48421,0.43382
1695051683914062,-9.458784,3.4994,0.630238,0.74968,0.49621,0.55982
1695051683921875,-9.474784,3.2994,0.619238,0.73268,0.53721,0.79582
1695051683929687,-9.476784,3.25994,0.626238,0.74768,0.58121,0.95282
1695051683937500,-9.459784,3.59994,0.635238,0.73968,0.60621,0.120582
1695051683945312,-9.452784,3.80994,0.628238,0.74368,0.70221,0.130082
1695051683953125,-9.436784,3.122994,0.639238,0.74168,0.74721,0.144282
1695051683960937,-9.424784,3.177994,0.650238,0.73668,0.76421,0.145982
1695051683968750,-9.401784,3.222994,0.664238,0.72568,0.77921,0.150582
1695051683976562,-9.371784,3.268994,0.673238,0.70168,0.84421,0.160282
1695051683984375,-9.351784,3.324994,0.698238,0.73868,0.84021,0.166482
1695051683992187,-9.336784,3.363994,0.696238,0.71668,0.94321,0.165182
1695051684000000,-9.325784,3.396994,0.702238,0.73168,0.91221,0.158882
1695051684007812,-9.307784,3.437994,0.712238,0.73868,0.84121,0.163282
1695051684015625,-9.285784,3.466994,0.721238,0.73768,0.86021,0.158682
1695051684023437,-9.290784,3.497994,0.730238,0.73868,0.84821,0.146082
1695051684031250,-9.272784,3.506994,0.736238,0.74068,0.89921,0.143082
1695051684039062,-9.256784,3.517994,0.732238,0.74468,0.76721,0.134882
1695051684046875,-9.265784,3.535994,0.734238,0.74268,0.72121,0.125382
1695051684054687,-9.281784,3.539994,0.732238,0.74168,0.70621,0.122282
1695051684062500,-9.279784,3.557994,0.732238,0.77368,0.70721,0.116082
1695051684070312,-9.265784,3.553994,0.734238,0.74968,0.66121,0.104782
1695051684078125,-9.268784,3.557994,0.736238,0.79468,0.61221,0.98482
1695051684085937,-9.261784,3.563994,0.716238,0.76168,0.67021,0.84582
1695051684093750,-9.263784,3.566994,0.718238,0.73468,0.60321,0.82782
1695051684101562,-9.268784,3.584994,0.723238,0.78068,0.62121,0.76582
1695051684109375,-9.275784,3.570994,0.729238,0.77968,0.67721,0.65782
1695051684117187,-9.278784,3.570994,0.722238,0.73368,0.69721,0.61182
1695051684125000,-9.266784,3.575994,0.718238,0.80268,0.68121,0.49982
1695051684132812,-9.265784,3.584994,0.727238,0.77468,0.66721,0.43682
1695051684140625,-9.280784,3.595994,0.734238,0.78568,0.65321,0.39082
1695051684148437,-9.268784,3.606994,0.739238,0.76068,0.60321,0.35682
1695051684156250,-9.251784,3.609994,0.741238,0.72368,0.66021,0.24982
1695051684164062,-9.250784,3.619994,0.743238,0.82168,0.71021,0.18782
1695051684171875,-9.236784,3.622994,0.752238,0.79568,0.64621,0.9082
1695051684179687,-9.234784,3.612994,0.766238,0.80968,0.66421,0.7582
1695051684187500,-9.241784,3.608994,0.766238,0.78068,0.66721,0.218
1695051684195312,-9.239784,3.614994,0.766238,0.81068,0.66921,0.6418
1695051684203125,-9.248784,3.610994,0.775238,0.79668,0.67321,0.15818
1695051684210937,-9.241784,3.611994,0.777238,0.81768,0.63921,0.19118
1695051684218750,-9.236784,3.613994,0.773238,0.83468,0.60921,0.28618
1695051684226562,-9.236784,3.581994,0.770238,0.81568,0.61121,0.30118
1695051684234375,-9.230784,3.560994,0.775238,0.79768,0.53021,0.36518
1695051684242187,-9.243784,3.576994,0.777238,0.81368,0.54721,0.36518
1695051684250000,-9.256784,3.584994,0.784238,0.86768,0.56421,0.36318
1695051684257812,-9.266784,3.586994,0.789238,0.89068,0.64421,0.31518
1695051684265625,-9.259784,3.563994,0.793238,0.90568,0.60921,0.30018
1695051684273437,-9.247784,3.543994,0.793238,0.81268,0.61221,0.31618
1695051684281250,-9.231784,3.516994,0.787238,0.76868,0.61221,0.30118
1695051684289062,-9.231784,3.485994,0.775238,0.75368,0.52921,0.31918
1695051684296875,-9.248784,3.472994,0.773238,0.76968,0.46021,0.30518
1695051684304687,-9.287784,3.484994,0.762238,0.77268,0.48021,0.39918
1695051684312500,-9.301784,3.486994,0.766238,0.77068,0.46221,0.35218
1695051684320312,-9.301784,3.470994,0.759238,0.76768,0.49821,0.39718
1695051684328125,-9.296784,3.463994,0.757238,0.75168,0.49721,0.35018
1695051684335937,-9.289784,3.461994,0.757238,0.69568,0.53321,0.41318
1695051684343750,-9.287784,3.459994,0.748238,0.73968,0.55021,0.42818
1695051684351562,-9.287784,3.436994,0.748238,0.62668,0.55521,0.45918
1695051684359375,-9.287784,3.432994,0.750238,0.61568,0.58521,0.38118
1695051684367187,-9.287784,3.432994,0.741238,0.61568,0.51821,0.39818
1695051684375000,-9.286784,3.430994,0.743238,0.61968,0.66821,0.36418
1695051684382812,-9.289784,3.432994,0.750238,0.51168,0.60721,0.46018
1695051684390625,-9.286784,3.430994,0.762238,0.59068,0.63421,0.36518
1695051684398437,-9.293784,3.425994,0.759238,0.57168,0.70721,0.47318
1695051684406250,-9.294784,3.427994,0.752238,0.50768,0.67621,0.48918
1695051684414062,-9.302784,3.432994,0.753238,0.52668,0.57221,0.44518
1695051684421875,-9.307784,3.424994,0.757238,0.51468,0.65921,0.50618
1695051684429687,-9.300784,3.419994,0.764238,0.56268,0.62521,0.53818
1695051684437500,-9.295784,3.407994,0.757238,0.52668,0.54421,0.57118
1695051684445312,-9.289784,3.392994,0.759238,0.52468,0.54321,0.55518
1695051684453125,-9.286784,3.383994,0.755238,0.51068,0.59521,0.56918
1695051684460937,-9.288784,3.376994,0.771238,0.54468,0.62621,0.55318
1695051684468750,-9.290784,3.356994,0.753238,0.52468,0.52521,0.52418
1695051684476562,-9.283784,3.350994,0.760238,0.51268,0.55821,0.50818
1695051684484375,-9.292784,3.334994,0.748238,0.49468,0.50721,0.47718
1695051684492187,-9.304784,3.313994,0.739238,0.48968,0.47221,0.41518
1695051684500000,-9.312784,3.298994,0.728238,0.49168,0.53921,0.41418
1695051684507812,-9.337784,3.303994,0.725238,0.49268,0.50221,0.33618
1695051684515625,-9.339784,3.302994,0.723238,0.46868,0.45121,0.35518
1695051684523437,-9.327784,3.291994,0.698238,0.51168,0.43121,0.27618
1695051684531250,-9.319784,3.301994,0.698238,0.49168,0.43021,0.24418
1695051684539062,-9.377784,3.343994,0.707238,0.49968,0.53321,0.24018
1695051684546875,-9.436784,3.351994,0.696238,0.48568,0.54921,0.20918
1695051684554687,-9.394784,3.337994,0.693238,0.51868,0.52821,0.16318
1695051684562500,-9.349784,3.331994,0.691238,0.52068,0.59121,0.5218
1695051684570312,-9.358784,3.337994,0.687238,0.50668,0.64421,0.11418
1695051684578125,-9.365784,3.339994,0.689238,0.48568,0.66121,0.8118
1695051684585937,-9.363784,3.348994,0.693238,0.51768,0.69321,0.4918
1695051684593750,-9.374784,3.353994,0.700238,0.50268,0.64421,0.9818
1695051684601562,-9.371784,3.376994,0.707238,0.51168,0.57721,0.6718
1695051684609375,-9.382784,3.376994,0.702238,0.52668,0.64121,0.218
1695051684617187,-9.372784,3.379994,0.702238,0.54668,0.62221,0.1182
1695051684625000,-9.348784,3.381994,0.707238,0.55968,0.63821,0.4382
1695051684632812,-9.338784,3.375994,0.714238,0.54968,0.60521,0.1082
1695051684640625,-9.340784,3.363994,0.707238,0.60868,0.77221,0.1582
1695051684648437,-9.331784,3.372994,0.721238,0.66868,0.70421,0.1482
1695051684656250,-9.323784,3.381994,0.718238,0.77568,0.71721,0.4682
1695051684664062,-9.319784,3.368994,0.730238,0.76568,0.76721,0.3082
1695051684671875,-9.317784,3.373994,0.735238,0.72068,0.68321,0.5982
1695051684679687,-9.318784,3.363994,0.732238,0.68268,0.66721,0.9182
1695051684687500,-9.320784,3.366994,0.741238,0.77968,0.61921,0.6618
1695051684695312,-9.312784,3.353994,0.739238,0.73768,0.63321,0.1182
1695051684703125,-9.322784,3.352994,0.741238,0.69868,0.70221,0.4582
1695051684710937,-9.320784,3.359994,0.739238,0.76268,0.73521,0.1582
1695051684718750,-9.322784,3.365994,0.741238,0.74468,0.65121,0.2982
1695051684726562,-9.325784,3.363994,0.748238,0.75868,0.61921,0.1818
1695051684734375,-9.322784,3.361994,0.750238,0.74668,0.63421,0.2882
1695051684742187,-9.324784,3.359994,0.753238,0.76668,0.67021,0.6518
1695051684750000,-9.325784,3.356994,0.760238,0.77168,0.65121,0.5118
1695051684757812,-9.324784,3.346994,0.760238,0.76468,0.66621,0.2882
1695051684765625,-9.313784,3.348994,0.757238,0.74868,0.65221,0.1818
1695051684773437,-9.298784,3.346994,0.760238,0.76768,0.69721,0.7582
1695051684781250,-9.312784,3.342994,0.762238,0.72168,0.66821,0.318
1695051684789062,-9.315784,3.341994,0.757238,0.71968,0.55121,0.518
1695051684796875,-9.301784,3.341994,0.757238,0.76268,0.63221,0.4382
1695051684804687,-9.297784,3.352994,0.757238,0.74568,0.61721,0.2882
1695051684812500,-9.308784,3.364994,0.757238,0.76668,0.59921,0.2682
1695051684820312,-9.319784,3.375994,0.760238,0.75068,0.59821,0.4282
1695051684828125,-9.308784,3.382994,0.760238,0.73968,0.54921,0.982
1695051684835937,-9.308784,3.380994,0.760238,0.76968,0.61521,0.2682
1695051684843750,-9.310784,3.393994,0.755238,0.76568,0.59821,0.4282
1695051684851562,-9.315784,3.393994,0.760238,0.78468,0.61421,0.4282
1695051684859375,-9.299784,3.406994,0.764238,0.79668,0.59921,0.1182
1695051684867187,-9.304784,3.413994,0.762238,0.79868,0.51521,0.618
1695051684875000,-9.296784,3.407994,0.762238,0.88168,0.52821,0.882
1695051684882812,-9.299784,3.414994,0.766238,0.102968,0.45721,0.2482
1695051684890625,-9.311784,3.411994,0.760238,0.99568,0.47821,0.3618
1695051684898437,-9.308784,3.402994,0.760238,0.101168,0.50821,0.4182
1695051684906250,-9.306784,3.395994,0.750238,0.100968,0.47521,0.4182
1695051684914062,-9.297784,3.388994,0.757238,0.105568,0.38921,0.5582
1695051684921875,-9.303784,3.393994,0.750238,0.101168,0.37721,0.3918
1695051684929687,-9.306784,3.381994,0.753238,0.99168,0.44221,0.5682
1695051684937500,-9.299784,3.366994,0.757238,0.97868,0.45521,0.13482
1695051684945312,-9.308784,3.363994,0.744238,0.97168,0.47221,0.16782
1695051684953125,-9.299784,3.365994,0.744238,0.95868,0.52421,0.13782
1695051684960937,-9.310784,3.366994,0.739238,0.101068,0.45721,0.7282
1695051684968750,-9.301784,3.364994,0.739238,0.97868,0.40421,0.13382
1695051684976562,-9.299784,3.368994,0.735238,0.93268,0.42621,0.3982
1695051684984375,-9.321784,3.372994,0.737238,0.96768,0.33921,0.6882
1695051684992187,-9.335784,3.373994,0.741238,0.87268,0.35921,0.5382
1695051685000000,-9.328784,3.380994,0.739238,0.95068,0.37821,0.3918
1695051685007812,-9.319784,3.380994,0.741238,0.82968,0.34821,0.7218
1695051685015625,-9.338784,3.382994,0.737238,0.87268,0.36421,0.5518
1695051685023437,-9.337784,3.369994,0.728238,0.89068,0.38121,0.7118
1695051685031250,-9.326784,3.367994,0.712238,0.87568,0.38321,0.11818
1695051685039062,-9.331784,3.359994,0.703238,0.76368,0.41821,0.7018
1695051685046875,-9.340784,3.362994,0.714238,0.88668,0.41421,0.5418
1695051685054687,-9.337784,3.362994,0.719238,0.82968,0.40021,0.10218
1695051685062500,-9.344784,3.365994,0.721238,0.95368,0.44721,0.8518
1695051685070312,-9.349784,3.357994,0.723238,0.88668,0.39621,0.2318
1695051685078125,-9.360784,3.363994,0.725238,0.82968,0.46521,0.3818
1695051685085937,-9.341784,3.351994,0.728238,0.90568,0.43121,0.7018
1695051685093750,-9.326784,3.346994,0.732238,0.100768,0.47921,0.3618
1695051685101562,-9.321784,3.340994,0.737238,0.99768,0.44521,0.5318
1695051685109375,-9.317784,3.350994,0.739238,0.100768,0.41221,0.5318
1695051685117187,-9.328784,3.364994,0.739238,0.101068,0.42821,0.3718
1695051685125000,-9.336784,3.390994,0.759238,0.98968,0.44421,0.1082
1695051685132812,-9.348784,3.385994,0.762238,0.103268,0.42621,0.3918
1695051685140625,-9.334784,3.363994,0.760238,0.106168,0.45821,0.2218
1695051685148437,-9.287784,3.349994,0.748238,0.112168,0.43921,0.982
1695051685156250,-9.287784,3.324994,0.744238,0.104368,0.39521,0.8518
1695051685164062,-9.303784,3.315994,0.739238,0.101068,0.37821,0.5418
1695051685171875,-9.325784,3.309994,0.717238,0.101168,0.24421,0.8918
1695051685179687,-9.353784,3.318994,0.712238,0.99468,0.21121,0.8918
1695051685187500,-9.371784,3.307994,0.700238,0.102368,0.27821,0.8718
1695051685195312,-9.388784,3.294994,0.703238,0.101268,0.32821,0.8718
1695051685203125,-9.384784,3.296994,0.682238,0.99368,0.41321,0.6918
1695051685210937,-9.395784,3.278994,0.664238,0.102568,0.39421,0.5418
1695051685218750,-9.384784,3.276994,0.657238,0.94868,0.41421,0.6918
1695051685226562,-9.395784,3.269994,0.653238,0.94668,0.46321,0.3618
1695051685234375,-9.411784,3.278994,0.653238,0.97968,0.52821,0.418
1695051685242187,-9.414784,3.287994,0.655238,0.96168,0.56421,0.3418
1695051685250000,-9.411784,3.289994,0.669238,0.91768,0.56321,0.1182
1695051685257812,-9.407784,3.298994,0.671238,0.82668,0.63321,0.1818
1695051685265625,-9.402784,3.309994,0.694238,0.88868,0.69621,0.6182
1695051685273437,-9.389784,3.316994,0.705238,0.101168,0.64521,0.118
1695051685281250,-9.384784,3.323994,0.716238,0.96768,0.64721,0.3318
1695051685289062,-9.366784,3.329994,0.732238,0.93368,0.64921,0.4918
1695051685296875,-9.355784,3.324994,0.739238,0.90168,0.71521,0.0
1695051685304687,-9.337784,3.327994,0.755238,0.98268,0.74621,0.1582
1695051685312500,-9.324784,3.326994,0.766238,0.90068,0.71421,0.3082
1695051685320312,-9.316784,3.328994,0.767238,0.94968,0.66321,0.1382
1695051685328125,-9.321784,3.323994,0.776238,0.92968,0.62821,0.7682
1695051685335937,-9.316784,3.327994,0.778238,0.99968,0.62421,0.7482
1695051685343750,-9.301784,3.316994,0.776238,0.98868,0.65921,0.12482
1695051685351562,-9.310784,3.312994,0.778238,0.97768,0.56021,0.5982
1695051685359375,-9.319784,3.317994,0.776238,0.100868,0.62621,0.6082
1695051685367187,-9.316784,3.315994,0.773238,0.97968,0.59321,0.5982
1695051685375000,-9.323784,3.308994,0.778238,0.96268,0.54121,0.10582
1695051685382812,-9.332784,3.306994,0.764238,0.99068,0.50821,0.8982
1695051685390625,-9.323784,3.293994,0.771238,0.100868,0.52421,0.8982
1695051685398437,-9.337784,3.315994,0.771238,0.93268,0.61221,0.4482
1695051685406250,-9.330784,3.311994,0.760238,0.85868,0.64521,0.7582
1695051685414062,-9.318784,3.329994,0.776238,0.76568,0.56021,0.13582
1695051685421875,-9.350784,3.372994,0.780238,0.74168,0.56221,0.15282
1695051685429687,-9.381784,3.380994,0.782238,0.77868,0.69521,0.13982
1695051685437500,-9.354784,3.381994,0.794238,0.80568,0.64621,0.12382
1695051685445312,-9.310784,3.380994,0.792238,0.81168,0.64321,0.15382
1695051685453125,-9.299784,3.378994,0.796238,0.76868,0.66221,0.10582
1695051685460937,-9.295784,3.376994,0.803238,0.77868,0.65021,0.2882
1695051685468750,-9.297784,3.378994,0.810238,0.77768,0.65121,0.218
1695051685476562,-9.299784,3.381994,0.800238,0.74768,0.66521,0.7582
1695051685484375,-9.290784,3.379994,0.810238,0.76568,0.54821,0.4182
1695051685492187,-9.290784,3.379994,0.803238,0.75368,0.51621,0.2218
1695051685500000,-9.290784,3.379994,0.812238,0.76768,0.53121,0.2582
1695051685507812,-9.294784,3.380994,0.798238,0.81668,0.59921,0.2018
1695051685515625,-9.286784,3.372994,0.791238,0.76368,0.53121,0.4182
1695051685523437,-9.288784,3.379994,0.789238,0.74768,0.53021,0.8882
1695051685531250,-9.296784,3.378994,0.794238,0.80168,0.54521,0.5682
1695051685539062,-9.299784,3.380994,0.789238,0.83068,0.56321,0.1082
1695051685546875,-9.294784,3.375994,0.785238,0.79668,0.59921,0.1182
1695051685554687,-9.301784,3.382994,0.787238,0.96768,0.52621,0.4182
1695051685562500,-9.310784,3.380994,0.798238,0.88968,0.52821,0.4182
1695051685570312,-9.314784,3.380994,0.789238,0.75668,0.63221,0.1082
1695051685578125,-9.309784,3.383994,0.807238,0.76268,0.58221,0.4282
1695051685585937,-9.315784,3.397994,0.803238,0.74968,0.51321,0.7282
1695051685593750,-9.336784,3.397994,0.798238,0.76468,0.56521,0.2682
1695051685601562,-9.322784,3.395994,0.807238,0.76568,0.54821,0.4182
1695051685609375,-9.322784,3.400994,0.798238,0.76568,0.54821,0.4182
1695051685617187,-9.311784,3.415994,0.803238,0.76768,0.51521,0.618
1695051685625000,-9.306784,3.404994,0.800238,0.76368,0.53121,0.4182
1695051685632812,-9.311784,3.413994,0.800238,0.75168,0.51621,0.618
1695051685640625,-9.302784,3.426994,0.789238,0.76868,0.49921,0.2218
1695051685648437,-9.304784,3.431994,0.789238,0.75068,0.53221,0.2582
1695051685656250,-9.298784,3.428994,0.787238,0.70468,0.50221,0.3818
1695051685664062,-9.286784,3.435994,0.787238,0.76368,0.44621,0.5582
1695051685671875,-9.286784,3.435994,0.785238,0.75068,0.49821,0.2482
1695051685679687,-9.286784,3.446994,0.787238,0.76668,0.46221,0.7082
1695051685687500,-9.286784,3.454994,0.782238,0.77168,0.47721,0.8582
1695051685695312,-9.286784,3.449994,0.778238,0.75168,0.41321,0.3882
1695051685703125,-9.290784,3.445994,0.776238,0.77068,0.45921,0.11682
1695051685710937,-9.297784,3.458994,0.780238,0.75468,0.47821,0.8582
1695051685718750,-9.308784,3.463994,0.778238,0.81568,0.44021,0.14782
1695051685726562,-9.291784,3.469994,0.775238,0.84268,0.41021,0.5482
1695051685734375,-9.295784,3.462994,0.775238,0.99668,0.45521,0.11882
1695051685742187,-9.290784,3.449994,0.778238,0.101168,0.35521,0.6982
1695051685750000,-9.286784,3.438994,0.764238,0.99968,0.39221,0.818
1695051685757812,-9.295784,3.433994,0.766238,0.97968,0.37721,0.2318
1695051685765625,-9.301784,3.430994,0.769238,0.101768,0.35721,0.918
1695051685773437,-9.310784,3.423994,0.762238,0.104768,0.37521,0.4018
1695051685781250,-9.308784,3.409994,0.760238,0.102968,0.34121,0.2418
1695051685789062,-9.324784,3.407994,0.750238,0.105968,0.34321,0.7118
1695051685796875,-9.321784,3.394994,0.739238,0.101568,0.37721,0.7118
1695051685804687,-9.322784,3.384994,0.739238,0.105768,0.35921,0.3918
1695051685812500,-9.323784,3.380994,0.741238,0.101468,0.34121,0.918
1695051685820312,-9.326784,3.380994,0.723238,0.110368,0.35821,0.3918
1695051685828125,-9.319784,3.364994,0.730238,0.104068,0.30521,0.5382
1695051685835937,-9.316784,3.362994,0.716238,0.104268,0.30621,0.2182
1695051685843750,-9.319784,3.362994,0.705238,0.99468,0.37221,0.10182
1695051685851562,-9.323784,3.365994,0.719238,0.101168,0.30221,0.14682
1695051685859375,-9.321784,3.362994,0.710238,0.99468,0.35121,0.17982
1695051685867187,-9.321784,3.367994,0.703238,0.101268,0.38621,0.14882
1695051685875000,-9.324784,3.375994,0.705238,0.99168,0.37121,0.13382
1695051685882812,-9.348784,3.379994,0.703238,0.98168,0.40321,0.14882
1695051685890625,-9.355784,3.383994,0.705238,0.93568,0.43721,0.16482
1695051685898437,-9.349784,3.390994,0.703238,0.88968,0.45821,0.10282
1695051685906250,-9.344784,3.383994,0.707238,0.80168,0.51021,0.8682
1695051685914062,-9.340784,3.382994,0.700238,0.91868,0.52721,0.4282
1695051685921875,-9.336784,3.389994,0.703238,0.91668,0.52721,0.5882
1695051685929687,-9.334784,3.381994,0.710238,0.94068,0.52621,0.2582
1695051685937500,-9.321784,3.383994,0.719238,0.99968,0.50821,0.4182
1695051685945312,-9.322784,3.379994,0.719238,0.96168,0.52521,0.8982
1695051685953125,-9.323784,3.379994,0.721238,0.97068,0.50821,0.4082
1695051685960937,-9.337784,3.378994,0.730238,0.85768,0.54621,0.2682
1695051685968750,-9.340784,3.380994,0.741238,0.84368,0.52921,0.2582
1695051685976562,-9.328784,3.369994,0.739238,0.96368,0.51021,0.4182
1695051685984375,-9.321784,3.362994,0.741238,0.101168,0.52521,0.4282
1695051685992187,-9.319784,3.362994,0.739238,0.93568,0.52521,0.8882
1695051686000000,-9.309784,3.372994,0.742238,0.98668,0.52221,0.10382
1695051686007812,-9.315784,3.395994,0.746238,0.99268,0.52321,0.12082
1695051686015625,-9.324784,3.386994,0.769238,0.97568,0.50521,0.16782
1695051686023437,-9.308784,3.379994,0.762238,0.96168,0.52121,0.18382
1695051686031250,-9.279784,3.372994,0.759238,0.97168,0.50521,0.19982
1695051686039062,-9.267784,3.350994,0.757238,0.95968,0.53821,0.18482
1695051686046875,-9.277784,3.354994,0.748238,0.83368,0.42321,0.19782
1695051686054687,-9.290784,3.373994,0.739238,0.76268,0.40821,0.16382
1695051686062500,-9.320784,3.384994,0.739238,0.79068,0.45921,0.16582
1695051686070312,-9.351784,3.402994,0.730238,0.79268,0.47321,0.21282
1695051686078125,-9.350784,3.422994,0.734238,0.78968,0.47821,0.10382
1695051686085937,-9.340784,3.425994,0.723238,0.81368,0.51021,0.8782
1695051686093750,-9.329784,3.423994,0.707238,0.78268,0.49421,0.10282
1695051686101562,-9.312784,3.430994,0.702238,0.74168,0.50021,0.2682
1695051686109375,-9.320784,3.433994,0.700238,0.76768,0.55121,0.3618
1695051686117187,-9.322784,3.429994,0.700238,0.75568,0.58521,0.6818
1695051686125000,-9.336784,3.437994,0.700238,0.77968,0.61921,0.5018
1695051686132812,-9.336784,3.445994,0.712238,0.83068,0.60121,0.6718
1695051686140625,-9.331784,3.438994,0.723238,0.75468,0.65221,0.5018
1695051686148437,-9.336784,3.453994,0.730238,0.81368,0.63521,0.6618
1695051686156250,-9.332784,3.458994,0.739238,0.80068,0.65121,0.5018
1695051686164062,-9.336784,3.463994,0.744238,0.78868,0.70521,0.14318
1695051686171875,-9.320784,3.456994,0.760238,0.83468,0.63921,0.19218
1695051686179687,-9.316784,3.440994,0.759238,0.83168,0.70621,0.17418
1695051686187500,-9.306784,3.433994,0.771238,0.84668,0.67221,0.17518
1695051686195312,-9.304784,3.426994,0.775238,0.98568,0.61921,0.20618
1695051686203125,-9.291784,3.412994,0.778238,0.99468,0.62121,0.22118
1695051686210937,-9.287784,3.400994,0.778238,0.97568,0.61921,0.14218
1695051686218750,-9.289784,3.383994,0.775238,0.100768,0.60321,0.18918
1695051686226562,-9.286784,3.371994,0.778238,0.99068,0.55121,0.12818
1695051686234375,-9.293784,3.360994,0.780238,0.100268,0.55321,0.15818
1695051686242187,-9.300784,3.353994,0.780238,0.96868,0.52021,0.15818
1695051686250000,-9.297784,3.338994,0.778238,0.98868,0.55121,0.12718
1695051686257812,-9.310784,3.336994,0.775238,0.99268,0.55021,0.11218
1695051686265625,-9.308784,3.326994,0.778238,0.87268,0.58321,0.5018
1695051686273437,-9.314784,3.322994,0.764238,0.87568,0.54821,0.3618
1695051686281250,-9.319784,3.317994,0.773238,0.84068,0.56821,0.6618
1695051686289062,-9.328784,3.335994,0.769238,0.79368,0.49921,0.518
1695051686296875,-9.312784,3.344994,0.748238,0.79668,0.49821,0.982
1695051686304687,-9.320784,3.365994,0.762238,0.79068,0.53121,0.5882
1695051686312500,-9.365784,3.404994,0.766238,0.80968,0.51321,0.5782
1695051686320312,-9.377784,3.407994,0.778238,0.80868,0.57821,0.12182
1695051686328125,-9.342784,3.395994,0.771238,0.77968,0.59721,0.5882
1695051686335937,-9.329784,3.399994,0.769238,0.74868,0.51521,0.4082
1695051686343750,-9.318784,3.397994,0.775238,0.76268,0.53221,0.2682
1695051686351562,-9.312784,3.396994,0.775238,0.78768,0.51621,0.2682
1695051686359375,-9.311784,3.399994,0.780238,0.89968,0.53021,0.1182
1695051686367187,-9.300784,3.396994,0.782238,0.95768,0.51221,0.1282
1695051686375000,-9.300784,3.396994,0.778238,0.98868,0.52921,0.1282
1695051686382812,-9.304784,3.404994,0.775238,0.100868,0.46121,0.2118
1695051686390625,-9.297784,3.384994,0.780238,0.96568,0.51321,0.3618
1695051686398437,-9.283784,3.386994,0.778238,0.96768,0.53021,0.6718
1695051686406250,-9.292784,3.386994,0.778238,0.101068,0.46021,0.518
1695051686414062,-9.306784,3.380994,0.773238,0.98168,0.51121,0.518
1695051686421875,-9.299784,3.381994,0.771238,0.94568,0.44521,0.982
1695051686429687,-9.306784,3.379994,0.766238,0.97968,0.42721,0.618
1695051686437500,-9.313784,3.379994,0.769238,0.99268,0.46021,0.1082
1695051686445312,-9.320784,3.365994,0.759238,0.100568,0.49521,0.1918
1695051686453125,-9.322784,3.363994,0.766238,0.97368,0.48121,0.6718
1695051686460937,-9.329784,3.350994,0.764238,0.88368,0.41621,0.8518
1695051686468750,-9.337784,3.362994,0.755238,0.98168,0.44521,0.5318
1695051686476562,-9.321784,3.348994,0.757238,0.96568,0.43021,0.8518
1695051686484375,-9.323784,3.345994,0.753238,0.80368,0.45021,0.10218
1695051686492187,-9.316784,3.337994,0.746238,0.86068,0.43321,0.10118
1695051686500000,-9.325784,3.343994,0.746238,0.78668,0.39821,0.5618
1695051686507812,-9.337784,3.335994,0.748238,0.79568,0.43321,0.5418
1695051686515625,-9.332784,3.342994,0.760238,0.80168,0.45021,0.8618
1695051686523437,-9.325784,3.333994,0.748238,0.84668,0.44821,0.7018
1695051686531250,-9.341784,3.333994,0.741238,0.84368,0.48221,0.5318
1695051686539062,-9.330784,3.333994,0.751238,0.78368,0.53221,0.618
1695051686546875,-9.320784,3.336994,0.739238,0.83468,0.46321,0.2418
1695051686554687,-9.321784,3.351994,0.742238,0.86168,0.49421,0.3982
1695051686562500,-9.325784,3.352994,0.737238,0.81768,0.39421,0.3782
1695051686570312,-9.323784,3.365994,0.732238,0.79968,0.47521,0.13382
1695051686578125,-9.321784,3.364994,0.728238,0.84368,0.51321,0.2582
1695051686585937,-9.333784,3.364994,0.737238,0.87168,0.52321,0.16682
1695051686593750,-9.331784,3.384994,0.732238,0.92968,0.45521,0.16682
1695051686601562,-9.326784,3.384994,0.721238,0.86768,0.47321,0.18282
1695051686609375,-9.338784,3.396994,0.721238,0.94768,0.48721,0.19782
1695051686617187,-9.344784,3.400994,0.732238,0.100868,0.50321,0.18282
1695051686625000,-9.336784,3.400994,0.739238,0.96068,0.51821,0.26182
1695051686632812,-9.321784,3.410994,0.739238,0.98468,0.51821,0.21382
1695051686640625,-9.315784,3.391994,0.741238,0.104068,0.50221,0.18282
1695051686648437,-9.314784,3.403994,0.739238,0.101368,0.51821,0.19782
1695051686656250,-9.316784,3.408994,0.748238,0.100068,0.50121,0.19782
1695051686664062,-9.321784,3.400994,0.760238,0.101268,0.52021,0.15182
1695051686671875,-9.315784,3.400994,0.746238,0.100868,0.48921,0.12082
1695051686679687,-9.310784,3.398994,0.750238,0.100968,0.50521,0.12082
1695051686687500,-9.308784,3.391994,0.744238,0.101168,0.48921,0.8882
1695051686695312,-9.300784,3.386994,0.748238,0.100468,0.43921,0.13582
1695051686703125,-9.307784,3.385994,0.746238,0.101368,0.50621,0.8882
1695051686710937,-9.310784,3.387994,0.748238,0.101168,0.52221,0.10482
1695051686718750,-9.303784,3.385994,0.742238,0.101668,0.50721,0.4082
1695051686726562,-9.301784,3.380994,0.741238,0.99468,0.52321,0.10482
1695051686734375,-9.303784,3.382994,0.739238,0.95168,0.47421,0.7182
1695051686742187,-9.301784,3.379994,0.741238,0.85568,0.54521,0.5882
1695051686750000,-9.311784,3.388994,0.734238,0.82368,0.46121,0.8782
1695051686757812,-9.320784,3.395994,0.732238,0.85468,0.52821,0.7382
1695051686765625,-9.321784,3.399994,0.737238,0.75668,0.49621,0.3882
1695051686773437,-9.322784,3.402994,0.739238,0.76768,0.53121,0.2582
1695051686781250,-9.322784,3.393994,0.741238,0.76868,0.49921,0.2218
1695051686789062,-9.329784,3.408994,0.739238,0.74868,0.54821,0.4182
1695051686796875,-9.342784,3.418994,0.737238,0.85968,0.54621,0.1082
1695051686804687,-9.334784,3.415994,0.741238,0.77968,0.61821,0.3418
1695051686812500,-9.325784,3.417994,0.739238,0.81168,0.51721,0.5218
1695051686820312,-9.310784,3.407994,0.739238,0.86168,0.64821,0.318
1695051686828125,-9.306784,3.410994,0.741238,0.88668,0.63021,0.2882
1695051686835937,-9.304784,3.395994,0.744238,0.88568,0.56621,0.5018
1695051686843750,-9.320784,3.413994,0.753238,0.87168,0.66521,0.1382
1695051686851562,-9.311784,3.415994,0.759238,0.93468,0.54721,0.3518
1695051686859375,-9.299784,3.413994,0.773238,0.93468,0.54721,0.3518
1695051686867187,-9.299784,3.404994,0.760238,0.94868,0.61021,0.5982
1695051686875000,-9.288784,3.384994,0.776238,0.84468,0.54721,0.518
1695051686882812,-9.290784,3.395994,0.773238,0.90568,0.54621,0.518
1695051686890625,-9.286784,3.397994,0.775238,0.99468,0.57621,0.4382
1695051686898437,-9.300784,3.405994,0.791238,0.99268,0.54621,0.1918
1695051686906250,-9.324784,3.406994,0.791238,0.99268,0.52521,0.7482
1695051686914062,-9.304784,3.389994,0.789238,0.100268,0.51021,0.5982
1695051686921875,-9.281784,3.381994,0.791238,0.96268,0.54421,0.4382
1695051686929687,-9.272784,3.367994,0.785238,0.84068,0.49621,0.2582
1695051686937500,-9.272784,3.361994,0.776238,0.76468,0.42921,0.5482
1695051686945312,-9.292784,3.357994,0.769238,0.78068,0.39321,0.10082
1695051686953125,-9.326784,3.364994,0.757238,0.76168,0.39821,0.2382
1695051686960937,-9.338784,3.382994,0.760238,0.74768,0.36421,0.2282
1695051686968750,-9.351784,3.380994,0.748238,0.76568,0.41821,0.8618
1695051686976562,-9.340784,3.382994,0.739238,0.74868,0.53421,0.2118
1695051686984375,-9.329784,3.379994,0.721238,0.73268,0.51821,0.2118
1695051686992187,-9.327784,3.379994,0.734238,0.76368,0.50121,0.3718
1695051687000000,-9.327784,3.383994,0.723238,0.74668,0.45221,0.5318
1695051687007812,-9.328784,3.389994,0.710238,0.73968,0.49921,0.2318
1695051687015625,-9.350784,3.390994,0.707238,0.74768,0.57121,0.8218
1695051687023437,-9.349784,3.398994,0.721238,0.70968,0.60421,0.9918
1695051687031250,-9.340784,3.405994,0.737238,0.78568,0.68621,0.6518
1695051687039062,-9.336784,3.406994,0.741238,0.75168,0.62021,0.8218
1695051687046875,-9.339784,3.399994,0.739238,0.77468,0.60521,0.16218
1695051687054687,-9.338784,3.400994,0.755238,0.75168,0.55521,0.13018
1695051687062500,-9.330784,3.394994,0.769238,0.83368,0.60321,0.13018
1695051687070312,-9.303784,3.377994,0.766238,0.78368,0.58621,0.9818
1695051687078125,-9.310784,3.366994,0.771238,0.91868,0.60021,0.8118
1695051687085937,-9.310784,3.361994,0.776238,0.99468,0.59721,0.4918
1695051687093750,-9.317784,3.353994,0.769238,0.93368,0.48121,0.6818
1695051687101562,-9.310784,3.346994,0.773238,0.95068,0.46021,0.982
1695051687109375,-9.305784,3.326994,0.778238,0.100968,0.50921,0.2682
1695051687117187,-9.303784,3.317994,0.760238,0.101068,0.46021,0.518
1695051687125000,-9.314784,3.322994,0.762238,0.96468,0.40721,0.7082
1695051687132812,-9.322784,3.323994,0.760238,0.96968,0.39021,0.5382
1695051687140625,-9.321784,3.317994,0.739238,0.94468,0.40521,0.16582
1695051687148437,-9.334784,3.313994,0.728238,0.91868,0.44121,0.8682
1695051687156250,-9.340784,3.319994,0.725238,0.87968,0.47721,0.8982
1695051687164062,-9.340784,3.319994,0.728238,0.85068,0.49421,0.10482
1695051687171875,-9.346784,3.331994,0.723238,0.94668,0.40721,0.10282
1695051687179687,-9.341784,3.327994,0.712238,0.79868,0.47821,0.7082
1695051687187500,-9.323784,3.328994,0.703238,0.74968,0.46321,0.7082
1695051687195312,-9.330784,3.362994,0.723238,0.75068,0.54421,0.13582
1695051687203125,-9.378784,3.396994,0.730238,0.76668,0.54621,0.7282
1695051687210937,-9.374784,3.394994,0.737238,0.75168,0.58021,0.7382
1695051687218750,-9.349784,3.389994,0.741238,0.90468,0.54421,0.5782
1695051687226562,-9.331784,3.384994,0.739238,0.87068,0.59821,0.318
1695051687234375,-9.322784,3.379994,0.750238,0.84268,0.51721,0.8318
1695051687242187,-9.329784,3.386994,0.744238,0.76468,0.55321,0.8318
1695051687250000,-9.334784,3.379994,0.753238,0.74768,0.48721,0.10018
1695051687257812,-9.340784,3.382994,0.755238,0.84568,0.50421,0.19418
1695051687265625,-9.335784,3.366994,0.764238,0.90668,0.48721,0.20918
1695051687273437,-9.322784,3.362994,0.760238,0.93568,0.50321,0.19318
1695051687281250,-9.324784,3.338994,0.750238,0.94668,0.55521,0.22218
1695051687289062,-9.327784,3.323994,0.739238,0.98668,0.39821,0.16518
1695051687296875,-9.343784,3.313994,0.735238,0.101368,0.50121,0.19318
1695051687304687,-9.337784,3.295994,0.732238,0.102568,0.46621,0.14618
1695051687312500,-9.343784,3.292994,0.719238,0.101668,0.51221,0.8418
1695051687320312,-9.354784,3.292994,0.726238,0.100368,0.52821,0.6818
1695051687328125,-9.364784,3.293994,0.728238,0.98068,0.51421,0.6718
1695051687335937,-9.361784,3.291994,0.737238,0.98068,0.57921,0.1918
1695051687343750,-9.357784,3.295994,0.735238,0.96068,0.59521,0.4482
1695051687351562,-9.352784,3.293994,0.739238,0.101068,0.59121,0.9082
1695051687359375,-9.346784,3.299994,0.739238,0.95868,0.66021,0.10882
1695051687367187,-9.351784,3.310994,0.741238,0.100568,0.55821,0.9182
1695051687375000,-9.339784,3.318994,0.751238,0.94868,0.57321,0.15282
1695051687382812,-9.339784,3.327994,0.753238,0.94968,0.57121,0.19982
1695051687390625,-9.326784,3.324994,0.762238,0.100668,0.62121,0.18682
1695051687398437,-9.318784,3.326994,0.764238,0.97868,0.52121,0.16782
1695051687406250,-9.316784,3.343994,0.764238,0.95368,0.48821,0.13482
1695051687414062,-9.316784,3.340994,0.771238,0.90668,0.52321,0.13482
1695051687421875,-9.312784,3.347994,0.762238,0.87668,0.50821,0.10382
1695051687429687,-9.311784,3.349994,0.764238,0.83268,0.52521,0.11882
1695051687437500,-9.324784,3.364994,0.760238,0.80868,0.51021,0.11982
1695051687445312,-9.312784,3.362994,0.757238,0.79968,0.49521,0.5582
1695051687453125,-9.319784,3.362994,0.746238,0.75168,0.52921,0.7282
1695051687460937,-9.319784,3.371994,0.746238,0.81268,0.46221,0.3982
1695051687468750,-9.324784,3.382994,0.753238,0.87168,0.52721,0.8882
1695051687476562,-9.346784,3.380994,0.750238,0.79768,0.51221,0.7182
1695051687484375,-9.342784,3.383994,0.748238,0.87468,0.49321,0.7182
1695051687492187,-9.345784,3.380994,0.750238,0.84068,0.53021,0.2682
1695051687500000,-9.331784,3.384994,0.755238,0.94968,0.50821,0.7282
1695051687507812,-9.321784,3.382994,0.755238,0.98268,0.52921,0.3618
1695051687515625,-9.331784,3.380994,0.753238,0.87368,0.53221,0.5218
1695051687523437,-9.333784,3.378994,0.760238,0.90468,0.51421,0.3618
1695051687531250,-9.332784,3.369994,0.762238,0.98468,0.53021,0.6718
1695051687539062,-9.316784,3.365994,0.767238,0.92468,0.47921,0.5418
1695051687546875,-9.321784,3.353994,0.755238,0.99568,0.52921,0.5118
1695051687554687,-9.322784,3.337994,0.766238,0.100768,0.49721,0.6718
1695051687562500,-9.316784,3.327994,0.764238,0.95368,0.52921,0.3618
1695051687570312,-9.318784,3.324994,0.771238,0.99868,0.47621,0.618
1695051687578125,-9.321784,3.322994,0.773238,0.95168,0.54521,0.418
1695051687585937,-9.336784,3.322994,0.769238,0.95268,0.56021,0.2682
1695051687593750,-9.338784,3.325994,0.760238,0.91168,0.51021,0.2482
1695051687601562,-9.337784,3.322994,0.769238,0.91968,0.51321,0.2118
1695051687609375,-9.334784,3.311994,0.773238,0.83068,0.49621,0.882
1695051687617187,-9.325784,3.317994,0.767238,0.94868,0.52721,0.2682
1695051687625000,-9.330784,3.306994,0.757238,0.91468,0.52921,0.2782
1695051687632812,-9.331784,3.307994,0.758238,0.92268,0.49121,0.8782
1695051687640625,-9.335784,3.321994,0.748238,0.75968,0.51321,0.10482
1695051687648437,-9.339784,3.329994,0.751238,0.78168,0.49421,0.10282
1695051687656250,-9.341784,3.329994,0.744238,0.81168,0.52721,0.10382
1695051687664062,-9.335784,3.340994,0.739238,0.77968,0.54421,0.13582
1695051687671875,-9.339784,3.351994,0.741238,0.76468,0.52521,0.18182
1695051687679687,-9.337784,3.358994,0.746238,0.74768,0.49321,0.16582
1695051687687500,-9.335784,3.364994,0.744238,0.76568,0.51321,0.5682
1695051687695312,-9.332784,3.362994,0.741238,0.76868,0.49521,0.7182
1695051687703125,-9.337784,3.362994,0.744238,0.75168,0.51321,0.7182
1695051687710937,-9.343784,3.363994,0.739238,0.78668,0.52721,0.8682
1695051687718750,-9.339784,3.363994,0.741238,0.79968,0.54521,0.7282
1695051687726562,-9.329784,3.361994,0.739238,0.82368,0.51521,0.518
1695051687734375,-9.321784,3.367994,0.742238,0.90868,0.52821,0.982
1695051687742187,-9.324784,3.359994,0.739238,0.94268,0.51021,0.7482
1695051687750000,-9.322784,3.350994,0.741238,0.80568,0.56221,0.12182
1695051687757812,-9.324784,3.356994,0.741238,0.81868,0.54521,0.12182
1695051687765625,-9.333784,3.362994,0.757238,0.90268,0.52321,0.16782
1695051687773437,-9.326784,3.364994,0.755238,0.80968,0.57521,0.16782
1695051687781250,-9.319784,3.369994,0.760238,0.93468,0.50521,0.15082
1695051687789062,-9.319784,3.369994,0.760238,0.93568,0.50321,0.19782
1695051687796875,-9.318784,3.368994,0.762238,0.88068,0.55821,0.16982
1695051687804687,-9.316784,3.378994,0.778238,0.101568,0.55521,0.18582
1695051687812500,-9.309784,3.397994,0.771238,0.95868,0.50621,0.16882
1695051687820312,-9.309784,3.403994,0.778238,0.101868,0.53721,0.20082
1695051687828125,-9.319784,3.402994,0.769238,0.99368,0.53821,0.16782
1695051687835937,-9.290784,3.395994,0.776238,0.102468,0.52021,0.16782
1695051687843750,-9.281784,3.386994,0.776238,0.94668,0.48921,0.15182
1695051687851562,-9.263784,3.378994,0.771238,0.89568,0.50721,0.16882
1695051687859375,-9.276784,3.372994,0.753238,0.79168,0.42521,0.14982
1695051687867187,-9.295784,3.384994,0.739238,0.80968,0.36021,0.6982
1695051687875000,-9.331784,3.393994,0.732238,0.76268,0.34621,0.3782
1695051687882812,-9.340784,3.400994,0.721238,0.74768,0.33021,0.2182
1695051687890625,-9.341784,3.405994,0.709238,0.75668,0.36621,0.718
1695051687898437,-9.333784,3.402994,0.700238,0.76668,0.38321,0.5618
1695051687906250,-9.318784,3.398994,0.698238,0.75868,0.51921,0.5118
1695051687914062,-9.318784,3.406994,0.687238,0.80868,0.49921,0.2118
1695051687921875,-9.329784,3.402994,0.682238,0.76668,0.53421,0.3718
1695051687929687,-9.345784,3.408994,0.686238,0.74768,0.53721,0.8318
1695051687937500,-9.350784,3.416994,0.698238,0.76668,0.58621,0.6718
1695051687945312,-9.358784,3.423994,0.698238,0.75768,0.55021,0.5318
1695051687953125,-9.356784,3.425994,0.705238,0.80168,0.58521,0.8318
1695051687960937,-9.363784,3.430994,0.707238,0.80168,0.60121,0.6718
1695051687968750,-9.352784,3.431994,0.728238,0.76968,0.67221,0.14418
1695051687976562,-9.330784,3.410994,0.739238,0.88668,0.62521,0.23718
1695051687984375,-9.322784,3.393994,0.741238,0.93468,0.63821,0.19018
1695051687992187,-9.313784,3.399994,0.739238,0.95068,0.60221,0.15918
1695051688000000,-9.313784,3.377994,0.753238,0.101468,0.61921,0.20618
1695051688007812,-9.312784,3.359994,0.760238,0.99868,0.56821,0.19118
1695051688015625,-9.307784,3.349994,0.760238,0.101668,0.60021,0.16018
1695051688023437,-9.307784,3.330994,0.760238,0.99768,0.46721,0.17818
1695051688031250,-9.305784,3.310994,0.744238,0.101268,0.50021,0.16118
1695051688039062,-9.310784,3.296994,0.741238,0.96268,0.56521,0.6518
1695051688046875,-9.319784,3.287994,0.744238,0.92768,0.51521,0.3518
1695051688054687,-9.328784,3.299994,0.739238,0.93268,0.51721,0.9818
1695051688062500,-9.346784,3.290994,0.741238,0.99068,0.53121,0.5018
1695051688070312,-9.337784,3.290994,0.735238,0.101968,0.46021,0.2682
1695051688078125,-9.352784,3.296994,0.730238,0.93668,0.52921,0.2018
1695051688085937,-9.364784,3.297994,0.723238,0.94468,0.55921,0.10682
1695051688093750,-9.362784,3.286994,0.725238,0.83568,0.58121,0.5982
1695051688101562,-9.351784,3.292994,0.712238,0.77468,0.51721,0.418
1695051688109375,-9.342784,3.308994,0.721238,0.77668,0.53021,0.7382
1695051688117187,-9.349784,3.342994,0.707238,0.80868,0.51121,0.10482
1695051688125000,-9.399784,3.383994,0.739238,0.80968,0.60921,0.16882
1695051688132812,-9.386784,3.379994,0.741238,0.78568,0.66321,0.14082
1695051688140625,-9.345784,3.382994,0.744238,0.77668,0.67921,0.13982
1695051688148437,-9.329784,3.377994,0.755238,0.88668,0.67921,0.6182
1695051688156250,-9.317784,3.359994,0.760238,0.96268,0.62721,0.7682
1695051688164062,-9.317784,3.373994,0.764238,0.83968,0.57921,0.7482
1695051688171875,-9.315784,3.371994,0.764238,0.85968,0.56321,0.1082
1695051688179687,-9.312784,3.357994,0.778238,0.90168,0.51321,0.518
1695051688187500,-9.313784,3.368994,0.775238,0.97668,0.52521,0.7482
1695051688195312,-9.317784,3.352994,0.773238,0.95768,0.47621,0.7382
1695051688203125,-9.306784,3.348994,0.771238,0.97868,0.51221,0.2018
1695051688210937,-9.299784,3.346994,0.760238,0.100868,0.51021,0.1182
1695051688218750,-9.313784,3.343994,0.764238,0.100468,0.45721,0.8882
1695051688226562,-9.318784,3.347994,0.755238,0.99868,0.52321,0.7282
1695051688234375,-9.332784,3.345994,0.757238,0.101168,0.50621,0.10482
1695051688242187,-9.342784,3.349994,0.748238,0.99368,0.50721,0.10482
1695051688250000,-9.337784,3.348994,0.755238,0.105468,0.55921,0.2882
1695051688257812,-9.330784,3.342994,0.737238,0.102568,0.55921,0.4382
1695051688265625,-9.330784,3.344994,0.755238,0.99568,0.57521,0.7482
1695051688273437,-9.334784,3.351994,0.753238,0.93668,0.49321,0.4082
1695051688281250,-9.332784,3.352994,0.751238,0.92268,0.50821,0.7182
1695051688289062,-9.339784,3.345994,0.760238,0.99768,0.52421,0.7382
1695051688296875,-9.318784,3.340994,0.762238,0.94068,0.52621,0.4082
1695051688304687,-9.323784,3.336994,0.762238,0.93868,0.50921,0.4082
1695051688312500,-9.317784,3.351994,0.766238,0.85668,0.52821,0.7382
1695051688320312,-9.321784,3.344994,0.766238,0.88668,0.49321,0.7282
1695051688328125,-9.319784,3.348994,0.762238,0.77768,0.49421,0.11982
1695051688335937,-9.317784,3.360994,0.762238,0.81168,0.47721,0.8682
1695051688343750,-9.310784,3.357994,0.764238,0.79268,0.51421,0.4182
1695051688351562,-9.312784,3.362994,0.755238,0.83068,0.49321,0.8682
1695051688359375,-9.310784,3.371994,0.746238,0.82768,0.51021,0.10382
1695051688367187,-9.326784,3.382994,0.762238,0.85668,0.54421,0.7382
1695051688375000,-9.324784,3.384994,0.746238,0.84268,0.44321,0.8682
1695051688382812,-9.330784,3.387994,0.739238,0.84468,0.44421,0.3982
1695051688390625,-9.342784,3.403994,0.739238,0.89068,0.47621,0.5582
1695051688398437,-9.330784,3.396994,0.742238,0.81768,0.47621,0.8582
1695051688406250,-9.319784,3.398994,0.737238,0.90768,0.52621,0.5682
1695051688414062,-9.333784,3.398994,0.735238,0.84668,0.51021,0.7182
1695051688421875,-9.321784,3.398994,0.739238,0.90668,0.52721,0.4182
1695051688429687,-9.320784,3.395994,0.741238,0.90368,0.51321,0.518
1695051688437500,-9.324784,3.389994,0.739238,0.84468,0.52721,0.7282
1695051688445312,-9.321784,3.397994,0.744238,0.95768,0.52521,0.2482
1695051688453125,-9.324784,3.394994,0.753238,0.99868,0.52721,0.2018
1695051688460937,-9.315784,3.389994,0.762238,0.99668,0.50921,0.2682
1695051688468750,-9.310784,3.385994,0.760238,0.96868,0.52421,0.7282
1695051688476562,-9.315784,3.390994,0.757238,0.102268,0.50821,0.5882
1695051688484375,-9.306784,3.396994,0.757238,0.95168,0.55821,0.7382
1695051688492187,-9.306784,3.382994,0.769238,0.87368,0.56121,0.7382
1695051688500000,-9.308784,3.382994,0.762238,0.92168,0.57721,0.5882
1695051688507812,-9.312784,3.380994,0.753238,0.89168,0.57521,0.10482
1695051688515625,-9.312784,3.389994,0.757238,0.85868,0.49021,0.16582
1695051688523437,-9.310784,3.382994,0.748238,0.82668,0.59521,0.8982
1695051688531250,-9.314784,3.385994,0.746238,0.84568,0.54121,0.15082
1695051688539062,-9.317784,3.403994,0.755238,0.83168,0.50721,0.14982
1695051688546875,-9.318784,3.401994,0.753238,0.94368,0.52421,0.13682
1695051688554687,-9.311784,3.404994,0.744238,0.86968,0.52621,0.10482
1695051688562500,-9.320784,3.410994,0.753238,0.77368,0.52721,0.15182
1695051688570312,-9.307784,3.419994,0.741238,0.74668,0.57721,0.16782
1695051688578125,-9.302784,3.423994,0.746238,0.73168,0.58121,0.8982
1695051688585937,-9.306784,3.424994,0.760238,0.76668,0.59421,0.13682
1695051688593750,-9.301784,3.434994,0.739238,0.77068,0.59521,0.8882
1695051688601562,-9.318784,3.431994,0.750238,0.76668,0.51221,0.7182
1695051688609375,-9.313784,3.436994,0.744238,0.76768,0.53221,0.982
1695051688617187,-9.323784,3.428994,0.743238,0.74968,0.51621,0.982
1695051688625000,-9.322784,3.420994,0.741238,0.79768,0.53321,0.3718
1695051688632812,-9.324784,3.418994,0.739238,0.79868,0.53221,0.2118
1695051688640625,-9.306784,3.420994,0.741238,0.77068,0.56721,0.3718
1695051688648437,-9.301784,3.403994,0.744238,0.88068,0.54721,0.3718
1695051688656250,-9.324784,3.402994,0.744238,0.98168,0.54521,0.2018
1695051688664062,-9.320784,3.386994,0.750238,0.87268,0.53221,0.5118
1695051688671875,-9.340784,3.380994,0.751238,0.84468,0.53121,0.518
1695051688679687,-9.337784,3.383994,0.760238,0.86168,0.54621,0.982
1695051688687500,-9.326784,3.375994,0.762238,0.98068,0.51021,0.2682
1695051688695312,-9.314784,3.356994,0.762238,0.96768,0.52621,0.2582
1695051688703125,-9.303784,3.351994,0.755238,0.95168,0.52621,0.4182
1695051688710937,-9.314784,3.342994,0.769238,0.101468,0.57521,0.4282
1695051688718750,-9.318784,3.360994,0.771238,0.100068,0.56021,0.418
1695051688726562,-9.303784,3.360994,0.780238,0.98068,0.54221,0.5882
1695051688734375,-9.328784,3.363994,0.792238,0.101468,0.54121,0.4182
1695051688742187,-9.333784,3.357994,0.785238,0.99368,0.56021,0.2782
1695051688750000,-9.293784,3.331994,0.780238,0.101468,0.52521,0.2582
1695051688757812,-9.282784,3.317994,0.769238,0.99668,0.52721,0.1082
1695051688765625,-9.296784,3.296994,0.757238,0.92768,0.34321,0.3982
1695051688773437,-9.322784,3.303994,0.742238,0.81768,0.34421,0.2082
1695051688781250,-9.355784,3.313994,0.744238,0.74768,0.39721,0.3882
1695051688789062,-9.375784,3.330994,0.735238,0.76868,0.39621,0.2182
1695051688796875,-9.370784,3.327994,0.719238,0.75268,0.34521,0.3682
1695051688804687,-9.361784,3.325994,0.707238,0.80068,0.42921,0.2282
1695051688812500,-9.352784,3.327994,0.703238,0.76868,0.51321,0.5582
1695051688820312,-9.342784,3.321994,0.700238,0.74568,0.52921,0.10482
1695051688828125,-9.350784,3.333994,0.703238,0.76368,0.51021,0.13482
1695051688835937,-9.355784,3.344994,0.705238,0.76368,0.56021,0.15182
1695051688843750,-9.357784,3.345994,0.698238,0.76768,0.63121,0.5882
1695051688851562,-9.358784,3.366994,0.709238,0.76268,0.63121,0.7582
1695051688859375,-9.344784,3.377994,0.725238,0.76368,0.58021,0.8982
1695051688867187,-9.345784,3.382994,0.730238,0.76468,0.66521,0.6082
1695051688875000,-9.331784,3.380994,0.744238,0.75268,0.64821,0.5882
1695051688882812,-9.321784,3.380994,0.757238,0.76968,0.64721,0.7482
1695051688890625,-9.307784,3.380994,0.762238,0.75868,0.66621,0.418
1695051688898437,-9.299784,3.379994,0.771238,0.79668,0.66921,0.4918
1695051688906250,-9.290784,3.381994,0.778238,0.79668,0.65221,0.4918
1695051688914062,-9.285784,3.371994,0.787238,0.78668,0.58421,0.6818
1695051688921875,-9.292784,3.371994,0.789238,0.81668,0.56621,0.3618
1695051688929687,-9.303784,3.362994,0.778238,0.92068,0.49521,0.982
1695051688937500,-9.291784,3.346994,0.789238,0.89268,0.56321,0.2018
1695051688945312,-9.303784,3.346994,0.778238,0.87468,0.56221,0.2682
1695051688953125,-9.303784,3.333994,0.767238,0.91968,0.51021,0.5782
1695051688960937,-9.311784,3.327994,0.758238,0.86368,0.51021,0.5582
1695051688968750,-9.321784,3.329994,0.751238,0.90568,0.52521,0.10382
1695051688976562,-9.330784,3.326994,0.737238,0.85468,0.47821,0.5682
1695051688984375,-9.336784,3.329994,0.742238,0.79768,0.49221,0.13382
1695051688992187,-9.335784,3.326994,0.721238,0.80468,0.49421,0.12082
1695051689000000,-9.344784,3.326994,0.730238,0.76068,0.44221,0.18082
1695051689007812,-9.344784,3.335994,0.721238,0.74768,0.52821,0.13582
1695051689015625,-9.321784,3.356994,0.714238,0.76668,0.50821,0.16582
1695051689023437,-9.340784,3.388994,0.732238,0.75968,0.59321,0.20082
1695051689031250,-9.370784,3.423994,0.737238,0.76568,0.62621,0.18382
1695051689039062,-9.365784,3.423994,0.739238,0.76568,0.62521,0.19982
1695051689046875,-9.323784,3.422994,0.746238,0.76068,0.62721,0.18582
1695051689054687,-9.294784,3.420994,0.764238,0.74068,0.69521,0.20382
1695051689062500,-9.286784,3.424994,0.775238,0.78068,0.59521,0.10582
1695051689070312,-9.288784,3.426994,0.775238,0.76568,0.67921,0.12282
1695051689078125,-9.290784,3.428994,0.780238,0.75268,0.64821,0.5882
1695051689085937,-9.296784,3.432994,0.778238,0.79368,0.51621,0.2118
1695051689093750,-9.294784,3.439994,0.789238,0.79168,0.53221,0.2682
1695051689101562,-9.286784,3.429994,0.782238,0.80068,0.51421,0.618
1695051689109375,-9.289784,3.429994,0.777238,0.79068,0.53521,0.3518
1695051689117187,-9.290784,3.422994,0.771238,0.89068,0.53021,0.2118
1695051689125000,-9.288784,3.406994,0.771238,0.87168,0.49721,0.518
1695051689132812,-9.293784,3.405994,0.766238,0.97468,0.42921,0.2118
1695051689140625,-9.304784,3.404994,0.753238,0.96468,0.44621,0.5318
1695051689148437,-9.322784,3.418994,0.757238,0.92268,0.49521,0.618
1695051689156250,-9.322784,3.404994,0.755238,0.91968,0.52621,0.7382
1695051689164062,-9.322784,3.396994,0.748238,0.96668,0.56221,0.1918
1695051689171875,-9.322784,3.398994,0.766238,0.85968,0.54821,0.2118
1695051689179687,-9.321784,3.392994,0.769238,0.95568,0.61221,0.1918
1695051689187500,-9.322784,3.390994,0.778238,0.96268,0.59921,0.6518
1695051689195312,-9.324784,3.386994,0.778238,0.90268,0.46521,0.5318
1695051689203125,-9.310784,3.378994,0.780238,0.78568,0.48621,0.5118
1695051689210937,-9.306784,3.381994,0.780238,0.82468,0.48421,0.6818
1695051689218750,-9.309784,3.374994,0.784238,0.86768,0.50121,0.8218
1695051689226562,-9.295784,3.361994,0.780238,0.79268,0.53521,0.5118
1695051689234375,-9.299784,3.363994,0.782238,0.88568,0.44921,0.6818
1695051689242187,-9.306784,3.361994,0.769238,0.77568,0.38521,0.7018
1695051689250000,-9.316784,3.351994,0.771238,0.80368,0.45121,0.3718
1695051689257812,-9.319784,3.348994,0.760238,0.76468,0.46621,0.718
1695051689265625,-9.329784,3.357994,0.750238,0.79368,0.41721,0.7018
1695051689273437,-9.326784,3.350994,0.750238,0.80668,0.49921,0.518
1695051689281250,-9.326784,3.351994,0.746238,0.79868,0.48221,0.2218
1695051689289062,-9.333784,3.344994,0.739238,0.74568,0.46221,0.10282
1695051689296875,-9.347784,3.344994,0.741238,0.77768,0.51521,0.2582
1695051689304687,-9.347784,3.357994,0.739238,0.89668,0.41021,0.7182
1695051689312500,-9.343784,3.361994,0.743238,0.80168,0.51221,0.12182
1695051689320312,-9.349784,3.359994,0.741238,0.83568,0.52721,0.12082
1695051689328125,-9.351784,3.360994,0.739238,0.82468,0.51221,0.7282
1695051689335937,-9.337784,3.364994,0.741238,0.86968,0.52321,0.18282
1695051689343750,-9.330784,3.369994,0.744238,0.100968,0.52221,0.12082
1695051689351562,-9.326784,3.359994,0.741238,0.98968,0.54021,0.12182
1695051689359375,-9.335784,3.364994,0.755238,0.94368,0.55621,0.16982
1695051689367187,-9.312784,3.362994,0.757238,0.82568,0.54321,0.12082
1695051689375000,-9.308784,3.359994,0.757238,0.97768,0.50621,0.12082
1695051689382812,-9.306784,3.364994,0.755238,0.91468,0.52421,0.15282
1695051689390625,-9.304784,3.352994,0.757238,0.86768,0.52521,0.15282
1695051689398437,-9.308784,3.363994,0.762238,0.98768,0.57321,0.17082
1695051689406250,-9.322784,3.361994,0.757238,0.93968,0.52321,0.18482
1695051689414062,-9.321784,3.369994,0.757238,0.84368,0.49221,0.19982
1695051689421875,-9.315784,3.371994,0.746238,0.80868,0.47321,0.19782
1695051689429687,-9.306784,3.370994,0.755238,0.89868,0.52321,0.16782
1695051689437500,-9.318784,3.381994,0.759238,0.91168,0.52421,0.15282
1695051689445312,-9.320784,3.379994,0.753238,0.74468,0.51021,0.16682
1695051689453125,-9.313784,3.388994,0.746238,0.78968,0.52721,0.15282
1695051689460937,-9.308784,3.393994,0.748238,0.82268,0.50821,0.18282
1695051689468750,-9.304784,3.408994,0.739238,0.91168,0.50521,0.19982
1695051689476562,-9.300784,3.412994,0.746238,0.76968,0.52721,0.18482
1695051689484375,-9.295784,3.408994,0.766238,0.79068,0.59221,0.20082
1695051689492187,-9.305784,3.419994,0.755238,0.81968,0.54321,0.16882
1695051689500000,-9.306784,3.420994,0.741238,0.85768,0.50621,0.18182
1695051689507812,-9.317784,3.425994,0.739238,0.87368,0.45621,0.16582
1695051689515625,-9.320784,3.413994,0.746238,0.82168,0.49421,0.10482
1695051689523437,-9.325784,3.404994,0.750238,0.77568,0.46021,0.15082
1695051689531250,-9.323784,3.413994,0.737238,0.80668,0.52821,0.10482
1695051689539062,-9.327784,3.415994,0.741238,0.80468,0.52621,0.16782
1695051689546875,-9.322784,3.411994,0.739238,0.96568,0.55921,0.5882
1695051689554687,-9.313784,3.395994,0.741238,0.88468,0.51321,0.2682
1695051689562500,-9.313784,3.392994,0.739238,0.95868,0.53921,0.16882
1695051689570312,-9.316784,3.381994,0.746238,0.92568,0.54021,0.18482
1695051689578125,-9.322784,3.382994,0.746238,0.86868,0.59121,0.16882
1695051689585937,-9.325784,3.379994,0.753238,0.92468,0.59021,0.20182
1695051689593750,-9.322784,3.386994,0.753238,0.92468,0.60321,0.29582
1695051689601562,-9.316784,3.388994,0.775238,0.80268,0.58921,0.27982
1695051689609375,-9.295784,3.381994,0.762238,0.87968,0.62221,0.24882
1695051689617187,-9.291784,3.385994,0.773238,0.77068,0.64021,0.31182
1695051689625000,-9.297784,3.410994,0.780238,0.80468,0.63521,0.37382
1695051689632812,-9.283784,3.422994,0.780238,0.80868,0.66921,0.34282
1695051689640625,-9.287784,3.443994,0.805238,0.74268,0.62121,0.35782
1695051689648437,-9.290784,3.469994,0.812238,0.81468,0.61821,0.40582
1695051689656250,-9.266784,3.452994,0.810238,0.80568,0.65021,0.42082
1695051689664062,-9.239784,3.445994,0.798238,0.80568,0.46721,0.35382
1695051689671875,-9.234784,3.434994,0.801238,0.80768,0.51621,0.38582
1695051689679687,-9.250784,3.439994,0.785238,0.74668,0.45521,0.25982
1695051689687500,-9.284784,3.466994,0.780238,0.76268,0.40321,0.28982
1695051689695312,-9.314784,3.491994,0.759238,0.74868,0.48921,0.24382
1695051689703125,-9.307784,3.489994,0.753238,0.76468,0.47521,0.18082
1695051689710937,-9.291784,3.486994,0.748238,0.76268,0.54021,0.22982
1695051689718750,-9.287784,3.490994,0.746238,0.76168,0.57621,0.18382
1695051689726562,-9.292784,3.497994,0.721238,0.76168,0.54321,0.18282
1695051689734375,-9.304784,3.504994,0.739238,0.75968,0.56321,0.12182
1695051689742187,-9.307784,3.500994,0.725238,0.76568,0.54321,0.15082
1695051689750000,-9.303784,3.495994,0.730238,0.76468,0.64521,0.12282
1695051689757812,-9.302784,3.503994,0.743238,0.74068,0.61421,0.13882
1695051689765625,-9.301784,3.504994,0.739238,0.76568,0.62921,0.10582
1695051689773437,-9.301784,3.501994,0.755238,0.74768,0.61721,0.2782
1695051689781250,-9.301784,3.504994,0.762238,0.78168,0.63121,0.4382
1695051689789062,-9.287784,3.502994,0.784238,0.76668,0.61621,0.1182
1695051689796875,-9.290784,3.488994,0.784238,0.74668,0.63521,0.218
1695051689804687,-9.280784,3.482994,0.780238,0.79668,0.66521,0.4482
1695051689812500,-9.273784,3.463994,0.805238,0.76368,0.65121,0.218
1695051689820312,-9.273784,3.446994,0.807238,0.79868,0.63521,0.6618
1695051689828125,-9.270784,3.439994,0.814238,0.81268,0.61621,0.1918
1695051689835937,-9.266784,3.430994,0.812238,0.85868,0.53221,0.5218
1695051689843750,-9.254784,3.410994,0.810238,0.79568,0.56721,0.3618
1695051689851562,-9.268784,3.392994,0.794238,0.80868,0.48121,0.982
1695051689859375,-9.274784,3.394994,0.798238,0.84068,0.48021,0.982
1695051689867187,-9.276784,3.386994,0.787238,0.84168,0.41121,0.3982
1695051689875000,-9.285784,3.395994,0.780238,0.78268,0.49621,0.4082
1695051689882812,-9.285784,3.402994,0.769238,0.75068,0.42821,0.8582
1695051689890625,-9.293784,3.394994,0.764238,0.75968,0.47621,0.18182
1695051689898437,-9.301784,3.400994,0.757238,0.75068,0.47821,0.10282
1695051689906250,-9.308784,3.398994,0.746238,0.71868,0.44221,0.16482
1695051689914062,-9.313784,3.402994,0.741238,0.73468,0.41021,0.13282
1695051689921875,-9.322784,3.402994,0.732238,0.76268,0.39421,0.10182
1695051689929687,-9.298784,3.430994,0.737238,0.74568,0.42521,0.18082
1695051689937500,-9.329784,3.467994,0.744238,0.73568,0.45821,0.17982
1695051689945312,-9.353784,3.475994,0.743238,0.75868,0.54421,0.16782
1695051689953125,-9.315784,3.474994,0.739238,0.71168,0.64621,0.18582
1695051689960937,-9.290784,3.465994,0.745238,0.72368,0.61421,0.13882
1695051689968750,-9.288784,3.464994,0.750238,0.75268,0.54721,0.12282
1695051689976562,-9.287784,3.470994,0.773238,0.74368,0.59621,0.13782
1695051689984375,-9.287784,3.456994,0.773238,0.76068,0.59921,0.5982
1695051689992187,-9.287784,3.463994,0.771238,0.74668,0.54721,0.7382
1695051690000000,-9.287784,3.450994,0.778238,0.77768,0.52821,0.11982
1695051690007812,-9.287784,3.451994,0.764238,0.77068,0.51221,0.13682
1695051690015625,-9.287784,3.450994,0.764238,0.79268,0.51021,0.13582
1695051690023437,-9.287784,3.436994,0.757238,0.81668,0.45821,0.18282
1695051690031250,-9.291784,3.434994,0.746238,0.82068,0.49221,0.16682
1695051690039062,-9.292784,3.433994,0.759238,0.81368,0.44221,0.18282
1695051690046875,-9.300784,3.432994,0.748238,0.87968,0.43921,0.19782
1695051690054687,-9.305784,3.425994,0.739238,0.84568,0.45821,0.18382
1695051690062500,-9.303784,3.434994,0.741238,0.87768,0.44021,0.18282
1695051690070312,-9.305784,3.432994,0.734238,0.101368,0.47121,0.20082
1695051690078125,-9.312784,3.441994,0.739238,0.93968,0.52321,0.18482
1695051690085937,-9.305784,3.446994,0.739238,0.94068,0.50521,0.19982
1695051690093750,-9.300784,3.439994,0.746238,0.94068,0.52121,0.21582
1695051690101562,-9.296784,3.435994,0.748238,0.94168,0.51921,0.26282
1695051690109375,-9.286784,3.448994,0.750238,0.85268,0.48621,0.27682
1695051690117187,-9.289784,3.451994,0.755238,0.82368,0.52221,0.22982
1695051690125000,-9.287784,3.452994,0.739238,0.77468,0.50721,0.22982
1695051690132812,-9.286784,3.462994,0.748238,0.74868,0.38921,0.22582
1695051690140625,-9.276784,3.470994,0.750238,0.80468,0.49021,0.21382
1695051690148437,-9.281784,3.481994,0.761238,0.86268,0.49021,0.21482
1695051690156250,-9.276784,3.488994,0.750238,0.80768,0.49121,0.18282
1695051690164062,-9.269784,3.485994,0.750238,0.81968,0.51021,0.13682
1695051690171875,-9.269784,3.494994,0.748238,0.80368,0.49221,0.18282
1695051690179687,-9.283784,3.506994,0.743238,0.74568,0.50721,0.24482
1695051690187500,-9.290784,3.523994,0.739238,0.83268,0.42221,0.24482
1695051690195312,-9.283784,3.526994,0.741238,0.89668,0.50621,0.19982
1695051690203125,-9.279784,3.528994,0.739238,0.91368,0.50521,0.19882
1695051690210937,-9.285784,3.538994,0.741238,0.85668,0.44021,0.16482
1695051690218750,-9.272784,3.537994,0.748238,0.77568,0.51021,0.15182
1695051690226562,-9.270784,3.539994,0.748238,0.86668,0.51021,0.10582
1695051690234375,-9.256784,3.539994,0.741238,0.93168,0.49521,0.2682
1695051690242187,-9.272784,3.539994,0.739238,0.94168,0.52821,0.5982
1695051690250000,-9.283784,3.541994,0.743238,0.96068,0.51021,0.5882
1695051690257812,-9.270784,3.539994,0.759238,0.102168,0.52721,0.1282
1695051690265625,-9.268784,3.537994,0.750238,0.96268,0.51521,0.6718
1695051690273437,-9.264784,3.529994,0.757238,0.101468,0.49421,0.3718
1695051690281250,-9.267784,3.521994,0.766238,0.97768,0.53221,0.8218
1695051690289062,-9.265784,3.508994,0.771238,0.87168,0.53221,0.3618
1695051690296875,-9.259784,3.502994,0.773238,0.86268,0.51521,0.6918
1695051690304687,-9.266784,3.491994,0.775238,0.92268,0.46621,0.13218
1695051690312500,-9.271784,3.482994,0.764238,0.99768,0.54921,0.11318
1695051690320312,-9.266784,3.475994,0.771238,0.95068,0.48121,0.6818
1695051690328125,-9.280784,3.468994,0.775238,0.90368,0.48021,0.2118
1695051690335937,-9.289784,3.470994,0.771238,0.87068,0.46221,0.4082
1695051690343750,-9.287784,3.471994,0.766238,0.98068,0.39621,0.8518
1695051690351562,-9.286784,3.466994,0.753238,0.87468,0.37921,0.2418
1695051690359375,-9.286784,3.469994,0.741238,0.88868,0.47721,0.5682
1695051690367187,-9.289784,3.469994,0.750238,0.78168,0.52721,0.11982
1695051690375000,-9.287784,3.466994,0.762238,0.85368,0.50921,0.12082
1695051690382812,-9.284784,3.466994,0.757238,0.82468,0.47521,0.15082
1695051690390625,-9.284784,3.491994,0.764238,0.75268,0.46121,0.8582
1695051690398437,-9.286784,3.489994,0.750238,0.77068,0.47921,0.5482
1695051690406250,-9.287784,3.486994,0.743238,0.75068,0.47821,0.8682
1695051690414062,-9.291784,3.496994,0.739238,0.77068,0.47921,0.5482
1695051690421875,-9.305784,3.509994,0.741238,0.75168,0.51321,0.7182
1695051690429687,-9.286784,3.489994,0.739238,0.83068,0.54621,0.2582
1695051690437500,-9.287784,3.496994,0.741238,0.76868,0.46121,0.7082
1695051690445312,-9.287784,3.488994,0.739238,0.79268,0.41121,0.8682
1695051690453125,-9.289784,3.487994,0.741238,0.79768,0.51221,0.7182
1695051690460937,-9.284784,3.486994,0.739238,0.90368,0.52621,0.7282
1695051690468750,-9.280784,3.488994,0.741238,0.90268,0.49421,0.4182
1695051690476562,-9.280784,3.480994,0.739238,0.90368,0.50921,0.7282
1695051690484375,-9.259784,3.469994,0.741238,0.90568,0.51021,0.5682
1695051690492187,-9.287784,3.461994,0.743238,0.77668,0.52921,0.10482
1695051690500000,-9.286784,3.471994,0.739238,0.87168,0.49021,0.16682
1695051690507812,-9.280784,3.475994,0.757238,0.83968,0.51221,0.5782
1695051690515625,-9.266784,3.466994,0.757238,0.97768,0.48921,0.13582
1695051690523437,-9.259784,3.464994,0.759238,0.87068,0.50721,0.16682
1695051690531250,-9.253784,3.477994,0.757238,0.85668,0.57721,0.8982
1695051690539062,-9.251784,3.492994,0.764238,0.79368,0.49121,0.18182
1695051690546875,-9.269784,3.510994,0.778238,0.90068,0.52321,0.16782
1695051690554687,-9.265784,3.521994,0.773238,0.85268,0.50721,0.18282
1695051690562500,-9.256784,3.501994,0.780238,0.74268,0.52621,0.19882
1695051690570312,-9.237784,3.492994,0.775238,0.80568,0.49121,0.19882
1695051690578125,-9.215784,3.480994,0.764238,0.78768,0.39121,0.18082
1695051690585937,-9.218784,3.475994,0.761238,0.75168,0.37621,0.19682
1695051690593750,-9.247784,3.489994,0.745238,0.75668,0.39421,0.14982
1695051690601562,-9.290784,3.499994,0.723238,0.75668,0.31221,0.6982
1695051690609375,-9.297784,3.510994,0.730238,0.75968,0.31021,0.9982
1695051690617187,-9.294784,3.515994,0.723238,0.74368,0.30921,0.14682
1695051690625000,-9.290784,3.515994,0.705238,0.77668,0.37621,0.13282
1695051690632812,-9.287784,3.511994,0.700238,0.76368,0.44621,0.5582
1695051690640625,-9.283784,3.502994,0.696238,0.74668,0.49321,0.16682
1695051690648437,-9.288784,3.512994,0.684238,0.75868,0.51221,0.13582
1695051690656250,-9.287784,3.520994,0.691238,0.76168,0.52621,0.18282
1695051690664062,-9.290784,3.521994,0.679238,0.75868,0.54321,0.18382
1695051690671875,-9.292784,3.529994,0.686238,0.74868,0.61121,0.15282
1695051690679687,-9.300784,3.541994,0.702238,0.75968,0.57921,0.13782
1695051690687500,-9.301784,3.540994,0.707238,0.80868,0.54521,0.10482
1695051690695312,-9.297784,3.542994,0.714238,0.79268,0.58021,0.9082
1695051690703125,-9.285784,3.540994,0.725238,0.75068,0.54821,0.4182
1695051690710937,-9.281784,3.530994,0.739238,0.78968,0.56521,0.4382
1695051690718750,-9.268784,3.523994,0.750238,0.83568,0.56521,0.2882
1695051690726562,-9.265784,3.519994,0.748238,0.77868,0.58321,0.418
1695051690734375,-9.251784,3.499994,0.739238,0.77968,0.58221,0.2682
1695051690742187,-9.251784,3.494994,0.741238,0.85468,0.54721,0.2782
1695051690750000,-9.253784,3.482994,0.746238,0.76868,0.61721,0.2018
1695051690757812,-9.262784,3.475994,0.728238,0.75068,0.53221,0.2582
1695051690765625,-9.257784,3.477994,0.721238,0.80868,0.52821,0.10482
1695051690773437,-9.266784,3.463994,0.727238,0.85368,0.50821,0.15182
1695051690781250,-9.276784,3.474994,0.721238,0.80568,0.52921,0.10582
1695051690789062,-9.271784,3.479994,0.707238,0.77968,0.52721,0.11982
1695051690796875,-9.285784,3.486994,0.700238,0.76168,0.55921,0.18382
1695051690804687,-9.289784,3.500994,0.698238,0.74868,0.47621,0.14982
1695051690812500,-9.287784,3.500994,0.689238,0.76668,0.54221,0.16682
1695051690820312,-9.285784,3.501994,0.689238,0.76068,0.54521,0.13682
1695051690828125,-9.276784,3.506994,0.686238,0.71468,0.54621,0.13582
1695051690835937,-9.270784,3.517994,0.698238,0.71268,0.51121,0.18282
1695051690843750,-9.290784,3.548994,0.709238,0.72968,0.51021,0.18282
1695051690851562,-9.313784,3.587994,0.702238,0.75968,0.55921,0.19982
1695051690859375,-9.302784,3.584994,0.709238,0.75868,0.62721,0.18582
1695051690867187,-9.262784,3.569994,0.727238,0.75568,0.61321,0.13882
1695051690875000,-9.248784,3.568994,0.718238,0.74368,0.61221,0.16982
1695051690882812,-9.242784,3.559994,0.732238,0.76568,0.56421,0.5782
1695051690890625,-9.248784,3.567994,0.727238,0.74568,0.55021,0.2682
1695051690898437,-9.261784,3.559994,0.720238,0.84068,0.51321,0.2582
1695051690906250,-9.266784,3.556994,0.720238,0.80668,0.53521,0.5118
1695051690914062,-9.266784,3.550994,0.734238,0.79068,0.53521,0.3518
1695051690921875,-9.266784,3.554994,0.732238,0.92768,0.51421,0.1918
1695051690929687,-9.265784,3.530994,0.718238,0.96068,0.61021,0.9182
1695051690937500,-9.268784,3.520994,0.720238,0.89468,0.64721,0.6182
1695051690945312,-9.272784,3.523994,0.716238,0.89868,0.57721,0.9082
1695051690953125,-9.281784,3.513994,0.723238,0.99068,0.50521,0.15282
1695051690960937,-9.288784,3.499994,0.720238,0.98568,0.60621,0.20282
1695051690968750,-9.288784,3.501994,0.727238,0.100268,0.63821,0.20282
1695051690976562,-9.290784,3.503994,0.734238,0.100068,0.60421,0.23382
1695051690984375,-9.284784,3.516994,0.734238,0.99968,0.60621,0.18782
1695051690992187,-9.288784,3.506994,0.741238,0.100168,0.62021,0.23382
1695051691000000,-9.285784,3.508994,0.739238,0.98768,0.57021,0.23282
1695051691007812,-9.270784,3.510994,0.741238,0.100268,0.62121,0.21882
1695051691015625,-9.269784,3.499994,0.755238,0.92768,0.57221,0.21682
1695051691023437,-9.262784,3.504994,0.752238,0.96168,0.53821,0.18382
1695051691031250,-9.249784,3.509994,0.750238,0.83268,0.60921,0.20182
1695051691039062,-9.256784,3.503994,0.752238,0.90968,0.59121,0.18582
1695051691046875,-9.254784,3.512994,0.759238,0.88168,0.59021,0.20082
1695051691054687,-9.251784,3.523994,0.762238,0.89868,0.58821,0.23182
1695051691062500,-9.251784,3.521994,0.757238,0.85168,0.54121,0.18382
1695051691070312,-9.252784,3.523994,0.755238,0.87968,0.52721,0.12182
1695051691078125,-9.252784,3.529994,0.755238,0.84768,0.50821,0.19982
1695051691085937,-9.247784,3.530994,0.759238,0.89868,0.52221,0.19982
1695051691093750,-9.252784,3.543994,0.743238,0.91268,0.52321,0.18382
1695051691101562,-9.257784,3.559994,0.745238,0.83468,0.59221,0.20082
1695051691109375,-9.274784,3.562994,0.759238,0.90068,0.49021,0.15082
1695051691117187,-9.270784,3.557994,0.748238,0.74468,0.51121,0.15182
1695051691125000,-9.265784,3.566994,0.750238,0.80768,0.52621,0.15182
1695051691132812,-9.256784,3.575994,0.748238,0.79368,0.56221,0.8982
1695051691140625,-9.258784,3.575994,0.759238,0.79768,0.54521,0.8882
1695051691148437,-9.264784,3.577994,0.757238,0.82268,0.52821,0.10482
1695051691156250,-9.249784,3.573994,0.766238,0.82868,0.51421,0.618
1695051691164062,-9.254784,3.572994,0.761238,0.90168,0.56621,0.6618
1695051691171875,-9.252784,3.566994,0.764238,0.91968,0.56521,0.5118
1695051691179687,-9.254784,3.560994,0.764238,0.95168,0.54721,0.5118
1695051691187500,-9.251784,3.553994,0.755238,0.90668,0.54821,0.6718
1695051691195312,-9.254784,3.539994,0.771238,0.84268,0.51721,0.8318
1695051691203125,-9.257784,3.536994,0.775238,0.91268,0.53321,0.5018
1695051691210937,-9.257784,3.529994,0.764238,0.94168,0.51621,0.6618
1695051691218750,-9.253784,3.522994,0.764238,0.82968,0.53321,0.5218
1695051691226562,-9.260784,3.524994,0.762238,0.93668,0.51421,0.6818
1695051691234375,-9.254784,3.521994,0.748238,0.86868,0.49821,0.2018
1695051691242187,-9.261784,3.520994,0.748238,0.90968,0.49521,0.5882
1695051691250000,-9.261784,3.521994,0.750238,0.88368,0.51121,0.7382
1695051691257812,-9.251784,3.523994,0.736238,0.85368,0.52921,0.5882
1695051691265625,-9.251784,3.532994,0.746238,0.85368,0.50921,0.13582
1695051691273437,-9.251784,3.542994,0.741238,0.87168,0.50621,0.18282
1695051691281250,-9.251784,3.560994,0.739238,0.79568,0.52621,0.15082
1695051691289062,-9.251784,3.571994,0.741238,0.76668,0.54121,0.18182
1695051691296875,-9.248784,3.577994,0.741238,0.86768,0.50921,0.13682
1695051691304687,-9.254784,3.566994,0.739238,0.81268,0.52821,0.7282
1695051691312500,-9.250784,3.588994,0.741238,0.78068,0.53021,0.5682
1695051691320312,-9.259784,3.600994,0.739238,0.88868,0.49321,0.7282
1695051691328125,-9.261784,3.602994,0.741238,0.77868,0.49721,0.5682
1695051691335937,-9.263784,3.600994,0.736238,0.78568,0.48221,0.3818
1695051691343750,-9.270784,3.600994,0.739238,0.81468,0.44921,0.7018
1695051691351562,-9.263784,3.607994,0.741238,0.86068,0.51521,0.5318
1695051691359375,-9.257784,3.597994,0.741238,0.76768,0.53521,0.6818
1695051691367187,-9.254784,3.584994,0.736238,0.92268,0.51621,0.11518
1695051691375000,-9.255784,3.579994,0.734238,0.87068,0.57021,0.14418
1695051691382812,-9.258784,3.573994,0.739238,0.78868,0.53921,0.21018
1695051691390625,-9.262784,3.564994,0.748238,0.84868,0.53621,0.16218
1695051691398437,-9.270784,3.555994,0.745238,0.85868,0.47021,0.16318
1695051691406250,-9.263784,3.560994,0.746238,0.86268,0.58721,0.17718
1695051691414062,-9.269784,3.551994,0.764238,0.87768,0.57021,0.17718
1695051691421875,-9.251784,3.540994,0.746238,0.86268,0.65321,0.12818
1695051691429687,-9.244784,3.531994,0.757238,0.89468,0.60121,0.12918
1695051691437500,-9.242784,3.522994,0.762238,0.95368,0.60021,0.11318
1695051691445312,-9.233784,3.534994,0.768238,0.84168,0.51721,0.6818
1695051691453125,-9.251784,3.538994,0.766238,0.98468,0.56221,0.3518
1695051691460937,-9.260784,3.539994,0.777238,0.101068,0.66121,0.2982
1695051691468750,-9.249784,3.525994,0.775238,0.97568,0.52621,0.5882
1695051691476562,-9.229784,3.525994,0.775238,0.99168,0.52421,0.10582
1695051691484375,-9.214784,3.504994,0.769238,0.91968,0.47321,0.13482
1695051691492187,-9.228784,3.492994,0.759238,0.88368,0.52421,0.16782
1695051691500000,-9.253784,3.508994,0.741238,0.77868,0.47521,0.16582
1695051691507812,-9.287784,3.527994,0.741238,0.74968,0.45921,0.14882
1695051691515625,-9.318784,3.532994,0.734238,0.78468,0.47521,0.13382
1695051691523437,-9.305784,3.545994,0.739238,0.78168,0.44521,0.7082
1695051691531250,-9.290784,3.547994,0.725238,0.78068,0.47721,0.11882
1695051691539062,-9.278784,3.549994,0.705238,0.79768,0.51221,0.5682
1695051691546875,-9.288784,3.559994,0.702238,0.79068,0.56421,0.5882
1695051691554687,-9.287784,3.558994,0.709238,0.78468,0.63021,0.5882
1695051691562500,-9.288784,3.562994,0.718238,0.79668,0.61421,0.5882
1695051691570312,-9.288784,3.560994,0.716238,0.87268,0.61121,0.7482
1695051691578125,-9.274784,3.562994,0.720238,0.78068,0.63421,0.318
1695051691585937,-9.291784,3.580994,0.741238,0.74968,0.61721,0.318
1695051691593750,-9.270784,3.580994,0.755238,0.76668,0.76621,0.6182
1695051691601562,-9.261784,3.570994,0.773238,0.75068,0.75321,0.1618
1695051691609375,-9.263784,3.575994,0.782238,0.78368,0.81921,0.1518
1695051691617187,-9.247784,3.570994,0.791238,0.79768,0.73221,0.4582
1695051691625000,-9.238784,3.572994,0.809238,0.79868,0.65121,0.5018
1695051691632812,-9.229784,3.561994,0.814238,0.77968,0.63521,0.3418
1695051691640625,-9.218784,3.560994,0.827238,0.85468,0.65121,0.4818
1695051691648437,-9.206784,3.552994,0.821238,0.93468,0.64621,0.2882
1695051691656250,-9.224784,3.539994,0.816238,0.90368,0.58021,0.318
1695051691664062,-9.220784,3.543994,0.812238,0.88468,0.53121,0.418
1695051691671875,-9.233784,3.533994,0.816238,0.92368,0.56421,0.5118
1695051691679687,-9.233784,3.523994,0.803238,0.99568,0.51121,0.2018
1695051691687500,-9.246784,3.517994,0.794238,0.88868,0.52721,0.7282
1695051691695312,-9.253784,3.513994,0.791238,0.86068,0.51521,0.3718
1695051691703125,-9.251784,3.523994,0.789238,0.84068,0.53021,0.2682
1695051691710937,-9.267784,3.521994,0.780238,0.78068,0.55121,0.5218
1695051691718750,-9.267784,3.508994,0.773238,0.74868,0.51421,0.5682
1695051691726562,-9.269784,3.511994,0.755238,0.79668,0.53221,0.518
1695051691734375,-9.260784,3.503994,0.764238,0.79368,0.53321,0.2018
1695051691742187,-9.244784,3.522994,0.750238,0.75368,0.56721,0.3618
1695051691750000,-9.276784,3.562994,0.773238,0.76668,0.54921,0.518
1695051691757812,-9.307784,3.588994,0.782238,0.74868,0.55121,0.2018
1695051691765625,-9.275784,3.595994,0.789238,0.76368,0.59621,0.10582
1695051691773437,-9.248784,3.574994,0.796238,0.76368,0.60021,0.1182
1695051691781250,-9.232784,3.577994,0.802238,0.76468,0.61621,0.2782
1695051691789062,-9.230784,3.594994,0.805238,0.74768,0.51621,0.982
1695051691796875,-9.232784,3.591994,0.800238,0.75868,0.51621,0.2682
1695051691804687,-9.245784,3.597994,0.814238,0.75168,0.48421,0.3818
1695051691812500,-9.247784,3.590994,0.800238,0.79868,0.55121,0.6818
1695051691820312,-9.227784,3.594994,0.805238,0.84168,0.48321,0.5318
1695051691828125,-9.228784,3.578994,0.809238,0.74368,0.41921,0.6918
1695051691835937,-9.218784,3.569994,0.800238,0.76168,0.43521,0.5418
1695051691843750,-9.225784,3.558994,0.784238,0.83568,0.53521,0.6618
1695051691851562,-9.240784,3.559994,0.777238,0.81068,0.46621,0.5318
1695051691859375,-9.250784,3.551994,0.779238,0.78968,0.45321,0.9918
1695051691867187,-9.255784,3.549994,0.768238,0.82068,0.40421,0.14718
1695051691875000,-9.257784,3.538994,0.757238,0.82168,0.46921,0.9918
1695051691882812,-9.253784,3.533994,0.755238,0.79868,0.50121,0.8418
1695051691890625,-9.272784,3.532994,0.757238,0.76468,0.48621,0.10018
1695051691898437,-9.272784,3.532994,0.739238,0.80968,0.50221,0.8418
1695051691906250,-9.288784,3.534994,0.743238,0.77668,0.43921,0.16318
1695051691914062,-9.286784,3.527994,0.741238,0.74568,0.45921,0.20918
1695051691921875,-9.270784,3.521994,0.739238,0.76668,0.54121,0.20918
1695051691929687,-9.251784,3.519994,0.755238,0.76668,0.49121,0.22518
1695051691937500,-9.276784,3.521994,0.746238,0.76568,0.54021,0.17718
1695051691945312,-9.286784,3.512994,0.755238,0.76268,0.52421,0.19318
1695051691953125,-9.278784,3.508994,0.759238,0.76568,0.44021,0.19518
1695051691960937,-9.269784,3.515994,0.762238,0.76868,0.45421,0.16418
1695051691968750,-9.274784,3.513994,0.755238,0.76968,0.52321,0.19418
1695051691976562,-9.272784,3.512994,0.748238,0.76668,0.44121,0.22618
1695051691984375,-9.265784,3.507994,0.739238,0.76068,0.55321,0.6618
1695051691992187,-9.288784,3.519994,0.741238,0.76268,0.46921,0.8418
1695051692000000,-9.287784,3.517994,0.741238,0.76768,0.50221,0.8518
1695051692007812,-9.281784,3.517994,0.732238,0.74968,0.53721,0.9918
1695051692015625,-9.287784,3.524994,0.732238,0.76768,0.48621,0.10118
1695051692023437,-9.288784,3.521994,0.725238,0.77568,0.48621,0.6818
1695051692031250,-9.292784,3.521994,0.725238,0.77868,0.55521,0.12918
1695051692039062,-9.294784,3.527994,0.721238,0.76768,0.55221,0.6818
1695051692046875,-9.292784,3.524994,0.721238,0.84468,0.51821,0.9918
1695051692054687,-9.288784,3.521994,0.732238,0.80868,0.53621,0.9818
1695051692062500,-9.288784,3.524994,0.739238,0.80968,0.55121,0.5118
1695051692070312,-9.287784,3.517994,0.739238,0.78168,0.60321,0.8218
1695051692078125,-9.285784,3.508994,0.746238,0.84368,0.66921,0.9618
1695051692085937,-9.279784,3.519994,0.745238,0.85268,0.63521,0.6418
1695051692093750,-9.274784,3.513994,0.755238,0.84268,0.66821,0.4918
1695051692101562,-9.262784,3.508994,0.771238,0.85768,0.55021,0.5118
1695051692109375,-9.261784,3.505994,0.775238,0.83868,0.58521,0.6618
1695051692117187,-9.257784,3.495994,0.775238,0.93768,0.56521,0.6718
1695051692125000,-9.253784,3.504994,0.782238,0.89468,0.60121,0.12918
1695051692132812,-9.255784,3.493994,0.782238,0.84668,0.49821,0.3818
1695051692140625,-9.257784,3.499994,0.775238,0.79968,0.53321,0.3718
1695051692148437,-9.263784,3.498994,0.778238,0.89668,0.51521,0.10018
1695051692156250,-9.257784,3.497994,0.778238,0.84568,0.51621,0.6818
1695051692164062,-9.269784,3.495994,0.771238,0.79768,0.53621,0.11518
1695051692171875,-9.269784,3.502994,0.768238,0.90568,0.46721,0.11618
1695051692179687,-9.259784,3.486994,0.771238,0.78768,0.50421,0.16318
1695051692187500,-9.267784,3.490994,0.757238,0.79468,0.45321,0.11618
1695051692195312,-9.266784,3.495994,0.757238,0.84668,0.36821,0.16618
1695051692203125,-9.284784,3.498994,0.755238,0.80168,0.47121,0.19518
1695051692210937,-9.288784,3.489994,0.741238,0.86768,0.45521,0.17718
1695051692218750,-9.291784,3.493994,0.759238,0.87568,0.50321,0.17818
1695051692226562,-9.303784,3.495994,0.748238,0.84268,0.48821,0.19318
1695051692234375,-9.298784,3.488994,0.739238,0.79768,0.48821,0.17818
1695051692242187,-9.305784,3.486994,0.750238,0.87468,0.52021,0.17718
1695051692250000,-9.296784,3.468994,0.759238,0.92368,0.54021,0.28718
1695051692257812,-9.307784,3.464994,0.759238,0.87668,0.54321,0.31818
1695051692265625,-9.292784,3.454994,0.766238,0.90168,0.52121,0.27318
1695051692273437,-9.286784,3.444994,0.762238,0.96668,0.55321,0.19218
1695051692281250,-9.287784,3.432994,0.759238,0.88768,0.54021,0.23918
1695051692289062,-9.298784,3.431994,0.768238,0.91368,0.52221,0.20718
1695051692296875,-9.304784,3.430994,0.775238,0.98168,0.46921,0.22518
1695051692304687,-9.284784,3.419994,0.778238,0.87468,0.55321,0.16118
1695051692312500,-9.274784,3.401994,0.773238,0.84668,0.53921,0.20918
1695051692320312,-9.289784,3.394994,0.766238,0.79468,0.52221,0.16118
1695051692328125,-9.282784,3.414994,0.771238,0.82668,0.54121,0.22318
1695051692335937,-9.287784,3.432994,0.773238,0.76368,0.57321,0.14518
1695051692343750,-9.287784,3.448994,0.778238,0.79568,0.52121,0.13018
1695051692351562,-9.287784,3.468994,0.775238,0.79668,0.56821,0.6718
1695051692359375,-9.284784,3.471994,0.775238,0.75368,0.63421,0.1918
1695051692367187,-9.268784,3.477994,0.787238,0.76768,0.54821,0.2582
1695051692375000,-9.259784,3.463994,0.789238,0.75168,0.53321,0.2118
1695051692382812,-9.250784,3.463994,0.791238,0.76668,0.43321,0.3918
1695051692390625,-9.268784,3.469994,0.780238,0.76968,0.38221,0.5618
1695051692398437,-9.291784,3.477994,0.775238,0.76668,0.38421,0.8718
1695051692406250,-9.305784,3.500994,0.759238,0.76968,0.38621,0.15018
1695051692414062,-9.305784,3.502994,0.752238,0.84568,0.45321,0.17918
1695051692421875,-9.300784,3.500994,0.746238,0.86368,0.48821,0.22618
1695051692429687,-9.292784,3.477994,0.739238,0.82468,0.47121,0.14718
1695051692437500,-9.290784,3.479994,0.730238,0.80768,0.52121,0.11418
1695051692445312,-9.305784,3.484994,0.732238,0.87368,0.38621,0.19618
1695051692453125,-9.297784,3.488994,0.732238,0.85368,0.50321,0.13018
1695051692460937,-9.296784,3.481994,0.730238,0.91868,0.53721,0.17618
1695051692468750,-9.326784,3.488994,0.734238,0.99468,0.48521,0.17718
1695051692476562,-9.322784,3.486994,0.739238,0.91568,0.48821,0.19218
1695051692484375,-9.326784,3.486994,0.743238,0.88968,0.57121,0.17618
1695051692492187,-9.306784,3.488994,0.766238,0.93068,0.60421,0.17418
1695051692500000,-9.305784,3.477994,0.773238,0.95168,0.52021,0.20818
1695051692507812,-9.296784,3.457994,0.778238,0.99668,0.56821,0.16018
1695051692515625,-9.287784,3.445994,0.775238,0.100668,0.60321,0.17418
1695051692523437,-9.284784,3.437994,0.782238,0.100968,0.53421,0.16018
1695051692531250,-9.275784,3.408994,0.791238,0.101268,0.50221,0.22418
1695051692539062,-9.275784,3.398994,0.778238,0.97768,0.48521,0.17718
1695051692546875,-9.275784,3.389994,0.782238,0.97368,0.41921,0.17718
1695051692554687,-9.283784,3.380994,0.782238,0.98668,0.40121,0.22718
1695051692562500,-9.288784,3.381994,0.775238,0.80968,0.37121,0.18018
1695051692570312,-9.286784,3.369994,0.775238,0.80668,0.36921,0.11718
1695051692578125,-9.290784,3.376994,0.762238,0.74768,0.35121,0.7118
1695051692585937,-9.288784,3.369994,0.748238,0.79268,0.38421,0.7018
1695051692593750,-9.291784,3.378994,0.741238,0.75768,0.36821,0.5418
1695051692601562,-9.307784,3.385994,0.741238,0.75568,0.36721,0.2318
1695051692609375,-9.329784,3.388994,0.734238,0.74668,0.45321,0.8518
1695051692617187,-9.329784,3.383994,0.728238,0.76168,0.51821,0.2018
1695051692625000,-9.316784,3.389994,0.725238,0.74168,0.53621,0.1918
1695051692632812,-9.305784,3.396994,0.723238,0.72568,0.51821,0.2682
1695051692640625,-9.320784,3.440994,0.737238,0.74868,0.53121,0.5782
1695051692648437,-9.362784,3.464994,0.741238,0.80568,0.51421,0.5782
1695051692656250,-9.351784,3.468994,0.750238,0.80568,0.56321,0.9082
1695051692664062,-9.309784,3.455994,0.752238,0.88468,0.61321,0.4482
1695051692671875,-9.300784,3.455994,0.755238,0.84068,0.59721,0.2782
1695051692679687,-9.286784,3.437994,0.762238,0.90168,0.52921,0.2682
1695051692687500,-9.287784,3.434994,0.768238,0.100168,0.54521,0.2982
1695051692695312,-9.286784,3.421994,0.773238,0.101068,0.54521,0.1918
1695051692703125,-9.287784,3.416994,0.762238,0.92968,0.49721,0.2018
1695051692710937,-9.291784,3.414994,0.768238,0.94268,0.53021,0.1282
1695051692718750,-9.288784,3.401994,0.753238,0.100768,0.43021,0.8418
1695051692726562,-9.284784,3.387994,0.750238,0.98968,0.39521,0.3718
1695051692734375,-9.292784,3.379994,0.750238,0.100868,0.42821,0.3718
1695051692742187,-9.297784,3.370994,0.737238,0.100768,0.37921,0.6918
1695051692750000,-9.299784,3.359994,0.725238,0.98968,0.37921,0.5318
1695051692757812,-9.306784,3.359994,0.714238,0.100668,0.44521,0.2118
1695051692765625,-9.319784,3.350994,0.714238,0.96268,0.41221,0.3818
1695051692773437,-9.336784,3.355994,0.716238,0.91368,0.51421,0.1918
1695051692781250,-9.347784,3.361994,0.721238,0.89668,0.51421,0.1182
1695051692789062,-9.356784,3.362994,0.723238,0.99368,0.52721,0.1182
1695051692796875,-9.340784,3.364994,0.725238,0.76468,0.51621,0.982
1695051692804687,-9.336784,3.367994,0.730238,0.75768,0.55021,0.2782
1695051692812500,-9.327784,3.369994,0.730238,0.75568,0.53421,0.2782
1695051692820312,-9.322784,3.379994,0.739238,0.76168,0.53421,0.418
1695051692828125,-9.316784,3.383994,0.739238,0.76268,0.58721,0.6618
1695051692835937,-9.305784,3.387994,0.746238,0.73868,0.60121,0.6082
1695051692843750,-9.300784,3.394994,0.762238,0.77468,0.56621,0.2782
1695051692851562,-9.287784,3.399994,0.759238,0.75268,0.51921,0.318
1695051692859375,-9.287784,3.396994,0.757238,0.75768,0.56621,0.4382
1695051692867187,-9.287784,3.407994,0.741238,0.86568,0.46321,0.2682
1695051692875000,-9.287784,3.421994,0.753238,0.83668,0.47921,0.5782
1695051692882812,-9.287784,3.432994,0.748238,0.80568,0.48021,0.4182
1695051692890625,-9.290784,3.429994,0.743238,0.83168,0.51521,0.4382
1695051692898437,-9.287784,3.443994,0.741238,0.97068,0.47721,0.5882
1695051692906250,-9.294784,3.450994,0.727238,0.97068,0.37521,0.7182
1695051692914062,-9.303784,3.448994,0.730238,0.97668,0.49521,0.1182
1695051692921875,-9.301784,3.457994,0.718238,0.85268,0.53221,0.418
1695051692929687,-9.306784,3.454994,0.716238,0.89468,0.49721,0.2782
1695051692937500,-9.323784,3.464994,0.725238,0.96068,0.51021,0.4282
1695051692945312,-9.326784,3.470994,0.730238,0.95968,0.52921,0.318
1695051692953125,-9.311784,3.467994,0.716238,0.81568,0.51721,0.318
1695051692960937,-9.312784,3.466994,0.734238,0.85468,0.53121,0.1182
1695051692968750,-9.317784,3.467994,0.736238,0.81768,0.56821,0.3418
1695051692976562,-9.307784,3.453994,0.739238,0.87068,0.51621,0.5118
1695051692984375,-9.299784,3.447994,0.739238,0.89268,0.60121,0.3218
1695051692992187,-9.290784,3.429994,0.743238,0.75568,0.55521,0.6518
1695051693000000,-9.298784,3.432994,0.752238,0.85068,0.56821,0.4918
1695051693007812,-9.305784,3.435994,0.737238,0.84068,0.56821,0.6618
1695051693015625,-9.291784,3.432994,0.741238,0.76368,0.58421,0.418
1695051693023437,-9.291784,3.426994,0.748238,0.77768,0.53221,0.2682
1695051693031250,-9.286784,3.423994,0.750238,0.76368,0.51721,0.2118
1695051693039062,-9.289784,3.430994,0.743238,0.74568,0.53321,0.1082
1695051693046875,-9.286784,3.433994,0.748238,0.76768,0.53021,0.4082
1695051693054687,-9.291784,3.441994,0.741238,0.75968,0.58121,0.9082
1695051693062500,-9.290784,3.452994,0.741238,0.75668,0.59721,0.12282
1695051693070312,-9.292784,3.449994,0.739238,0.75668,0.56421,0.10682
1695051693078125,-9.287784,3.451994,0.743238,0.75668,0.51421,0.8982
1695051693085937,-9.288784,3.449994,0.741238,0.75568,0.53321,0.4382
1695051693093750,-9.296784,3.462994,0.741238,0.76368,0.44621,0.5582
1695051693101562,-9.298784,3.455994,0.739238,0.74868,0.49921,0.982
1695051693109375,-9.312784,3.447994,0.736238,0.75568,0.50021,0.2682
1695051693117187,-9.314784,3.439994,0.734238,0.71868,0.52021,0.6818
1695051693125000,-9.314784,3.445994,0.732238,0.66868,0.53821,0.5218
1695051693132812,-9.314784,3.443994,0.727238,0.75968,0.52121,0.8218
1695051693140625,-9.307784,3.446994,0.723238,0.74968,0.54121,0.19318
1695051693148437,-9.305784,3.434994,0.718238,0.75868,0.52021,0.6718
1695051693156250,-9.303784,3.432994,0.707238,0.76068,0.47021,0.10018
1695051693164062,-9.303784,3.430994,0.709238,0.76268,0.47121,0.11618
1695051693171875,-9.314784,3.432994,0.721238,0.76068,0.53621,0.5118
1695051693179687,-9.300784,3.423994,0.727238,0.74668,0.53921,0.11418
1695051693187500,-9.302784,3.432994,0.730238,0.73368,0.52021,0.6818
1695051693195312,-9.298784,3.434994,0.736238,0.76068,0.55321,0.6618
1695051693203125,-9.289784,3.429994,0.755238,0.77568,0.61821,0.1818
1695051693210937,-9.279784,3.424994,0.764238,0.76768,0.53221,0.982
1695051693218750,-9.280784,3.427994,0.764238,0.82268,0.55021,0.3518
1695051693226562,-9.264784,3.432994,0.773238,0.79668,0.51821,0.6818
1695051693234375,-9.268784,3.433994,0.778238,0.81468,0.53221,0.2118
1695051693242187,-9.284784,3.452994,0.794238,0.76468,0.51521,0.2582
1695051693250000,-9.284784,3.437994,0.794238,0.83968,0.53221,0.2018
1695051693257812,-9.269784,3.429994,0.794238,0.98568,0.40821,0.782
1695051693265625,-9.266784,3.401994,0.771238,0.88568,0.39621,0.718
1695051693273437,-9.256784,3.387994,0.755238,0.89968,0.32521,0.6982
1695051693281250,-9.275784,3.383994,0.741238,0.77468,0.23121,0.1118
1695051693289062,-9.299784,3.399994,0.716238,0.77968,0.28221,0.4218
1695051693296875,-9.336784,3.413994,0.705238,0.74668,0.20021,0.7518
1695051693312500,-9.341784,3.409994,0.673238,0.74768,0.33421,0.5618
1695051693320312,-9.336784,3.407994,0.664238,0.78168,0.35021,0.8818
1695051693328125,-9.336784,3.407994,0.643238,0.78068,0.36721,0.8718
1695051693335937,-9.341784,3.419994,0.648238,0.74268,0.40121,0.2218
1695051693343750,-9.336784,3.433994,0.650238,0.88468,0.44721,0.2118
1695051693351562,-9.342784,3.428994,0.648238,0.80368,0.58721,0.6518
1695051693359375,-9.346784,3.439994,0.659238,0.80368,0.58621,0.4918
1695051693367187,-9.339784,3.451994,0.675238,0.84068,0.58521,0.6618
1695051693375000,-9.336784,3.460994,0.698238,0.88968,0.66621,0.4918
1695051693382812,-9.316784,3.455994,0.702238,0.88668,0.61821,0.8118
1695051693390625,-9.315784,3.454994,0.718238,0.95868,0.65321,0.12518
1695051693398437,-9.297784,3.433994,0.739238,0.101468,0.63321,0.12818
1695051693406250,-9.296784,3.432994,0.741238,0.99468,0.56721,0.14418
1695051693414062,-9.286784,3.419994,0.748238,0.100968,0.56821,0.15918
1695051693421875,-9.287784,3.400994,0.755238,0.100768,0.55421,0.20618
1695051693429687,-9.288784,3.401994,0.748238,0.99768,0.48321,0.14618
1695051693437500,-9.290784,3.381994,0.741238,0.100968,0.50121,0.17618
1695051693445312,-9.290784,3.380994,0.732238,0.102968,0.46521,0.16218
1695051693453125,-9.301784,3.368994,0.730238,0.105568,0.36321,0.13218
