time,Acceleration X (m/s^2),Acceleration Y (m/s^2),Acceleration Z (m/s^2),Angular Velocity X (rad/s),Angular Velocity Y (rad/s),Angular Velocity Z (rad/s)
1695052228648437,-9.891833,1.009139,-0.133987,,,
1695052228656250,-9.881833,1.3139,0.126987,0.82349,0.56377,0.30738
1695052228664062,-9.861833,0.991139,0.122987,0.85049,0.56877,0.29038
1695052228671875,-9.873833,0.988139,0.122987,0.89649,0.53477,0.30638
1695052228679687,-9.859833,0.964139,0.115987,0.95849,0.51777,0.35338
1695052228687500,-9.870833,0.937139,0.119987,0.94349,0.53377,0.33738
1695052228703125,-9.893833,0.889139,0.128987,0.95949,0.42777,0.30938
1695052228710937,-9.898833,0.873139,0.147987,0.97349,0.47977,0.30738
1695052228718750,-9.915833,0.843139,0.167987,0.97449,0.42677,0.29338
1695052228726562,-9.936833,0.809139,0.178987,0.97249,0.44377,0.24538
1695052228750000,-9.945833,0.767139,0.201987,0.93649,0.40577,0.4138
1695052228757812,-9.964833,0.763139,0.215987,0.92249,0.41577,0.5162
1695052228765625,-9.971833,0.752139,0.224987,0.89149,0.55177,0.5462
1695052228773437,-9.955833,0.743139,0.219987,0.89049,0.56277,0.17962
1695052228781250,-9.935833,0.729139,0.210987,0.73649,0.61577,0.24362
1695052228789062,-9.950833,0.752139,0.212987,0.75249,0.60577,0.36762
1695052228796875,-9.946833,0.770139,0.192987,0.70449,0.52177,0.42862
1695052228804687,-9.972833,0.792139,0.187987,0.71749,0.65777,0.47962
1695052228812500,-9.973833,0.820139,0.178987,0.69949,0.65877,0.52762
1695052228820312,-9.918833,0.831139,0.167987,0.73049,0.71877,0.63762
1695052228828125,-9.907833,0.826139,0.162987,0.74349,0.64977,0.69962
1695052228835937,-9.918833,0.831139,0.169987,0.76049,0.66377,0.69962
1695052228843750,-9.902833,0.840139,0.160987,0.78749,0.67977,0.77962
1695052228851562,-9.889833,0.864139,0.147987,0.84849,0.60877,0.79362
1695052228859375,-9.889833,0.876139,0.153987,0.89549,0.63877,0.82562
1695052228867187,-9.905833,0.900139,0.160987,0.95349,0.63677,0.92062
1695052228875000,-9.912833,0.895139,0.163987,0.93649,0.66877,0.98462
1695052228882812,-9.897833,0.917139,0.160987,0.95049,0.65277,0.98462
1695052228890625,-9.899833,0.924139,0.151987,0.95149,0.65177,0.99962
1695052228898437,-9.904833,0.920139,0.172987,0.93249,0.56477,0.110862
1695052228906250,-9.910833,0.920139,0.185987,0.96649,0.64577,0.107762
1695052228914062,-9.917833,0.925139,0.197987,0.94949,0.64077,0.120262
1695052228921875,-9.933833,0.945139,0.190987,0.94649,0.61077,0.121962
1695052228929687,-9.922833,0.952139,0.192987,0.97849,0.64177,0.120362
1695052228937500,-9.918833,0.967139,0.174987,0.91549,0.65777,0.128262
1695052228945312,-9.920833,0.990139,0.172987,0.88749,0.70777,0.125162
1695052228953125,-9.909833,0.996139,0.167987,0.93149,0.65477,0.131362
1695052228960937,-9.901833,1.15139,0.165987,0.85349,0.69577,0.128362
1695052228968750,-9.891833,1.34139,0.154987,0.88749,0.67177,0.129762
1695052228976562,-9.882833,1.47139,0.158987,0.94749,0.65177,0.134462
1695052228984375,-9.878833,1.65139,0.142987,0.87349,0.89377,0.123962
1695052228992187,-9.878833,1.80139,0.129987,0.85449,0.72277,0.134562
1695052229000000,-9.870833,1.109139,0.131987,0.79249,0.72577,0.136262
1695052229007812,-9.872833,1.125139,0.126987,0.85649,0.63677,0.131162
1695052229015625,-9.857833,1.135139,0.106987,0.82249,0.65977,0.132962
1695052229023437,-9.845833,1.149139,0.102987,0.83949,0.60377,0.135862
1695052229031250,-9.827833,1.164139,0.104987,0.85449,0.58877,0.134362
1695052229039062,-9.844833,1.189139,0.106987,0.96049,0.60477,0.132862
1695052229046875,-9.837833,1.202139,0.118987,0.83749,0.52677,0.129562
1695052229054687,-9.824833,1.211139,0.97987,0.83749,0.49177,0.131062
1695052229062500,-9.833833,1.229139,0.100987,0.91549,0.50977,0.123262
1695052229070312,-9.835833,1.249139,0.104987,0.87049,0.49377,0.121562
1695052229078125,-9.826833,1.270139,0.113987,0.79849,0.41077,0.110262
1695052229085937,-9.836833,1.282139,0.132987,0.76549,0.39977,0.107162
1695052229093750,-9.827833,1.307139,0.129987,0.75249,0.48677,0.97962
1695052229101562,-9.812833,1.337139,0.120987,0.73649,0.37577,0.91462
1695052229109375,-9.818833,1.354139,0.116987,0.74049,0.34277,0.78762
1695052229117187,-9.807833,1.372139,0.127987,0.69749,0.32877,0.69162
1695052229125000,-9.805833,1.382139,0.132987,0.71049,0.36477,0.70962
1695052229132812,-9.805833,1.400139,0.127987,0.69749,0.33477,0.59862
1695052229140625,-9.806833,1.411139,0.130987,0.71349,0.33777,0.53662
1695052229148437,-9.808833,1.422139,0.123987,0.68349,0.30677,0.47262
1695052229156250,-9.817833,1.441139,0.127987,0.70349,0.29177,0.32962
1695052229164062,-9.835833,1.436139,0.134987,0.71949,0.23177,0.18862
1695052229171875,-9.846833,1.435139,0.148987,0.72149,0.21577,0.12462
1695052229179687,-9.846833,1.419139,0.150987,0.72249,0.21777,0.4562
1695052229187500,-9.855833,1.410139,0.159987,0.72349,0.17277,0.4838
1695052229195312,-9.873833,1.400139,0.166987,0.72549,0.15677,0.12838
1695052229203125,-9.873833,1.377139,0.173987,0.72749,0.16077,0.23838
1695052229210937,-9.865833,1.369139,0.184987,0.72949,0.15777,0.23938
1695052229218750,-9.882833,1.355139,0.193987,0.72749,0.16577,0.31638
1695052229226562,-9.883833,1.347139,0.198987,0.72949,0.14477,0.30138
1695052229234375,-9.874833,1.317139,0.218987,0.72849,0.14777,0.31638
1695052229242187,-9.878833,1.302139,0.232987,0.72949,0.14577,0.31738
1695052229250000,-9.903833,1.297139,0.234987,0.72849,0.19777,0.29938
1695052229257812,-9.917833,1.280139,0.241987,0.71249,0.18277,0.30038
1695052229265625,-9.916833,1.265139,0.238987,0.68449,0.24677,0.28438
1695052229273437,-9.916833,1.247139,0.238987,0.63949,0.39977,0.31238
1695052229281250,-9.916833,1.244139,0.241987,0.63649,0.25077,0.28338
1695052229289062,-9.916833,1.242139,0.243987,0.66849,0.33277,0.29738
1695052229296875,-9.923833,1.233139,0.238987,0.66749,0.36577,0.24938
1695052229304687,-9.907833,1.221139,0.241987,0.71049,0.41677,0.20038
1695052229312500,-9.880833,1.235139,0.236987,0.65049,0.41477,0.18538
1695052229320312,-9.885833,1.241139,0.229987,0.60349,0.43377,0.15338
1695052229328125,-9.883833,1.243139,0.234987,0.63249,0.44577,0.5938
1695052229335937,-9.876833,1.241139,0.220987,0.55649,0.41177,0.4438
1695052229343750,-9.867833,1.243139,0.222987,0.63349,0.47777,0.5838
1695052229351562,-9.876833,1.252139,0.213987,0.55649,0.46177,0.1238
1695052229359375,-9.864833,1.259139,0.220987,0.58849,0.37177,0.0
1695052229367187,-9.862833,1.270139,0.211987,0.57149,0.45977,0.1862
1695052229375000,-9.844833,1.290139,0.209987,0.54149,0.42477,0.1762
1695052229382812,-9.878833,1.322139,0.202987,0.48349,0.47477,0.1438
1695052229390625,-9.877833,1.344139,0.193987,0.54349,0.39277,0.6238
1695052229398437,-9.860833,1.342139,0.168987,0.59249,0.48877,0.4538
1695052229406250,-9.838833,1.333139,0.166987,0.57649,0.49277,0.9138
1695052229414062,-9.808833,1.319139,0.175987,0.53149,0.47877,0.13938
1695052229421875,-9.792833,1.294139,0.186987,0.60749,0.39977,0.24938
1695052229429687,-9.783833,1.276139,0.184987,0.51549,0.26977,0.31538
1695052229437500,-9.813833,1.285139,0.198987,0.51449,0.15377,0.33338
1695052229445312,-9.842833,1.290139,0.220987,0.62249,0.15477,0.39538
1695052229453125,-9.866833,1.269139,0.222987,0.48849,0.20277,0.39638
1695052229460937,-9.877833,1.247139,0.231987,0.50649,0.19977,0.42938
1695052229468750,-9.862833,1.244139,0.241987,0.48849,0.17677,0.52238
1695052229476562,-9.856833,1.238139,0.238987,0.49249,0.22177,0.53838
1695052229484375,-9.866833,1.206139,0.243987,0.53649,0.22577,0.56838
1695052229492187,-9.868833,1.179139,0.266987,0.49049,0.31277,0.55038
1695052229500000,-9.877833,1.182139,0.272987,0.49149,0.34577,0.56638
1695052229507812,-9.896833,1.178139,0.277987,0.49449,0.33977,0.55238
1695052229515625,-9.897833,1.160139,0.275987,0.47549,0.27877,0.56738
1695052229523437,-9.906833,1.151139,0.277987,0.44449,0.29677,0.55138
1695052229531250,-9.899833,1.152139,0.275987,0.41249,0.36777,0.56538
1695052229539062,-9.899833,1.153139,0.275987,0.44449,0.34677,0.55038
1695052229546875,-9.892833,1.139139,0.265987,0.41449,0.31277,0.55138
1695052229554687,-9.896833,1.124139,0.270987,0.49249,0.37677,0.56638
1695052229562500,-9.905833,1.118139,0.263987,0.44749,0.40977,0.55038
1695052229570312,-9.894833,1.110139,0.263987,0.49149,0.46277,0.56338
1695052229578125,-9.894833,1.95139,0.274987,0.47549,0.37977,0.54938
1695052229585937,-9.900833,1.79139,0.277987,0.49049,0.36077,0.53438
1695052229593750,-9.907833,1.66139,0.281987,0.49249,0.39277,0.53438
1695052229601562,-9.905833,1.73139,0.286987,0.49049,0.40677,0.43938
1695052229609375,-9.916833,1.60139,0.286987,0.53549,0.38777,0.40838
1695052229617187,-9.905833,1.59139,0.295987,0.54749,0.45377,0.31138
1695052229625000,-9.895833,1.66139,0.292987,0.56449,0.38377,0.31338
1695052229632812,-9.909833,1.64139,0.295987,0.67049,0.46177,0.23338
1695052229640625,-9.914833,1.62139,0.304987,0.66849,0.46077,0.16938
1695052229648437,-9.900833,1.64139,0.304987,0.68249,0.42477,0.10738
1695052229656250,-9.894833,1.68139,0.311987,0.71049,0.46077,0.10538
1695052229664062,-9.891833,1.77139,0.306987,0.68149,0.40577,0.6138
1695052229671875,-9.889833,1.79139,0.300987,0.68049,0.56277,0.10338
1695052229679687,-9.864833,1.90139,0.322987,0.63649,0.45677,0.6038
1695052229687500,-9.864833,1.99139,0.313987,0.63449,0.47377,0.1238
1695052229695312,-9.908833,1.147139,0.313987,0.66549,0.53577,0.5162
1695052229703125,-9.949833,1.165139,0.306987,0.72549,0.55377,0.3762
1695052229710937,-9.910833,1.155139,0.293987,0.69449,0.57077,0.5262
1695052229718750,-9.872833,1.159139,0.297987,0.69449,0.53977,0.2162
1695052229726562,-9.858833,1.154139,0.300987,0.63349,0.55477,0.6762
1695052229734375,-9.858833,1.170139,0.284987,0.68149,0.55377,0.462
1695052229742187,-9.861833,1.179139,0.272987,0.71349,0.58977,0.5738
1695052229750000,-9.850833,1.174139,0.275987,0.67949,0.61177,0.3938
1695052229757812,-9.850833,1.179139,0.270987,0.60449,0.52677,0.4238
1695052229765625,-9.863833,1.188139,0.277987,0.66649,0.57577,0.5738
1695052229773437,-9.854833,1.185139,0.275987,0.68049,0.55877,0.4138
1695052229781250,-9.852833,1.176139,0.275987,0.72649,0.57777,0.8738
1695052229789062,-9.849833,1.171139,0.281987,0.71449,0.50577,0.9038
1695052229796875,-9.861833,1.172139,0.297987,0.69649,0.49477,0.13638
1695052229804687,-9.858833,1.180139,0.281987,0.71549,0.45877,0.20138
1695052229812500,-9.874833,1.155139,0.286987,0.70049,0.56077,0.18338
1695052229820312,-9.880833,1.133139,0.302987,0.73249,0.49177,0.21638
1695052229828125,-9.885833,1.115139,0.295987,0.71849,0.54877,0.34138
1695052229835937,-9.871833,1.115139,0.283987,0.73449,0.53277,0.37238
1695052229843750,-9.884833,1.95139,0.290987,0.70449,0.51777,0.40438
1695052229851562,-9.905833,1.76139,0.300987,0.67149,0.52877,0.49638
1695052229859375,-9.918833,1.73139,0.295987,0.73449,0.57477,0.51238
1695052229867187,-9.897833,1.57139,0.295987,0.72249,0.52377,0.56138
1695052229875000,-9.893833,1.48139,0.297987,0.73549,0.44077,0.54638
1695052229882812,-9.898833,1.37139,0.302987,0.71949,0.44277,0.56238
1695052229890625,-9.917833,1.18139,0.299987,0.73549,0.38577,0.48538
1695052229898437,-9.938833,1.22139,0.301987,0.73549,0.41877,0.48438
1695052229906250,-9.922833,1.20139,0.295987,0.73449,0.53577,0.43538
1695052229914062,-9.903833,1.9139,0.290987,0.72049,0.54977,0.38838
1695052229921875,-9.909833,1.3139,0.306987,0.80649,0.46777,0.32438
1695052229929687,-9.929833,0.997139,0.308987,0.85149,0.53077,0.26038
1695052229937500,-9.924833,1.2139,0.295987,0.79249,0.50877,0.21538
1695052229945312,-9.884833,0.987139,0.295987,0.89649,0.51077,0.21338
1695052229953125,-9.868833,0.994139,0.297987,0.81949,0.57577,0.11838
1695052229960937,-9.887833,0.996139,0.300987,0.92249,0.55977,0.6938
1695052229968750,-9.911833,0.999139,0.308987,0.81849,0.52377,0.7238
1695052229976562,-9.895833,0.999139,0.290987,0.86349,0.57077,0.838
1695052229984375,-9.877833,1.8139,0.295987,0.87849,0.53177,0.6862
1695052229992187,-9.882833,1.5139,0.306987,0.86049,0.54877,0.13262
1695052230000000,-9.886833,1.1139,0.299987,0.83049,0.53577,0.8562
1695052230007812,-9.897833,1.13139,0.311987,0.84649,0.54577,0.16262
1695052230015625,-9.895833,1.33139,0.306987,0.81649,0.52977,0.11462
1695052230023437,-9.897833,1.51139,0.299987,0.84849,0.54777,0.6862
1695052230031250,-9.884833,1.48139,0.313987,0.90749,0.54677,0.11662
1695052230039062,-9.877833,1.51139,0.306987,0.87949,0.52977,0.5262
1695052230046875,-9.875833,1.50139,0.302987,0.89449,0.48177,0.2062
1695052230054687,-9.873833,1.61139,0.313987,0.75749,0.55577,0.2538
1695052230062500,-9.857833,1.52139,0.311987,0.86549,0.53477,0.4138
1695052230070312,-9.877833,1.59139,0.313987,0.91149,0.53777,0.10338
1695052230078125,-9.909833,1.66139,0.311987,0.81849,0.40277,0.4438
1695052230085937,-9.916833,1.59139,0.311987,0.88049,0.50677,0.11938
1695052230093750,-9.911833,1.53139,0.315987,0.82049,0.47677,0.18338
1695052230101562,-9.906833,1.31139,0.327987,0.83749,0.44077,0.20038
1695052230109375,-9.895833,1.15139,0.327987,0.91149,0.43977,0.15238
1695052230117187,-9.897833,1.12139,0.343987,0.71349,0.47977,0.20038
1695052230125000,-9.916833,1.8139,0.363987,0.84849,0.45977,0.15138
1695052230132812,-9.929833,0.990139,0.377987,0.89649,0.40977,0.21538
1695052230140625,-9.938833,0.986139,0.381987,0.81949,0.44377,0.16838
1695052230148437,-9.953833,0.987139,0.374987,0.89749,0.45477,0.15338
1695052230156250,-9.945833,0.977139,0.400987,0.87949,0.52877,0.18138
1695052230164062,-9.936833,0.956139,0.386987,0.80149,0.55177,0.19638
1695052230171875,-9.940833,0.955139,0.384987,0.87949,0.52477,0.11938
1695052230179687,-9.946833,0.957139,0.399987,0.97149,0.57077,0.8638
1695052230187500,-9.940833,0.953139,0.404987,0.94049,0.62177,0.6938
1695052230195312,-9.908833,0.946139,0.402987,0.95649,0.58677,0.7038
1695052230203125,-9.912833,0.946139,0.404987,0.91149,0.67077,0.5338
1695052230210937,-9.921833,0.967139,0.390987,0.97349,0.74577,0.4162
1695052230218750,-9.919833,0.971139,0.379987,0.95549,0.74677,0.8962
1695052230226562,-9.904833,0.968139,0.379987,0.96949,0.79777,0.12262
1695052230234375,-9.878833,0.964139,0.370987,0.97149,0.79677,0.10562
1695052230242187,-9.881833,0.967139,0.368987,0.95249,0.68577,0.8962
1695052230250000,-9.874833,0.979139,0.356987,0.98549,0.78977,0.21562
1695052230257812,-9.849833,0.972139,0.356987,0.97049,0.74177,0.18262
1695052230265625,-9.842833,0.981139,0.342987,0.95349,0.79477,0.20062
1695052230273437,-9.877833,1.3139,0.345987,0.96849,0.88077,0.18762
1695052230281250,-9.902833,1.33139,0.320987,0.101549,0.92877,0.17262
1695052230289062,-9.916833,1.62139,0.292987,0.98549,0.94377,0.20362
1695052230296875,-9.906833,1.64139,0.263987,0.109549,0.104277,0.14262
1695052230304687,-9.863833,1.28139,0.251987,0.115649,0.94377,0.9462
1695052230312500,-9.818833,0.993139,0.245987,0.113949,0.94577,0.9462
1695052230320312,-9.810833,0.964139,0.251987,0.111049,0.79977,0.3438
1695052230328125,-9.838833,0.960139,0.254987,0.97249,0.68577,0.3738
1695052230335937,-9.880833,0.973139,0.256987,0.95949,0.69877,0.3838
1695052230343750,-9.912833,0.979139,0.247987,0.97349,0.66877,0.8538
1695052230351562,-9.913833,0.974139,0.263987,0.98749,0.67377,0.11538
1695052230359375,-9.912833,0.959139,0.247987,0.95849,0.75877,0.16138
1695052230367187,-9.909833,0.960139,0.256987,0.97849,0.80377,0.17738
1695052230375000,-9.903833,0.957139,0.244987,0.97349,0.72177,0.11538
1695052230382812,-9.896833,0.954139,0.247987,0.95949,0.78977,0.12938
1695052230390625,-9.892833,0.957139,0.244987,0.95949,0.82177,0.11338
1695052230398437,-9.908833,0.959139,0.235987,0.91349,0.85477,0.6538
1695052230406250,-9.897833,0.967139,0.226987,0.88049,0.90777,0.3238
1695052230414062,-9.901833,0.980139,0.222987,0.94549,0.83177,0.2038
1695052230421875,-9.892833,0.995139,0.215987,0.89649,0.83277,0.5862
1695052230429687,-9.880833,1.4139,0.187987,0.94349,0.77877,0.5762
1695052230437500,-9.876833,1.31139,0.187987,0.89849,0.77777,0.7262
1695052230445312,-9.886833,1.50139,0.167987,0.98649,0.77977,0.8962
1695052230453125,-9.896833,1.52139,0.158987,0.95549,0.80277,0.4462
1695052230460937,-9.893833,1.55139,0.158987,0.97349,0.74877,0.1062
1695052230468750,-9.882833,1.50139,0.147987,0.97149,0.66477,0.2462
1695052230476562,-9.879833,1.40139,0.149987,0.99049,0.69477,0.738
1695052230484375,-9.870833,1.39139,0.151987,0.108149,0.66077,0.738
1695052230492187,-9.861833,1.23139,0.167987,0.104949,0.61277,0.2338
1695052230500000,-9.861833,1.10139,0.165987,0.101849,0.61577,0.3838
1695052230507812,-9.864833,1.4139,0.165987,0.110549,0.52077,0.6938
1695052230515625,-9.867833,1.15139,0.176987,0.109649,0.56077,0.5638
1695052230523437,-9.872833,1.3139,0.174987,0.107749,0.56677,0.3838
1695052230531250,-9.877833,1.3139,0.179987,0.104649,0.49677,0.662
1695052230539062,-9.886833,1.7139,0.185987,0.112249,0.54577,0.2362
1695052230546875,-9.888833,1.22139,0.183987,0.103349,0.46077,0.1138
1695052230554687,-9.888833,1.42139,0.185987,0.100249,0.54177,0.6862
1695052230562500,-9.888833,1.34139,0.190987,0.95349,0.56177,0.11662
1695052230570312,-9.868833,1.48139,0.201987,0.97049,0.52677,0.8462
1695052230578125,-9.893833,1.77139,0.199987,0.96849,0.59477,0.13362
1695052230585937,-9.959833,1.125139,0.176987,0.90949,0.54477,0.8462
1695052230593750,-9.940833,1.151139,0.163987,0.87749,0.61377,0.13362
1695052230601562,-9.869833,1.128139,0.163987,0.98749,0.64577,0.3962
1695052230609375,-9.842833,1.141139,0.167987,0.90949,0.61577,0.5462
1695052230617187,-9.840833,1.145139,0.165987,0.88049,0.59977,0.662
1695052230625000,-9.849833,1.154139,0.149987,0.84949,0.57177,0.5538
1695052230632812,-9.863833,1.179139,0.149987,0.86549,0.53577,0.5738
1695052230640625,-9.851833,1.186139,0.138987,0.91349,0.58577,0.10338
1695052230648437,-9.829833,1.172139,0.129987,0.97349,0.52177,0.16638
1695052230656250,-9.840833,1.183139,0.145987,0.95949,0.50577,0.19838
1695052230664062,-9.849833,1.190139,0.133987,0.97549,0.55777,0.24438
1695052230671875,-9.859833,1.185139,0.129987,0.95949,0.52777,0.27638
1695052230679687,-9.859833,1.176139,0.136987,0.100349,0.47377,0.21438
1695052230687500,-9.867833,1.166139,0.136987,0.103849,0.52277,0.29238
1695052230695312,-9.879833,1.150139,0.127987,0.106549,0.40777,0.29338
1695052230703125,-9.892833,1.154139,0.131987,0.109549,0.50877,0.27538
1695052230710937,-9.903833,1.137139,0.145987,0.114249,0.47477,0.30738
1695052230718750,-9.903833,1.119139,0.142987,0.118949,0.49277,0.38538
1695052230726562,-9.896833,1.95139,0.140987,0.102449,0.49677,0.44938
1695052230734375,-9.875833,1.79139,0.149987,0.110149,0.46077,0.46538
1695052230742187,-9.887833,1.61139,0.149987,0.105349,0.38077,0.45138
1695052230750000,-9.898833,1.39139,0.158987,0.103949,0.48377,0.49638
1695052230757812,-9.912833,1.23139,0.163987,0.105149,0.45277,0.46438
1695052230765625,-9.901833,0.995139,0.162987,0.105549,0.41277,0.48338
1695052230773437,-9.894833,0.975139,0.162987,0.108749,0.47677,0.46638
1695052230781250,-9.890833,0.972139,0.165987,0.111349,0.41277,0.41838
1695052230789062,-9.915833,0.975139,0.174987,0.109949,0.44277,0.40338
1695052230796875,-9.917833,0.957139,0.172987,0.106749,0.37277,0.31038
1695052230804687,-9.899833,0.941139,0.169987,0.109649,0.40777,0.30938
1695052230812500,-9.884833,0.937139,0.171987,0.112849,0.45277,0.26138
1695052230820312,-9.908833,0.929139,0.185987,0.104949,0.40877,0.26138
1695052230828125,-9.920833,0.945139,0.183987,0.107649,0.37577,0.21438
1695052230835937,-9.939833,0.939139,0.192987,0.104849,0.46877,0.13538
1695052230843750,-9.944833,0.946139,0.192987,0.98549,0.48677,0.7238
1695052230851562,-9.939833,0.939139,0.194987,0.95649,0.45177,0.7338
1695052230859375,-9.928833,0.951139,0.192987,0.100349,0.46477,0.5838
1695052230867187,-9.931833,0.957139,0.185987,0.95549,0.48477,0.4138
1695052230875000,-9.934833,0.948139,0.194987,0.98849,0.53177,0.5638
1695052230882812,-9.933833,0.943139,0.192987,0.86249,0.55677,0.3938
1695052230890625,-9.921833,0.934139,0.199987,0.81749,0.58977,0.3938
1695052230898437,-9.910833,0.934139,0.190987,0.89549,0.53577,0.5638
1695052230906250,-9.917833,0.941139,0.199987,0.78649,0.59177,0.3938
1695052230914062,-9.947833,0.952139,0.172987,0.80249,0.57477,0.5538
1695052230921875,-9.965833,0.972139,0.165987,0.80049,0.55677,0.2262
1695052230929687,-9.972833,0.977139,0.179987,0.81749,0.62277,0.2338
1695052230937500,-9.935833,0.968139,0.183987,0.70949,0.58877,0.5362
1695052230945312,-9.896833,0.959139,0.171987,0.80449,0.66377,0.8562
1695052230953125,-9.892833,0.950139,0.174987,0.83349,0.64777,0.10162
1695052230960937,-9.888833,0.963139,0.169987,0.69449,0.68677,0.10262
1695052230968750,-9.896833,0.970139,0.162987,0.87849,0.69377,0.16562
1695052230976562,-9.885833,0.977139,0.174987,0.96949,0.64177,0.18162
1695052230984375,-9.860833,0.977139,0.167987,0.95549,0.60477,0.19462
1695052230992187,-9.864833,0.979139,0.169987,0.95449,0.62277,0.19562
1695052231000000,-9.874833,0.995139,0.171987,0.93949,0.63677,0.24262
1695052231007812,-9.913833,1.4139,0.172987,0.96749,0.58777,0.27462
1695052231015625,-9.912833,0.988139,0.165987,0.95349,0.55677,0.19462
1695052231023437,-9.894833,0.972139,0.160987,0.96849,0.57377,0.21162
1695052231031250,-9.892833,0.970139,0.169987,0.95549,0.59177,0.13262
1695052231039062,-9.889833,0.966139,0.181987,0.97149,0.60877,0.11662
1695052231046875,-9.894833,0.954139,0.178987,0.95449,0.58077,0.7062
1695052231054687,-9.905833,0.937139,0.178987,0.92349,0.56277,0.10062
1695052231062500,-9.896833,0.943139,0.201987,0.96949,0.58177,0.7062
1695052231070312,-9.894833,0.923139,0.176987,0.86349,0.56677,0.3762
1695052231078125,-9.893833,0.921139,0.187987,0.86449,0.53077,0.3662
1695052231085937,-9.891833,0.923139,0.178987,0.77149,0.61577,0.10062
1695052231093750,-9.908833,0.921139,0.192987,0.69449,0.57177,0.5362
1695052231101562,-9.911833,0.924139,0.187987,0.69649,0.56677,0.6762
1695052231109375,-9.911833,0.926139,0.178987,0.72749,0.60077,0.5262
1695052231117187,-9.891833,0.930139,0.169987,0.71049,0.56677,0.8362
1695052231125000,-9.896833,0.928139,0.174987,0.66649,0.65077,0.10062
1695052231132812,-9.891833,0.948139,0.169987,0.68249,0.63177,0.8362
1695052231140625,-9.906833,0.974139,0.160987,0.69449,0.62177,0.7062
1695052231148437,-9.921833,0.977139,0.140987,0.62049,0.68477,0.10062
1695052231156250,-9.890833,0.977139,0.128987,0.60449,0.66977,0.10062
1695052231164062,-9.837833,0.960139,0.131987,0.57349,0.59977,0.14562
1695052231171875,-9.819833,0.929139,0.133987,0.61749,0.53177,0.17662
1695052231179687,-9.819833,0.929139,0.137987,0.54149,0.46977,0.11262
1695052231187500,-9.849833,0.940139,0.153987,0.58549,0.43477,0.15962
1695052231195312,-9.891833,0.953139,0.160987,0.64849,0.39377,0.18862
1695052231203125,-9.894833,0.968139,0.167987,0.57249,0.40077,0.11062
1695052231210937,-9.896833,0.968139,0.169987,0.55649,0.41777,0.12662
1695052231218750,-9.884833,0.966139,0.190987,0.66749,0.49377,0.11162
1695052231226562,-9.883833,0.957139,0.192987,0.69349,0.44677,0.15962
1695052231234375,-9.878833,0.945139,0.208987,0.66349,0.51477,0.16062
1695052231242187,-9.890833,0.945139,0.215987,0.67749,0.43377,0.12862
1695052231250000,-9.917833,0.952139,0.231987,0.66349,0.51677,0.12962
1695052231257812,-9.935833,0.962139,0.238987,0.58849,0.48277,0.12762
1695052231265625,-9.942833,0.952139,0.242987,0.61549,0.52177,0.11462
1695052231273437,-9.917833,0.948139,0.244987,0.64849,0.55077,0.14562
1695052231281250,-9.912833,0.948139,0.240987,0.63249,0.53677,0.9862
1695052231289062,-9.914833,0.964139,0.238987,0.71049,0.55077,0.8362
1695052231296875,-9.917833,0.977139,0.229987,0.64949,0.53477,0.8262
1695052231304687,-9.904833,0.958139,0.210987,0.64749,0.55377,0.11562
1695052231312500,-9.896833,0.957139,0.213987,0.60549,0.60277,0.6762
1695052231320312,-9.881833,0.958139,0.215987,0.64849,0.57177,0.6862
1695052231328125,-9.896833,0.961139,0.206987,0.63449,0.56577,0.12962
1695052231335937,-9.878833,0.952139,0.178987,0.67949,0.65477,0.7062
1695052231343750,-9.874833,0.958139,0.185987,0.72649,0.61877,0.6962
1695052231351562,-9.862833,0.950139,0.201987,0.72549,0.53177,0.11462
1695052231359375,-9.879833,0.951139,0.206987,0.69449,0.58877,0.6962
1695052231367187,-9.882833,0.946139,0.203987,0.69749,0.52977,0.9762
1695052231375000,-9.862833,0.956139,0.210987,0.77049,0.52877,0.17762
1695052231382812,-9.862833,0.952139,0.222987,0.74049,0.51477,0.12962
1695052231390625,-9.880833,0.948139,0.215987,0.70949,0.51277,0.17662
1695052231398437,-9.892833,0.964139,0.238987,0.75549,0.52777,0.17662
1695052231406250,-9.892833,0.974139,0.236987,0.72149,0.54777,0.22562
1695052231414062,-9.895833,0.974139,0.226987,0.72149,0.47877,0.23962
1695052231421875,-9.910833,0.979139,0.224987,0.78549,0.54477,0.19362
1695052231429687,-9.885833,0.986139,0.235987,0.81649,0.52577,0.20862
1695052231437500,-9.879833,1.1139,0.224987,0.73849,0.57877,0.22562
1695052231445312,-9.904833,1.26139,0.217987,0.75549,0.64477,0.19562
1695052231453125,-9.920833,1.46139,0.194987,0.87649,0.60677,0.25762
1695052231460937,-9.913833,1.49139,0.181987,0.83349,0.70977,0.19662
1695052231468750,-9.916833,1.41139,0.183987,0.87549,0.67877,0.21362
1695052231476562,-9.895833,1.30139,0.199987,0.93749,0.67677,0.19762
1695052231484375,-9.851833,0.998139,0.197987,0.78649,0.66277,0.18062
1695052231492187,-9.822833,0.993139,0.183987,0.86149,0.67877,0.18162
1695052231500000,-9.849833,1.3139,0.190987,0.90949,0.56077,0.11562
1695052231507812,-9.917833,1.27139,0.178987,0.88149,0.62777,0.8462
1695052231515625,-9.951833,1.34139,0.178987,0.87949,0.60877,0.14762
1695052231523437,-9.912833,1.16139,0.183987,0.80449,0.65677,0.17862
1695052231531250,-9.874833,1.6139,0.199987,0.80549,0.64577,0.6862
1695052231539062,-9.893833,1.17139,0.201987,0.80149,0.58177,0.11662
1695052231546875,-9.926833,1.25139,0.203987,0.82049,0.54777,0.462
1695052231554687,-9.951833,1.33139,0.197987,0.82049,0.66877,0.838
1695052231562500,-9.931833,1.35139,0.188987,0.81849,0.64777,0.8562
1695052231570312,-9.900833,1.20139,0.190987,0.75549,0.70977,0.1062
1695052231578125,-9.891833,1.5139,0.172987,0.83149,0.75677,0.5862
1695052231585937,-9.897833,1.8139,0.169987,0.89649,0.80177,0.1162
1695052231593750,-9.906833,1.12139,0.149987,0.89449,0.75177,0.5862
1695052231601562,-9.895833,1.12139,0.138987,0.92349,0.63577,0.2462
1695052231609375,-9.891833,1.12139,0.135987,0.96949,0.66777,0.4162
1695052231617187,-9.886833,1.7139,0.133987,0.95449,0.70177,0.4262
1695052231625000,-9.877833,1.18139,0.131987,0.93849,0.66577,0.8762
1695052231632812,-9.888833,1.21139,0.129987,0.96949,0.66777,0.4162
1695052231640625,-9.891833,1.41139,0.122987,0.96849,0.66077,0.16662
1695052231648437,-9.898833,1.54139,0.110987,0.99749,0.64477,0.18262
1695052231656250,-9.887833,1.51139,0.104987,0.93349,0.63077,0.24562
1695052231664062,-9.878833,1.78139,0.101987,0.93549,0.65677,0.30762
1695052231671875,-9.878833,1.87139,0.97987,0.94849,0.64377,0.29262
1695052231679687,-9.892833,1.114139,0.95987,0.102549,0.66977,0.37162
1695052231687500,-9.904833,1.127139,0.92987,0.106949,0.65177,0.41862
1695052231695312,-9.888833,1.136139,0.90987,0.111549,0.66977,0.37262
1695052231703125,-9.883833,1.145139,0.83987,0.105549,0.65077,0.40262
1695052231710937,-9.878833,1.150139,0.76987,0.104349,0.68577,0.32362
1695052231718750,-9.874833,1.152139,0.74987,0.99549,0.68777,0.35562
1695052231726562,-9.861833,1.163139,0.65987,0.116449,0.63577,0.29262
1695052231734375,-9.865833,1.158139,0.79987,0.113249,0.59077,0.22962
1695052231742187,-9.859833,1.149139,0.83987,0.113449,0.59677,0.10462
1695052231750000,-9.856833,1.149139,0.86987,0.105849,0.57877,0.13462
1695052231757812,-9.879833,1.150139,0.72987,0.106049,0.56477,0.5562
1695052231765625,-9.888833,1.152139,0.63987,0.109049,0.54677,0.5562
1695052231773437,-9.883833,1.132139,0.63987,0.101449,0.53177,0.3862
1695052231781250,-9.881833,1.123139,0.83987,0.98449,0.55377,0.3938
1695052231789062,-9.878833,1.130139,0.90987,0.93949,0.56777,0.838
1695052231796875,-9.881833,1.120139,0.72987,0.103049,0.61977,0.2138
1695052231804687,-9.885833,1.117139,0.76987,0.97049,0.61577,0.2362
1695052231812500,-9.878833,1.112139,0.74987,0.98549,0.53177,0.662
1695052231820312,-9.865833,1.107139,0.76987,0.106149,0.55077,0.3838
1695052231828125,-9.860833,1.105139,0.72987,0.95349,0.51777,0.662
1695052231835937,-9.849833,1.98139,0.83987,0.90849,0.50077,0.562
1695052231843750,-9.862833,1.101139,0.83987,0.96949,0.53077,0.5362
1695052231851562,-9.853833,1.103139,0.69987,0.95449,0.51377,0.5362
1695052231859375,-9.869833,1.128139,0.81987,0.97149,0.44577,0.362
1695052231867187,-9.881833,1.143139,0.79987,0.95449,0.52977,0.6962
1695052231875000,-9.896833,1.139139,0.76987,0.90949,0.47977,0.5162
1695052231882812,-9.887833,1.138139,0.81987,0.97349,0.52477,0.5162
1695052231890625,-9.878833,1.140139,0.92987,0.89649,0.49577,0.362
1695052231898437,-9.878833,1.146139,0.95987,0.91049,0.39977,0.5938
1695052231906250,-9.873833,1.142139,0.92987,0.95849,0.43277,0.10638
1695052231914062,-9.881833,1.132139,0.111987,0.91049,0.38577,0.9138
1695052231921875,-9.878833,1.121139,0.117987,0.92649,0.40677,0.18438
1695052231929687,-9.878833,1.110139,0.122987,0.97349,0.41977,0.16938
1695052231937500,-9.885833,1.104139,0.129987,0.95849,0.42077,0.18438
1695052231945312,-9.894833,1.92139,0.149987,0.94249,0.37777,0.27938
1695052231953125,-9.894833,1.79139,0.145987,0.97349,0.39277,0.26238
1695052231960937,-9.905833,1.61139,0.151987,0.103549,0.37377,0.27938
1695052231968750,-9.915833,1.53139,0.160987,0.102249,0.40677,0.31038
1695052231976562,-9.911833,1.32139,0.149987,0.96049,0.44477,0.34038
1695052231984375,-9.911833,1.17139,0.160987,0.97749,0.47877,0.38738
1695052231992187,-9.910833,0.988139,0.162987,0.100749,0.40777,0.32638
1695052232000000,-9.906833,0.972139,0.167987,0.101949,0.40877,0.27838
1695052232007812,-9.903833,0.950139,0.165987,0.99049,0.52577,0.27638
1695052232015625,-9.910833,0.940139,0.167987,0.97349,0.56277,0.25838
1695052232023437,-9.923833,0.930139,0.165987,0.95849,0.50577,0.16638
1695052232031250,-9.916833,0.921139,0.165987,0.97149,0.53677,0.8738
1695052232039062,-9.925833,0.932139,0.167987,0.92549,0.53477,0.4038
1695052232046875,-9.939833,0.921139,0.165987,0.89449,0.58677,0.3938
1695052232054687,-9.925833,0.930139,0.167987,0.95449,0.58077,0.5462
1695052232062500,-9.939833,0.951139,0.158987,0.94049,0.59177,0.13262
1695052232070312,-9.958833,0.980139,0.147987,0.90849,0.61177,0.13262
1695052232078125,-9.969833,0.995139,0.133987,0.92249,0.71277,0.16762
1695052232085937,-9.953833,0.997139,0.113987,0.95349,0.77777,0.19962
1695052232093750,-9.918833,0.996139,0.110987,0.96749,0.74477,0.21562
1695052232101562,-9.879833,0.987139,0.101987,0.96749,0.69277,0.23062
1695052232109375,-9.855833,0.970139,0.103987,0.86149,0.67377,0.25962
1695052232117187,-9.874833,0.983139,0.117987,0.72149,0.61077,0.30562
1695052232125000,-9.904833,1.3139,0.124987,0.72149,0.54477,0.28862
1695052232132812,-9.931833,1.35139,0.117987,0.70749,0.64377,0.28962
1695052232140625,-9.922833,1.46139,0.122987,0.73749,0.67677,0.30662
1695052232148437,-9.909833,1.55139,0.122987,0.75249,0.62577,0.32162
1695052232156250,-9.893833,1.61139,0.122987,0.72349,0.67877,0.25962
1695052232164062,-9.899833,1.64139,0.133987,0.72549,0.70677,0.30562
1695052232171875,-9.900833,1.65139,0.135987,0.70649,0.69577,0.30662
1695052232179687,-9.891833,1.63139,0.129987,0.76749,0.66377,0.25962
1695052232187500,-9.905833,1.77139,0.131987,0.75349,0.71077,0.30762
1695052232195312,-9.912833,1.72139,0.129987,0.78349,0.79577,0.27862
1695052232203125,-9.889833,1.85139,0.131987,0.70649,0.74877,0.27662
1695052232210937,-9.883833,1.98139,0.115987,0.76649,0.71377,0.29262
1695052232218750,-9.896833,1.112139,0.106987,0.78349,0.66377,0.24462
1695052232226562,-9.904833,1.125139,0.97987,0.76449,0.83277,0.34362
1695052232234375,-9.895833,1.129139,0.92987,0.79749,0.78377,0.23162
1695052232242187,-9.883833,1.134139,0.77987,0.87349,0.88077,0.29762
1695052232250000,-9.871833,1.123139,0.60987,0.86249,0.92777,0.26562
1695052232257812,-9.869833,1.114139,0.38987,0.92349,0.80977,0.23162
1695052232265625,-9.856833,1.109139,0.29987,0.89049,0.81477,0.23262
1695052232273437,-9.840833,1.104139,0.24987,0.92149,0.71277,0.19962
1695052232281250,-9.844833,1.101139,0.22987,0.89249,0.67577,0.21262
1695052232289062,-9.837833,1.100139,0.31987,0.84549,0.66077,0.22862
1695052232296875,-9.837833,1.87139,0.15987,0.86049,0.67977,0.19762
1695052232304687,-9.837833,1.80139,0.22987,0.75249,0.59877,0.21162
1695052232312500,-9.841833,1.85139,0.26987,0.70849,0.56377,0.19362
1695052232320312,-9.873833,1.87139,0.28987,0.72349,0.57977,0.20962
1695052232328125,-9.876833,1.85139,0.35987,0.70649,0.53077,0.22462
1695052232335937,-9.846833,1.87139,0.22987,0.72449,0.54577,0.19362
1695052232343750,-9.837833,1.89139,0.26987,0.69349,0.52877,0.22362
1695052232351562,-9.821833,1.73139,0.37987,0.64649,0.52977,0.25562
1695052232359375,-9.834833,1.74139,0.42987,0.64849,0.47777,0.20662
1695052232367187,-9.834833,1.108139,0.40987,0.64949,0.40777,0.21962
1695052232375000,-9.829833,1.158139,0.22987,0.73749,0.41077,0.23762
1695052232382812,-9.876833,1.204139,0.22987,0.70649,0.40377,0.34662
1695052232390625,-9.945833,1.245139,0.20987,0.72149,0.38477,0.37762
1695052232398437,-9.946833,1.266139,0.24987,0.80849,0.40377,0.42762
1695052232406250,-9.903833,1.279139,0.27987,0.89949,0.38477,0.44362
1695052232414062,-9.892833,1.274139,0.40987,0.97449,0.41777,0.47662
1695052232421875,-9.885833,1.266139,0.47987,0.114349,0.37777,0.47662
1695052232429687,-9.866833,1.264139,0.45987,0.115849,0.33977,0.53762
1695052232437500,-9.855833,1.257139,0.61987,0.120549,0.40377,0.55462
1695052232445312,-9.848833,1.252139,0.65987,0.121949,0.45377,0.58762
1695052232453125,-9.855833,1.244139,0.79987,0.123549,0.43477,0.60262
1695052232460937,-9.850833,1.230139,0.93987,0.137049,0.41677,0.61962
1695052232468750,-9.868833,1.228139,0.86987,0.146149,0.46577,0.63762
1695052232476562,-9.880833,1.241139,0.95987,0.137049,0.46977,0.58962
1695052232484375,-9.884833,1.221139,0.93987,0.132549,0.53877,0.57462
1695052232492187,-9.882833,1.228139,0.95987,0.125149,0.47077,0.54062
1695052232500000,-9.875833,1.237139,0.83987,0.125249,0.53877,0.52662
1695052232507812,-9.879833,1.234139,0.76987,0.121049,0.60377,0.49462
1695052232515625,-9.882833,1.230139,0.77987,0.120649,0.67577,0.51362
1695052232523437,-9.873833,1.228139,0.74987,0.120649,0.64677,0.46662
1695052232531250,-9.862833,1.213139,0.72987,0.117449,0.68477,0.45262
1695052232539062,-9.859833,1.205139,0.90987,0.114449,0.66577,0.46662
1695052232546875,-9.875833,1.214139,0.95987,0.112949,0.63277,0.45062
1695052232554687,-9.893833,1.208139,0.93987,0.122349,0.59977,0.35562
1695052232562500,-9.922833,1.206139,0.99987,0.108649,0.56877,0.33862
1695052232570312,-9.934833,1.220139,0.108987,0.99749,0.67177,0.29262
1695052232578125,-9.925833,1.221139,0.102987,0.94949,0.62877,0.24562
1695052232585937,-9.923833,1.219139,0.97987,0.101249,0.66077,0.19862
1695052232593750,-9.916833,1.221139,0.106987,0.101149,0.71277,0.21662
1695052232601562,-9.914833,1.225139,0.93987,0.93549,0.83377,0.20262
1695052232609375,-9.898833,1.221139,0.81987,0.102949,0.89577,0.20362
1695052232617187,-9.873833,1.223139,0.70987,0.98149,0.89877,0.21962
1695052232625000,-9.857833,1.212139,0.58987,0.101449,0.96377,0.20562
1695052232632812,-9.846833,1.211139,0.56987,0.96649,0.91177,0.28262
1695052232640625,-9.846833,1.211139,0.38987,0.95049,0.91377,0.28262
1695052232648437,-9.837833,1.213139,0.40987,0.96649,0.84677,0.23462
1695052232656250,-9.821833,1.218139,0.29987,0.95249,0.76077,0.23162
1695052232664062,-9.803833,1.220139,0.27987,0.96649,0.64477,0.21362
1695052232671875,-9.808833,1.224139,0.38987,0.93449,0.64577,0.24562
1695052232679687,-9.816833,1.223139,0.45987,0.92249,0.59477,0.16462
1695052232687500,-9.826833,1.222139,0.43987,0.87649,0.53577,0.5462
1695052232695312,-9.844833,1.227139,0.47987,0.70949,0.55777,0.662
1695052232703125,-9.844833,1.229139,0.68987,0.77049,0.49077,0.2638
1695052232710937,-9.844833,1.225139,0.95987,0.69549,0.42577,0.7538
1695052232718750,-9.844833,1.234139,0.93987,0.75749,0.35777,0.13938
1695052232726562,-9.857833,1.252139,0.93987,0.55949,0.38177,0.17138
1695052232734375,-9.888833,1.263139,0.97987,0.65049,0.40277,0.24738
1695052232742187,-9.898833,1.262139,0.106987,0.59349,0.41577,0.26538
1695052232750000,-9.871833,1.247139,0.109987,0.56149,0.50777,0.34038
1695052232757812,-9.873833,1.241139,0.118987,0.53349,0.43677,0.32838
1695052232765625,-9.864833,1.252139,0.134987,0.45749,0.45977,0.40638
1695052232773437,-9.865833,1.234139,0.127987,0.50149,0.49677,0.41938
1695052232781250,-9.873833,1.232139,0.138987,0.48949,0.45977,0.45338
1695052232789062,-9.882833,1.232139,0.147987,0.55149,0.52977,0.51338
1695052232796875,-9.898833,1.224139,0.140987,0.64349,0.54377,0.52938
1695052232804687,-9.900833,1.221139,0.156987,0.47549,0.55077,0.56038
1695052232812500,-9.903833,1.203139,0.152987,0.51949,0.56877,0.55938
1695052232820312,-9.890833,1.177139,0.147987,0.50749,0.57977,0.54538
1695052232828125,-9.876833,1.164139,0.145987,0.53949,0.56377,0.60838
1695052232835937,-9.881833,1.138139,0.145987,0.64549,0.58577,0.68438
1695052232843750,-9.878833,1.112139,0.135987,0.64849,0.64877,0.68438
1695052232851562,-9.880833,1.104139,0.126987,0.61949,0.68677,0.77838
1695052232859375,-9.887833,1.72139,0.140987,0.74049,0.68777,0.80738
1695052232867187,-9.904833,1.50139,0.140987,0.68149,0.63877,0.87238
1695052232875000,-9.943833,1.30139,0.133987,0.72649,0.57377,0.90438
1695052232882812,-9.968833,1.22139,0.131987,0.71149,0.59377,0.96638
1695052232890625,-9.976833,0.986139,0.131987,0.74349,0.59177,0.98338
1695052232898437,-9.962833,0.948139,0.115987,0.73049,0.62677,0.104538
1695052232906250,-9.952833,0.919139,0.119987,0.74449,0.64377,0.101338
1695052232914062,-9.950833,0.892139,0.121987,0.72749,0.67477,0.91838
1695052232921875,-9.929833,0.878139,0.96987,0.75649,0.68877,0.85438
1695052232929687,-9.909833,0.842139,0.94987,0.89149,0.70277,0.80538
1695052232937500,-9.940833,0.838139,0.92987,0.92149,0.69577,0.69638
1695052232945312,-9.931833,0.832139,0.80987,0.87549,0.77377,0.57038
1695052232953125,-9.909833,0.842139,0.64987,0.91749,0.74177,0.50638
1695052232960937,-9.927833,0.851139,0.64987,0.94849,0.73877,0.47538
1695052232968750,-9.923833,0.855139,0.49987,0.97349,0.73377,0.27038
1695052232976562,-9.903833,0.877139,0.28987,0.97249,0.74477,0.16038
1695052232984375,-9.884833,0.902139,0.21987,0.95649,0.68577,0.2138
1695052232992187,-9.874833,0.935139,0.15987,0.101249,0.75177,0.10762
1695052233000000,-9.879833,0.978139,0.3013,0.109049,0.79277,0.18562
1695052233007812,-9.897833,1.21139,0.14013,0.113549,0.73277,0.32562
1695052233015625,-9.893833,1.56139,0.39013,0.119249,0.80077,0.40662
1695052233023437,-9.875833,1.77139,0.41013,0.125749,0.79477,0.37462
1695052233031250,-9.846833,1.68139,0.41013,0.128449,0.73477,0.34362
1695052233039062,-9.816833,1.64139,0.28013,0.125549,0.59877,0.30862
1695052233046875,-9.817833,1.65139,0.11013,0.120549,0.53877,0.30862
1695052233054687,-9.846833,1.85139,0.16013,0.127149,0.48077,0.27362
1695052233062500,-9.885833,1.116139,0.0,0.125649,0.45077,0.22662
1695052233070312,-9.908833,1.132139,0.4987,0.123949,0.52377,0.19762
1695052233078125,-9.906833,1.147139,0.8987,0.124049,0.47577,0.11862
1695052233085937,-9.915833,1.150139,0.10987,0.137949,0.48677,0.10262
1695052233093750,-9.937833,1.157139,0.24987,0.138149,0.50377,0.7162
1695052233101562,-9.915833,1.157139,0.17987,0.137949,0.53977,0.8862
1695052233109375,-9.913833,1.150139,0.13987,0.135049,0.54177,0.4162
1695052233117187,-9.918833,1.152139,0.22987,0.139449,0.64377,0.6062
1695052233125000,-9.928833,1.153139,0.15987,0.145949,0.66677,0.10662
1695052233132812,-9.929833,1.172139,0.0,0.144049,0.70377,0.15562
1695052233140625,-9.928833,1.166139,0.16013,0.147449,0.76877,0.12462
1695052233148437,-9.915833,1.161139,0.14013,0.164049,0.80277,0.9562
1695052233156250,-9.899833,1.152139,0.30013,0.150249,0.72077,0.12462
1695052233164062,-9.899833,1.148139,0.43013,0.153449,0.80377,0.11062
1695052233171875,-9.888833,1.152139,0.43013,0.159549,0.73577,0.9362
1695052233179687,-9.887833,1.141139,0.59013,0.154949,0.73377,0.12462
1695052233187500,-9.889833,1.137139,0.62013,0.162649,0.69877,0.10862
1695052233195312,-9.901833,1.137139,0.64013,0.156449,0.66477,0.13862
1695052233203125,-9.887833,1.134139,0.64013,0.151949,0.76577,0.17162
1695052233210937,-9.874833,1.134139,0.61013,0.154649,0.68377,0.18662
1695052233218750,-9.878833,1.139139,0.71013,0.150249,0.73377,0.17162
1695052233226562,-9.876833,1.130139,0.68013,0.150449,0.66977,0.7562
1695052233234375,-9.869833,1.121139,0.78013,0.148849,0.66577,0.15362
1695052233242187,-9.869833,1.129139,0.59013,0.150349,0.67077,0.7662
1695052233250000,-9.867833,1.122139,0.68013,0.148649,0.66977,0.13962
1695052233257812,-9.855833,1.134139,0.66013,0.148849,0.64877,0.15362
1695052233265625,-9.879833,1.129139,0.75013,0.145649,0.67377,0.9262
1695052233273437,-9.874833,1.125139,0.68013,0.159349,0.65477,0.7762
1695052233281250,-9.860833,1.114139,0.55013,0.150349,0.61977,0.7462
1695052233289062,-9.867833,1.118139,0.66013,0.142649,0.58977,0.7462
1695052233296875,-9.862833,1.100139,0.55013,0.150449,0.62077,0.2762
1695052233304687,-9.842833,1.102139,0.52013,0.147349,0.62277,0.2762
1695052233312500,-9.849833,1.107139,0.59013,0.148849,0.53877,0.2662
1695052233320312,-9.903833,1.130139,0.64013,0.148749,0.60677,0.2762
1695052233328125,-9.909833,1.138139,0.79013,0.156149,0.57477,0.2862
1695052233335937,-9.860833,1.102139,0.100013,0.145649,0.69177,0.6162
1695052233343750,-9.837833,1.68139,0.109013,0.153149,0.55577,0.7462
1695052233351562,-9.828833,1.63139,0.100013,0.148549,0.53977,0.8962
1695052233359375,-9.834833,1.57139,0.100013,0.144249,0.52277,0.2562
1695052233367187,-9.857833,1.53139,0.107013,0.144249,0.47077,0.3962
1695052233375000,-9.877833,1.49139,0.94013,0.137949,0.38977,0.3862
1695052233382812,-9.859833,1.49139,0.101013,0.133549,0.40277,0.8462
1695052233390625,-9.873833,1.58139,0.96013,0.119749,0.38977,0.8362
1695052233398437,-9.875833,1.62139,0.96013,0.121049,0.42677,0.6962
1695052233406250,-9.873833,1.58139,0.87013,0.119749,0.44577,0.662
1695052233414062,-9.873833,1.51139,0.91013,0.121349,0.39377,0.562
1695052233421875,-9.879833,1.43139,0.80013,0.118449,0.42577,0.1038
1695052233429687,-9.877833,1.54139,0.60013,0.100049,0.41177,0.3562
1695052233437500,-9.882833,1.81139,0.64013,0.95549,0.48277,0.1038
1695052233445312,-9.889833,1.74139,0.66013,0.97049,0.44777,0.462
1695052233453125,-9.896833,1.62139,0.66013,0.93749,0.42077,0.2638
1695052233460937,-9.892833,1.78139,0.59013,0.80049,0.50977,0.5638
1695052233468750,-9.878833,1.80139,0.77013,0.72349,0.44377,0.4238
1695052233476562,-9.882833,1.78139,0.73013,0.70949,0.40777,0.2838
1695052233484375,-9.905833,1.76139,0.66013,0.72449,0.42677,0.5838
1695052233492187,-9.894833,1.76139,0.68013,0.69349,0.42677,0.4338
1695052233500000,-9.901833,1.89139,0.75013,0.70949,0.40877,0.5938
1695052233507812,-9.898833,1.96139,0.73013,0.58849,0.42677,0.4438
1695052233515625,-9.905833,1.103139,0.80013,0.63449,0.39277,0.7638
1695052233523437,-9.912833,1.107139,0.77013,0.67849,0.47677,0.2638
1695052233531250,-9.894833,1.110139,0.75013,0.68149,0.42277,0.4438
1695052233539062,-9.896833,1.118139,0.68013,0.69549,0.40877,0.7538
1695052233546875,-9.905833,1.123139,0.68013,0.69649,0.45677,0.5938
1695052233554687,-9.908833,1.125139,0.68013,0.66449,0.44377,0.5938
1695052233562500,-9.897833,1.127139,0.66013,0.70849,0.45377,0.5062
1695052233570312,-9.899833,1.141139,0.68013,0.69549,0.46777,0.4962
1695052233578125,-9.894833,1.139139,0.71013,0.72749,0.53377,0.3562
1695052233585937,-9.887833,1.148139,0.71013,0.72649,0.54877,0.8262
1695052233593750,-9.880833,1.137139,0.71013,0.69649,0.50177,0.3562
1695052233601562,-9.878833,1.143139,0.57013,0.71249,0.43477,0.162
1695052233609375,-9.878833,1.139139,0.66013,0.71349,0.49977,0.1862
1695052233617187,-9.878833,1.141139,0.73013,0.74449,0.50377,0.7438
1695052233625000,-9.885833,1.125139,0.78013,0.72749,0.42077,0.4538
1695052233632812,-9.894833,1.117139,0.71013,0.71249,0.42177,0.7638
1695052233640625,-9.888833,1.104139,0.73013,0.73049,0.48577,0.7638
1695052233648437,-9.879833,1.95139,0.71013,0.71349,0.38577,0.7738
1695052233656250,-9.861833,1.76139,0.66013,0.72849,0.38677,0.7738
1695052233664062,-9.850833,1.52139,0.60013,0.71549,0.37477,0.18738
1695052233671875,-9.870833,1.45139,0.66013,0.74549,0.35677,0.17238
1695052233679687,-9.876833,1.48139,0.51013,0.73249,0.33777,0.20538
1695052233687500,-9.902833,1.39139,0.39013,0.71449,0.23977,0.19038
1695052233695312,-9.868833,1.23139,0.32013,0.66849,0.30977,0.20438
1695052233703125,-9.866833,1.16139,0.34013,0.57549,0.29777,0.22038
1695052233710937,-9.870833,1.23139,0.25013,0.57749,0.14477,0.27238
1695052233718750,-9.881833,1.21139,0.0,0.56149,0.27977,0.22138
1695052233726562,-9.899833,1.30139,0.21987,0.51649,0.26477,0.26938
1695052233734375,-9.927833,1.41139,0.19987,0.54649,0.24477,0.20738
1695052233742187,-9.949833,1.40139,0.26987,0.47049,0.24577,0.20738
1695052233750000,-9.958833,1.31139,0.47987,0.54749,0.31677,0.28338
1695052233757812,-9.949833,1.21139,0.58987,0.51649,0.31877,0.29938
1695052233765625,-9.933833,1.10139,0.62987,0.54749,0.36977,0.31338
1695052233773437,-9.922833,1.4139,0.67987,0.59449,0.38077,0.28238
1695052233781250,-9.920833,1.1139,0.72987,0.65249,0.32777,0.20438
1695052233789062,-9.913833,1.3139,0.60987,0.68349,0.41277,0.20138
1695052233796875,-9.908833,1.2139,0.62987,0.73149,0.37377,0.20338
1695052233804687,-9.901833,0.999139,0.76987,0.71349,0.38777,0.9338
1695052233812500,-9.901833,0.992139,0.71987,0.74249,0.40377,0.6038
1695052233820312,-9.894833,0.990139,0.58987,0.77249,0.43477,0.262
1695052233828125,-9.915833,1.6139,0.56987,0.77149,0.40077,0.1862
1695052233835937,-9.894833,1.12139,0.56987,0.86449,0.49777,0.3562
1695052233843750,-9.892833,0.995139,0.58987,0.92549,0.45977,0.8262
1695052233851562,-9.901833,0.994139,0.53987,0.92149,0.42677,0.14562
1695052233859375,-9.924833,1.5139,0.42987,0.96849,0.47877,0.9962
1695052233867187,-9.922833,1.19139,0.26987,0.89049,0.52777,0.19462
1695052233875000,-9.925833,1.30139,0.8987,0.93549,0.57777,0.21162
1695052233882812,-9.897833,1.23139,0.9013,0.96649,0.61177,0.19762
1695052233890625,-9.877833,1.7139,0.14013,0.95149,0.54477,0.17962
1695052233898437,-9.852833,0.984139,0.16013,0.96549,0.47677,0.19462
1695052233906250,-9.838833,0.966139,0.12013,0.81349,0.47977,0.20962
1695052233914062,-9.846833,0.956139,0.17987,0.72249,0.34077,0.25162
1695052233921875,-9.860833,0.956139,0.17987,0.70749,0.29377,0.18762
1695052233929687,-9.883833,0.985139,0.28987,0.72249,0.37777,0.20562
1695052233937500,-9.890833,0.994139,0.35987,0.66249,0.29277,0.20262
1695052233945312,-9.906833,0.997139,0.35987,0.54149,0.39977,0.14162
1695052233953125,-9.915833,1.1139,0.42987,0.48049,0.40077,0.14062
1695052233960937,-9.917833,1.12139,0.62987,0.52549,0.44877,0.18962
1695052233968750,-9.911833,1.7139,0.60987,0.49349,0.43577,0.18962
1695052233976562,-9.894833,1.13139,0.71987,0.46549,0.43077,0.20362
1695052233984375,-9.901833,1.12139,0.78987,0.49549,0.38177,0.17262
1695052233992187,-9.909833,1.30139,0.85987,0.43449,0.47077,0.14262
1695052234000000,-9.918833,1.52139,0.79987,0.40449,0.57577,0.9862
1695052234007812,-9.938833,1.62139,0.74987,0.34649,0.54077,0.3262
1695052234015625,-9.948833,1.82139,0.78987,0.43549,0.57177,0.11362
1695052234023437,-9.927833,1.91139,0.69987,0.45549,0.63777,0.1962
1695052234031250,-9.921833,1.104139,0.60987,0.42349,0.62477,0.3562
1695052234039062,-9.921833,1.108139,0.49987,0.43949,0.64477,0.4238
1695052234046875,-9.904833,1.100139,0.37987,0.48649,0.65677,0.1138
1695052234054687,-9.891833,1.99139,0.42987,0.46949,0.71077,0.2438
1695052234062500,-9.882833,1.102139,0.35987,0.59449,0.62377,0.8938
1695052234070312,-9.880833,1.86139,0.21987,0.62249,0.58977,0.4238
1695052234078125,-9.868833,1.86139,0.17987,0.71749,0.53677,0.13838
1695052234085937,-9.868833,1.70139,0.5987,0.73249,0.53677,0.12238
1695052234093750,-9.875833,1.63139,0.1987,0.71449,0.55477,0.7338
1695052234101562,-9.868833,1.51139,0.12987,0.72749,0.49177,0.10538
1695052234109375,-9.870833,1.37139,0.10987,0.71549,0.53677,0.9038
1695052234117187,-9.865833,1.21139,0.21987,0.83649,0.51577,0.4338
1695052234125000,-9.878833,0.999139,0.30987,0.74649,0.53477,0.9038
1695052234132812,-9.892833,0.993139,0.35987,0.71549,0.43577,0.9238
1695052234140625,-9.890833,0.992139,0.42987,0.72849,0.50377,0.4338
1695052234148437,-9.892833,0.994139,0.49987,0.72849,0.43677,0.6038
1695052234156250,-9.889833,0.979139,0.60987,0.74249,0.40077,0.1438
1695052234164062,-9.889833,0.975139,0.71987,0.71449,0.44777,0.162
1695052234171875,-9.864833,0.983139,0.62987,0.72749,0.41477,0.4862
1695052234179687,-9.897833,1.12139,0.65987,0.71049,0.46377,0.11262
1695052234187500,-9.950833,1.55139,0.63987,0.72649,0.56977,0.3762
1695052234195312,-9.936833,1.65139,0.51987,0.72749,0.59377,0.16162
1695052234203125,-9.891833,1.66139,0.24987,0.72649,0.58177,0.11562
1695052234210937,-9.877833,1.63139,0.42987,0.72749,0.56677,0.5162
1695052234218750,-9.877833,1.72139,0.31987,0.72649,0.54677,0.11362
1695052234226562,-9.877833,1.90139,0.19987,0.72649,0.53077,0.11362
1695052234234375,-9.877833,1.104139,0.21987,0.71349,0.54577,0.9762
1695052234242187,-9.880833,1.104139,0.21987,0.72749,0.48177,0.4962
1695052234250000,-9.887833,1.119139,0.19987,0.71249,0.50377,0.2738
1695052234257812,-9.880833,1.117139,0.8987,0.72849,0.45177,0.2838
1695052234265625,-9.873833,1.123139,0.3987,0.69749,0.48777,0.4338
1695052234273437,-9.873833,1.119139,0.6987,0.85049,0.40377,0.12338
1695052234281250,-9.869833,1.112139,0.12987,0.89749,0.43877,0.16938
1695052234289062,-9.855833,1.106139,0.17987,0.88449,0.43477,0.15438
1695052234296875,-9.873833,1.99139,0.22987,0.88249,0.40377,0.17038
1695052234304687,-9.879833,1.84139,0.24987,0.94549,0.40177,0.20238
1695052234312500,-9.877833,1.70139,0.40987,0.94349,0.40177,0.13838
1695052234320312,-9.907833,1.57139,0.33987,0.86749,0.43977,0.20038
1695052234328125,-9.909833,1.43139,0.33987,0.83749,0.42477,0.21638
1695052234335937,-9.916833,1.23139,0.47987,0.91149,0.41277,0.27838
1695052234343750,-9.906833,1.1139,0.56987,0.89949,0.44377,0.31038
1695052234351562,-9.912833,0.997139,0.60987,0.86949,0.39277,0.31138
1695052234359375,-9.926833,0.992139,0.65987,0.96049,0.44377,0.32538
1695052234367187,-9.924833,0.978139,0.72987,0.83649,0.39977,0.32638
1695052234375000,-9.931833,0.985139,0.81987,0.88249,0.46177,0.27738
1695052234382812,-9.942833,0.977139,0.62987,0.77649,0.49077,0.18438
1695052234390625,-9.935833,0.970139,0.71987,0.80549,0.50977,0.18338
1695052234398437,-9.930833,0.973139,0.69987,0.91349,0.46777,0.12138
1695052234406250,-9.918833,0.968139,0.62987,0.91449,0.46677,0.13838
1695052234414062,-9.912833,0.963139,0.58987,0.94149,0.50077,0.5738
1695052234421875,-9.914833,0.970139,0.55987,0.97149,0.54577,0.2162
1695052234429687,-9.905833,0.975139,0.62987,0.97149,0.52477,0.9962
1695052234437500,-9.905833,0.975139,0.58987,0.95649,0.50977,0.8362
1695052234445312,-9.899833,0.988139,0.51987,0.94049,0.54377,0.9962
1695052234453125,-9.892833,0.999139,0.58987,0.96949,0.53777,0.20962
1695052234460937,-9.890833,1.5139,0.51987,0.98449,0.50877,0.14662
1695052234468750,-9.895833,1.25139,0.42987,0.95149,0.52677,0.19462
1695052234476562,-9.897833,1.30139,0.44987,0.98249,0.55677,0.22662
1695052234484375,-9.886833,1.41139,0.49987,0.99849,0.54277,0.16362
1695052234492187,-9.879833,1.57139,0.51987,0.101449,0.57177,0.21062
1695052234500000,-9.895833,1.68139,0.56987,0.99849,0.53977,0.19462
1695052234507812,-9.902833,1.73139,0.46987,0.97149,0.52277,0.13062
1695052234515625,-9.904833,1.77139,0.40987,0.100049,0.55477,0.17862
1695052234523437,-9.895833,1.84139,0.40987,0.109249,0.58777,0.14862
1695052234531250,-9.910833,1.81139,0.33987,0.105049,0.51777,0.11362
1695052234539062,-9.902833,1.87139,0.30987,0.109549,0.60477,0.8562
1695052234546875,-9.886833,1.84139,0.37987,0.118649,0.52177,0.5362
1695052234554687,-9.877833,1.82139,0.30987,0.117149,0.53777,0.5362
1695052234562500,-9.866833,1.87139,0.22987,0.104549,0.56377,0.3962
1695052234570312,-9.848833,1.69139,0.19987,0.99749,0.48177,0.6962
1695052234578125,-9.863833,1.63139,0.21987,0.109349,0.52377,0.6862
1695052234585937,-9.868833,1.63139,0.17987,0.112449,0.54377,0.662
1695052234593750,-9.877833,1.63139,0.12987,0.101849,0.49777,0.5738
1695052234601562,-9.891833,1.52139,0.24987,0.97249,0.49977,0.5738
1695052234609375,-9.893833,1.53139,0.33987,0.95849,0.51377,0.4238
1695052234617187,-9.888833,1.34139,0.44987,0.98649,0.45277,0.10438
1695052234625000,-9.893833,1.12139,0.33987,0.89649,0.48977,0.15238
1695052234632812,-9.883833,1.14139,0.49987,0.89749,0.48577,0.10538
1695052234640625,-9.881833,1.5139,0.58987,0.97249,0.51977,0.11938
1695052234648437,-9.883833,1.1139,0.51987,0.80849,0.50377,0.15338
1695052234656250,-9.888833,1.14139,0.56987,0.74449,0.52177,0.9038
1695052234664062,-9.901833,1.10139,0.51987,0.85149,0.46577,0.4338
1695052234671875,-9.913833,1.28139,0.33987,0.83649,0.51777,0.5838
1695052234679687,-9.899833,1.35139,0.39987,0.80749,0.54877,0.4338
1695052234687500,-9.904833,1.43139,0.15987,0.83449,0.55077,0.562
1695052234695312,-9.906833,1.48139,0.31987,0.86549,0.51677,0.4238
1695052234703125,-9.895833,1.52139,0.12987,0.80249,0.46677,0.3562
1695052234710937,-9.902833,1.68139,0.6987,0.90949,0.54777,0.5362
1695052234718750,-9.909833,1.81139,0.2013,0.96949,0.53277,0.2262
1695052234726562,-9.916833,1.97139,0.16013,0.95649,0.56277,0.3762
1695052234734375,-9.894833,1.92139,0.14013,0.106049,0.59777,0.5662
1695052234742187,-9.866833,1.67139,0.18013,0.109249,0.52877,0.2262
1695052234750000,-9.845833,1.29139,0.3013,0.97149,0.48077,0.462
1695052234757812,-9.824833,1.19139,0.5013,0.97449,0.35977,0.6238
1695052234765625,-9.845833,1.5139,0.19987,0.101749,0.36177,0.1338
1695052234773437,-9.890833,1.12139,0.33987,0.97149,0.32777,0.1438
1695052234781250,-9.924833,1.40139,0.46987,0.95849,0.34377,0.6238
1695052234789062,-9.933833,1.40139,0.49987,0.97149,0.29377,0.1538
1695052234796875,-9.929833,1.35139,0.74987,0.95649,0.39577,0.262
1695052234804687,-9.928833,1.11139,0.94987,0.97149,0.42877,0.362
1695052234812500,-9.913833,1.10139,0.92987,0.88049,0.43177,0.2838
1695052234820312,-9.912833,0.997139,0.94987,0.88149,0.43177,0.4438
1695052234828125,-9.917833,0.993139,0.92987,0.75749,0.49877,0.5062
1695052234835937,-9.915833,0.997139,0.92987,0.72649,0.52077,0.1138
1695052234843750,-9.930833,1.9139,0.94987,0.72949,0.58377,0.1138
1695052234851562,-9.920833,1.14139,0.90987,0.75549,0.53877,0.2162
1695052234859375,-9.931833,1.33139,0.81987,0.71449,0.63977,0.7238
1695052234867187,-9.917833,1.33139,0.71987,0.72949,0.60377,0.4138
1695052234875000,-9.908833,1.46139,0.58987,0.71449,0.65577,0.5638
1695052234882812,-9.900833,1.48139,0.56987,0.72849,0.67377,0.3938
1695052234890625,-9.900833,1.54139,0.42987,0.72849,0.64077,0.5538
1695052234898437,-9.884833,1.52139,0.40987,0.72849,0.71077,0.10038
1695052234906250,-9.882833,1.49139,0.24987,0.72849,0.66077,0.10238
1695052234914062,-9.880833,1.45139,0.19987,0.72849,0.56077,0.13538
1695052234921875,-9.877833,1.43139,0.21987,0.73249,0.54277,0.21538
1695052234929687,-9.886833,1.29139,0.15987,0.74349,0.56277,0.16638
1695052234937500,-9.877833,1.25139,0.28987,0.75949,0.58977,0.8838
1695052234945312,-9.883833,1.14139,0.35987,0.71549,0.52577,0.18438
1695052234953125,-9.881833,1.10139,0.30987,0.80649,0.52477,0.16738
1695052234960937,-9.878833,1.6139,0.44987,0.88249,0.51677,0.7438
1695052234968750,-9.899833,0.994139,0.40987,0.78849,0.46777,0.1238
1695052234976562,-9.895833,1.1139,0.37987,0.77149,0.51877,0.3662
1695052234984375,-9.908833,0.999139,0.44987,0.77449,0.51877,0.4238
1695052234992187,-9.898833,0.993139,0.46987,0.76049,0.56677,0.1138
1695052235000000,-9.903833,0.997139,0.46987,0.81949,0.52977,0.6762
1695052235007812,-9.888833,1.8139,0.37987,0.83449,0.51577,0.2062
1695052235015625,-9.878833,1.10139,0.39987,0.80549,0.58377,0.2638
1695052235023437,-9.870833,1.19139,0.24987,0.72749,0.53377,0.3562
1695052235031250,-9.902833,1.57139,0.24987,0.72549,0.55277,0.5262
1695052235039062,-9.939833,1.86139,0.31987,0.71049,0.53777,0.2062
1695052235046875,-9.905833,1.79139,0.8987,0.78649,0.56977,0.3762
1695052235054687,-9.875833,1.65139,0.1987,0.84849,0.59977,0.5462
1695052235062500,-9.871833,1.58139,0.8987,0.72549,0.53977,0.1038
1695052235070312,-9.870833,1.67139,0.5013,0.82049,0.53877,0.10438
1695052235078125,-9.884833,1.81139,0.1987,0.83749,0.52177,0.13638
1695052235085937,-9.898833,1.75139,0.8987,0.91349,0.52177,0.16738
1695052235093750,-9.893833,1.74139,0.17987,0.95849,0.50577,0.16638
1695052235101562,-9.893833,1.68139,0.22987,0.94449,0.57577,0.22838
1695052235109375,-9.902833,1.68139,0.17987,0.97549,0.43977,0.24738
1695052235117187,-9.902833,1.50139,0.19987,0.97549,0.52177,0.22938
1695052235125000,-9.891833,1.49139,0.19987,0.95649,0.59477,0.19538
1695052235132812,-9.890833,1.37139,0.26987,0.99149,0.54077,0.26038
1695052235140625,-9.895833,1.27139,0.28987,0.103549,0.55877,0.24338
1695052235148437,-9.906833,1.28139,0.40987,0.102149,0.53577,0.19838
1695052235156250,-9.899833,1.15139,0.26987,0.97649,0.58777,0.21338
1695052235164062,-9.892833,1.17139,0.26987,0.95949,0.51977,0.15138
1695052235171875,-9.894833,1.21139,0.24987,0.103649,0.53477,0.18238
1695052235179687,-9.897833,1.5139,0.28987,0.105049,0.56977,0.16538
1695052235187500,-9.881833,1.17139,0.15987,0.103649,0.61877,0.14938
1695052235195312,-9.881833,1.14139,0.0,0.99049,0.60477,0.18038
1695052235203125,-9.871833,1.12139,0.3987,0.111349,0.46377,0.16838
1695052235210937,-9.876833,1.5139,0.3987,0.98949,0.47077,0.19938
1695052235218750,-9.879833,1.10139,0.5013,0.105049,0.53377,0.13538
1695052235226562,-9.881833,1.12139,0.5013,0.98849,0.47077,0.16738
1695052235234375,-9.863833,1.5139,0.1987,0.94149,0.42177,0.15238
1695052235242187,-9.867833,0.991139,0.1987,0.95849,0.50577,0.18238
1695052235250000,-9.874833,0.996139,0.6987,0.97249,0.45677,0.18338
1695052235257812,-9.883833,0.994139,0.3013,0.92849,0.40477,0.18538
1695052235265625,-9.897833,0.989139,0.6987,0.92449,0.42477,0.15238
1695052235273437,-9.910833,0.974139,0.31987,0.94149,0.42177,0.13738
1695052235281250,-9.915833,0.974139,0.51987,0.94049,0.47477,0.15038
1695052235289062,-9.917833,0.974139,0.58987,0.86449,0.39377,0.20038
1695052235296875,-9.935833,0.976139,0.56987,0.80449,0.37877,0.23238
1695052235304687,-9.940833,0.974139,0.81987,0.92649,0.43077,0.27738
1695052235312500,-9.944833,0.974139,0.81987,0.78949,0.42977,0.24738
1695052235320312,-9.942833,0.984139,0.74987,0.73149,0.53177,0.29338
1695052235328125,-9.920833,0.992139,0.72987,0.75949,0.49677,0.21438
1695052235335937,-9.913833,1.8139,0.67987,0.89649,0.52477,0.18238
1695052235343750,-9.913833,1.10139,0.58987,0.95749,0.54177,0.16538
1695052235351562,-9.904833,1.18139,0.44987,0.89349,0.52377,0.8738
1695052235359375,-9.893833,1.25139,0.31987,0.91149,0.55877,0.16538
1695052235367187,-9.900833,1.20139,0.15987,0.97049,0.52277,0.10238
1695052235375000,-9.897833,1.23139,0.10987,0.97149,0.51977,0.7238
1695052235382812,-9.877833,1.9139,0.2013,0.101549,0.54077,0.11738
1695052235390625,-9.877833,1.13139,0.3987,0.98449,0.50877,0.13338
1695052235398437,-9.877833,1.2139,0.3987,0.104749,0.55977,0.19538
1695052235406250,-9.877833,0.986139,0.6987,0.112249,0.43877,0.15038
1695052235414062,-9.895833,0.969139,0.28987,0.109349,0.42077,0.18238
1695052235421875,-9.913833,0.981139,0.26987,0.104849,0.38777,0.18438
1695052235429687,-9.921833,0.963139,0.46987,0.106549,0.45777,0.26138
1695052235437500,-9.930833,0.937139,0.53987,0.103549,0.40377,0.23138
1695052235445312,-9.948833,0.921139,0.71987,0.97349,0.47477,0.22938
1695052235453125,-9.941833,0.912139,0.76987,0.96049,0.42677,0.30938
1695052235460937,-9.926833,0.895139,0.76987,0.96349,0.42077,0.29638
1695052235468750,-9.920833,0.892139,0.64987,0.97549,0.47577,0.29338
1695052235476562,-9.927833,0.881139,0.78987,0.83949,0.53977,0.21538
1695052235484375,-9.925833,0.870139,0.71987,0.80749,0.51177,0.24638
1695052235492187,-9.924833,0.868139,0.73987,0.79349,0.52677,0.24638
1695052235500000,-9.927833,0.874139,0.78987,0.77749,0.52777,0.23038
1695052235507812,-9.943833,0.877139,0.69987,0.73149,0.54277,0.18438
1695052235515625,-9.933833,0.890139,0.67987,0.73249,0.59177,0.18338
1695052235523437,-9.907833,0.883139,0.62987,0.71549,0.54277,0.16838
1695052235531250,-9.907833,0.896139,0.58987,0.74349,0.60977,0.11838
1695052235539062,-9.916833,0.901139,0.51987,0.76149,0.60877,0.16638
1695052235546875,-9.916833,0.906139,0.46987,0.73149,0.54077,0.16838
1695052235554687,-9.887833,0.905139,0.46987,0.72849,0.54077,0.8938
1695052235562500,-9.889833,0.903139,0.37987,0.71549,0.57677,0.16738
1695052235570312,-9.893833,0.889139,0.42987,0.80449,0.60677,0.8738
1695052235578125,-9.911833,0.899139,0.30987,0.80649,0.55477,0.12038
1695052235585937,-9.905833,0.889139,0.28987,0.74149,0.59377,0.7138
1695052235593750,-9.909833,0.873139,0.24987,0.91149,0.59477,0.18038
1695052235601562,-9.906833,0.859139,0.19987,0.94449,0.52177,0.19838
1695052235609375,-9.890833,0.833139,0.35987,0.97249,0.48977,0.16638
1695052235617187,-9.899833,0.827139,0.32987,0.95749,0.52077,0.13538
1695052235625000,-9.947833,0.832139,0.21987,0.97249,0.55677,0.14938
1695052235632812,-9.955833,0.833139,0.16987,0.91349,0.54977,0.7338
1695052235640625,-9.940833,0.834139,0.12987,0.91149,0.53377,0.4138
1695052235648437,-9.897833,0.804139,0.17987,0.98549,0.55477,0.5438
1695052235656250,-9.856833,0.761139,0.19987,0.90649,0.50177,0.3762
1695052235664062,-9.851833,0.760139,0.23987,0.89449,0.44777,0.1962
1695052235671875,-9.857833,0.755139,0.34987,0.83349,0.39677,0.4962
1695052235679687,-9.894833,0.775139,0.35987,0.73549,0.29877,0.17362
1695052235687500,-9.933833,0.791139,0.49987,0.75049,0.38277,0.17562
1695052235695312,-9.949833,0.807139,0.55987,0.73649,0.39577,0.20662
1695052235703125,-9.942833,0.827139,0.58987,0.70649,0.47977,0.22362
1695052235710937,-9.924833,0.829139,0.69987,0.72349,0.54677,0.20962
1695052235718750,-9.924833,0.832139,0.83987,0.72249,0.41377,0.17562
1695052235726562,-9.911833,0.838139,0.92987,0.72249,0.51477,0.19362
1695052235734375,-9.909833,0.853139,0.87987,0.72149,0.48177,0.20862
1695052235742187,-9.914833,0.867139,0.87987,0.70649,0.48077,0.22462
1695052235750000,-9.921833,0.871139,0.94987,0.69049,0.53577,0.19462
1695052235757812,-9.921833,0.878139,0.83987,0.72149,0.54877,0.20962
1695052235765625,-9.923833,0.901139,0.76987,0.70849,0.53277,0.16262
1695052235773437,-9.916833,0.905139,0.76987,0.72249,0.55077,0.16262
1695052235781250,-9.919833,0.916139,0.60987,0.70749,0.53377,0.16262
1695052235789062,-9.919833,0.918139,0.51987,0.72349,0.58277,0.16362
1695052235796875,-9.914833,0.914139,0.53987,0.70949,0.58877,0.5362
1695052235804687,-9.918833,0.912139,0.44987,0.74049,0.60177,0.8462
1695052235812500,-9.916833,0.901139,0.39987,0.72549,0.55177,0.6862
1695052235820312,-9.923833,0.896139,0.23987,0.71049,0.61777,0.10062
1695052235828125,-9.932833,0.885139,0.39987,0.77049,0.56777,0.8462
1695052235835937,-9.925833,0.864139,0.21987,0.78449,0.55277,0.8562
1695052235843750,-9.920833,0.867139,0.26987,0.76949,0.61777,0.14862
1695052235851562,-9.914833,0.862139,0.42987,0.78449,0.55077,0.11662
1695052235859375,-9.913833,0.859139,0.48987,0.78549,0.54377,0.19362
1695052235867187,-9.923833,0.860139,0.51987,0.87349,0.56377,0.21162
1695052235875000,-9.913833,0.854139,0.44987,0.81249,0.52377,0.31962
1695052235882812,-9.911833,0.860139,0.44987,0.76649,0.54377,0.28862
1695052235890625,-9.911833,0.869139,0.42987,0.81149,0.54077,0.33562
1695052235898437,-9.914833,0.878139,0.49987,0.85749,0.57577,0.30562
1695052235906250,-9.906833,0.892139,0.46987,0.78449,0.55577,0.30362
1695052235914062,-9.895833,0.903139,0.44987,0.70549,0.52177,0.39662
1695052235921875,-9.887833,0.911139,0.51987,0.74849,0.53977,0.41462
1695052235929687,-9.876833,0.927139,0.37987,0.74949,0.51977,0.46062
1695052235937500,-9.919833,0.963139,0.28987,0.73449,0.57077,0.44562
1695052235945312,-9.944833,0.997139,0.24987,0.70449,0.61977,0.46162
1695052235953125,-9.908833,0.998139,0.19987,0.77949,0.62077,0.46262
1695052235960937,-9.879833,0.994139,0.21987,0.74949,0.60577,0.43062
1695052235968750,-9.877833,1.139,0.15987,0.75049,0.60777,0.38362
1695052235976562,-9.889833,1.13139,0.10987,0.74649,0.57677,0.43162
1695052235984375,-9.882833,1.16139,0.12987,0.90349,0.52477,0.30462
1695052235992187,-9.882833,1.25139,0.6987,0.81249,0.57777,0.28962
1695052236000000,-9.902833,1.30139,0.21987,0.91949,0.48677,0.33462
1695052236007812,-9.895833,1.39139,0.15987,0.93749,0.53977,0.22562
1695052236015625,-9.895833,1.32139,0.19987,0.93649,0.51177,0.14762
1695052236023437,-9.898833,1.29139,0.19987,0.96649,0.52777,0.17962
1695052236031250,-9.895833,1.10139,0.26987,0.95349,0.52777,0.13162
1695052236039062,-9.892833,1.5139,0.37987,0.97049,0.51177,0.6862
1695052236046875,-9.881833,1.12139,0.35987,0.97149,0.54877,0.2438
1695052236054687,-9.893833,1.1139,0.40987,0.97049,0.53477,0.2438
1695052236062500,-9.893833,1.5139,0.37987,0.97149,0.53577,0.5538
1695052236070312,-9.895833,0.998139,0.38987,0.96849,0.45477,0.5638
1695052236078125,-9.883833,0.991139,0.42987,0.97249,0.57277,0.13338
1695052236085937,-9.886833,0.987139,0.33987,0.97049,0.47077,0.8838
1695052236093750,-9.893833,0.993139,0.37987,0.97149,0.54077,0.13338
1695052236101562,-9.890833,0.982139,0.24987,0.97149,0.52577,0.16538
1695052236109375,-9.890833,0.978139,0.28987,0.97149,0.54177,0.16538
1695052236117187,-9.894833,0.981139,0.28987,0.97449,0.55477,0.18138
1695052236125000,-9.901833,0.985139,0.19987,0.95849,0.53877,0.15038
1695052236132812,-9.885833,0.968139,0.21987,0.97449,0.51977,0.16738
1695052236140625,-9.881833,0.971139,0.21987,0.95749,0.52477,0.18138
1695052236148437,-9.885833,0.951139,0.24987,0.97049,0.42477,0.16738
1695052236156250,-9.903833,0.943139,0.33987,0.97449,0.45677,0.23038
1695052236164062,-9.911833,0.942139,0.35987,0.97649,0.40077,0.20138
1695052236171875,-9.917833,0.952139,0.42987,0.100349,0.44077,0.23038
1695052236179687,-9.928833,0.943139,0.44987,0.99049,0.42477,0.27838
1695052236187500,-9.932833,0.936139,0.51987,0.95749,0.48877,0.15138
1695052236195312,-9.925833,0.941139,0.44987,0.97549,0.52277,0.22938
1695052236203125,-9.919833,0.938139,0.49987,0.97049,0.54077,0.11738
1695052236210937,-9.919833,0.939139,0.46987,0.97349,0.50677,0.19838
1695052236218750,-9.921833,0.932139,0.64987,0.97349,0.48377,0.10538
1695052236226562,-9.921833,0.923139,0.60987,0.95749,0.51977,0.10338
1695052236234375,-9.928833,0.925139,0.60987,0.98749,0.51877,0.8738
1695052236242187,-9.929833,0.936139,0.56987,0.99949,0.60677,0.5238
1695052236250000,-9.942833,0.938139,0.47987,0.96849,0.62277,0.538
1695052236257812,-9.917833,0.922139,0.31987,0.95149,0.53777,0.2362
1695052236265625,-9.881833,0.919139,0.19987,0.96849,0.55377,0.738
1695052236273437,-9.893833,0.925139,0.12987,0.97049,0.52877,0.5362
1695052236281250,-9.928833,0.941139,0.26987,0.96849,0.54777,0.8562
1695052236289062,-9.898833,0.920139,0.8987,0.96949,0.63177,0.7162
1695052236296875,-9.885833,0.927139,0.1987,0.95349,0.58177,0.7062
1695052236304687,-9.894833,0.938139,0.3987,0.98349,0.53177,0.7062
1695052236312500,-9.905833,0.938139,0.1987,0.93949,0.58577,0.862
1695052236320312,-9.896833,0.936139,0.14013,0.97049,0.56477,0.3862
1695052236328125,-9.910833,0.943139,0.3013,0.96849,0.49677,0.8462
1695052236335937,-9.930833,0.959139,0.3987,0.95449,0.59877,0.7062
1695052236343750,-9.931833,0.954139,0.3013,0.93749,0.49877,0.8462
1695052236351562,-9.912833,0.951139,0.0,0.93749,0.54977,0.7062
1695052236359375,-9.887833,0.949139,0.10013,0.95449,0.54677,0.8562
1695052236367187,-9.885833,0.958139,0.19013,0.95549,0.51277,0.5262
1695052236375000,-9.903833,0.959139,0.23013,0.100049,0.51077,0.8462
1695052236382812,-9.894833,0.963139,0.14013,0.96949,0.54577,0.8562
1695052236390625,-9.873833,0.952139,0.30013,0.101649,0.52277,0.13162
1695052236398437,-9.883833,0.963139,0.26013,0.104649,0.54277,0.8562
1695052236406250,-9.914833,0.963139,0.16013,0.96949,0.47677,0.9962
1695052236414062,-9.885833,0.947139,0.7013,0.108949,0.47877,0.6962
1695052236421875,-9.867833,0.933139,0.7013,0.101349,0.39477,0.8262
1695052236429687,-9.876833,0.944139,0.3987,0.101349,0.41277,0.8362
1695052236437500,-9.928833,0.965139,0.12987,0.102949,0.41277,0.5162
1695052236445312,-9.955833,0.964139,0.17987,0.95349,0.47877,0.8362
1695052236453125,-9.912833,0.952139,0.19987,0.107649,0.42377,0.8262
1695052236460937,-9.887833,0.933139,0.30987,0.99849,0.53077,0.8562
1695052236468750,-9.910833,0.940139,0.37987,0.101349,0.48077,0.5362
1695052236476562,-9.960833,0.952139,0.26987,0.98349,0.47977,0.8462
1695052236484375,-9.960833,0.955139,0.30987,0.95449,0.49677,0.6862
1695052236492187,-9.932833,0.943139,0.12987,0.98449,0.54577,0.8562
1695052236500000,-9.926833,0.943139,0.3987,0.95349,0.53377,0.2262
1695052236507812,-9.914833,0.941139,0.15987,0.96849,0.53077,0.6962
1695052236515625,-9.890833,0.947139,0.3013,0.95249,0.39577,0.8262
1695052236523437,-9.915833,0.976139,0.14013,0.96749,0.53177,0.8562
1695052236531250,-9.924833,0.985139,0.16013,0.96749,0.51677,0.5462
1695052236539062,-9.915833,0.976139,0.34013,0.95149,0.51477,0.11662
1695052236546875,-9.894833,0.967139,0.46013,0.96749,0.51177,0.11662
1695052236554687,-9.881833,0.958139,0.48013,0.92149,0.54777,0.11762
1695052236562500,-9.867833,0.944139,0.39013,0.84349,0.54777,0.19562
1695052236570312,-9.862833,0.924139,0.30013,0.79949,0.51077,0.20862
1695052236578125,-9.857833,0.920139,0.5013,0.76849,0.44577,0.19262
1695052236585937,-9.876833,0.924139,0.3987,0.73449,0.38277,0.20762
1695052236593750,-9.926833,0.938139,0.21987,0.72049,0.33077,0.18962
1695052236601562,-9.938833,0.965139,0.33987,0.71949,0.33077,0.20562
1695052236609375,-9.922833,0.972139,0.53987,0.72149,0.37977,0.20562
1695052236617187,-9.906833,0.976139,0.60987,0.70749,0.44877,0.16062
1695052236625000,-9.901833,0.978139,0.81987,0.72149,0.39577,0.22262
1695052236632812,-9.893833,0.985139,0.78987,0.67549,0.50077,0.19362
1695052236640625,-9.920833,0.999139,0.83987,0.60049,0.53577,0.17762
1695052236648437,-9.918833,1.14139,0.83987,0.66149,0.55177,0.16262
1695052236656250,-9.907833,1.23139,0.69987,0.63149,0.56877,0.17862
1695052236664062,-9.891833,1.34139,0.58987,0.73749,0.53377,0.16262
1695052236671875,-9.914833,1.40139,0.56987,0.70749,0.55877,0.5462
1695052236679687,-9.914833,1.56139,0.51987,0.72349,0.55377,0.10062
1695052236687500,-9.913833,1.64139,0.37987,0.71349,0.65077,0.3762
1695052236695312,-9.903833,1.61139,0.38987,0.72449,0.58777,0.5362
1695052236703125,-9.881833,1.50139,0.31987,0.71349,0.58577,0.562
1695052236710937,-9.878833,1.49139,0.15987,0.78649,0.57677,0.5538
1695052236718750,-9.877833,1.24139,0.15987,0.87749,0.54077,0.3938
1695052236726562,-9.877833,1.9139,0.21987,0.92549,0.55277,0.4038
1695052236734375,-9.877833,1.4139,0.17987,0.83249,0.50677,0.5638
1695052236742187,-9.877833,0.982139,0.24987,0.87549,0.48977,0.938
1695052236750000,-9.878833,0.972139,0.30987,0.98649,0.48477,0.7338
1695052236757812,-9.881833,0.955139,0.28987,0.93849,0.50577,0.5538
1695052236765625,-9.887833,0.924139,0.49987,0.92449,0.50377,0.4038
1695052236773437,-9.896833,0.920139,0.44987,0.93949,0.52077,0.5638
1695052236781250,-9.907833,0.901139,0.53987,0.92549,0.50077,0.2538
1695052236789062,-9.902833,0.901139,0.62987,0.97049,0.36577,0.4438
1695052236796875,-9.904833,0.883139,0.55987,0.92649,0.49977,0.4238
1695052236804687,-9.916833,0.873139,0.74987,0.81649,0.55577,0.662
1695052236812500,-9.911833,0.878139,0.78987,0.75649,0.53877,0.1038
1695052236820312,-9.902833,0.876139,0.71987,0.72649,0.51877,0.1962
1695052236828125,-9.898833,0.885139,0.83987,0.71049,0.48677,0.1962
1695052236835937,-9.937833,0.917139,0.74987,0.72549,0.50077,0.8262
1695052236843750,-9.972833,0.948139,0.78987,0.72149,0.57077,0.13262
1695052236851562,-9.937833,0.953139,0.58987,0.72549,0.52977,0.14562
1695052236859375,-9.909833,0.946139,0.46987,0.72749,0.61577,0.8462
1695052236867187,-9.903833,0.941139,0.51987,0.72549,0.58577,0.6862
1695052236875000,-9.898833,0.959139,0.33987,0.71249,0.63477,0.5362
1695052236882812,-9.910833,0.963139,0.24987,0.72749,0.56877,0.3662
1695052236890625,-9.894833,0.972139,0.19987,0.71249,0.55077,0.3562
1695052236898437,-9.899833,0.974139,0.21987,0.77149,0.61977,0.5462
1695052236906250,-9.899833,0.967139,0.19987,0.80249,0.51977,0.562
1695052236914062,-9.890833,0.967139,0.21987,0.80149,0.58477,0.6962
1695052236921875,-9.894833,0.974139,0.19987,0.78749,0.58377,0.5362
1695052236929687,-9.905833,0.949139,0.8987,0.89249,0.54777,0.10062
1695052236937500,-9.905833,0.939139,0.26987,0.93849,0.55877,0.17962
1695052236945312,-9.899833,0.936139,0.19987,0.92149,0.63077,0.16562
1695052236953125,-9.899833,0.931139,0.33987,0.96549,0.51077,0.19562
1695052236960937,-9.903833,0.925139,0.26987,0.95049,0.59377,0.21262
1695052236968750,-9.908833,0.922139,0.21987,0.96549,0.68077,0.19962
1695052236976562,-9.910833,0.920139,0.19987,0.95149,0.61077,0.21262
1695052236984375,-9.898833,0.923139,0.19987,0.90649,0.60877,0.22762
1695052236992187,-9.894833,0.920139,0.12987,0.83049,0.61177,0.21162
1695052237000000,-9.899833,0.931139,0.1987,0.87449,0.59477,0.24362
1695052237007812,-9.901833,0.929139,0.3013,0.91949,0.57977,0.19662
1695052237015625,-9.892833,0.944139,0.7013,0.90549,0.61177,0.21262
1695052237023437,-9.896833,0.947139,0.10013,0.78449,0.58077,0.19462
1695052237031250,-9.885833,0.955139,0.16013,0.76749,0.54777,0.21062
1695052237039062,-9.874833,0.971139,0.14013,0.72149,0.61777,0.19662
1695052237046875,-9.879833,0.973139,0.16013,0.75249,0.56477,0.21062
1695052237054687,-9.882833,0.988139,0.14013,0.85749,0.56277,0.25862
1695052237062500,-9.890833,0.996139,0.16013,0.75249,0.53077,0.20962
1695052237070312,-9.902833,1.16139,0.14013,0.89049,0.45877,0.20862
1695052237078125,-9.890833,1.19139,0.16013,0.87649,0.50877,0.20962
1695052237085937,-9.890833,1.14139,0.9013,0.89049,0.52277,0.25662
1695052237093750,-9.889833,1.33139,0.9013,0.82749,0.48177,0.19462
1695052237101562,-9.892833,1.46139,0.14013,0.91749,0.54877,0.21262
1695052237109375,-9.900833,1.40139,0.5013,0.78249,0.52977,0.22562
1695052237117187,-9.891833,1.35139,0.18013,0.84249,0.54977,0.19662
1695052237125000,-9.879833,1.45139,0.14013,0.92049,0.52677,0.21062
1695052237132812,-9.898833,1.49139,0.16013,0.93449,0.51177,0.19562
1695052237140625,-9.896833,1.54139,0.9013,0.87349,0.49677,0.19462
1695052237148437,-9.899833,1.62139,0.9013,0.81049,0.47077,0.13262
1695052237156250,-9.887833,1.62139,0.16013,0.87349,0.53177,0.19562
1695052237164062,-9.898833,1.60139,0.14013,0.96649,0.51477,0.10162
1695052237171875,-9.893833,1.49139,0.14013,0.96749,0.54877,0.10262
1695052237179687,-9.891833,1.56139,0.12013,0.90649,0.48077,0.11562
1695052237187500,-9.892833,1.51139,0.16013,0.91949,0.47177,0.3862
1695052237195312,-9.902833,1.50139,0.12013,0.95349,0.46377,0.6862
1695052237203125,-9.896833,1.31139,0.9013,0.88949,0.43677,0.5262
1695052237210937,-9.891833,1.13139,0.9013,0.86049,0.53777,0.3862
1695052237218750,-9.889833,1.22139,0.16013,0.78349,0.54077,0.3862
1695052237226562,-9.903833,1.26139,0.7013,0.81349,0.45477,0.6862
1695052237234375,-9.904833,1.29139,0.5013,0.76949,0.51877,0.8462
1695052237242187,-9.893833,1.18139,0.3987,0.70849,0.50377,0.8362
1695052237250000,-9.884833,1.33139,0.0,0.75249,0.45477,0.6762
1695052237257812,-9.887833,1.47139,0.7013,0.70649,0.50477,0.9962
1695052237265625,-9.892833,1.51139,0.5013,0.75249,0.53977,0.8562
1695052237273437,-9.877833,1.51139,0.5013,0.70949,0.55477,0.6862
1695052237281250,-9.880833,1.71139,0.3987,0.84549,0.49877,0.11562
1695052237289062,-9.882833,1.67139,0.2013,0.79849,0.50077,0.13162
1695052237296875,-9.887833,1.69139,0.5013,0.84449,0.51977,0.8562
1695052237304687,-9.900833,1.70139,0.6987,0.77049,0.46777,0.6662
1695052237312500,-9.912833,1.76139,0.5013,0.75549,0.50477,0.2062
1695052237320312,-9.905833,1.78139,0.10987,0.80049,0.55577,0.2262
1695052237328125,-9.900833,1.74139,0.6987,0.86249,0.48677,0.1038
1695052237335937,-9.901833,1.67139,0.15987,0.89249,0.51977,0.2262
1695052237343750,-9.909833,1.70139,0.31987,0.87949,0.52177,0.7238
1695052237351562,-9.918833,1.70139,0.8987,0.92449,0.52077,0.4038
1695052237359375,-9.903833,1.62139,0.22987,0.93749,0.50677,0.5538
1695052237367187,-9.903833,1.64139,0.17987,0.96849,0.60777,0.5338
1695052237375000,-9.907833,1.58139,0.10987,0.95449,0.57177,0.3838
1695052237382812,-9.903833,1.58139,0.15987,0.96949,0.58877,0.5438
1695052237390625,-9.902833,1.65139,0.3987,0.97149,0.60377,0.7038
1695052237398437,-9.901833,1.67139,0.9013,0.96949,0.57377,0.8538
1695052237406250,-9.887833,1.64139,0.11013,0.96949,0.59077,0.8538
1695052237414062,-9.864833,1.51139,0.14013,0.96949,0.53877,0.5438
1695052237421875,-9.864833,1.55139,0.16013,0.97049,0.58877,0.6938
1695052237429687,-9.882833,1.65139,0.16013,0.97249,0.53577,0.8738
1695052237437500,-9.905833,1.77139,0.23013,0.97249,0.55277,0.10338
1695052237445312,-9.914833,1.85139,0.34013,0.95649,0.59077,0.13338
1695052237453125,-9.878833,1.71139,0.50013,0.94149,0.57377,0.13338
1695052237460937,-9.849833,1.52139,0.55013,0.96849,0.52777,0.13238
1695052237468750,-9.837833,1.24139,0.37013,0.95549,0.47577,0.15038
1695052237476562,-9.834833,0.995139,0.23013,0.97049,0.43877,0.12038
1695052237484375,-9.861833,1.6139,0.21013,0.92349,0.42177,0.7338
1695052237492187,-9.910833,1.15139,0.10013,0.83749,0.35277,0.15638
1695052237500000,-9.917833,1.12139,0.3013,0.78949,0.35777,0.18638
1695052237507812,-9.926833,1.15139,0.3013,0.82249,0.35077,0.12538
1695052237515625,-9.917833,1.11139,0.12987,0.80849,0.46977,0.17038
1695052237523437,-9.910833,1.8139,0.21987,0.85049,0.42077,0.12238
1695052237531250,-9.903833,0.995139,0.26987,0.91249,0.48477,0.10538
1695052237539062,-9.906833,0.992139,0.33987,0.89749,0.46877,0.10638
1695052237546875,-9.915833,0.986139,0.30987,0.86649,0.50377,0.10538
1695052237554687,-9.915833,0.983139,0.35987,0.80649,0.55777,0.16738
1695052237562500,-9.926833,0.988139,0.37987,0.74349,0.53877,0.7338
1695052237570312,-9.917833,0.999139,0.24987,0.71449,0.62777,0.15038
1695052237578125,-9.913833,1.12139,0.12987,0.80549,0.57277,0.11938
1695052237585937,-9.928833,1.10139,0.3987,0.92849,0.58677,0.13438
1695052237593750,-9.924833,1.12139,0.3987,0.83649,0.59077,0.13438
1695052237601562,-9.921833,1.6139,0.14013,0.80749,0.57177,0.15138
1695052237609375,-9.911833,0.994139,0.16013,0.83649,0.59477,0.19638
1695052237617187,-9.892833,0.987139,0.21013,0.78949,0.59277,0.13438
1695052237625000,-9.882833,0.970139,0.37013,0.97549,0.61777,0.11838
1695052237632812,-9.883833,0.960139,0.37013,0.95849,0.57477,0.19638
1695052237640625,-9.880833,0.950139,0.48013,0.96049,0.54977,0.12038
1695052237648437,-9.878833,0.938139,0.35013,0.94149,0.53377,0.5638
1695052237656250,-9.878833,0.925139,0.28013,0.94149,0.54977,0.2538
1695052237664062,-9.879833,0.919139,0.21013,0.95749,0.46377,0.4338
1695052237671875,-9.895833,0.912139,0.19013,0.98749,0.49677,0.1038
1695052237679687,-9.900833,0.907139,0.10013,0.92549,0.54577,0.5262
1695052237687500,-9.888833,0.901139,0.14013,0.82149,0.54577,0.3562
1695052237695312,-9.911833,0.905139,0.3987,0.78749,0.53077,0.8262
1695052237703125,-9.921833,0.903139,0.21987,0.77049,0.51877,0.6762
1695052237710937,-9.933833,0.906139,0.21987,0.75949,0.44477,0.4862
1695052237718750,-9.913833,0.902139,0.16987,0.73049,0.52977,0.3462
1695052237726562,-9.889833,0.907139,0.33987,0.77149,0.51477,0.9862
1695052237734375,-9.909833,0.932139,0.24987,0.77149,0.51577,0.6762
1695052237742187,-9.948833,0.967139,0.17987,0.72749,0.59377,0.16162
1695052237750000,-9.958833,0.986139,0.5013,0.74149,0.61377,0.14762
1695052237757812,-9.923833,0.991139,0.17013,0.75749,0.59377,0.16162
1695052237765625,-9.885833,0.981139,0.14013,0.78749,0.64377,0.17962
1695052237773437,-9.862833,0.983139,0.14013,0.78849,0.56077,0.13062
1695052237781250,-9.862833,0.997139,0.19013,0.75749,0.55777,0.19262
1695052237789062,-9.876833,1.14139,0.35013,0.75749,0.59577,0.13062
1695052237796875,-9.890833,1.25139,0.44013,0.77149,0.59577,0.16262
1695052237804687,-9.899833,1.28139,0.48013,0.89349,0.59577,0.11662
1695052237812500,-9.895833,1.37139,0.35013,0.87849,0.52877,0.9962
1695052237820312,-9.874833,1.23139,0.44013,0.84749,0.52777,0.13062
1695052237828125,-9.861833,1.27139,0.55013,0.98449,0.54177,0.14762
1695052237835937,-9.872833,1.34139,0.37013,0.96949,0.40677,0.12862
1695052237843750,-9.882833,1.31139,0.41013,0.92149,0.49477,0.16262
1695052237851562,-9.879833,1.13139,0.37013,0.92049,0.49577,0.16362
1695052237859375,-9.876833,1.14139,0.21013,0.93949,0.49377,0.8362
1695052237867187,-9.885833,1.3139,0.14013,0.89349,0.46277,0.6662
1695052237875000,-9.874833,1.9139,0.14013,0.93649,0.49477,0.14762
1695052237882812,-9.890833,1.9139,0.16013,0.81549,0.48177,0.13062
1695052237890625,-9.900833,1.21139,0.9013,0.81549,0.46477,0.11462
1695052237898437,-9.897833,1.12139,0.10013,0.80349,0.49777,0.6662
1695052237906250,-9.892833,1.10139,0.19013,0.77249,0.53277,0.5162
1695052237914062,-9.893833,1.9139,0.7013,0.72549,0.43677,0.1862
1695052237921875,-9.897833,1.14139,0.8987,0.72749,0.45477,0.6038
1695052237929687,-9.908833,1.14139,0.12013,0.74249,0.53677,0.1138
1695052237937500,-9.903833,1.17139,0.7013,0.72849,0.51777,0.1238
1695052237945312,-9.899833,1.12139,0.7013,0.71049,0.45377,0.362
1695052237953125,-9.910833,1.10139,0.5013,0.83549,0.43177,0.1338
1695052237960937,-9.906833,1.3139,0.3987,0.74349,0.48777,0.5938
1695052237968750,-9.913833,0.996139,0.1987,0.71149,0.52177,0.2638
1695052237976562,-9.908833,0.992139,0.5987,0.72749,0.53777,0.2638
1695052237984375,-9.903833,0.974139,0.5987,0.72649,0.41977,0.1338
1695052237992187,-9.896833,0.974139,0.3987,0.86349,0.46377,0.5162
1695052238000000,-9.892833,0.958139,0.21987,0.86349,0.41777,0.2838
1695052238007812,-9.910833,0.965139,0.5987,0.86349,0.41377,0.4962
1695052238015625,-9.910833,0.979139,0.15987,0.81649,0.39877,0.6562
1695052238023437,-9.911833,0.964139,0.22987,0.82949,0.45477,0.3662
1695052238031250,-9.917833,0.974139,0.19987,0.78649,0.51677,0.6762
1695052238039062,-9.908833,0.974139,0.37987,0.78349,0.37977,0.15962
1695052238046875,-9.904833,0.981139,0.33987,0.81349,0.52877,0.20962
1695052238054687,-9.920833,0.985139,0.19987,0.84349,0.54677,0.21162
1695052238062500,-9.906833,0.987139,0.26987,0.82949,0.52977,0.17862
1695052238070312,-9.902833,0.998139,0.19987,0.95149,0.54277,0.19562
1695052238078125,-9.897833,0.992139,0.8987,0.86249,0.51077,0.14662
1695052238085937,-9.904833,1.139,0.15987,0.82849,0.53177,0.17962
1695052238093750,-9.895833,1.10139,0.17987,0.89349,0.54777,0.8462
1695052238101562,-9.879833,1.9139,0.5987,0.78549,0.46577,0.8262
1695052238109375,-9.895833,1.18139,0.3013,0.89249,0.47877,0.11462
1695052238117187,-9.895833,1.37139,0.3013,0.90849,0.56277,0.10062
1695052238125000,-9.893833,1.43139,0.6987,0.89149,0.52977,0.13162
1695052238132812,-9.902833,1.46139,0.0,0.88049,0.51177,0.6762
1695052238140625,-9.897833,1.55139,0.0,0.92649,0.52477,0.8262
1695052238148437,-9.886833,1.61139,0.16013,0.97149,0.45977,0.5062
1695052238156250,-9.881833,1.73139,0.14013,0.92649,0.52577,0.8362
1695052238164062,-9.873833,1.79139,0.16013,0.97149,0.54477,0.6862
1695052238171875,-9.875833,1.83139,0.14013,0.97149,0.49277,0.6762
1695052238179687,-9.870833,1.82139,0.16013,0.95849,0.47077,0.8162
1695052238187500,-9.870833,1.86139,0.19013,0.97249,0.52377,0.6762
1695052238195312,-9.877833,1.80139,0.14013,0.92849,0.50777,0.5062
1695052238203125,-9.877833,1.84139,0.14013,0.89649,0.47977,0.362
1695052238210937,-9.878833,1.80139,0.11013,0.96949,0.53577,0.2438
1695052238218750,-9.878833,1.78139,0.16013,0.95649,0.45077,0.5838
1695052238226562,-9.877833,1.74139,0.14013,0.97249,0.41377,0.4338
1695052238234375,-9.886833,1.66139,0.14013,0.97449,0.44477,0.5938
1695052238242187,-9.880833,1.58139,0.16013,0.94049,0.38677,0.10638
1695052238250000,-9.876833,1.46139,0.7013,0.96149,0.41477,0.17038
1695052238257812,-9.892833,1.44139,0.0,0.97449,0.39577,0.9238
1695052238265625,-9.897833,1.42139,0.5013,0.93049,0.43477,0.17038
1695052238273437,-9.897833,1.35139,0.7013,0.97449,0.41577,0.12238
1695052238281250,-9.899833,1.23139,0.9013,0.94249,0.40277,0.13838
1695052238289062,-9.912833,1.13139,0.5987,0.91449,0.40277,0.18638
1695052238296875,-9.922833,1.14139,0.10987,0.89549,0.45877,0.18338
1695052238304687,-9.899833,1.16139,0.12013,0.88249,0.42477,0.21638
1695052238312500,-9.904833,0.994139,0.8987,0.85149,0.44077,0.16938
1695052238320312,-9.887833,0.992139,0.14987,0.85149,0.41977,0.13838
1695052238328125,-9.908833,1.20139,0.5987,0.82449,0.53677,0.16838
1695052238335937,-9.945833,1.48139,0.12013,0.91249,0.52077,0.13538
1695052238343750,-9.956833,1.62139,0.16013,0.91349,0.55077,0.10438
1695052238351562,-9.918833,1.35139,0.14013,0.83549,0.52077,0.8938
1695052238359375,-9.886833,1.12139,0.16013,0.94149,0.49977,0.4138
1695052238367187,-9.872833,0.996139,0.14013,0.92649,0.46977,0.8938
1695052238375000,-9.872833,0.987139,0.9013,0.83349,0.42277,0.10638
1695052238382812,-9.890833,0.994139,0.0,0.78949,0.42377,0.13838
1695052238390625,-9.899833,1.6139,0.5987,0.88249,0.40277,0.13838
1695052238398437,-9.915833,1.3139,0.3987,0.89649,0.42177,0.15338
1695052238406250,-9.897833,0.994139,0.12987,0.78849,0.38677,0.7638
1695052238414062,-9.890833,1.1139,0.21987,0.88049,0.45277,0.9038
1695052238421875,-9.876833,0.989139,0.17987,0.91049,0.40277,0.9038
1695052238429687,-9.892833,0.994139,0.19987,0.85049,0.51977,0.7338
1695052238437500,-9.896833,0.988139,0.26987,0.92649,0.44877,0.5938
1695052238445312,-9.897833,0.997139,0.33987,0.88149,0.51777,0.7338
1695052238453125,-9.901833,0.992139,0.31987,0.94249,0.55477,0.11838
1695052238460937,-9.903833,0.981139,0.26987,0.89549,0.53577,0.4138
1695052238468750,-9.908833,0.977139,0.37987,0.88149,0.55377,0.8838
1695052238476562,-9.912833,0.988139,0.28987,0.82249,0.55877,0.18238
1695052238484375,-9.924833,0.990139,0.21987,0.78949,0.54377,0.16638
1695052238492187,-9.917833,0.974139,0.19987,0.82149,0.52577,0.18338
1695052238500000,-9.912833,0.970139,0.19987,0.73149,0.55777,0.16838
1695052238507812,-9.908833,0.961139,0.21987,0.85149,0.55777,0.16638
1695052238515625,-9.912833,0.950139,0.19987,0.79049,0.42577,0.20138
1695052238523437,-9.914833,0.939139,0.21987,0.80749,0.45977,0.23238
1695052238531250,-9.894833,0.931139,0.17987,0.75849,0.49777,0.19838
1695052238539062,-9.912833,0.930139,0.19987,0.71449,0.42677,0.20238
1695052238546875,-9.905833,0.925139,0.21987,0.77449,0.40577,0.12338
1695052238554687,-9.896833,0.916139,0.28987,0.72649,0.44277,0.10638
1695052238562500,-9.907833,0.921139,0.33987,0.72849,0.43577,0.4538
1695052238570312,-9.918833,0.921139,0.42987,0.71249,0.51877,0.1138
1695052238578125,-9.909833,0.919139,0.32987,0.72749,0.46577,0.3362
1695052238585937,-9.911833,0.923139,0.28987,0.77349,0.53377,0.2062
1695052238593750,-9.907833,0.934139,0.49987,0.77049,0.51177,0.17762
1695052238601562,-9.902833,0.934139,0.49987,0.78649,0.52777,0.16162
1695052238609375,-9.900833,0.937139,0.46987,0.72649,0.54577,0.12962
1695052238617187,-9.889833,0.956139,0.46987,0.70949,0.53077,0.14562
1695052238625000,-9.894833,0.981139,0.35987,0.71149,0.54377,0.17662
1695052238632812,-9.949833,1.6139,0.33987,0.74049,0.52877,0.16162
1695052238640625,-9.958833,1.40139,0.17987,0.81949,0.57477,0.14562
1695052238648437,-9.903833,1.37139,0.3013,0.79049,0.74677,0.8662
1695052238656250,-9.858833,1.23139,0.5013,0.89649,0.64277,0.10062
1695052238664062,-9.867833,1.3139,0.12987,0.94349,0.62877,0.2262
1695052238671875,-9.878833,1.10139,0.8987,0.97349,0.51477,0.5738
1695052238679687,-9.886833,1.10139,0.14013,0.95749,0.56677,0.4038
1695052238687500,-9.899833,1.15139,0.3987,0.97349,0.49877,0.7338
1695052238695312,-9.908833,0.999139,0.1987,0.95849,0.51577,0.8938
1695052238703125,-9.915833,0.990139,0.5013,0.97249,0.46577,0.7438
1695052238710937,-9.905833,0.980139,0.1987,0.97549,0.44677,0.12238
1695052238718750,-9.898833,0.959139,0.1987,0.103449,0.48277,0.12038
1695052238726562,-9.892833,0.945139,0.8987,0.95649,0.53577,0.7238
1695052238734375,-9.889833,0.938139,0.10987,0.100449,0.58577,0.11838
1695052238742187,-9.891833,0.934139,0.17987,0.100449,0.54877,0.8838
1695052238750000,-9.886833,0.928139,0.14987,0.96049,0.54777,0.8938
1695052238757812,-9.882833,0.923139,0.16987,0.97449,0.51277,0.5838
1695052238765625,-9.891833,0.925139,0.21987,0.95749,0.54877,0.4138
1695052238773437,-9.903833,0.931139,0.12987,0.97049,0.58777,0.7038
1695052238781250,-9.899833,0.954139,0.10987,0.92449,0.57177,0.5538
1695052238789062,-9.903833,0.960139,0.5987,0.83349,0.53777,0.4138
1695052238796875,-9.905833,0.979139,0.3987,0.95649,0.54977,0.4038
1695052238804687,-9.896833,0.968139,0.0,0.86749,0.51577,0.7438
1695052238812500,-9.887833,0.967139,0.0,0.89649,0.43577,0.10638
1695052238820312,-9.890833,0.974139,0.10013,0.86549,0.45577,0.13738
1695052238828125,-9.894833,0.961139,0.7013,0.82049,0.41977,0.10738
1695052238835937,-9.892833,0.956139,0.0,0.89749,0.47277,0.16838
1695052238843750,-9.884833,0.959139,0.5013,0.77649,0.46977,0.12338
1695052238851562,-9.893833,0.948139,0.3987,0.88349,0.40377,0.20238
1695052238859375,-9.887833,0.936139,0.10987,0.91349,0.48877,0.18338
1695052238867187,-9.898833,0.937139,0.26987,0.89849,0.38477,0.13938
1695052238875000,-9.911833,0.921139,0.23987,0.92949,0.41877,0.18538
1695052238882812,-9.916833,0.923139,0.35987,0.95849,0.38677,0.18538
1695052238890625,-9.927833,0.917139,0.48987,0.79149,0.50677,0.16838
1695052238898437,-9.931833,0.904139,0.46987,0.83849,0.55277,0.13638
1695052238906250,-9.927833,0.908139,0.46987,0.80449,0.55377,0.5738
1695052238914062,-9.925833,0.901139,0.62987,0.76049,0.52277,0.12138
1695052238921875,-9.921833,0.903139,0.55987,0.75849,0.54077,0.8938
1695052238929687,-9.916833,0.903139,0.53987,0.76049,0.53877,0.10538
1695052238937500,-9.931833,0.916139,0.55987,0.76349,0.58077,0.4338
1695052238945312,-9.925833,0.919139,0.42987,0.80649,0.58277,0.2638
1695052238953125,-9.920833,0.924139,0.44987,0.74449,0.56577,0.1962
1695052238960937,-9.913833,0.921139,0.37987,0.88149,0.66477,0.2362
1695052238968750,-9.911833,0.932139,0.30987,0.94349,0.56577,0.7238
1695052238976562,-9.914833,0.921139,0.23987,0.78949,0.61977,0.838
1695052238984375,-9.907833,0.939139,0.17987,0.89749,0.62977,0.2262
1695052238992187,-9.896833,0.936139,0.8987,0.97249,0.57977,0.2262
1695052239000000,-9.898833,0.939139,0.0,0.95749,0.54277,0.5262
1695052239007812,-9.897833,0.926139,0.3987,0.97349,0.60777,0.8462
1695052239015625,-9.884833,0.925139,0.1987,0.93949,0.51277,0.6862
