time,Acceleration X (m/s^2),Acceleration Y (m/s^2),Acceleration Z (m/s^2),Angular Velocity X (rad/s),Angular Velocity Y (rad/s),Angular Velocity Z (rad/s)
1702324818929687,-8.02302,-0.729433,6.17012,,,
1702324818937500,-7.66602,0.834433,6.28112,0.5315,0.6991,0.279175
1702324818945312,-7.54402,0.896433,6.18412,0.3375,0.26691,0.254575
1702324818953125,-7.55602,0.795433,6.3712,0.3795,0.2991,0.217675
1702324818960937,-7.25502,0.794433,5.98112,0.3605,0.39209,0.192075
1702324818968750,-7.11102,0.692433,5.88912,0.4995,0.9709,0.191975
1702324818984375,-7.36902,0.537433,6.2612,0.7455,0.57309,0.152175
1702324818992187,-6.95802,0.550433,6.46812,0.6715,0.165709,0.135175
1702324819000000,-6.42402,0.603433,6.55612,0.10895,0.178309,0.111375
1702324819007812,-6.10602,0.694433,6.85712,0.6795,0.154109,0.104275
1702324819031250,-6.24302,0.858433,6.95912,0.4375,0.143891,0.29675
1702324819039062,-6.56302,0.674433,6.66812,0.4445,0.209191,0.17875
1702324819046875,-6.70002,0.651433,6.48312,0.6505,0.230191,0.11075
1702324819054687,-6.51902,0.725433,6.15712,0.6995,0.258091,0.9175
1702324819062500,-6.41002,0.632433,6.14112,0.11245,0.259391,0.925
1702324819070312,-6.54802,0.486433,6.22712,0.13125,0.235391,0.1125
1702324819078125,-6.61302,0.336433,6.40512,0.14315,0.152891,0.2125
1702324819085937,-6.57202,0.212433,6.53112,0.14885,0.97191,0.3075
1702324819093750,-6.59002,0.79433,6.74312,0.16895,0.62691,0.6375
1702324819101562,-6.61102,0.134433,6.97012,0.17685,0.44891,0.1725
1702324819109375,-6.47102,0.360433,7.7112,0.20215,0.48091,0.10125
1702324819117187,-6.31702,0.428433,7.14112,0.23885,0.99791,0.33425
1702324819125000,-6.22702,0.253433,7.17912,0.24265,0.146091,0.42025
1702324819132812,-6.14302,0.190433,7.26112,0.20375,0.193991,0.37125
1702324819140625,-6.31402,0.56433,7.19512,0.18405,0.244591,0.53425
1702324819148437,-6.31602,0.28433,7.30612,0.16865,0.241291,0.72625
1702324819156250,-6.50002,0.58433,7.23812,0.19915,0.260191,0.103725
1702324819164062,-6.71102,0.97433,7.28812,0.22285,0.249491,0.107325
1702324819171875,-6.80302,0.222433,7.37812,0.21995,0.229391,0.131325
1702324819179687,-6.82902,0.270433,7.44512,0.22445,0.220591,0.132725
1702324819187500,-6.84702,0.167433,7.43812,0.20725,0.225591,0.131025
1702324819195312,-6.87402,0.122567,7.55412,0.19955,0.217891,0.132625
1702324819203125,-6.99502,0.241567,7.64112,0.17285,0.249291,0.119625
1702324819210937,-7.17002,0.249567,7.63012,0.17315,0.293491,0.121625
1702324819218750,-7.47102,0.236567,7.69812,0.16045,0.297991,0.118125
1702324819226562,-7.73602,0.40567,7.74912,0.14775,0.288191,0.113125
1702324819234375,-7.59602,0.136433,7.87112,0.14775,0.271691,0.117725
1702324819242187,-7.62802,0.107433,7.94112,0.14835,0.304691,0.132625
1702324819250000,-7.55502,0.150433,7.93212,0.14085,0.345291,0.140825
1702324819257812,-7.41502,0.34433,7.79212,0.11035,0.436991,0.149325
1702324819265625,-7.60002,0.271567,7.55412,0.6615,0.526291,0.173925
1702324819273437,-7.70102,0.419567,7.42512,0.95,0.563191,0.184525
1702324819281250,-7.75102,0.452567,7.20312,0.4065,0.629491,0.207425
1702324819289062,-7.90602,0.304567,6.91212,0.5905,0.669691,0.221825
1702324819296875,-7.93502,0.154567,6.82612,0.6925,0.686091,0.254225
1702324819304687,-7.89802,0.89567,6.77412,0.8605,0.717191,0.264025
1702324819312500,-7.84102,0.159567,6.70712,0.9045,0.756391,0.265825
1702324819320312,-7.86802,0.308567,6.69312,0.10905,0.799191,0.261125
1702324819328125,-8.16402,0.288567,6.69812,0.12505,0.817091,0.243225
1702324819335937,-8.40902,0.239567,6.76812,0.12235,0.823991,0.215925
1702324819343750,-8.53202,0.194567,6.82612,0.12425,0.850291,0.190225
1702324819351562,-8.76902,0.93567,6.72912,0.12905,0.894791,0.167925
1702324819359375,-8.90402,0.10433,6.68012,0.14215,0.907491,0.143425
1702324819367187,-9.4302,0.185433,6.54012,0.14995,0.928791,0.135425
1702324819375000,-9.11302,0.414433,6.41112,0.13885,0.935291,0.140425
1702324819382812,-9.20902,0.504433,6.38412,0.10865,0.936991,0.158625
1702324819390625,-9.32902,0.438433,6.40912,0.7085,0.925791,0.168725
1702324819398437,-9.39602,0.317433,6.42512,0.5015,0.927491,0.183625
1702324819406250,-9.56802,0.122433,6.44512,0.4715,0.904091,0.186625
1702324819414062,-9.66602,0.118567,6.56712,0.5195,0.873191,0.189525
1702324819421875,-9.64302,0.233567,6.61012,0.7245,0.884791,0.179725
1702324819429687,-9.46302,0.195567,6.51612,0.7555,0.914591,0.168725
1702324819437500,-9.26502,0.68567,6.38512,0.8825,0.970291,0.144725
1702324819445312,-9.9602,0.107433,6.16412,0.8985,1.20991,0.125625
1702324819453125,-8.89702,0.305433,5.86712,0.9595,1.62091,0.121025
1702324819460937,-8.72002,0.443433,5.54012,0.8935,1.76491,0.137325
1702324819468750,-8.52102,0.466433,5.24912,0.9835,1.84291,0.158225
1702324819476562,-8.46102,0.429433,4.95412,0.9615,1.103491,0.184125
1702324819484375,-8.61202,0.290433,4.66412,0.9705,1.97491,0.214925
1702324819492187,-8.65202,0.287433,4.41412,0.10625,1.46491,0.240325
1702324819500000,-8.48002,0.356433,4.34812,0.12075,0.950891,0.260325
1702324819507812,-8.28602,0.419433,4.33912,0.10345,0.864391,0.284225
1702324819515625,-8.20302,0.392433,4.41812,0.7545,0.806791,0.295325
1702324819523437,-8.18102,0.397433,4.55112,0.5215,0.779291,0.292325
1702324819531250,-8.20502,0.432433,4.58312,0.3525,0.793791,0.273125
1702324819539062,-8.21602,0.584433,4.51312,0.1345,0.843091,0.246325
1702324819546875,-8.23402,0.611433,4.34612,0.215,0.911991,0.224325
1702324819554687,-8.22202,0.631433,4.22212,0.1105,0.965591,0.185925
1702324819562500,-8.25202,0.611433,4.8512,0.1575,1.33491,0.157525
1702324819570312,-8.29302,0.575433,3.94512,0.2805,1.99091,0.124225
1702324819578125,-8.36202,0.587433,3.85012,0.5315,1.174091,0.102325
1702324819585937,-8.47102,0.696433,3.75612,0.8765,1.256491,0.72725
1702324819593750,-8.70002,0.980433,3.54812,0.13415,1.362091,0.22025
1702324819601562,-8.99002,-1.368433,3.26412,0.18575,1.453891,0.15475
1702324819609375,-9.35202,-1.700433,2.89312,0.23565,1.504491,0.38875
1702324819617187,-9.79302,-1.822433,2.55312,0.26245,1.516191,0.39975
1702324819625000,-10.25702,-1.594433,2.37712,0.28085,1.433191,0.38675
1702324819632812,-10.78002,-1.98433,2.28512,0.28165,1.283891,0.23675
1702324819640625,-11.44002,0.693433,2.17512,0.25095,1.94591,0.17175
1702324819648437,-12.16702,0.489433,2.29212,0.16985,0.861591,0.10825
1702324819656250,-12.52602,0.401433,2.50812,0.10455,0.688091,0.16925
1702324819664062,-12.51302,0.350433,2.75412,0.7845,0.568391,0.9225
1702324819671875,-12.27102,0.203433,2.76112,0.8135,0.486691,0.18425
1702324819679687,-11.72802,0.27567,2.75912,0.12925,0.427391,0.10325
1702324819687500,-11.1602,0.226567,2.74112,0.15575,0.435791,0.5475
1702324819695312,-10.33302,0.404567,2.64812,0.18735,0.521191,0.22175
1702324819703125,-9.88602,0.556567,2.44812,0.19725,0.618091,0.30975
1702324819710937,-9.73202,0.785567,2.17612,0.19145,0.684791,0.29075
1702324819718750,-9.71602,1.63567,1.92612,0.16065,0.708191,0.14575
1702324819726562,-9.75702,1.212567,1.63312,0.10145,0.703291,0.5725
1702324819734375,-9.69502,1.136567,1.42112,0.6695,0.698391,0.8525
1702324819742187,-9.64002,0.971567,1.20012,0.5285,0.699191,0.17925
1702324819750000,-9.59302,0.817567,1.2012,0.8245,0.678291,0.11725
1702324819757812,-9.60502,0.682567,0.89212,0.13355,0.650591,0.13775
1702324819765625,-9.54802,0.537567,0.84412,0.15275,0.578391,0.44875
1702324819773437,-9.49402,0.368567,0.84712,0.17955,0.495291,0.90375
1702324819781250,-9.53802,0.304567,0.97012,0.21465,0.426691,0.114675
1702324819789062,-9.68702,0.358567,1.22312,0.22765,0.367291,0.142575
1702324819796875,-9.71202,0.494567,1.50712,0.25045,0.329891,0.168375
1702324819804687,-9.63402,0.550567,1.72112,0.26435,0.296091,0.174875
1702324819812500,-9.52202,0.557567,1.95012,0.26375,0.249691,0.181775
1702324819820312,-9.34002,0.451567,2.16612,0.26675,0.270791,0.194575
1702324819828125,-9.13202,0.394567,2.12812,0.24965,0.369291,0.218275
1702324819835937,-9.7502,0.453567,2.8712,0.18565,0.461191,0.239275
1702324819843750,-9.23602,0.400567,2.18912,0.10455,0.487891,0.231875
1702324819851562,-9.38602,0.59567,2.46312,0.4815,0.464691,0.219775
1702324819859375,-9.69002,0.456433,2.69312,0.5285,0.436291,0.205475
1702324819867187,-9.94302,0.734433,2.93212,0.12485,0.404391,0.206375
1702324819875000,-9.77802,0.760433,3.6012,0.16525,0.398891,0.217375
1702324819882812,-9.44102,0.595433,2.86212,0.15135,0.429791,0.215775
1702324819890625,-9.36002,0.259433,2.74212,0.10965,0.465791,0.196575
1702324819898437,-9.37402,0.19567,2.59412,0.1145,0.464491,0.174975
1702324819906250,-9.44302,0.131567,2.43212,0.8575,0.423391,0.158675
1702324819914062,-9.79402,0.16433,2.31912,0.12915,0.400991,0.133275
1702324819921875,-10.21802,0.344433,2.39412,0.10555,0.369591,0.115575
1702324819929687,-10.37202,0.530433,2.47912,0.8215,0.341291,0.109075
1702324819937500,-10.26102,0.585433,2.45912,0.9115,0.331391,0.83375
1702324819945312,-10.18202,0.524433,2.33912,0.13265,0.331791,0.48175
1702324819953125,-9.94702,0.445433,2.22212,0.17165,0.314891,0.27875
1702324819960937,-9.67402,0.306433,2.7412,0.21475,0.318191,0.5625
1702324819968750,-9.61002,0.147433,1.90512,0.24555,0.324891,0.31225
1702324819976562,-9.71602,0.60567,1.81712,0.25495,0.326391,0.34325
1702324819984375,-9.90302,0.215567,1.72312,0.23185,0.320291,0.7125
1702324819992187,-10.2302,0.270567,1.56312,0.19785,0.325191,0.16675
1702324820000000,-10.6702,0.186567,1.34912,0.13755,0.308891,0.50075
1702324820007812,-9.94502,0.7567,1.13012,0.6315,0.325391,0.97575
1702324820015625,-9.82902,0.180433,0.86712,0.55,0.336891,0.132375
1702324820023437,-9.72802,0.361433,0.68212,0.5995,0.338291,0.138175
1702324820031250,-9.67802,0.513433,0.53512,0.9135,0.328291,0.131475
1702324820039062,-9.75402,0.544433,0.47412,0.11125,0.285291,0.131575
1702324820046875,-9.85802,0.508433,0.50812,0.11885,0.208691,0.127175
1702324820054687,-9.86702,0.472433,0.59212,0.11375,0.154491,0.125975
1702324820062500,-9.74202,0.407433,0.67712,0.12785,0.116591,0.113275
1702324820070312,-9.60602,0.374433,0.76512,0.14375,0.95491,0.96975
1702324820078125,-9.52402,0.280433,0.88212,0.14075,0.90191,0.85875
1702324820085937,-9.55802,0.260433,0.93012,0.14255,0.90791,0.80775
1702324820093750,-9.65502,0.260433,0.92512,0.14115,0.105291,0.71075
1702324820101562,-9.75102,0.316433,0.90012,0.15555,0.114991,0.64375
1702324820109375,-9.80702,0.462433,0.74512,0.16965,0.139191,0.65775
1702324820117187,-9.88402,0.558433,0.62812,0.19165,0.123291,0.63875
1702324820125000,-9.90402,0.560433,0.70412,0.20685,0.90591,0.76875
1702324820132812,-9.98702,0.486433,0.88412,0.19565,0.57791,0.78875
1702324820140625,-10.3202,0.325433,1.24312,0.18265,0.2191,0.81075
1702324820148437,-10.2402,0.223433,1.67112,0.14615,0.51509,0.89875
1702324820156250,-9.98902,0.159433,2.7612,0.10205,0.74609,0.87375
1702324820164062,-9.77702,0.65433,2.32212,0.7585,0.56509,0.72975
1702324820171875,-9.45102,0.94433,2.32612,0.4975,0.5491,0.66375
1702324820179687,-9.27202,0.175433,2.17312,0.5385,0.91591,0.55775
1702324820187500,-9.39502,0.226433,1.97712,0.6855,0.153591,0.45475
1702324820195312,-9.62502,0.305433,1.89412,0.9235,0.154791,0.27475
1702324820203125,-9.87502,0.341433,1.99712,0.12545,0.140391,0.22275
1702324820210937,-9.93202,0.371433,2.13912,0.14375,0.130191,0.35175
1702324820218750,-9.67202,0.452433,2.29712,0.16685,0.123391,0.52775
1702324820226562,-9.44902,0.496433,2.23112,0.17355,0.177691,0.52275
1702324820234375,-9.27102,0.556433,2.6712,0.19595,0.241391,0.46775
1702324820242187,-9.22302,0.575433,1.82812,0.19505,0.281991,0.25475
1702324820250000,-9.30102,0.532433,1.61012,0.19565,0.305791,0.15375
1702324820257812,-9.53002,0.486433,1.38512,0.18035,0.305291,0.7025
1702324820265625,-9.85502,0.453433,1.14612,0.16035,0.297791,0.19825
1702324820273437,-10.11302,0.305433,0.93412,0.13365,0.266391,0.33725
1702324820281250,-10.23802,0.130433,0.73212,0.11015,0.217391,0.46125
1702324820289062,-10.22302,0.75567,0.60812,0.8955,0.176191,0.53525
1702324820296875,-10.10302,0.313567,0.61512,0.5375,0.148291,0.73925
1702324820304687,-9.91002,0.509567,0.66012,0.985,0.143091,0.78225
1702324820312500,-9.69702,0.663567,0.72512,0.1505,0.156391,0.82925
1702324820320312,-9.49602,0.753567,0.75212,0.1985,0.162991,0.76425
1702324820328125,-9.36102,0.773567,0.79312,0.85,0.195791,0.70425
1702324820335937,-9.33802,0.718567,0.68512,0.1325,0.238391,0.58025
1702324820343750,-9.46002,0.595567,0.47512,0.215,0.248491,0.45025
1702324820351562,-9.64702,0.334567,0.27012,0.1085,0.231991,0.31825
1702324820359375,-10.1802,0.105567,0.8988,0.3295,0.225591,0.23425
1702324820367187,-10.27702,0.50433,0.52288,0.5095,0.130791,0.17725
1702324820375000,-10.19402,0.147433,0.73888,0.9315,0.14909,0.6475
1702324820382812,-10.7502,0.264433,0.72588,0.12265,0.144509,0.20775
1702324820390625,-10.6302,0.175433,0.63488,0.15945,0.190009,0.45775
1702324820398437,-10.13502,0.113567,0.54488,0.23565,0.250409,0.76175
1702324820406250,-10.17402,0.277567,0.38088,0.33525,0.383909,0.79775
1702324820414062,-10.22202,0.19567,0.20512,0.36745,0.578709,0.58875
1702324820421875,-10.31402,0.537433,1.15712,0.30705,0.724709,0.43175
1702324820429687,-10.35202,-1.32433,2.18212,0.16745,0.707209,0.41475
1702324820437500,-10.33702,-1.375433,2.65512,0.4775,0.579809,0.55375
1702324820445312,-10.24602,-1.445433,2.66112,0.945,0.442609,0.57075
1702324820453125,-9.99702,-1.314433,2.36412,0.1435,0.350509,0.30675
1702324820460937,-9.50702,0.998433,1.94112,0.8255,0.288709,0.5275
1702324820468750,-8.95602,0.560433,1.50912,0.14895,0.230709,0.17225
1702324820476562,-8.71902,0.178433,1.34212,0.18325,0.206209,0.18625
1702324820484375,-8.97502,0.65433,1.49812,0.15815,0.175109,0.6225
1702324820492187,-9.36202,0.163433,1.81712,0.8475,0.129509,0.16975
1702324820500000,-9.50702,0.242433,1.94812,0.3285,0.71109,0.22475
1702324820507812,-9.44602,0.305433,1.80112,0.3425,0.29809,0.28575
1702324820515625,-9.41402,0.293433,1.54712,0.4955,0.12591,0.23675
1702324820523437,-9.39902,0.235433,1.38712,0.6025,0.28791,0.15575
1702324820531250,-9.32002,0.153433,1.38712,0.3665,0.29491,0.20075
1702324820539062,-9.30702,0.99433,1.49112,0.215,0.17591,0.26275
1702324820546875,-9.38502,0.147433,1.70912,0.4435,0.25691,0.35375
1702324820554687,-9.43402,0.213433,1.97912,0.4925,0.35891,0.35175
1702324820562500,-9.36602,0.243433,2.8112,0.4355,0.80291,0.25175
1702324820570312,-9.18602,0.239433,2.11512,0.3475,0.125791,0.5575
1702324820578125,-9.16102,0.228433,2.1812,0.1675,0.197391,0.14025
1702324820585937,-9.26002,0.231433,1.85812,0.2085,0.277391,0.37225
1702324820593750,-9.40402,0.253433,1.63512,0.1225,0.331791,0.53825
1702324820601562,-9.55902,0.249433,1.36512,0.1265,0.349891,0.65325
1702324820609375,-9.65302,0.289433,0.95912,0.925,0.321691,0.68225
1702324820617187,-9.72002,0.302433,0.66612,0.1485,0.231891,0.67325
1702324820625000,-9.80802,0.250433,0.61912,0.3105,0.137191,0.69725
1702324820632812,-9.97202,0.123433,0.67112,0.2985,0.89491,0.66125
1702324820640625,-10.14602,0.60433,0.79912,0.2725,0.38591,0.59225
1702324820648437,-10.24302,0.61433,0.91412,0.1545,0.8609,0.38125
1702324820656250,-10.23302,0.123433,1.412,0.295,0.44609,0.29925
1702324820664062,-10.11402,0.236433,1.4512,0.1845,0.43209,0.20325
1702324820671875,-9.96802,0.367433,0.98212,0.4345,0.43109,0.15825
1702324820679687,-9.83402,0.477433,0.88712,0.5115,0.33309,0.6325
1702324820687500,-9.77002,0.534433,0.80612,0.4775,0.34809,0.5075
1702324820695312,-9.74402,0.497433,0.76112,0.4945,0.37909,0.1775
1702324820703125,-9.74302,0.403433,0.74312,0.4465,0.43209,0.1975
1702324820710937,-9.75402,0.292433,0.74712,0.3995,0.54509,0.1125
1702324820718750,-9.76702,0.177433,0.75412,0.4125,0.65809,0.10175
1702324820726562,-9.80202,0.83433,0.78112,0.4245,0.69409,0.18375
1702324820734375,-9.77802,0.19433,0.85812,0.4085,0.82209,0.23275
1702324820742187,-9.67302,0.25567,0.95712,0.4065,0.93609,0.28175
1702324820750000,-9.55702,0.54567,1.3412,0.4065,0.96809,0.28175
1702324820757812,-9.53602,0.27567,1.9212,0.4075,0.91709,0.26475
1702324820765625,-9.60502,0.15567,1.16412,0.4045,0.92609,0.33175
1702324820773437,-9.71302,0.0,1.22512,0.4035,0.90609,0.37975
1702324820781250,-9.79102,0.23433,1.25912,0.4195,0.89409,0.31575
1702324820789062,-9.82302,0.27433,1.29912,0.3915,0.88609,0.28175
1702324820796875,-9.79202,0.37433,1.32412,0.3605,0.85409,0.26575
1702324820804687,-9.73302,0.66433,1.36212,0.3145,0.74109,0.21675
1702324820812500,-9.67802,0.96433,1.38312,0.2205,0.67509,0.24975
1702324820820312,-9.64002,0.116433,1.38512,0.1605,0.51209,0.18475
1702324820828125,-9.62602,0.148433,1.39412,0.1785,0.39509,0.13475
1702324820835937,-9.61202,0.168433,1.35512,0.1315,0.16909,0.15075
1702324820843750,-9.62702,0.181433,1.29212,0.385,0.8509,0.13475
1702324820851562,-9.68602,0.202433,1.21812,0.85,0.1391,0.14975
1702324820859375,-9.73002,0.224433,1.16912,0.1015,0.2009,0.13575
1702324820867187,-9.73002,0.241433,1.13912,0.715,0.10409,0.12075
1702324820875000,-9.72302,0.248433,1.13012,0.885,0.18709,0.13775
1702324820882812,-9.72802,0.248433,1.12112,0.555,0.13309,0.10175
1702324820890625,-9.71402,0.246433,1.11712,0.1155,0.12109,0.15075
1702324820898437,-9.67402,0.236433,1.10612,0.1335,0.1909,0.13275
1702324820906250,-9.65402,0.227433,1.10812,0.865,0.509,0.13375
1702324820914062,-9.65802,0.203433,1.12812,0.865,0.4391,0.14975
1702324820921875,-9.65902,0.196433,1.13512,0.85,0.2009,0.16675
1702324820929687,-9.64702,0.209433,1.11712,0.1475,0.3991,0.14975
1702324820937500,-9.63102,0.223433,1.11412,0.385,0.10591,0.16675
1702324820945312,-9.65402,0.209433,1.13012,0.235,0.13991,0.13475
1702324820953125,-9.72802,0.199433,1.13012,0.855,0.17591,0.15075
1702324820960937,-9.76602,0.208433,1.12612,0.685,0.25891,0.14975
1702324820968750,-9.76902,0.208433,1.9712,0.835,0.15991,0.5375
1702324820976562,-9.75202,0.226433,1.9412,0.705,0.9191,0.13475
1702324820984375,-9.74802,0.219433,1.8712,0.1015,0.15891,0.15075
1702324820992187,-9.74402,0.208433,1.10112,0.1005,0.14291,0.11875
1702324821000000,-9.76402,0.186433,1.12112,0.2085,0.7991,0.3875
1702324821007812,-9.74902,0.179433,1.14112,0.3375,0.10791,0.13875
1702324821015625,-9.73802,0.146433,1.11712,0.3215,0.20291,0.15475
1702324821023437,-9.70702,0.122433,1.9012,0.3365,0.15791,0.15375
1702324821031250,-9.69302,0.118433,1.2712,0.3215,0.9091,0.13875
1702324821039062,-9.67602,0.101433,0.99112,0.3355,0.7891,0.10475
1702324821046875,-9.66902,0.118433,0.99712,0.2895,0.9291,0.10575
1702324821054687,-9.68902,0.122433,1.4012,0.2895,0.2209,0.10575
1702324821062500,-9.69702,0.151433,1.7412,0.875,0.5609,0.15275
1702324821070312,-9.67002,0.156433,1.12612,0.1325,0.2509,0.10175
1702324821078125,-9.64302,0.172433,1.13012,0.1025,0.1709,0.16475
1702324821085937,-9.64502,0.181433,1.9912,0.1795,0.7691,0.18075
1702324821093750,-9.70102,0.197433,1.5112,0.1625,0.3991,0.21475
1702324821101562,-9.77802,0.199433,1.3612,0.1775,0.709,0.21375
1702324821109375,-9.81602,0.200433,1.3812,0.1945,0.18709,0.13375
1702324821117187,-9.81102,0.214433,1.5812,0.2555,0.21909,0.18175
1702324821125000,-9.79102,0.214433,1.6012,0.3955,0.33309,0.22975
1702324821132812,-9.76902,0.201433,1.7212,0.4265,0.41309,0.24575
1702324821140625,-9.75102,0.199433,1.9212,0.3315,0.39809,0.27975
1702324821148437,-9.73302,0.199433,1.9912,0.3315,0.39809,0.26275
1702324821156250,-9.74402,0.204433,1.8512,0.3785,0.31709,0.27875
1702324821164062,-9.74102,0.226433,1.5812,0.3335,0.21609,0.26175
1702324821171875,-9.73702,0.228433,1.2212,0.3005,0.32009,0.24775
1702324821179687,-9.71902,0.213433,1.1812,0.2845,0.33409,0.27975
1702324821187500,-9.71902,0.206433,1.1512,0.2055,0.39909,0.26475
1702324821195312,-9.72802,0.197433,1.2212,0.1905,0.39609,0.28075
1702324821203125,-9.73002,0.190433,1.3512,0.2205,0.43609,0.26575
1702324821210937,-9.71502,0.202433,1.4312,0.2685,0.46009,0.31175
1702324821218750,-9.70602,0.202433,1.5112,0.2675,0.47809,0.31275
1702324821226562,-9.70802,0.184433,1.4712,0.4075,0.55109,0.26475
1702324821234375,-9.71102,0.171433,1.5412,0.4265,0.44209,0.27775
1702324821242187,-9.70702,0.169433,1.4912,0.3015,0.53709,0.26275
1702324821250000,-9.68402,0.163433,1.5212,0.3485,0.61809,0.26275
1702324821257812,-9.67702,0.163433,1.6712,0.3455,0.60809,0.29675
1702324821265625,-9.67502,0.172433,1.5812,0.3755,0.69109,0.31275
1702324821273437,-9.68802,0.176433,1.7912,0.4235,0.65709,0.32775
1702324821281250,-9.70202,0.185433,1.9712,0.4075,0.70509,0.32875
1702324821289062,-9.72102,0.195433,1.11712,0.4205,0.69209,0.40975
1702324821296875,-9.69202,0.205433,1.13912,0.4065,0.70709,0.36175
1702324821304687,-9.63402,0.217433,1.15712,0.4225,0.73609,0.39275
1702324821312500,-9.60002,0.221433,1.17812,0.4375,0.65809,0.39275
1702324821320312,-9.59502,0.233433,1.19312,0.4075,0.52309,0.40775
1702324821328125,-9.62202,0.223433,1.22012,0.4225,0.46009,0.43975
1702324821335937,-9.65602,0.221433,1.20512,0.4065,0.42509,0.48775
1702324821343750,-9.69602,0.197433,1.16812,0.4185,0.48409,0.50675
1702324821351562,-9.69002,0.198433,1.13912,0.4055,0.41309,0.48875
1702324821359375,-9.64302,0.191433,1.12512,0.4185,0.43809,0.50675
1702324821367187,-9.62902,0.196433,1.14412,0.3095,0.45309,0.45975
1702324821375000,-9.65602,0.207433,1.16412,0.2955,0.36609,0.47375
1702324821382812,-9.67602,0.220433,1.18612,0.3585,0.41509,0.47375
1702324821390625,-9.68902,0.244433,1.20912,0.2965,0.41509,0.42575
1702324821398437,-9.67102,0.255433,1.20912,0.3295,0.20609,0.37675
1702324821406250,-9.65902,0.289433,1.18212,0.2685,0.16909,0.34375
1702324821414062,-9.67502,0.302433,1.17312,0.1905,0.18409,0.32775
1702324821421875,-9.70402,0.299433,1.16812,0.2235,0.17009,0.26275
1702324821429687,-9.73602,0.299433,1.15312,0.1755,0.13809,0.27975
1702324821437500,-9.72502,0.270433,1.14412,0.1755,0.18509,0.27975
1702324821445312,-9.70002,0.258433,1.14812,0.1605,0.13609,0.26275
1702324821453125,-9.67802,0.234433,1.12112,0.1455,0.11909,0.24675
1702324821460937,-9.69602,0.238433,1.13512,0.1765,0.5409,0.27875
1702324821468750,-9.71602,0.242433,1.10112,0.1625,0.5109,0.26175
1702324821476562,-9.71602,0.255433,1.7812,0.1775,0.3909,0.23075
1702324821484375,-9.73602,0.281433,1.6912,0.1615,0.5509,0.23075
1702324821492187,-9.74202,0.297433,1.5612,0.1765,0.18609,0.24775
1702324821500000,-9.72902,0.315433,1.4912,0.1765,0.16709,0.27875
1702324821507812,-9.72802,0.319433,1.6312,0.1595,0.22009,0.26475
1702324821515625,-9.71102,0.315433,1.7412,0.1765,0.14909,0.27875
1702324821523437,-9.70102,0.319433,1.8512,0.2695,0.20509,0.26375
1702324821531250,-9.69302,0.306433,1.9412,0.3005,0.26709,0.27875
1702324821539062,-9.68402,0.311433,1.11012,0.2695,0.33109,0.27975
1702324821546875,-9.67902,0.300433,1.11212,0.2535,0.31609,0.26375
1702324821554687,-9.67102,0.287433,1.14212,0.2065,0.29809,0.27975
1702324821562500,-9.68902,0.273433,1.14612,0.2075,0.28309,0.24775
1702324821570312,-9.71402,0.259433,1.14112,0.2235,0.23509,0.21475
1702324821578125,-9.72002,0.257433,1.12812,0.1585,0.20609,0.28075
1702324821585937,-9.71602,0.262433,1.12112,0.1925,0.21909,0.21575
1702324821593750,-9.70702,0.255433,1.12312,0.1605,0.30209,0.21675
1702324821601562,-9.70202,0.266433,1.11712,0.2055,0.33809,0.23275
1702324821609375,-9.70902,0.264433,1.10812,0.1615,0.33209,0.15175
1702324821617187,-9.70502,0.264433,1.11012,0.1735,0.35209,0.28175
1702324821625000,-9.72202,0.261433,1.11712,0.1585,0.40309,0.21775
1702324821632812,-9.74102,0.264433,1.11412,0.1445,0.43009,0.21675
1702324821640625,-9.74302,0.246433,1.9412,0.1745,0.36609,0.28075
1702324821648437,-9.73902,0.244433,1.8712,0.1905,0.41509,0.26575
1702324821656250,-9.70002,0.255433,1.10512,0.1735,0.48109,0.28175
1702324821664062,-9.68202,0.267433,1.12812,0.2075,0.42909,0.19975
1702324821671875,-9.67802,0.264433,1.12112,0.1895,0.43409,0.24975
1702324821679687,-9.68002,0.278433,1.13912,0.1915,0.39809,0.19975
1702324821687500,-9.67802,0.278433,1.13712,0.1615,0.39709,0.16775
1702324821695312,-9.68702,0.267433,1.12412,0.1765,0.34609,0.21575
1702324821703125,-9.71102,0.246433,1.10512,0.1605,0.25609,0.20075
1702324821710937,-9.73002,0.248433,1.9612,0.1765,0.23709,0.18375
1702324821718750,-9.74302,0.239433,1.8112,0.1595,0.30309,0.21675
1702324821726562,-9.73602,0.248433,1.8712,0.1755,0.48009,0.21675
1702324821734375,-9.72702,0.282433,1.9412,0.1455,0.43109,0.16875
1702324821742187,-9.71102,0.300433,1.11412,0.1585,0.41209,0.31375
1702324821750000,-9.70402,0.328433,1.12612,0.1765,0.43309,0.15275
1702324821757812,-9.71102,0.317433,1.12612,0.1455,0.39809,0.16875
1702324821765625,-9.70402,0.319433,1.9412,0.975,0.44909,0.18575
1702324821773437,-9.70402,0.297433,1.7612,0.1755,0.43209,0.20075
1702324821781250,-9.70402,0.291433,1.7212,0.1135,0.46309,0.18575
1702324821789062,-9.70202,0.297433,1.9012,0.1435,0.56109,0.23375
1702324821796875,-9.66802,0.300433,1.11712,0.1755,0.58209,0.13775
1702324821804687,-9.62602,0.296433,1.13012,0.1595,0.57809,0.16975
1702324821812500,-9.64602,0.303433,1.14812,0.1595,0.54709,0.16975
1702324821820312,-9.69302,0.300433,1.16812,0.1765,0.44709,0.18475
1702324821828125,-9.72602,0.317433,1.17512,0.1615,0.42909,0.15175
1702324821835937,-9.72602,0.326433,1.16012,0.1775,0.44609,0.13575
1702324821843750,-9.70102,0.331433,1.13512,0.1145,0.43109,0.13675
1702324821851562,-9.69102,0.325433,1.13012,0.1015,0.44109,0.8675
1702324821859375,-9.69902,0.320433,1.11012,0.835,0.42909,0.13675
1702324821867187,-9.72202,0.315433,1.11212,0.235,0.44309,0.5575
1702324821875000,-9.71802,0.295433,1.12812,0.695,0.43009,0.5575
1702324821882812,-9.70702,0.260433,1.12612,0.225,0.55209,0.11975
1702324821890625,-9.68302,0.238433,1.12612,0.555,0.57009,0.5675
1702324821898437,-9.68002,0.240433,1.14412,0.685,0.54309,0.8875
1702324821906250,-9.68002,0.273433,1.13712,0.515,0.64509,0.9075
1702324821914062,-9.69802,0.262433,1.14412,0.515,0.61509,0.5875
1702324821921875,-9.71302,0.288433,1.15512,0.1605,0.74109,0.12175
1702324821929687,-9.69502,0.302433,1.18012,0.1605,0.70809,0.12175
1702324821937500,-9.67702,0.302433,1.17512,0.2545,0.66009,0.13675
1702324821945312,-9.66102,0.320433,1.18212,0.2395,0.60809,0.15175
1702324821953125,-9.66602,0.325433,1.18912,0.3645,0.52909,0.13475
1702324821960937,-9.68602,0.327433,1.18012,0.3025,0.47909,0.15075
1702324821968750,-9.69702,0.311433,1.18212,0.3345,0.44609,0.13375
1702324821976562,-9.69502,0.291433,1.16612,0.3035,0.46109,0.13375
1702324821984375,-9.67302,0.282433,1.16012,0.1615,0.47809,0.15175
1702324821992187,-9.65102,0.283433,1.17512,0.2085,0.51009,0.13575
1702324822000000,-9.64802,0.285433,1.20912,0.2075,0.54809,0.12075
1702324822007812,-9.63302,0.276433,1.21812,0.1625,0.52809,0.7175
1702324822015625,-9.61902,0.268433,1.25012,0.1925,0.49509,0.13575
1702324822023437,-9.64902,0.263433,1.25912,0.2255,0.44709,0.7075
1702324822031250,-9.67602,0.256433,1.24312,0.1635,0.36609,0.7075
1702324822039062,-9.71502,0.288433,1.21812,0.1795,0.28609,0.3875
1702324822046875,-9.69902,0.340433,1.19112,0.1645,0.36309,0.5375
1702324822054687,-9.68102,0.326433,1.18612,0.1785,0.38609,0.3975
1702324822062500,-9.69102,0.297433,1.20012,0.1775,0.33409,0.13575
1702324822070312,-9.67502,0.271433,1.20912,0.1595,0.38809,0.15375
1702324822078125,-9.63302,0.265433,1.22512,0.1785,0.30009,0.13475
1702324822085937,-9.61702,0.261433,1.20712,0.1635,0.18409,0.13375
1702324822093750,-9.62102,0.281433,1.17312,0.2095,0.18509,0.14975
1702324822101562,-9.65702,0.287433,1.16212,0.2095,0.20309,0.13375
1702324822109375,-9.67302,0.296433,1.16412,0.2415,0.20209,0.14975
1702324822117187,-9.66802,0.298433,1.16012,0.2585,0.19909,0.11675
1702324822125000,-9.67302,0.284433,1.14412,0.2875,0.27009,0.13375
1702324822132812,-9.64602,0.274433,1.14612,0.1935,0.38209,0.13575
1702324822140625,-9.64202,0.265433,1.18012,0.1755,0.40109,0.18475
1702324822148437,-9.64202,0.267433,1.21612,0.1595,0.38109,0.23275
1702324822156250,-9.64602,0.269433,1.23812,0.2565,0.28309,0.14975
1702324822164062,-9.65102,0.290433,1.23612,0.2395,0.27809,0.27775
1702324822171875,-9.66402,0.294433,1.25012,0.2715,0.16609,0.26175
1702324822179687,-9.66802,0.282433,1.27912,0.1915,0.13809,0.27975
1702324822187500,-9.67802,0.267433,1.26812,0.2245,0.609,0.26175
1702324822195312,-9.68902,0.271433,1.28812,0.1465,0.4491,0.26175
1702324822203125,-9.67302,0.271433,1.28812,0.1765,0.7191,0.27875
1702324822210937,-9.64802,0.289433,1.29912,0.1635,0.13991,0.19675
1702324822218750,-9.63902,0.305433,1.29712,0.1815,0.20891,0.13075
1702324822226562,-9.63202,0.301433,1.29212,0.1515,0.34291,0.14575
1702324822234375,-9.60702,0.303433,1.26812,0.1675,0.33991,0.9775
1702324822242187,-9.62102,0.294433,1.23212,0.1535,0.38891,0.4875
1702324822250000,-9.65202,0.285433,1.19812,0.595,0.51491,0.1775
1702324822257812,-9.70902,0.293433,1.16612,0.755,0.51591,0.3375
1702324822265625,-9.75202,0.277433,1.12812,0.1385,0.48691,0.4875
1702324822273437,-9.77402,0.278433,1.8512,0.1695,0.50091,0.1675
1702324822281250,-9.78302,0.281433,1.4912,0.1855,0.54891,0.0
1702324822289062,-9.79702,0.283433,0.99112,0.1555,0.47191,0.1625
1702324822296875,-9.81002,0.285433,0.92312,0.745,0.35191,0.275
1702324822304687,-9.81902,0.278433,0.88712,0.275,0.17191,0.4425
1702324822312500,-9.84102,0.273433,0.87612,0.1035,0.5591,0.2075
1702324822320312,-9.86602,0.272433,0.87812,0.1665,0.10191,0.2825
1702324822328125,-9.88402,0.261433,0.86912,0.1645,0.7809,0.2175
1702324822335937,-9.89302,0.254433,0.86212,0.1775,0.25709,0.11975
1702324822343750,-9.84402,0.235433,0.87312,0.1595,0.38809,0.15375
1702324822351562,-9.79502,0.229433,0.88012,0.1745,0.47309,0.17075
1702324822359375,-9.77302,0.225433,0.91812,0.2375,0.48409,0.18475
1702324822367187,-9.76802,0.227433,0.95212,0.1885,0.64709,0.25175
1702324822375000,-9.74802,0.228433,1.2012,0.3785,0.70809,0.16775
1702324822382812,-9.73702,0.244433,1.8112,0.2695,0.72409,0.13675
1702324822390625,-9.70902,0.257433,1.10512,0.2675,0.87409,0.15475
1702324822398437,-9.67802,0.266433,1.12812,0.2975,0.95909,0.18775
1702324822406250,-9.64402,0.260433,1.16412,0.2195,0.97409,0.13975
1702324822414062,-9.61502,0.252433,1.21312,0.1875,0.89309,0.22075
1702324822421875,-9.59902,0.259433,1.25412,0.1575,0.82309,0.20375
1702324822429687,-9.61002,0.274433,1.28112,0.1585,0.74709,0.13975
1702324822437500,-9.60602,0.279433,1.28812,0.1745,0.71009,0.18675
1702324822445312,-9.58802,0.277433,1.29012,0.1605,0.65909,0.15375
1702324822453125,-9.59202,0.279433,1.28812,0.2075,0.43609,0.12075
1702324822460937,-9.62802,0.294433,1.28112,0.2075,0.48009,0.15175
1702324822468750,-9.64402,0.294433,1.28312,0.1465,0.41309,0.13575
1702324822476562,-9.62802,0.285433,1.27412,0.2085,0.24009,0.13575
1702324822484375,-9.61202,0.281433,1.24712,0.2725,0.19109,0.8575
1702324822492187,-9.61002,0.279433,1.24512,0.1955,0.12409,0.8575
1702324822500000,-9.61702,0.265433,1.21812,0.1645,0.5609,0.8475
1702324822507812,-9.64202,0.267433,1.20412,0.1635,0.891,0.13375
1702324822515625,-9.66002,0.267433,1.18012,0.1815,0.9591,0.11475
1702324822523437,-9.65902,0.276433,1.16412,0.1675,0.10791,0.1875
1702324822531250,-9.67702,0.289433,1.15312,0.1815,0.10891,0.9975
1702324822539062,-9.67502,0.305433,1.12412,0.1525,0.21191,0.8175
1702324822546875,-9.67302,0.296433,1.11712,0.1685,0.19791,0.9775
1702324822554687,-9.67702,0.291433,1.12612,0.1835,0.15691,0.1875
1702324822562500,-9.69102,0.298433,1.13212,0.1685,0.22491,0.3375
1702324822570312,-9.69302,0.300433,1.12112,0.1845,0.24091,0.1775
1702324822578125,-9.70202,0.302433,1.10112,0.1685,0.22491,0.3375
1702324822585937,-9.70702,0.293433,1.8512,0.1695,0.32291,0.1675
1702324822593750,-9.72702,0.277433,1.7012,0.1705,0.35891,0.0
1702324822601562,-9.75002,0.268433,1.7412,0.1845,0.22591,0.1675
1702324822609375,-9.76302,0.265433,1.7212,0.1675,0.17291,0.275
1702324822617187,-9.75402,0.268433,1.5812,0.1845,0.24291,0.1675
1702324822625000,-9.74102,0.261433,1.4512,0.2155,0.15891,0.175
1702324822632812,-9.72502,0.248433,1.1312,0.1985,0.7491,0.1875
1702324822640625,-9.70702,0.235433,0.99112,0.1675,0.6091,0.275
1702324822648437,-9.70702,0.226433,0.97712,0.1835,0.5691,0.6125
1702324822656250,-9.69202,0.198433,0.98612,0.1645,0.591,0.5375
1702324822664062,-9.69902,0.209433,0.98812,0.1825,0.10009,0.1875
1702324822671875,-9.73002,0.204433,0.99512,0.1635,0.18809,0.6975
1702324822679687,-9.76402,0.224433,0.99312,0.1815,0.16209,0.11575
1702324822687500,-9.79502,0.234433,0.99112,0.1325,0.21509,0.10175
1702324822695312,-9.80602,0.236433,0.96812,0.1625,0.23709,0.11875
1702324822703125,-9.78802,0.252433,0.96612,0.1305,0.36509,0.11975
1702324822710937,-9.76802,0.265433,0.98412,0.1305,0.43209,0.10475
1702324822718750,-9.74502,0.268433,1.812,0.1765,0.43509,0.13675
1702324822726562,-9.74302,0.261433,1.4012,0.1615,0.43509,0.10475
1702324822734375,-9.74302,0.244433,1.7412,0.1765,0.44709,0.15175
1702324822742187,-9.73402,0.232433,1.6512,0.1295,0.43509,0.13775
1702324822750000,-9.70502,0.224433,1.5612,0.995,0.44409,0.11975
1702324822757812,-9.69002,0.209433,1.4512,0.1615,0.43309,0.12075
1702324822765625,-9.67802,0.218433,1.6712,0.2085,0.46409,0.13575
1702324822773437,-9.67402,0.227433,1.9612,0.1605,0.48209,0.15375
1702324822781250,-9.65302,0.243433,1.11712,0.1765,0.46609,0.13675
1702324822789062,-9.63102,0.245433,1.14412,0.1605,0.54509,0.16875
1702324822796875,-9.65102,0.245433,1.14612,0.1775,0.46209,0.15175
1702324822804687,-9.65802,0.254433,1.13312,0.1625,0.37909,0.13475
1702324822812500,-9.68502,0.237433,1.11212,0.1755,0.40609,0.15375
1702324822820312,-9.69402,0.247433,1.10112,0.1625,0.37909,0.15075
1702324822828125,-9.69602,0.265433,1.10812,0.2095,0.32809,0.18275
1702324822835937,-9.69102,0.253433,1.12112,0.3035,0.30009,0.13375
1702324822843750,-9.69102,0.262433,1.11912,0.1925,0.32009,0.13575
1702324822851562,-9.68002,0.267433,1.12812,0.1615,0.36709,0.15175
1702324822859375,-9.65302,0.251433,1.13012,0.1775,0.27009,0.15175
1702324822867187,-9.64002,0.245433,1.11712,0.1955,0.21509,0.10075
1702324822875000,-9.65802,0.247433,1.11912,0.1625,0.18609,0.15075
1702324822882812,-9.71202,0.248433,1.11212,0.1765,0.18609,0.21475
1702324822890625,-9.73202,0.251433,1.10112,0.1615,0.16709,0.23075
1702324822898437,-9.71802,0.246433,1.9012,0.1755,0.19009,0.21575
1702324822906250,-9.67602,0.249433,1.6312,0.1615,0.15309,0.23175
1702324822914062,-9.66902,0.251433,1.5812,0.1625,0.15409,0.16675
1702324822921875,-9.68202,0.247433,1.5812,0.1765,0.15609,0.21575
1702324822929687,-9.69802,0.249433,1.7412,0.1615,0.16809,0.24775
1702324822937500,-9.70702,0.244433,1.9212,0.2395,0.11909,0.24575
1702324822945312,-9.70702,0.233433,1.8112,0.1925,0.13709,0.24675
1702324822953125,-9.70702,0.244433,1.6012,0.1785,0.10509,0.14975
1702324822960937,-9.70302,0.231433,1.4912,0.1935,0.8709,0.21375
1702324822968750,-9.72702,0.246433,1.3812,0.1745,0.12709,0.26475
1702324822976562,-9.73402,0.253433,1.4212,0.2085,0.18509,0.23075
1702324822984375,-9.74102,0.246433,1.4512,0.1625,0.16909,0.16675
1702324822992187,-9.71602,0.249433,1.5412,0.1785,0.18409,0.14975
1702324823000000,-9.70502,0.247433,1.4912,0.1625,0.16609,0.23075
1702324823007812,-9.71402,0.246433,1.4212,0.1785,0.18209,0.16575
1702324823015625,-9.71602,0.240433,1.2912,0.1945,0.24909,0.14975
1702324823023437,-9.71602,0.240433,1.3312,0.2095,0.23409,0.14975
1702324823031250,-9.71402,0.233433,1.5812,0.3025,0.21909,0.18175
1702324823039062,-9.70002,0.251433,1.6012,0.1465,0.25309,0.11975
1702324823046875,-9.67602,0.260433,1.6912,0.1935,0.23409,0.16675
1702324823054687,-9.68402,0.266433,1.7412,0.2225,0.26009,0.15275
1702324823062500,-9.69102,0.273433,1.7212,0.1475,0.23609,0.11875
1702324823070312,-9.70902,0.268433,1.7212,0.2255,0.18709,0.14975
1702324823078125,-9.70202,0.269433,1.6312,0.2415,0.16909,0.16575
1702324823085937,-9.71402,0.266433,1.5112,0.1935,0.15109,0.23075
1702324823093750,-9.72702,0.246433,1.4712,0.2085,0.18809,0.16675
1702324823101562,-9.73202,0.248433,1.5412,0.1945,0.16709,0.18175
1702324823109375,-9.72802,0.242433,1.4912,0.2075,0.20109,0.27975
1702324823117187,-9.71402,0.246433,1.5812,0.2565,0.21909,0.16575
1702324823125000,-9.70702,0.248433,1.5112,0.1605,0.19409,0.16875
1702324823132812,-9.70702,0.255433,1.4212,0.1775,0.17309,0.15075
1702324823140625,-9.70902,0.248433,1.4012,0.1595,0.28409,0.26475
1702324823148437,-9.71202,0.246433,1.3612,0.1625,0.28209,0.13475
1702324823156250,-9.71002,0.249433,1.4712,0.1795,0.19909,0.13375
1702324823164062,-9.72702,0.244433,1.5612,0.1605,0.23509,0.21575
1702324823171875,-9.71102,0.250433,1.5612,0.2065,0.24309,0.18475
1702324823179687,-9.71402,0.244433,1.5812,0.3015,0.20609,0.19875
1702324823187500,-9.70902,0.242433,1.5412,0.1785,0.20409,0.11875
1702324823195312,-9.69602,0.240433,1.6212,0.1765,0.19009,0.18375
1702324823203125,-9.70102,0.247433,1.7212,0.1955,0.19809,0.14875
1702324823210937,-9.69602,0.251433,1.7212,0.1935,0.18609,0.15075
1702324823218750,-9.67502,0.265433,1.7412,0.2415,0.17009,0.11775
1702324823226562,-9.67102,0.265433,1.6512,0.3045,0.18409,0.16475
1702324823234375,-9.69302,0.275433,1.5812,0.2105,0.16909,0.14975
1702324823242187,-9.70902,0.275433,1.5812,0.3195,0.20009,0.18075
1702324823250000,-9.73402,0.268433,1.5112,0.2405,0.18509,0.16575
1702324823257812,-9.75102,0.274433,1.3812,0.1765,0.17509,0.20075
1702324823265625,-9.73402,0.272433,1.2012,0.2245,0.19109,0.15075
1702324823273437,-9.71402,0.266433,1.1812,0.2105,0.16909,0.13375
1702324823281250,-9.70902,0.246433,1.1712,0.1615,0.22309,0.15175
1702324823289062,-9.71402,0.229433,1.612,0.1785,0.21509,0.16575
1702324823296875,-9.71902,0.237433,1.1512,0.1635,0.21709,0.13375
1702324823304687,-9.72502,0.237433,1.1512,0.1765,0.30509,0.15275
1702324823312500,-9.72002,0.261433,1.2912,0.1605,0.30909,0.13775
1702324823320312,-9.72702,0.257433,1.3312,0.1765,0.37209,0.13675
1702324823328125,-9.72002,0.262433,1.3612,0.1615,0.36809,0.15275
1702324823335937,-9.71802,0.248433,1.3812,0.1755,0.29309,0.13675
1702324823343750,-9.71102,0.268433,1.5112,0.1905,0.32409,0.18575
1702324823351562,-9.70902,0.257433,1.5612,0.1575,0.40809,0.21975
1702324823359375,-9.69602,0.253433,1.5812,0.1765,0.28709,0.15175
1702324823367187,-9.69302,0.262433,1.6712,0.1915,0.30609,0.15275
1702324823375000,-9.71402,0.246433,1.5612,0.1595,0.29009,0.20175
1702324823382812,-9.69402,0.244433,1.4012,0.1765,0.36909,0.15275
1702324823390625,-9.67302,0.247433,1.4012,0.1615,0.38309,0.15175
1702324823398437,-9.67302,0.246433,1.4912,0.1755,0.31009,0.13775
1702324823406250,-9.68402,0.251433,1.6712,0.1755,0.27309,0.21675
1702324823414062,-9.72202,0.254433,1.8012,0.2225,0.29109,0.18475
1702324823421875,-9.76302,0.252433,1.8912,0.2225,0.19309,0.21675
1702324823429687,-9.77002,0.263433,1.5312,0.1765,0.19309,0.15175
1702324823437500,-9.72402,0.301433,0.98812,0.1615,0.23709,0.18375
1702324823445312,-9.66602,0.298433,0.97912,0.1615,0.22309,0.16775
1702324823453125,-9.68102,0.300433,1.2912,0.1775,0.18909,0.15075
1702324823460937,-9.72202,0.284433,1.6712,0.1625,0.28609,0.11975
1702324823468750,-9.72202,0.261433,1.7612,0.1765,0.35609,0.12075
1702324823476562,-9.72702,0.232433,1.6212,0.1625,0.17409,0.11975
1702324823484375,-9.73402,0.246433,1.3312,0.2085,0.18609,0.18275
1702324823492187,-9.74102,0.243433,1.1312,0.2705,0.17609,0.16675
1702324823500000,-9.71402,0.235433,0.99112,0.1935,0.21909,0.15075
1702324823507812,-9.68702,0.229433,1.912,0.2415,0.26309,0.16575
1702324823515625,-9.67402,0.227433,1.4512,0.2235,0.38409,0.13575
1702324823523437,-9.67402,0.238433,1.7412,0.1775,0.41409,0.15175
1702324823531250,-9.68502,0.249433,1.7812,0.2405,0.35009,0.13475
1702324823539062,-9.70702,0.240433,1.5112,0.1915,0.28609,0.19975
1702324823546875,-9.73002,0.232433,1.1712,0.2385,0.27209,0.18375
1702324823554687,-9.72102,0.255433,1.2712,0.2255,0.23209,0.16575
1702324823562500,-9.71602,0.255433,1.4212,0.1925,0.35209,0.15175
1702324823570312,-9.71802,0.262433,1.6512,0.1925,0.35109,0.16775
1702324823578125,-9.69802,0.264433,1.7212,0.1615,0.36709,0.13575
1702324823585937,-9.69102,0.260433,1.7412,0.1615,0.38309,0.11975
1702324823593750,-9.71202,0.255433,1.6012,0.1945,0.26709,0.11875
1702324823601562,-9.71102,0.266433,1.4912,0.3015,0.24109,0.16675
1702324823609375,-9.71402,0.266433,1.3812,0.2095,0.21809,0.14975
1702324823617187,-9.70202,0.264433,1.4512,0.2075,0.25309,0.19975
1702324823625000,-9.68602,0.264433,1.4012,0.2085,0.27409,0.11975
1702324823632812,-9.68202,0.267433,1.6712,0.1775,0.33209,0.16775
1702324823640625,-9.68902,0.260433,1.7412,0.1945,0.21709,0.13375
1702324823648437,-9.70302,0.260433,1.6312,0.2095,0.16609,0.19775
1702324823656250,-9.68202,0.258433,1.4912,0.2405,0.18709,0.14975
1702324823664062,-9.69102,0.242433,1.4512,0.2245,0.18609,0.18275
1702324823671875,-9.70702,0.231433,1.3812,0.3035,0.16909,0.16475
1702324823679687,-9.70502,0.228433,1.4012,0.2865,0.22209,0.16675
1702324823687500,-9.69202,0.231433,1.2912,0.2555,0.25509,0.15075
1702324823695312,-9.69802,0.229433,1.3812,0.1935,0.20309,0.15075
1702324823703125,-9.70502,0.233433,1.4512,0.2105,0.26609,0.13375
1702324823710937,-9.72302,0.246433,1.3612,0.2425,0.18409,0.11675
1702324823718750,-9.73402,0.253433,1.2212,0.1795,0.16309,0.18075
1702324823726562,-9.71402,0.246433,1.812,0.2245,0.27209,0.13575
1702324823734375,-9.72502,0.246433,1.1112,0.2405,0.22309,0.11875
1702324823742187,-9.71602,0.237433,1.1712,0.1935,0.19109,0.13475
1702324823750000,-9.72302,0.239433,1.2012,0.2085,0.36709,0.15175
1702324823757812,-9.72702,0.237433,1.2612,0.1915,0.23909,0.20075
1702324823765625,-9.72102,0.244433,1.3612,0.2085,0.33309,0.15075
1702324823773437,-9.72102,0.244433,1.3312,0.2415,0.30309,0.5375
1702324823781250,-9.70702,0.253433,1.3612,0.2555,0.38509,0.10275
1702324823789062,-9.68002,0.247433,1.3812,0.3205,0.37809,0.10075
1702324823796875,-9.69602,0.249433,1.4512,0.2875,0.43209,0.10275
1702324823804687,-9.69602,0.256433,1.4712,0.2405,0.33109,0.15075
1702324823812500,-9.69102,0.253433,1.5112,0.2235,0.30209,0.18375
1702324823820312,-9.68702,0.260433,1.5112,0.1915,0.32109,0.16875
1702324823828125,-9.69802,0.251433,1.3512,0.1755,0.35409,0.16875
1702324823835937,-9.72502,0.246433,1.3612,0.1925,0.30109,0.16775
1702324823843750,-9.71202,0.233433,1.4212,0.2085,0.25109,0.18275
1702324823851562,-9.71002,0.233433,1.4512,0.3025,0.23609,0.16575
1702324823859375,-9.71402,0.231433,1.5612,0.1785,0.29709,0.13375
1702324823867187,-9.71602,0.237433,1.5412,0.1925,0.31909,0.15175
1702324823875000,-9.70702,0.239433,1.6312,0.2565,0.20609,0.13475
1702324823882812,-9.68202,0.238433,1.4212,0.1455,0.35109,0.15275
1702324823890625,-9.70102,0.231433,1.4512,0.1775,0.22209,0.13575
1702324823898437,-9.70502,0.231433,1.5112,0.1925,0.25609,0.15175
1702324823906250,-9.71902,0.224433,1.6512,0.1615,0.33509,0.15175
1702324823914062,-9.70702,0.215433,1.5112,0.2055,0.30909,0.20175
1702324823921875,-9.69402,0.200433,1.4712,0.2255,0.20309,0.14975
1702324823929687,-9.70602,0.213433,1.5412,0.2245,0.23109,0.19775
1702324823937500,-9.70702,0.231433,1.5112,0.1625,0.30009,0.15075
1702324823945312,-9.70502,0.229433,1.5412,0.1775,0.30009,0.15075
1702324823953125,-9.70502,0.233433,1.5112,0.1635,0.23309,0.13375
1702324823960937,-9.71202,0.251433,1.6312,0.1795,0.16909,0.13375
1702324823968750,-9.70902,0.248433,1.3512,0.1615,0.20509,0.15175
1702324823976562,-9.70902,0.248433,1.3312,0.1945,0.21909,0.13475
1702324823984375,-9.71002,0.240433,1.4012,0.2405,0.28509,0.15075
1702324823992187,-9.70802,0.229433,1.2912,0.2265,0.23309,0.11775
1702324824000000,-9.69202,0.236433,1.3112,0.2565,0.21809,0.16575
1702324824007812,-9.72302,0.242433,1.3112,0.3035,0.18709,0.13275
1702324824015625,-9.73902,0.248433,1.3812,0.1925,0.28609,0.15175
1702324824023437,-9.74302,0.239433,1.4012,0.1775,0.27109,0.13575
1702324824031250,-9.70802,0.234433,1.3612,0.1635,0.30909,0.14975
1702324824039062,-9.69402,0.231433,1.2912,0.1935,0.33109,0.13475
1702324824046875,-9.69802,0.229433,1.5112,0.2725,0.21809,0.14975
1702324824054687,-9.72102,0.237433,1.7212,0.2095,0.26809,0.15075
1702324824062500,-9.72802,0.248433,1.9412,0.1795,0.21509,0.14975
1702324824070312,-9.73702,0.244433,1.8312,0.2105,0.18109,0.14875
1702324824078125,-9.71202,0.231433,1.3612,0.1945,0.18409,0.14975
1702324824085937,-9.69002,0.220433,1.1312,0.1635,0.23209,0.13375
1702324824093750,-9.67602,0.214433,1.3312,0.1775,0.30109,0.15175
1702324824101562,-9.64002,0.219433,1.7412,0.1615,0.39809,0.13575
1702324824109375,-9.63802,0.230433,1.7812,0.1775,0.28509,0.15175
1702324824117187,-9.65602,0.230433,1.9712,0.1635,0.27909,0.13375
1702324824125000,-9.69602,0.224433,1.8512,0.1775,0.25209,0.16675
1702324824132812,-9.73202,0.240433,1.5112,0.1625,0.14909,0.21375
1702324824140625,-9.75002,0.255433,1.1312,0.1795,0.15109,0.13375
1702324824148437,-9.73802,0.277433,1.412,0.1625,0.22009,0.15175
1702324824156250,-9.74202,0.278433,1.3312,0.2085,0.26009,0.10375
1702324824164062,-9.74502,0.274433,1.4012,0.2715,0.18909,0.14975
1702324824171875,-9.73802,0.268433,1.3812,0.1945,0.23709,0.8675
1702324824179687,-9.72302,0.237433,1.2912,0.1635,0.25409,0.7075
1702324824187500,-9.71202,0.229433,1.1512,0.1945,0.20009,0.14975
1702324824195312,-9.71702,0.215433,1.212,0.1935,0.18609,0.15075
1702324824203125,-9.72602,0.211433,1.412,0.1935,0.17009,0.16675
1702324824210937,-9.71402,0.213433,1.1312,0.1645,0.25109,0.6975
1702324824218750,-9.69902,0.220433,1.3612,0.1625,0.23309,0.15075
1702324824226562,-9.68102,0.211433,1.4712,0.2405,0.23609,0.13375
1702324824234375,-9.68102,0.225433,1.4512,0.2245,0.26709,0.18275
1702324824242187,-9.68102,0.218433,1.4712,0.2385,0.21909,0.24675
1702324824250000,-9.69202,0.209433,1.5412,0.2405,0.18809,0.16675
1702324824257812,-9.70502,0.208433,1.5112,0.3335,0.24109,0.13475
1702324824265625,-9.72102,0.208433,1.5412,0.2085,0.30109,0.18375
1702324824273437,-9.71702,0.226433,1.7212,0.1765,0.23409,0.21575
1702324824281250,-9.71202,0.224433,1.6912,0.1945,0.17109,0.13475
1702324824289062,-9.71002,0.218433,1.5812,0.1785,0.18409,0.14975
1702324824296875,-9.71002,0.231433,1.4912,0.2095,0.17309,0.13475
1702324824304687,-9.71002,0.228433,1.3112,0.1615,0.19009,0.15175
1702324824312500,-9.71202,0.226433,1.2012,0.1795,0.16709,0.14975
1702324824320312,-9.70702,0.224433,1.1712,0.1615,0.27409,0.13675
1702324824328125,-9.71902,0.211433,1.912,0.1635,0.18109,0.14975
1702324824335937,-9.71002,0.217433,1.812,0.1775,0.23809,0.11975
1702324824343750,-9.69002,0.229433,1.2412,0.1945,0.20009,0.13375
1702324824351562,-9.70502,0.235433,1.2912,0.2405,0.31809,0.13475
1702324824359375,-9.71202,0.231433,1.2612,0.2235,0.28709,0.15175
1702324824367187,-9.72302,0.242433,1.3112,0.2555,0.25309,0.16675
1702324824375000,-9.71602,0.235433,1.2012,0.3495,0.22109,0.18175
1702324824382812,-9.70902,0.230433,1.2012,0.2225,0.30509,0.20075
1702324824390625,-9.68702,0.228433,1.2912,0.2375,0.37309,0.16875
1702324824398437,-9.67802,0.233433,1.3312,0.2245,0.31709,0.16675
1702324824406250,-9.69102,0.240433,1.5112,0.1595,0.32109,0.20075
1702324824414062,-9.71202,0.237433,1.4412,0.1765,0.25609,0.15175
1702324824421875,-9.70902,0.246433,1.4012,0.1755,0.35409,0.16875
1702324824429687,-9.72302,0.235433,1.4012,0.1925,0.35209,0.13575
1702324824437500,-9.72702,0.230433,1.4212,0.1605,0.37309,0.10575
1702324824445312,-9.72702,0.228433,1.5312,0.1755,0.37509,0.12175
1702324824453125,-9.72702,0.225433,1.3512,0.2065,0.36009,0.15375
1702324824460937,-9.72802,0.230433,1.4712,0.1455,0.32009,0.11975
1702324824468750,-9.71402,0.232433,1.1912,0.2215,0.34609,0.13775
1702324824476562,-9.71602,0.248433,1.2612,0.3015,0.32309,0.15175
1702324824484375,-9.71602,0.257433,1.1512,0.1935,0.33409,0.13575
1702324824492187,-9.69802,0.251433,1.912,0.1935,0.33109,0.13475
1702324824500000,-9.69602,0.240433,1.1712,0.1605,0.32109,0.15275
1702324824507812,-9.71202,0.237433,1.2012,0.1775,0.28509,0.13475
1702324824515625,-9.71002,0.224433,1.1312,0.1775,0.26809,0.15075
1702324824523437,-9.71202,0.224433,1.612,0.2235,0.33809,0.11975
1702324824531250,-9.72302,0.230433,1.412,0.1605,0.40209,0.13675
1702324824539062,-9.71202,0.224433,1.2212,0.1765,0.38409,0.15275
1702324824546875,-9.72502,0.235433,1.2412,0.3025,0.37109,0.8675
1702324824554687,-9.72502,0.228433,1.4012,0.2235,0.48109,0.13575
1702324824562500,-9.71802,0.233433,1.4512,0.2865,0.41909,0.11975
1702324824570312,-9.70102,0.229433,1.4512,0.2555,0.31809,0.16675
1702324824578125,-9.70502,0.222433,1.4512,0.1755,0.40209,0.18475
1702324824585937,-9.72302,0.217433,1.4412,0.2235,0.32209,0.13575
1702324824593750,-9.71402,0.219433,1.5812,0.2075,0.35309,0.18475
1702324824601562,-9.70302,0.211433,1.4912,0.2245,0.33509,0.11875
1702324824609375,-9.70102,0.213433,1.4512,0.1755,0.30409,0.20075
1702324824617187,-9.71402,0.211433,1.4012,0.2545,0.31909,0.21575
1702324824625000,-9.71602,0.217433,1.4712,0.1615,0.28709,0.13575
1702324824632812,-9.70802,0.229433,1.5612,0.2095,0.31309,0.14975
1702324824640625,-9.69402,0.229433,1.4212,0.1945,0.21809,0.11775
1702324824648437,-9.69402,0.233433,1.3812,0.2885,0.21709,0.13275
1702324824656250,-9.69002,0.236433,1.4912,0.2095,0.29709,0.18275
1702324824664062,-9.69602,0.231433,1.4012,0.1945,0.20309,0.11775
1702324824671875,-9.67802,0.231433,1.5412,0.2085,0.31909,0.13575
1702324824679687,-9.68502,0.229433,1.3812,0.1615,0.28509,0.15175
1702324824687500,-9.70902,0.246433,1.4012,0.1785,0.21809,0.15075
1702324824695312,-9.72502,0.242433,1.3812,0.1625,0.20409,0.11875
1702324824703125,-9.73002,0.242433,1.3812,0.1945,0.23309,0.13375
1702324824710937,-9.72102,0.237433,1.3312,0.3505,0.28209,0.14875
1702324824718750,-9.71002,0.237433,1.3612,0.2565,0.26709,0.13375
1702324824726562,-9.70502,0.231433,1.5412,0.1615,0.30109,0.15175
1702324824734375,-9.71202,0.233433,1.5412,0.3035,0.25409,0.10175
1702324824742187,-9.70902,0.233433,1.3512,0.1775,0.30509,0.10375
1702324824750000,-9.70502,0.231433,1.3812,0.2555,0.22309,0.15075
1702324824757812,-9.70102,0.228433,1.2612,0.2875,0.19109,0.13375
1702324824765625,-9.70302,0.231433,1.1312,0.3205,0.33209,0.8475
1702324824773437,-9.71002,0.229433,1.2012,0.3035,0.26709,0.13275
1702324824781250,-9.69602,0.231433,1.3112,0.2405,0.36409,0.13475
1702324824789062,-9.71202,0.226433,1.4212,0.2395,0.38409,0.15175
1702324824796875,-9.71202,0.224433,1.4512,0.3025,0.31809,0.18275
1702324824804687,-9.73002,0.224433,1.4512,0.2545,0.28709,0.16675
1702324824812500,-9.73502,0.212433,1.2412,0.2405,0.27109,0.13475
1702324824820312,-9.71202,0.202433,1.2012,0.2085,0.32009,0.15175
1702324824828125,-9.68102,0.211433,1.1312,0.2085,0.38309,0.13575
1702324824835937,-9.66702,0.211433,1.3812,0.3175,0.38309,0.15075
1702324824843750,-9.66002,0.218433,1.5112,0.2085,0.41309,0.18375
1702324824851562,-9.69402,0.235433,1.6912,0.2095,0.28509,0.13475
1702324824859375,-9.72502,0.233433,1.8712,0.2545,0.31909,0.18375
1702324824867187,-9.73402,0.248433,1.8112,0.2065,0.30309,0.23275
1702324824875000,-9.72902,0.268433,1.1512,0.1615,0.28609,0.13575
1702324824882812,-9.72002,0.270433,0.99512,0.1755,0.34009,0.15375
1702324824890625,-9.72002,0.264433,1.1512,0.2865,0.33709,0.13475
1702324824898437,-9.73602,0.237433,1.2912,0.3495,0.46709,0.8675
1702324824906250,-9.74302,0.235433,1.5812,0.4125,0.33609,0.13275
1702324824914062,-9.72602,0.213433,1.5412,0.2875,0.33309,0.14975
1702324824921875,-9.69802,0.211433,1.3812,0.1765,0.35609,0.13675
1702324824929687,-9.69202,0.209433,1.3112,0.1935,0.26709,0.15075
1702324824937500,-9.70302,0.204433,1.1812,0.2095,0.36709,0.11875
1702324824945312,-9.70602,0.197433,1.2012,0.1775,0.33509,0.13575
1702324824953125,-9.69402,0.211433,1.1712,0.1595,0.40209,0.18575
1702324824960937,-9.69202,0.213433,1.3112,0.2395,0.40209,0.13575
1702324824968750,-9.69002,0.209433,1.5412,0.2235,0.38609,0.15175
1702324824976562,-9.67402,0.216433,1.6912,0.2085,0.39909,0.13575
1702324824984375,-9.69202,0.222433,1.7412,0.3165,0.40109,0.18275
1702324824992187,-9.70902,0.235433,1.7412,0.2385,0.36909,0.18375
1702324825000000,-9.72802,0.230433,1.6012,0.3795,0.30309,0.21375
1702324825007812,-9.73402,0.228433,1.3812,0.2385,0.30509,0.19975
1702324825015625,-9.73502,0.226433,1.4712,0.2565,0.24909,0.16575
1702324825023437,-9.72602,0.213433,1.5612,0.2065,0.33509,0.21675
1702324825031250,-9.71902,0.215433,1.5112,0.1605,0.39809,0.18475
1702324825039062,-9.71702,0.224433,1.5812,0.1925,0.38209,0.18375
1702324825046875,-9.70502,0.226433,1.4912,0.2245,0.38309,0.13575
1702324825054687,-9.69002,0.218433,1.6012,0.1765,0.38009,0.18375
1702324825062500,-9.68502,0.229433,1.5112,0.2385,0.30509,0.19975
1702324825070312,-9.69602,0.231433,1.5612,0.2245,0.35009,0.15075
1702324825078125,-9.68002,0.229433,1.5612,0.2075,0.30509,0.15175
1702324825085937,-9.66902,0.231433,1.6012,0.1595,0.38509,0.18475
1702324825093750,-9.66002,0.218433,1.7412,0.2555,0.33809,0.10375
1702324825101562,-9.68502,0.217433,1.6912,0.2545,0.29009,0.16775
1702324825109375,-9.69202,0.222433,1.7212,0.2865,0.20609,0.18275
1702324825117187,-9.73202,0.239433,1.7412,0.3505,0.25209,0.14875
1702324825125000,-9.74502,0.248433,1.5812,0.3485,0.27109,0.21475
1702324825132812,-9.75202,0.245433,1.5812,0.2845,0.33609,0.21575
1702324825140625,-9.74302,0.248433,1.3812,0.2395,0.36709,0.16775
1702324825148437,-9.74102,0.248433,1.3812,0.1615,0.33709,0.13675
1702324825156250,-9.72702,0.241433,1.4012,0.1915,0.45109,0.15275
1702324825164062,-9.71402,0.233433,1.3812,0.1915,0.45409,0.10475
1702324825171875,-9.71002,0.233433,1.4012,0.2555,0.43409,0.10375
1702324825179687,-9.70902,0.241433,1.4712,0.2225,0.42109,0.15275
1702324825187500,-9.71902,0.233433,1.4712,0.2715,0.38009,0.13375
1702324825195312,-9.72102,0.233433,1.2912,0.2875,0.36309,0.16575
1702324825203125,-9.71802,0.230433,1.2612,0.2375,0.45209,0.16875
1702324825210937,-9.70102,0.229433,1.2912,0.3005,0.39909,0.23175
1702324825218750,-9.69202,0.229433,1.3612,0.2575,0.39309,0.13375
1702324825226562,-9.70502,0.234433,1.5612,0.2565,0.45709,0.18175
1702324825234375,-9.72102,0.244433,1.5412,0.2385,0.41709,0.18375
1702324825242187,-9.72102,0.239433,1.6912,0.2235,0.40109,0.15175
1702324825250000,-9.71002,0.229433,1.7412,0.2695,0.43109,0.23175
1702324825257812,-9.71202,0.231433,1.6512,0.1925,0.36409,0.18375
1702324825265625,-9.70802,0.211433,1.7612,0.1605,0.46509,0.16875
1702324825273437,-9.68702,0.220433,1.7612,0.1595,0.43509,0.20175
1702324825281250,-9.67602,0.229433,1.7612,0.1745,0.45409,0.20275
1702324825289062,-9.68102,0.218433,1.9412,0.1605,0.43509,0.13675
1702324825296875,-9.69402,0.224433,1.8512,0.1765,0.30409,0.16775
1702324825304687,-9.71202,0.226433,1.7212,0.1925,0.35209,0.13575
1702324825312500,-9.71402,0.219433,1.7212,0.2245,0.23809,0.13475
1702324825320312,-9.72602,0.197433,1.6312,0.2085,0.30409,0.13575
1702324825328125,-9.73502,0.208433,1.5612,0.1615,0.31609,0.16775
1702324825335937,-9.73502,0.204433,1.5612,0.1775,0.27009,0.15175
1702324825343750,-9.72302,0.215433,1.5112,0.1605,0.33909,0.13675
1702324825351562,-9.71002,0.215433,1.4212,0.1625,0.30309,0.8675
1702324825359375,-9.70502,0.213433,1.4212,0.1775,0.35209,0.13575
1702324825367187,-9.71202,0.215433,1.5312,0.2535,0.34109,0.15275
1702324825375000,-9.71002,0.213433,1.5112,0.1925,0.32209,0.13575
1702324825382812,-9.71002,0.213433,1.6712,0.2075,0.41409,0.18375
1702324825390625,-9.68702,0.204433,1.5612,0.1905,0.45109,0.20175
1702324825398437,-9.67402,0.204433,1.6512,0.1595,0.42009,0.18575
1702324825406250,-9.68502,0.213433,1.7612,0.1585,0.43409,0.24975
1702324825414062,-9.69602,0.226433,1.8512,0.1915,0.38609,0.18475
1702324825421875,-9.71002,0.231433,1.9212,0.2225,0.36909,0.21675
1702324825429687,-9.70702,0.228433,1.8312,0.2545,0.35409,0.15175
1702324825437500,-9.69402,0.231433,1.7212,0.1765,0.30209,0.18375
1702324825445312,-9.70302,0.231433,1.7212,0.1745,0.28709,0.26475
1702324825453125,-9.69402,0.228433,1.7412,0.1905,0.20909,0.23275
1702324825460937,-9.69202,0.231433,1.9012,0.1615,0.23809,0.16775
1702324825468750,-9.69402,0.229433,1.9012,0.1925,0.28709,0.16775
1702324825476562,-9.69602,0.233433,1.9612,0.2225,0.19009,0.21575
1702324825484375,-9.68902,0.231433,1.8112,0.2715,0.22109,0.14975
1702324825492187,-9.67302,0.238433,1.7112,0.2545,0.27409,0.15175
1702324825500000,-9.63502,0.234433,1.8512,0.2405,0.21909,0.16675
1702324825507812,-9.64902,0.240433,1.11412,0.1615,0.18909,0.16775
1702324825515625,-9.68002,0.242433,1.12812,0.1765,0.12609,0.18375
1702324825523437,-9.70502,0.251433,1.12312,0.1615,0.10409,0.23075
1702324825531250,-9.72502,0.257433,1.9212,0.1775,0.4309,0.19875
1702324825539062,-9.73202,0.259433,1.6712,0.1615,0.2209,0.26275
1702324825546875,-9.73102,0.283433,1.1512,0.1785,0.7409,0.16675
1702324825554687,-9.70802,0.295433,1.412,0.1935,0.14309,0.11875
1702324825562500,-9.70902,0.257433,1.1712,0.1755,0.19709,0.15375
1702324825570312,-9.71202,0.235433,1.4012,0.2725,0.17309,0.13375
1702324825578125,-9.71402,0.211433,1.5412,0.1925,0.18909,0.18375
1702324825585937,-9.69202,0.196433,1.2712,0.2085,0.17009,0.19875
1702324825593750,-9.67202,0.189433,1.1112,0.1915,0.15609,0.26375
1702324825601562,-9.67402,0.196433,1.612,0.1605,0.18709,0.24775
1702324825609375,-9.69902,0.198433,1.2212,0.1755,0.17109,0.26375
1702324825617187,-9.73002,0.195433,1.3812,0.1925,0.15309,0.24675
1702324825625000,-9.71702,0.220433,1.5612,0.1605,0.18609,0.24775
1702324825632812,-9.71002,0.224433,1.6512,0.1775,0.17109,0.18275
1702324825640625,-9.69902,0.211433,1.6112,0.1775,0.18209,0.23075
1702324825648437,-9.69802,0.235433,1.6912,0.1605,0.17409,0.19975
1702324825656250,-9.71202,0.228433,1.7412,0.1785,0.18809,0.13475
1702324825664062,-9.71602,0.230433,1.6312,0.1155,0.18909,0.13575
1702324825671875,-9.72102,0.228433,1.7212,0.1625,0.17109,0.15075
1702324825679687,-9.71602,0.230433,1.7412,0.1455,0.19209,0.15275
1702324825687500,-9.71402,0.238433,1.6512,0.1635,0.16609,0.18175
1702324825695312,-9.69402,0.237433,1.5812,0.1755,0.18909,0.26475
1702324825703125,-9.70702,0.228433,1.2212,0.1615,0.11009,0.18375
1702324825710937,-9.70702,0.233433,1.1512,0.1755,0.14409,0.20075
1702324825718750,-9.72302,0.233433,1.1512,0.1135,0.19009,0.21675
1702324825726562,-9.72502,0.232433,1.1512,0.1445,0.17509,0.20075
1702324825734375,-9.72702,0.228433,0.99712,0.1765,0.19009,0.16775
1702324825742187,-9.71402,0.230433,0.99712,0.1605,0.20709,0.21675
1702324825750000,-9.71002,0.228433,0.99112,0.1615,0.17109,0.19975
1702324825757812,-9.71002,0.233433,1.412,0.1775,0.23309,0.18275
1702324825765625,-9.71002,0.215433,1.2212,0.1615,0.18809,0.19975
1702324825773437,-9.71002,0.208433,1.2012,0.2065,0.16009,0.21675
1702324825781250,-9.72802,0.211433,1.3312,0.2395,0.16709,0.27875
1702324825789062,-9.74802,0.208433,1.2212,0.1455,0.19009,0.18475
1702324825796875,-9.74102,0.219433,1.1512,0.1925,0.19009,0.18375
1702324825804687,-9.72702,0.230433,0.99512,0.1905,0.25609,0.24875
1702324825812500,-9.71402,0.228433,1.12,0.1765,0.30209,0.19975
1702324825820312,-9.70902,0.237433,1.1712,0.1915,0.30409,0.20075
1702324825828125,-9.70702,0.224433,1.4712,0.1765,0.35109,0.16875
1702324825835937,-9.70702,0.248433,1.5412,0.2395,0.33709,0.15175
1702324825843750,-9.71802,0.239433,1.4012,0.2085,0.30709,0.11975
1702324825851562,-9.72702,0.246433,1.2412,0.1765,0.24109,0.13575
1702324825859375,-9.71602,0.246433,1.1312,0.1615,0.30409,0.13575
1702324825867187,-9.70902,0.243433,1.1312,0.1745,0.27709,0.20175
1702324825875000,-9.70502,0.244433,1.3512,0.1605,0.32409,0.13675
1702324825882812,-9.71202,0.244433,1.3612,0.2085,0.22109,0.16675
1702324825890625,-9.69802,0.259433,1.4412,0.1915,0.29009,0.16875
1702324825898437,-9.69602,0.247433,1.2212,0.2105,0.23209,0.13375
1702324825906250,-9.71602,0.248433,1.2612,0.2725,0.17309,0.13375
1702324825914062,-9.71402,0.246433,1.2712,0.1465,0.18509,0.16675
1702324825921875,-9.71202,0.246433,1.2012,0.1775,0.17009,0.21475
1702324825929687,-9.70502,0.237433,1.912,0.1615,0.30209,0.16775
1702324825937500,-9.68502,0.233433,1.412,0.1775,0.33209,0.15175
1702324825945312,-9.69402,0.233433,1.412,0.1595,0.29909,0.26475
1702324825953125,-9.70502,0.240433,0.99312,0.1775,0.33409,0.13575
1702324825960937,-9.72502,0.232433,0.99712,0.1595,0.30809,0.16975
1702324825968750,-9.73002,0.233433,0.99512,0.1615,0.23709,0.16775
1702324825976562,-9.75002,0.232433,0.99712,0.1605,0.30409,0.18475
1702324825984375,-9.75702,0.227433,0.98812,0.1745,0.32509,0.20175
1702324825992187,-9.76302,0.232433,0.98412,0.1605,0.35309,0.15275
1702324826000000,-9.73402,0.226433,0.98412,0.1755,0.38709,0.16875
1702324826007812,-9.70102,0.231433,1.412,0.1615,0.35309,0.12075
1702324826015625,-9.68302,0.231433,1.912,0.2075,0.41609,0.20075
1702324826023437,-9.69102,0.244433,1.3312,0.2055,0.40209,0.23375
1702324826031250,-9.68902,0.244433,1.4212,0.1595,0.45209,0.15375
1702324826039062,-9.69202,0.242433,1.4912,0.1765,0.37909,0.19975
1702324826046875,-9.70302,0.235433,1.4712,0.1605,0.40209,0.16875
1702324826054687,-9.71802,0.246433,1.4712,0.1765,0.33409,0.16775
1702324826062500,-9.72502,0.244433,1.4012,0.1635,0.34909,0.7075
1702324826070312,-9.72702,0.246433,1.3812,0.1765,0.40209,0.15275
1702324826078125,-9.70502,0.248433,1.3612,0.1925,0.36809,0.13575
1702324826085937,-9.68902,0.249433,1.4212,0.1605,0.35409,0.15275
1702324826093750,-9.70502,0.253433,1.4212,0.1775,0.28609,0.13575
1702324826101562,-9.70502,0.255433,1.2412,0.1615,0.28709,0.15175
1702324826109375,-9.70202,0.248433,1.1512,0.2085,0.17609,0.13575
1702324826117187,-9.72002,0.268433,1.1812,0.2095,0.23609,0.15075
1702324826125000,-9.72702,0.239433,1.812,0.1925,0.24209,0.13675
1702324826132812,-9.73202,0.232433,0.98612,0.1765,0.19209,0.15175
1702324826140625,-9.72102,0.228433,0.98612,0.2075,0.30709,0.13575
1702324826148437,-9.70202,0.235433,0.97412,0.1895,0.35909,0.18675
1702324826156250,-9.70702,0.233433,0.99312,0.2545,0.32409,0.11975
1702324826164062,-9.70502,0.248433,0.99912,0.2235,0.41809,0.13575
1702324826171875,-9.70302,0.240433,1.1112,0.1765,0.44609,0.20075
1702324826179687,-9.72702,0.239433,1.2712,0.2705,0.46509,0.15175
1702324826187500,-9.73002,0.239433,1.2412,0.2395,0.39809,0.15075
1702324826195312,-9.70902,0.244433,1.2212,0.1615,0.39809,0.13575
1702324826203125,-9.71402,0.231433,1.3612,0.2395,0.41709,0.15175
1702324826210937,-9.72102,0.239433,1.4712,0.2385,0.35609,0.13575
1702324826218750,-9.70202,0.248433,1.5812,0.3005,0.42109,0.15175
1702324826226562,-9.68902,0.244433,1.7112,0.3185,0.28909,0.11875
1702324826234375,-9.68202,0.247433,1.6912,0.1935,0.30109,0.13475
1702324826242187,-9.67802,0.238433,1.6712,0.1625,0.23609,0.11875
1702324826250000,-9.66002,0.238433,1.6712,0.1765,0.33509,0.16775
1702324826257812,-9.66702,0.229433,1.6312,0.1625,0.28309,0.15075
1702324826265625,-9.69102,0.233433,1.4912,0.2555,0.20809,0.13475
1702324826273437,-9.70002,0.246433,1.4212,0.2555,0.18909,0.18275
1702324826281250,-9.73002,0.250433,1.4512,0.2095,0.17009,0.16575
1702324826289062,-9.74702,0.256433,1.2612,0.2235,0.19309,0.16775
1702324826296875,-9.74202,0.277433,0.97912,0.1925,0.17409,0.18375
1702324826304687,-9.71302,0.277433,0.96612,0.1635,0.13709,0.11775
1702324826312500,-9.70202,0.275433,0.97312,0.1775,0.21809,0.18275
1702324826320312,-9.72702,0.275433,0.99712,0.1955,0.18309,0.11675
1702324826328125,-9.74702,0.257433,0.99712,0.2885,0.17309,0.11775
1702324826335937,-9.72302,0.241433,0.99012,0.2875,0.20709,0.11775
1702324826343750,-9.71202,0.233433,0.97512,0.1615,0.25509,0.13575
1702324826351562,-9.71602,0.233433,0.97712,0.3035,0.17309,0.11775
1702324826359375,-9.74102,0.223433,0.97512,0.1765,0.25709,0.15275
1702324826367187,-9.73902,0.210433,0.97512,0.1935,0.25309,0.13475
1702324826375000,-9.72102,0.200433,1.412,0.2245,0.28309,0.15075
1702324826382812,-9.71002,0.215433,1.2412,0.1915,0.36609,0.21675
1702324826390625,-9.70102,0.211433,1.3312,0.2535,0.38709,0.18475
1702324826398437,-9.69002,0.220433,1.4012,0.2095,0.31809,0.11875
1702324826406250,-9.71002,0.231433,1.2912,0.2085,0.35209,0.13575
1702324826414062,-9.71802,0.239433,1.3112,0.2705,0.36909,0.13575
1702324826421875,-9.71802,0.237433,1.3812,0.1755,0.33909,0.15275
1702324826429687,-9.72302,0.239433,1.4012,0.2545,0.38809,0.13675
1702324826437500,-9.72302,0.244433,1.2612,0.3335,0.33809,0.15075
1702324826445312,-9.71402,0.250433,1.3812,0.2245,0.32009,0.13575
1702324826453125,-9.69802,0.236433,1.3312,0.2415,0.29909,0.13375
1702324826460937,-9.70902,0.251433,1.3112,0.2725,0.23309,0.14875
1702324826468750,-9.70902,0.255433,1.2012,0.2245,0.27109,0.11875
1702324826476562,-9.71602,0.255433,0.99912,0.1475,0.22109,0.10275
1702324826484375,-9.72702,0.259433,0.99512,0.2095,0.25209,0.13475
1702324826492187,-9.72902,0.246433,0.98412,0.2705,0.24209,0.15175
1702324826500000,-9.72302,0.251433,0.98412,0.2255,0.26809,0.13475
1702324826507812,-9.70202,0.251433,0.97712,0.2545,0.30509,0.18375
1702324826515625,-9.69102,0.249433,0.99312,0.1915,0.32009,0.21675
1702324826523437,-9.69802,0.253433,0.99312,0.3035,0.34809,0.14975
1702324826531250,-9.69102,0.244433,0.98812,0.2685,0.38509,0.23275
1702324826539062,-9.70502,0.231433,1.612,0.2395,0.37109,0.13575
1702324826546875,-9.72302,0.228433,1.612,0.2235,0.30109,0.18275
1702324826554687,-9.72802,0.233433,1.12,0.2395,0.35209,0.13475
1702324826562500,-9.73002,0.235433,1.212,0.1615,0.40309,0.10475
1702324826570312,-9.72302,0.239433,0.99912,0.2075,0.40209,0.16875
1702324826578125,-9.72702,0.237433,1.912,0.1605,0.40109,0.16875
1702324826585937,-9.71602,0.239433,1.1812,0.2085,0.33509,0.15175
1702324826593750,-9.71002,0.237433,1.1512,0.1625,0.35009,0.11975
1702324826601562,-9.70502,0.237433,1.1512,0.2545,0.45309,0.13675
1702324826609375,-9.69802,0.237433,1.2212,0.2865,0.28609,0.15075
1702324826617187,-9.70902,0.248433,1.2412,0.2395,0.30509,0.11975
1702324826625000,-9.71802,0.248433,1.3112,0.2855,0.35709,0.13575
1702324826632812,-9.70502,0.248433,1.2412,0.2065,0.42109,0.15375
1702324826640625,-9.68202,0.251433,1.1712,0.1605,0.33809,0.13675
1702324826648437,-9.69102,0.235433,1.2412,0.1765,0.28909,0.15275
1702324826656250,-9.70702,0.246433,1.1512,0.2085,0.32209,0.13575
1702324826664062,-9.70502,0.244433,1.1812,0.1925,0.28609,0.15175
1702324826671875,-9.68202,0.242433,1.1812,0.2095,0.26809,0.13475
1702324826679687,-9.69202,0.231433,1.612,0.1935,0.26809,0.15075
1702324826687500,-9.72102,0.232433,0.99912,0.1765,0.25709,0.13575
1702324826695312,-9.73202,0.235433,0.99512,0.2245,0.15809,0.16675
1702324826703125,-9.71402,0.231433,1.612,0.1615,0.32009,0.15275
1702324826710937,-9.70702,0.226433,1.412,0.1765,0.33709,0.13575
1702324826718750,-9.72302,0.219433,1.1112,0.2695,0.30609,0.18375
1702324826726562,-9.71902,0.224433,1.912,0.2235,0.31709,0.18375
1702324826734375,-9.71002,0.217433,1.612,0.1765,0.31909,0.20075
1702324826742187,-9.70502,0.228433,1.2012,0.2215,0.29109,0.21675
1702324826750000,-9.68502,0.229433,1.1812,0.1775,0.26809,0.16775
1702324826757812,-9.69202,0.231433,1.2212,0.2245,0.28709,0.13575
1702324826765625,-9.69402,0.224433,1.3612,0.1935,0.26709,0.15075
1702324826773437,-9.71002,0.224433,1.3312,0.2085,0.27209,0.13575
1702324826781250,-9.71802,0.230433,1.2912,0.2695,0.22609,0.19975
1702324826789062,-9.70302,0.231433,1.1712,0.3035,0.22209,0.13375
1702324826796875,-9.69102,0.253433,1.1512,0.2405,0.18809,0.14975
1702324826804687,-9.70902,0.262433,1.2212,0.3505,0.20509,0.13275
1702324826812500,-9.69502,0.266433,1.1512,0.2085,0.22209,0.15075
1702324826820312,-9.70202,0.259433,1.1512,0.1755,0.26309,0.13775
1702324826828125,-9.70902,0.248433,1.1512,0.1605,0.22609,0.15275
1702324826835937,-9.70902,0.237433,1.12,0.1785,0.18809,0.13475
1702324826843750,-9.71402,0.228433,1.12,0.1765,0.33509,0.15175
1702324826851562,-9.72802,0.228433,0.98612,0.1615,0.27109,0.13575
1702324826859375,-9.72702,0.244433,0.98412,0.2405,0.30109,0.15075
1702324826867187,-9.72702,0.243433,0.98612,0.3025,0.25909,0.11875
1702324826875000,-9.72902,0.248433,0.98112,0.2865,0.28809,0.13475
1702324826882812,-9.72102,0.237433,0.98412,0.2705,0.37109,0.15175
1702324826890625,-9.70502,0.233433,0.99312,0.2225,0.43609,0.15275
1702324826898437,-9.69002,0.231433,1.412,0.2235,0.38009,0.18275
1702324826906250,-9.69802,0.229433,1.3312,0.2085,0.38309,0.13575
1702324826914062,-9.69602,0.231433,1.3812,0.2225,0.36909,0.18475
1702324826921875,-9.69602,0.224433,1.3512,0.2065,0.33809,0.18475
1702324826929687,-9.69902,0.220433,1.3612,0.1465,0.25309,0.13575
1702324826937500,-9.67602,0.229433,1.3612,0.2075,0.31909,0.21575
1702324826945312,-9.67802,0.228433,1.3812,0.2075,0.35809,0.12075
1702324826953125,-9.67802,0.231433,1.4212,0.1595,0.37009,0.20175
1702324826960937,-9.68902,0.227433,1.4012,0.1785,0.23709,0.11875
1702324826968750,-9.71202,0.240433,1.3612,0.1945,0.21809,0.13375
1702324826976562,-9.72502,0.237433,1.3812,0.1605,0.19309,0.15275
1702324826984375,-9.74102,0.248433,1.2912,0.2715,0.17609,0.13475
1702324826992187,-9.74002,0.265433,0.99312,0.2075,0.19409,0.15175
1702324827000000,-9.71302,0.291433,0.97512,0.1795,0.26909,0.3775
1702324827007812,-9.69802,0.284433,0.98612,0.2265,0.21809,0.10175
1702324827015625,-9.70402,0.275433,1.1512,0.1615,0.19209,0.15175
1702324827023437,-9.72902,0.259433,1.1512,0.1785,0.17009,0.13475
1702324827031250,-9.72002,0.237433,0.99312,0.1605,0.19309,0.15275
1702324827039062,-9.71802,0.233433,0.97512,0.1775,0.17509,0.13575
1702324827046875,-9.72302,0.228433,0.97012,0.1615,0.20509,0.15175
1702324827054687,-9.72802,0.226433,0.95912,0.1775,0.20709,0.13575
1702324827062500,-9.72102,0.212433,0.97012,0.2215,0.31209,0.15375
1702324827070312,-9.71202,0.219433,0.98112,0.2075,0.35609,0.13675
1702324827078125,-9.69802,0.219433,1.412,0.1905,0.37609,0.15375
1702324827085937,-9.69202,0.233433,1.2212,0.2555,0.31909,0.13475
1702324827093750,-9.69402,0.220433,1.2912,0.2085,0.20709,0.15175
1702324827101562,-9.71402,0.230433,1.2812,0.1765,0.18109,0.13675
1702324827109375,-9.71402,0.226433,1.1712,0.1915,0.20909,0.16875
1702324827117187,-9.71902,0.219433,1.2212,0.1775,0.19209,0.13575
1702324827125000,-9.72502,0.226433,1.1512,0.2235,0.24109,0.15175
1702324827132812,-9.71202,0.228433,1.3312,0.2385,0.19609,0.15175
1702324827140625,-9.71002,0.231433,1.2412,0.1465,0.18909,0.13575
1702324827148437,-9.71602,0.237433,1.2012,0.2085,0.17709,0.15175
1702324827156250,-9.72502,0.237433,1.2412,0.1615,0.22509,0.11975
1702324827164062,-9.72002,0.246433,1.812,0.1785,0.17609,0.10375
1702324827171875,-9.71602,0.248433,1.212,0.2405,0.25909,0.7075
1702324827179687,-9.73002,0.239433,0.99312,0.1935,0.24109,0.8775
1702324827187500,-9.70902,0.239433,0.99312,0.2075,0.27409,0.15175
1702324827195312,-9.71402,0.246433,1.412,0.1595,0.33909,0.16975
1702324827203125,-9.70002,0.232433,0.99712,0.2375,0.23409,0.13775
1702324827210937,-9.70002,0.237433,1.1312,0.2225,0.21209,0.15275
1702324827218750,-9.70202,0.232433,0.99512,0.1605,0.21209,0.13675
1702324827226562,-9.69402,0.228433,1.112,0.1595,0.29409,0.16975
1702324827234375,-9.70902,0.224433,0.99312,0.1755,0.22609,0.20075
1702324827242187,-9.71802,0.223433,0.99512,0.2215,0.22709,0.21675
1702324827250000,-9.73002,0.223433,0.99912,0.1595,0.27909,0.13775
1702324827257812,-9.72502,0.237433,0.99712,0.1755,0.34209,0.15375
1702324827265625,-9.72502,0.248433,1.212,0.1615,0.33709,0.13675
1702324827273437,-9.72302,0.243433,0.99912,0.1765,0.26109,0.12075
1702324827281250,-9.70702,0.244433,1.212,0.1925,0.30509,0.15175
1702324827289062,-9.71802,0.235433,1.1112,0.1765,0.32109,0.13675
1702324827296875,-9.71002,0.226433,1.1112,0.1935,0.28509,0.15075
1702324827304687,-9.72102,0.239433,1.612,0.2095,0.23709,0.13475
1702324827312500,-9.72702,0.250433,1.12,0.2395,0.30209,0.16675
1702324827320312,-9.73202,0.248433,1.212,0.2245,0.28609,0.15075
1702324827328125,-9.71202,0.240433,1.412,0.2725,0.29909,0.14975
1702324827335937,-9.70702,0.239433,0.99912,0.2235,0.35409,0.11975
1702324827343750,-9.69102,0.235433,0.99712,0.2875,0.25809,0.10275
1702324827351562,-9.69602,0.231433,0.99312,0.1615,0.23809,0.13575
1702324827359375,-9.71102,0.241433,0.99012,0.2555,0.22509,0.15175
1702324827367187,-9.72302,0.239433,1.12,0.2725,0.25409,0.11775
1702324827375000,-9.72302,0.237433,0.99012,0.2385,0.29409,0.13675
1702324827382812,-9.71202,0.226433,0.98412,0.2225,0.30909,0.15275
1702324827390625,-9.70902,0.226433,0.98412,0.2225,0.42209,0.13675
1702324827398437,-9.71402,0.221433,0.99012,0.2385,0.29109,0.15275
1702324827406250,-9.71002,0.213433,0.98612,0.2385,0.30909,0.13675
1702324827414062,-9.71402,0.221433,0.99512,0.2215,0.39109,0.15375
1702324827421875,-9.71202,0.215433,1.212,0.2545,0.35709,0.13675
1702324827429687,-9.70902,0.221433,0.99912,0.1745,0.34209,0.18575
1702324827437500,-9.71402,0.228433,0.99712,0.2055,0.35509,0.21775
1702324827445312,-9.72302,0.226433,1.212,0.2705,0.33709,0.13475
1702324827453125,-9.72802,0.217433,1.212,0.1925,0.30409,0.15175
1702324827460937,-9.72702,0.221433,1.412,0.1605,0.25909,0.13675
1702324827468750,-9.73002,0.226433,1.612,0.1765,0.28709,0.15175
1702324827476562,-9.71202,0.224433,1.1312,0.1915,0.34109,0.13675
1702324827484375,-9.71402,0.231433,1.1112,0.2085,0.33709,0.13575
1702324827492187,-9.71102,0.230433,1.112,0.2215,0.42509,0.15375
1702324827500000,-9.70902,0.241433,0.99912,0.2225,0.37309,0.13675
1702324827507812,-9.70902,0.244433,1.212,0.2065,0.42109,0.15375
1702324827515625,-9.71802,0.248433,0.99912,0.2075,0.42109,0.12075
1702324827523437,-9.72702,0.244433,0.99312,0.2875,0.40109,0.10275
1702324827531250,-9.72502,0.232433,0.99312,0.2375,0.48709,0.13675
1702324827539062,-9.71302,0.246433,0.99012,0.1895,0.45809,0.15475
1702324827546875,-9.70002,0.233433,0.98412,0.2225,0.45509,0.13775
1702324827554687,-9.70002,0.242433,0.99512,0.2375,0.43809,0.15275
1702324827562500,-9.70002,0.233433,1.812,0.1755,0.48409,0.13675
1702324827570312,-9.69402,0.229433,1.2012,0.1765,0.42009,0.13675
1702324827578125,-9.70302,0.231433,1.1712,0.1605,0.42009,0.15375
1702324827585937,-9.71002,0.231433,1.2412,0.1765,0.38609,0.13675
1702324827593750,-9.72102,0.228433,1.1712,0.1445,0.40209,0.15275
1702324827601562,-9.71402,0.230433,1.2012,0.2225,0.43809,0.13675
1702324827609375,-9.71402,0.233433,1.1312,0.2545,0.40109,0.15175
1702324827617187,-9.71802,0.228433,1.1712,0.1915,0.35709,0.13675
1702324827625000,-9.71202,0.230433,1.2912,0.2225,0.34109,0.15275
1702324827632812,-9.70502,0.224433,1.2612,0.1615,0.30409,0.11975
1702324827640625,-9.71002,0.231433,1.1812,0.2415,0.31809,0.6975
1702324827648437,-9.71402,0.224433,0.99712,0.1615,0.37109,0.8875
1702324827656250,-9.72802,0.215433,0.98812,0.1775,0.35009,0.13575
1702324827664062,-9.72102,0.208433,0.98412,0.2245,0.35009,0.11875
1702324827671875,-9.72302,0.201433,0.98112,0.2685,0.42409,0.15275
1702324827679687,-9.71202,0.217433,0.99912,0.2865,0.35409,0.13575
1702324827687500,-9.71002,0.222433,1.212,0.1615,0.43609,0.7275
1702324827695312,-9.71202,0.228433,1.212,0.2705,0.41909,0.11975
1702324827703125,-9.70302,0.226433,1.612,0.2395,0.43509,0.11975
1702324827710937,-9.69202,0.217433,1.1512,0.3025,0.45309,0.7175
1702324827718750,-9.70802,0.218433,1.2012,0.2105,0.39709,0.8675
1702324827726562,-9.72502,0.231433,1.1812,0.1775,0.36409,0.15075
1702324827734375,-9.73902,0.230433,1.4012,0.1765,0.46809,0.8875
1702324827742187,-9.74802,0.232433,1.4012,0.2555,0.43409,0.10375
1702324827750000,-9.73702,0.206433,1.2512,0.1945,0.41009,0.11875
1702324827757812,-9.70602,0.197433,1.2012,0.2095,0.45209,0.5575
1702324827765625,-9.66702,0.191433,1.812,0.2245,0.42009,0.5575
1702324827773437,-9.64702,0.207433,1.3112,0.2395,0.30809,0.10375
1702324827781250,-9.66502,0.234433,1.5412,0.2245,0.38309,0.13575
1702324827789062,-9.70302,0.240433,1.5112,0.1915,0.43509,0.15275
1702324827796875,-9.75302,0.233433,1.7412,0.2265,0.29609,0.13375
1702324827804687,-9.75902,0.248433,1.4912,0.1935,0.21909,0.18275
1702324827812500,-9.74302,0.274433,0.97912,0.1615,0.28909,0.11975
1702324827820312,-9.70002,0.270433,0.96312,0.1775,0.24109,0.11975
1702324827828125,-9.68902,0.258433,1.612,0.1945,0.30009,0.8575
1702324827835937,-9.73202,0.246433,1.1812,0.1775,0.35209,0.10375
1702324827843750,-9.74602,0.235433,1.4212,0.2095,0.30109,0.13475
1702324827851562,-9.70302,0.222433,1.4712,0.1465,0.31609,0.15175
1702324827859375,-9.67402,0.222433,1.1812,0.2245,0.28509,0.13475
1702324827867187,-9.66002,0.232433,1.1812,0.2415,0.25109,0.13375
1702324827875000,-9.68702,0.231433,1.1512,0.1475,0.18509,0.15075
1702324827882812,-9.69402,0.225433,1.2412,0.1935,0.18409,0.18175
1702324827890625,-9.69402,0.218433,1.2212,0.1795,0.18109,0.13275
1702324827898437,-9.68902,0.236433,1.2412,0.2105,0.16709,0.14975
1702324827906250,-9.68502,0.226433,1.3512,0.2875,0.19109,0.10175
1702324827914062,-9.71002,0.208433,1.2912,0.2245,0.23709,0.16675
1702324827921875,-9.71702,0.211433,1.2912,0.2725,0.21909,0.13375
1702324827929687,-9.71402,0.213433,1.3112,0.2715,0.18809,0.16575
1702324827937500,-9.72402,0.218433,1.3612,0.2265,0.16609,0.13275
1702324827945312,-9.73202,0.215433,1.3312,0.2565,0.18709,0.14975
1702324827953125,-9.73302,0.204433,1.2212,0.1965,0.16909,0.5275
1702324827960937,-9.71202,0.197433,1.1512,0.1625,0.19109,0.10275
1702324827968750,-9.71002,0.197433,1.2012,0.2105,0.17209,0.10175
1702324827976562,-9.71902,0.201433,1.1512,0.2395,0.21109,0.13575
1702324827984375,-9.72802,0.206433,1.612,0.1635,0.20209,0.11775
1702324827992187,-9.72602,0.202433,1.12,0.1795,0.19909,0.13375
1702324828000000,-9.70602,0.204433,1.212,0.1625,0.17009,0.15075
1702324828007812,-9.68602,0.198433,1.412,0.1805,0.16309,0.13275
1702324828015625,-9.69002,0.189433,1.612,0.1785,0.18609,0.15075
1702324828023437,-9.68102,0.180433,1.2412,0.1635,0.15209,0.11775
1702324828031250,-9.68302,0.198433,1.3612,0.2565,0.10209,0.19675
1702324828039062,-9.68502,0.196433,1.4212,0.2725,0.7309,0.18175
1702324828046875,-9.67202,0.194433,1.2712,0.1785,0.5709,0.18275
1702324828054687,-9.67202,0.202433,1.812,0.1775,0.10809,0.18375
1702324828062500,-9.69202,0.209433,0.99712,0.1635,0.4009,0.14975
1702324828070312,-9.73202,0.228433,1.1312,0.1785,0.9009,0.14975
1702324828078125,-9.75202,0.230433,1.1512,0.1635,0.13609,0.11775
1702324828085937,-9.75002,0.230433,1.212,0.1785,0.18509,0.13375
1702324828093750,-9.74802,0.228433,0.98412,0.1935,0.17709,0.10375
1702324828101562,-9.74602,0.228433,0.95912,0.1805,0.18809,0.3775
1702324828109375,-9.75202,0.228433,0.95712,0.1955,0.17209,0.6975
1702324828117187,-9.76102,0.241433,0.95412,0.1605,0.21109,0.15275
1702324828125000,-9.76302,0.247433,0.93212,0.2075,0.26009,0.12075
1702324828132812,-9.76302,0.245433,0.91612,0.1935,0.24009,0.11975
1702324828140625,-9.75002,0.248433,0.89412,0.1615,0.32009,0.15275
1702324828148437,-9.72702,0.248433,0.89612,0.1625,0.30209,0.11975
1702324828156250,-9.71402,0.248433,0.91412,0.1755,0.40709,0.10575
1702324828164062,-9.70702,0.235433,0.92312,0.2085,0.36809,0.15175
1702324828171875,-9.72702,0.241433,0.93012,0.1445,0.43509,0.13675
1702324828179687,-9.71602,0.246433,0.92712,0.2225,0.45109,0.15275
1702324828187500,-9.72702,0.230433,0.93412,0.2225,0.43609,0.15275
1702324828195312,-9.73702,0.230433,0.94512,0.1595,0.56609,0.13775
1702324828203125,-9.74602,0.224433,0.97012,0.2075,0.49809,0.15275
1702324828210937,-9.73502,0.202433,1.612,0.1605,0.52909,0.13675
1702324828218750,-9.72302,0.206433,1.2012,0.1745,0.56609,0.18675
1702324828226562,-9.71202,0.200433,1.3112,0.1605,0.51709,0.12175
1702324828234375,-9.70502,0.206433,1.4012,0.1765,0.48309,0.10475
1702324828242187,-9.70602,0.200433,1.4212,0.1765,0.43509,0.10475
1702324828250000,-9.69702,0.196433,1.5112,0.1625,0.39709,0.13575
1702324828257812,-9.71002,0.188433,1.4712,0.1755,0.42409,0.13775
1702324828265625,-9.71302,0.186433,1.3312,0.1915,0.45009,0.15275
1702324828273437,-9.71002,0.193433,1.2212,0.1615,0.45309,0.8875
1702324828281250,-9.70802,0.209433,1.1312,0.1785,0.43409,0.3975
1702324828289062,-9.69502,0.191433,1.912,0.2095,0.43209,0.8775
1702324828296875,-9.69702,0.193433,1.412,0.2105,0.34809,0.6975
1702324828304687,-9.71902,0.200433,1.12,0.2575,0.35109,0.6975
1702324828312500,-9.71302,0.193433,0.98612,0.1625,0.31309,0.15075
1702324828320312,-9.71002,0.191433,0.97012,0.1785,0.36509,0.8675
1702324828328125,-9.70602,0.180433,0.99012,0.1925,0.42009,0.10475
1702324828335937,-9.71102,0.175433,0.98612,0.1775,0.38209,0.13575
1702324828343750,-9.70602,0.187433,0.98212,0.2085,0.39809,0.15175
1702324828351562,-9.71302,0.184433,1.12,0.1925,0.38309,0.13575
1702324828359375,-9.70402,0.193433,0.99112,0.1615,0.44709,0.15275
1702324828367187,-9.69002,0.196433,0.99712,0.1615,0.42809,0.16775
1702324828375000,-9.70802,0.193433,1.612,0.1915,0.45009,0.15275
1702324828382812,-9.70802,0.204433,1.2612,0.3155,0.45309,0.18475
1702324828390625,-9.69702,0.198433,1.3112,0.2705,0.43209,0.13475
1702324828398437,-9.69202,0.213433,1.3812,0.2075,0.45109,0.15275
1702324828406250,-9.69202,0.229433,1.3812,0.1755,0.40109,0.18475
1702324828414062,-9.69202,0.224433,1.3312,0.2395,0.36809,0.16775
1702324828421875,-9.69202,0.198433,1.4712,0.1765,0.38409,0.13575
1702324828429687,-9.69402,0.211433,1.3112,0.1785,0.26609,0.15075
1702324828437500,-9.67602,0.223433,1.2012,0.1635,0.27909,0.14975
1702324828445312,-9.66002,0.218433,1.3112,0.1785,0.21909,0.15075
1702324828453125,-9.69202,0.227433,1.4912,0.1625,0.14909,0.21375
1702324828460937,-9.72802,0.228433,1.5112,0.1625,0.21809,0.18275
1702324828468750,-9.73202,0.239433,1.3112,0.1615,0.14009,0.18375
1702324828476562,-9.74302,0.250433,1.2712,0.1625,0.2009,0.22975
1702324828484375,-9.74102,0.268433,0.99312,0.1635,0.10209,0.18175
1702324828492187,-9.73402,0.266433,0.94812,0.1635,0.21709,0.13375
1702324828500000,-9.71202,0.242433,0.94112,0.1635,0.20009,0.11775
1702324828507812,-9.70302,0.220433,0.97712,0.1625,0.21609,0.16675
1702324828515625,-9.71002,0.195433,0.99512,0.1615,0.18809,0.16675
1702324828523437,-9.73102,0.179433,0.98612,0.1765,0.17209,0.21575
1702324828531250,-9.71702,0.173433,0.96412,0.1605,0.21609,0.27975
1702324828539062,-9.69902,0.176433,0.95912,0.1765,0.15309,0.23075
1702324828546875,-9.69702,0.187433,0.95012,0.1925,0.13409,0.24675
1702324828554687,-9.72202,0.186433,0.95912,0.1605,0.18509,0.24775
1702324828562500,-9.71302,0.196433,0.98012,0.1625,0.24509,0.21375
1702324828570312,-9.69902,0.191433,0.99712,0.1765,0.20309,0.23175
1702324828578125,-9.69502,0.185433,1.612,0.1465,0.26509,0.18275
1702324828585937,-9.70102,0.193433,1.2212,0.1615,0.25209,0.16775
1702324828593750,-9.69902,0.191433,1.2212,0.1755,0.30309,0.21675
1702324828601562,-9.71002,0.195433,1.2912,0.1615,0.20309,0.19975
1702324828609375,-9.70802,0.202433,1.3112,0.1765,0.22209,0.19975
1702324828617187,-9.70602,0.200433,1.4012,0.1625,0.15409,0.18275
1702324828625000,-9.69002,0.215433,1.4012,0.1615,0.17309,0.16775
1702324828632812,-9.70802,0.222433,1.3812,0.1635,0.18509,0.13375
1702324828640625,-9.71002,0.220433,1.2012,0.1625,0.18509,0.18275
1702324828648437,-9.72102,0.242433,1.912,0.1645,0.16709,0.11775
1702324828656250,-9.72702,0.241433,0.99312,0.1615,0.18909,0.16775
1702324828664062,-9.73202,0.224433,0.98412,0.1635,0.17009,0.10175
1702324828671875,-9.72602,0.222433,0.97912,0.1625,0.21509,0.21475
1702324828679687,-9.72602,0.220433,0.95912,0.1615,0.21609,0.21475
1702324828687500,-9.71502,0.211433,0.96412,0.1615,0.15209,0.23075
1702324828695312,-9.70302,0.213433,0.96112,0.1615,0.15309,0.23175
1702324828703125,-9.70102,0.211433,0.96412,0.1625,0.16909,0.19875
1702324828710937,-9.71302,0.198433,0.95712,0.1625,0.19609,0.21375
1702324828718750,-9.70802,0.198433,0.96612,0.1635,0.18009,0.18175
1702324828726562,-9.71902,0.202433,0.96812,0.1615,0.20109,0.19875
1702324828734375,-9.74002,0.206433,0.97112,0.1635,0.18009,0.19775
1702324828742187,-9.75002,0.213433,0.95512,0.1625,0.16909,0.19875
1702324828750000,-9.75302,0.224433,0.95512,0.1615,0.18509,0.19875
1702324828757812,-9.74102,0.206433,0.97012,0.1785,0.15509,0.15075
1702324828765625,-9.72602,0.213433,0.98012,0.1625,0.27809,0.18175
1702324828773437,-9.71402,0.229433,0.98612,0.1785,0.27809,0.18175
1702324828781250,-9.72102,0.224433,0.98412,0.1625,0.26609,0.16675
1702324828789062,-9.72802,0.229433,0.98612,0.1785,0.32709,0.18275
1702324828796875,-9.71202,0.224433,0.99712,0.1465,0.31309,0.19975
1702324828804687,-9.71402,0.224433,0.98412,0.1615,0.26509,0.19875
1702324828812500,-9.71002,0.218433,0.98612,0.1625,0.24609,0.19875
1702324828820312,-9.71202,0.231433,0.97312,0.2095,0.23309,0.16575
1702324828828125,-9.70802,0.222433,0.97912,0.2095,0.23409,0.16675
1702324828835937,-9.71702,0.220433,0.97912,0.1615,0.30009,0.18375
1702324828843750,-9.71402,0.231433,0.97712,0.1775,0.23009,0.23075
1702324828851562,-9.71502,0.222433,0.97012,0.1625,0.24609,0.19875
1702324828859375,-9.71902,0.226433,0.97512,0.2085,0.25009,0.19875
1702324828867187,-9.72602,0.229433,0.96412,0.2405,0.24809,0.18175
1702324828875000,-9.73002,0.228433,0.96412,0.1625,0.20109,0.16675
1702324828882812,-9.72802,0.226433,0.96812,0.1785,0.20309,0.15075
1702324828890625,-9.73002,0.224433,0.97212,0.1605,0.25409,0.20075
1702324828898437,-9.72802,0.202433,0.95912,0.1775,0.27009,0.16775
1702324828906250,-9.72502,0.217433,0.95912,0.1615,0.22309,0.16775
1702324828914062,-9.73302,0.213433,0.95212,0.1635,0.20009,0.14975
1702324828921875,-9.73402,0.231433,0.96112,0.1625,0.28209,0.13475
1702324828929687,-9.70802,0.222433,0.95512,0.1785,0.20109,0.15075
1702324828937500,-9.71902,0.224433,0.96112,0.1605,0.28709,0.16875
1702324828945312,-9.72302,0.204433,0.94812,0.1775,0.23809,0.13575
1702324828953125,-9.72602,0.217433,0.96412,0.1635,0.20209,0.13475
1702324828960937,-9.73202,0.228433,0.94812,0.1775,0.30009,0.15075
1702324828968750,-9.73002,0.231433,0.95712,0.1935,0.31609,0.16675
1702324828976562,-9.73002,0.226433,0.97312,0.2085,0.26809,0.19975
1702324828984375,-9.73702,0.219433,0.98412,0.2405,0.20309,0.18275
1702324828992187,-9.72802,0.228433,0.97312,0.1785,0.28209,0.13475
1702324829000000,-9.70102,0.229433,0.98412,0.1775,0.27009,0.15175
1702324829007812,-9.70502,0.231433,0.97712,0.1625,0.33009,0.15075
1702324829015625,-9.71202,0.229433,0.97712,0.1785,0.21609,0.18275
1702324829023437,-9.72102,0.228433,0.97312,0.2395,0.28309,0.19875
1702324829031250,-9.72302,0.230433,0.96312,0.1925,0.32009,0.15175
1702324829039062,-9.73002,0.228433,0.96612,0.1625,0.30109,0.11875
1702324829046875,-9.72802,0.228433,0.95712,0.1775,0.34909,0.13575
1702324829054687,-9.73402,0.230433,0.94812,0.1925,0.31909,0.18375
1702324829062500,-9.71602,0.238433,0.96812,0.1625,0.34809,0.13475
1702324829070312,-9.70702,0.228433,0.97012,0.1605,0.42009,0.10475
1702324829078125,-9.71602,0.233433,0.97712,0.1775,0.39909,0.13575
1702324829085937,-9.70702,0.231433,0.98412,0.1935,0.33409,0.13575
1702324829093750,-9.71202,0.215433,0.98412,0.1775,0.30109,0.16775
1702324829101562,-9.70802,0.220433,0.99112,0.2085,0.23709,0.15075
1702324829109375,-9.70702,0.228433,0.99512,0.2255,0.17309,0.13475
1702324829117187,-9.71002,0.224433,1.912,0.2255,0.21709,0.14975
1702324829125000,-9.71702,0.207433,1.612,0.2265,0.24809,0.13375
1702324829132812,-9.70602,0.211433,0.99312,0.1925,0.30009,0.18275
1702324829140625,-9.68302,0.214433,0.99312,0.1615,0.29809,0.18275
1702324829148437,-9.68702,0.211433,0.99312,0.1785,0.26809,0.13475
1702324829156250,-9.68102,0.218433,0.99312,0.1955,0.24509,0.11675
1702324829164062,-9.70502,0.231433,0.97712,0.1925,0.30509,0.13575
1702324829171875,-9.71402,0.215433,0.99312,0.2095,0.18509,0.14975
1702324829179687,-9.73702,0.219433,0.99312,0.1315,0.25209,0.13575
1702324829187500,-9.75702,0.246433,0.96412,0.1625,0.23609,0.15075
1702324829195312,-9.72702,0.262433,0.92512,0.1625,0.31809,0.11975
1702324829203125,-9.71402,0.264433,0.92712,0.1615,0.33709,0.13675
1702324829210937,-9.70002,0.271433,0.96812,0.1615,0.35209,0.13575
1702324829218750,-9.72302,0.252433,0.98612,0.1755,0.38709,0.15275
1702324829226562,-9.70902,0.244433,0.98612,0.1625,0.27109,0.11975
1702324829234375,-9.70502,0.231433,0.97912,0.1785,0.26709,0.13475
1702324829242187,-9.72802,0.228433,0.97212,0.1925,0.30209,0.15175
1702324829250000,-9.72702,0.239433,0.95912,0.1625,0.25209,0.13475
1702324829257812,-9.72502,0.224433,0.94512,0.1765,0.29009,0.15275
1702324829265625,-9.72102,0.208433,0.96312,0.1585,0.42609,0.13875
1702324829273437,-9.70502,0.215433,0.98612,0.1605,0.36809,0.16875
1702324829281250,-9.67602,0.200433,0.98812,0.1755,0.30209,0.21675
1702324829289062,-9.67402,0.211433,0.99512,0.2535,0.39909,0.23175
1702324829296875,-9.69202,0.207433,0.99512,0.1625,0.29809,0.15075
1702324829304687,-9.71002,0.217433,1.412,0.1765,0.30209,0.19975
1702324829312500,-9.72802,0.212433,0.98412,0.1605,0.33809,0.16875
1702324829320312,-9.72102,0.208433,0.98812,0.1755,0.29009,0.16875
1702324829328125,-9.71002,0.231433,0.98612,0.2075,0.23809,0.21575
1702324829335937,-9.71002,0.211433,0.98812,0.1765,0.25309,0.18375
1702324829343750,-9.71002,0.219433,0.99912,0.2065,0.28809,0.21675
1702324829351562,-9.71002,0.224433,0.97712,0.2405,0.22109,0.13475
1702324829359375,-9.70902,0.235433,0.97012,0.1605,0.30409,0.18475
1702324829367187,-9.72302,0.230433,0.97712,0.1765,0.27109,0.16775
1702324829375000,-9.72502,0.237433,0.96112,0.1605,0.19609,0.13675
1702324829382812,-9.72502,0.226433,0.96312,0.1605,0.32109,0.15275
1702324829390625,-9.71702,0.229433,0.95912,0.1785,0.23309,0.16675
1702324829398437,-9.70302,0.231433,0.96312,0.1925,0.32009,0.13575
1702324829406250,-9.71702,0.229433,0.95212,0.1605,0.31409,0.24775
1702324829414062,-9.71002,0.229433,0.97012,0.1785,0.30009,0.13475
1702324829421875,-9.70502,0.231433,0.97012,0.2255,0.28209,0.14975
1702324829429687,-9.71002,0.229433,0.95512,0.1755,0.34809,0.26475
1702324829437500,-9.71002,0.227433,0.96112,0.1625,0.34809,0.13475
1702324829445312,-9.71202,0.229433,0.96812,0.1605,0.36509,0.23275
1702324829453125,-9.73202,0.224433,0.95212,0.1765,0.34909,0.21575
1702324829460937,-9.73902,0.231433,0.95212,0.1615,0.42809,0.18375
1702324829468750,-9.72102,0.228433,0.95912,0.1595,0.31809,0.24875
1702324829476562,-9.71902,0.231433,0.96112,0.1775,0.33409,0.13575
1702324829484375,-9.73002,0.229433,0.96812,0.1635,0.24809,0.14975
1702324829492187,-9.73202,0.228433,0.97912,0.1775,0.34809,0.15075
1702324829500000,-9.70502,0.231433,0.98212,0.1445,0.38309,0.18475
1702324829507812,-9.70702,0.228433,0.97212,0.1615,0.30409,0.11975
1702324829515625,-9.75002,0.246433,0.97712,0.1775,0.18809,0.18275
1702324829523437,-9.72502,0.246433,0.96612,0.1915,0.30809,0.16875
1702324829531250,-9.69102,0.237433,0.97712,0.1615,0.20709,0.16775
1702324829539062,-9.73002,0.237433,0.96612,0.1775,0.20309,0.19875
1702324829546875,-9.70902,0.246433,0.95512,0.1925,0.18609,0.21475
1702324829554687,-9.69202,0.240433,0.96812,0.1625,0.24909,0.18275
1702324829562500,-9.71002,0.233433,0.95512,0.1775,0.18309,0.23075
1702324829570312,-9.72502,0.233433,0.95212,0.2095,0.20309,0.15075
1702324829578125,-9.71902,0.231433,0.93712,0.1935,0.28109,0.18275
1702324829585937,-9.73202,0.237433,0.92712,0.1625,0.25309,0.11875
1702324829593750,-9.73402,0.239433,0.95212,0.1775,0.28509,0.15175
1702324829601562,-9.72802,0.224433,0.95712,0.1935,0.30009,0.16675
1702324829609375,-9.73002,0.235433,0.95912,0.1765,0.34909,0.21575
1702324829617187,-9.72802,0.220433,0.96412,0.2245,0.28309,0.16675
1702324829625000,-9.73002,0.219433,0.96812,0.1625,0.26809,0.15175
1702324829632812,-9.73502,0.217433,0.95412,0.1775,0.31909,0.11975
1702324829640625,-9.72802,0.217433,0.95412,0.1615,0.25709,0.13675
1702324829648437,-9.71202,0.206433,0.96612,0.1775,0.22209,0.15175
1702324829656250,-9.71002,0.209433,0.96612,0.1615,0.30109,0.15175
1702324829664062,-9.72502,0.221433,0.96312,0.1745,0.32409,0.20175
1702324829671875,-9.72802,0.206433,0.97012,0.1605,0.35309,0.15275
1702324829679687,-9.72102,0.221433,0.96612,0.1605,0.32109,0.16875
1702324829687500,-9.71002,0.226433,0.94812,0.1785,0.25109,0.13475
1702324829695312,-9.70102,0.226433,0.94112,0.1615,0.25509,0.15175
1702324829703125,-9.72302,0.241433,0.93212,0.1765,0.30509,0.15275
1702324829710937,-9.73002,0.246433,0.94312,0.1915,0.27109,0.23275
1702324829718750,-9.73702,0.233433,0.95712,0.1765,0.23709,0.19975
1702324829726562,-9.74102,0.215433,0.94512,0.1305,0.27009,0.15175
1702324829734375,-9.74802,0.208433,0.92712,0.1625,0.22009,0.15175
1702324829742187,-9.74202,0.208433,0.92812,0.515,0.36409,0.16875
1702324829750000,-9.72102,0.219433,0.93212,0.1445,0.41709,0.16875
1702324829757812,-9.73002,0.235433,0.95012,0.1745,0.43009,0.24875
1702324829765625,-9.71602,0.247433,0.96112,0.1615,0.44309,0.16775
1702324829773437,-9.70702,0.242433,0.94812,0.1755,0.43509,0.15275
1702324829781250,-9.71002,0.229433,0.96112,0.2075,0.36609,0.18375
1702324829789062,-9.73002,0.224433,0.95912,0.3015,0.41609,0.16675
1702324829796875,-9.70802,0.220433,0.97012,0.2555,0.39809,0.16675
1702324829804687,-9.70502,0.222433,0.98812,0.1905,0.41709,0.21675
1702324829812500,-9.72502,0.231433,0.98212,0.2405,0.30109,0.13475
1702324829820312,-9.73402,0.219433,0.97212,0.1905,0.33509,0.23275
1702324829828125,-9.70802,0.206433,0.96312,0.1925,0.46809,0.12075
1702324829835937,-9.67402,0.200433,0.97312,0.1625,0.41409,0.11975
1702324829843750,-9.67602,0.207433,1.12,0.1775,0.41609,0.13575
1702324829851562,-9.68502,0.216433,1.412,0.1615,0.36709,0.13575
1702324829859375,-9.69202,0.211433,0.99512,0.1775,0.30009,0.18375
1702324829867187,-9.69202,0.218433,0.98612,0.1615,0.33109,0.19975
1702324829875000,-9.72302,0.224433,1.212,0.1615,0.22009,0.16775
1702324829882812,-9.73002,0.226433,0.97912,0.1625,0.26809,0.15175
1702324829890625,-9.72702,0.246433,0.94312,0.1615,0.31909,0.13575
1702324829898437,-9.73402,0.253433,0.92712,0.1775,0.25209,0.15075
1702324829906250,-9.71602,0.264433,0.95212,0.1625,0.30109,0.13575
1702324829914062,-9.70302,0.246433,0.97912,0.1775,0.27109,0.15175
1702324829921875,-9.70702,0.233433,0.98212,0.1935,0.18609,0.16675
1702324829929687,-9.70502,0.226433,0.96812,0.1775,0.24009,0.13575
1702324829937500,-9.70802,0.206433,0.95712,0.2095,0.17209,0.13375
1702324829945312,-9.70302,0.202433,0.95012,0.1625,0.20609,0.11875
1702324829953125,-9.72602,0.197433,0.95212,0.1775,0.22209,0.15175
1702324829960937,-9.75102,0.208433,0.95212,0.1635,0.18509,0.13375
1702324829968750,-9.72802,0.197433,0.94812,0.1765,0.32009,0.15175
1702324829976562,-9.70802,0.193433,0.95912,0.1635,0.28109,0.11775
1702324829984375,-9.69002,0.198433,0.97212,0.1785,0.20409,0.10275
1702324829992187,-9.70602,0.197433,0.96112,0.1615,0.23809,0.15175
1702324830000000,-9.72302,0.211433,0.96812,0.1935,0.20409,0.13475
1702324830007812,-9.73702,0.213433,0.96412,0.1765,0.20009,0.24675
1702324830015625,-9.75702,0.214433,0.95912,0.1615,0.20709,0.16775
1702324830023437,-9.74802,0.199433,0.95912,0.1785,0.20109,0.15075
1702324830031250,-9.73902,0.206433,0.95912,0.1935,0.26809,0.16675
1702324830039062,-9.71002,0.211433,0.96112,0.1615,0.24009,0.13575
1702324830046875,-9.69602,0.213433,0.97012,0.1465,0.23609,0.13475
1702324830054687,-9.71702,0.217433,0.97012,0.1615,0.27009,0.15175
1702324830062500,-9.71202,0.213433,0.95912,0.1785,0.18509,0.16675
1702324830070312,-9.72302,0.215433,0.96112,0.1625,0.22109,0.13475
1702324830078125,-9.73202,0.224433,0.95012,0.1775,0.23809,0.15175
1702324830085937,-9.74602,0.210433,0.95012,0.1755,0.30809,0.16975
1702324830093750,-9.73702,0.230433,0.94812,0.1615,0.31609,0.18375
1702324830101562,-9.71402,0.213433,0.94512,0.1765,0.32009,0.15175
1702324830109375,-9.69402,0.209433,0.93012,0.1615,0.31709,0.15175
1702324830117187,-9.69902,0.209433,0.94612,0.2105,0.21709,0.13375
1702324830125000,-9.71902,0.209433,0.95512,0.2405,0.29809,0.16575
1702324830132812,-9.74602,0.195433,0.95012,0.1625,0.23309,0.15075
1702324830140625,-9.74802,0.211433,0.96212,0.1795,0.31109,0.14975
1702324830148437,-9.73702,0.224433,0.94812,0.1785,0.23709,0.11875
1702324830156250,-9.72502,0.222433,0.93612,0.1925,0.28709,0.13575
1702324830164062,-9.73402,0.228433,0.94312,0.1935,0.28509,0.13475
1702324830171875,-9.74102,0.219433,0.95412,0.1785,0.27309,0.8775
1702324830179687,-9.73502,0.217433,0.95912,0.1945,0.36409,0.11875
1702324830187500,-9.72802,0.228433,0.94612,0.1775,0.41609,0.11975
1702324830195312,-9.71402,0.222433,0.92812,0.1625,0.41309,0.11975
1702324830203125,-9.73202,0.224433,0.91412,0.2085,0.39709,0.16775
1702324830210937,-9.74602,0.230433,0.92112,0.1755,0.43009,0.21675
1702324830218750,-9.74402,0.221433,0.93412,0.2075,0.44709,0.16775
1702324830226562,-9.72802,0.228433,0.95012,0.2395,0.43409,0.13575
1702324830234375,-9.72802,0.228433,0.94612,0.1455,0.44709,0.16875
1702324830242187,-9.71702,0.229433,0.95012,0.1925,0.42909,0.18375
1702324830250000,-9.71902,0.231433,0.94812,0.2235,0.44709,0.18375
1702324830257812,-9.72102,0.228433,0.95012,0.2235,0.41409,0.18375
1702324830265625,-9.73202,0.230433,0.94612,0.1915,0.43209,0.18475
1702324830273437,-9.73202,0.219433,0.94612,0.1755,0.43209,0.18475
1702324830281250,-9.73002,0.210433,0.94312,0.2225,0.41709,0.20075
1702324830289062,-9.72102,0.213433,0.94612,0.1595,0.49709,0.21775
1702324830296875,-9.71202,0.213433,0.96312,0.1745,0.45109,0.21775
1702324830304687,-9.72802,0.217433,0.97512,0.1615,0.41209,0.16775
1702324830312500,-9.71202,0.208433,0.97012,0.2075,0.43509,0.15275
1702324830320312,-9.70102,0.209433,0.97312,0.2245,0.43109,0.13575
1702324830328125,-9.72602,0.211433,0.96312,0.1605,0.38409,0.15275
1702324830335937,-9.72302,0.215433,0.96112,0.1775,0.48409,0.7275
1702324830343750,-9.68702,0.211433,0.96812,0.1895,0.43409,0.23375
1702324830351562,-9.68102,0.202433,0.99012,0.2225,0.48409,0.16875
1702324830359375,-9.72602,0.210433,0.99012,0.1765,0.41809,0.13675
1702324830367187,-9.75902,0.230433,0.98112,0.1925,0.38709,0.12075
1702324830375000,-9.72102,0.227433,0.95912,0.1785,0.34509,0.13375
1702324830382812,-9.71202,0.217433,0.95012,0.1905,0.43609,0.18575
1702324830390625,-9.74102,0.219433,0.94612,0.2095,0.36509,0.13475
1702324830398437,-9.74802,0.237433,0.95712,0.3025,0.41509,0.15075
1702324830406250,-9.68702,0.224433,0.97012,0.1765,0.43509,0.13675
1702324830414062,-9.63602,0.223433,0.98612,0.1755,0.44709,0.21675
1702324830421875,-9.66702,0.240433,1.612,0.1915,0.38309,0.21675
1702324830429687,-9.72102,0.244433,1.1112,0.1605,0.32009,0.16875
1702324830437500,-9.72102,0.255433,1.12,0.2095,0.31609,0.13475
1702324830445312,-9.71002,0.229433,0.97912,0.1465,0.31609,0.15175
1702324830453125,-9.71402,0.231433,0.96612,0.2405,0.28609,0.13475
1702324830460937,-9.72502,0.235433,0.96612,0.2245,0.36309,0.16675
1702324830468750,-9.73502,0.217433,0.97912,0.2405,0.38009,0.15075
1702324830476562,-9.71202,0.215433,0.98612,0.2235,0.43109,0.15175
1702324830484375,-9.68902,0.222433,0.99712,0.2055,0.38809,0.23375
1702324830492187,-9.70302,0.228433,0.98812,0.1925,0.36909,0.13575
1702324830500000,-9.71202,0.231433,0.98212,0.2725,0.23609,0.13375
1702324830507812,-9.71902,0.219433,0.97712,0.2075,0.32009,0.16775
1702324830515625,-9.70802,0.198433,0.96812,0.3025,0.41209,0.16575
1702324830523437,-9.69702,0.207433,0.96612,0.2705,0.39909,0.16675
1702324830531250,-9.72102,0.215433,0.98412,0.2095,0.36109,0.18275
1702324830539062,-9.72302,0.233433,1.12,0.1615,0.34709,0.18375
1702324830546875,-9.72102,0.231433,1.12,0.2395,0.33309,0.16675
1702324830554687,-9.72102,0.206433,0.99112,0.1625,0.28109,0.16675
1702324830562500,-9.72802,0.202433,0.98212,0.1785,0.33009,0.13475
1702324830570312,-9.70302,0.198433,0.97512,0.2075,0.41709,0.16875
1702324830578125,-9.67602,0.194433,0.98212,0.1915,0.40109,0.16875
1702324830585937,-9.67402,0.198433,1.912,0.1775,0.39509,0.18375
1702324830593750,-9.69202,0.218433,1.12,0.2875,0.24809,0.21375
1702324830601562,-9.72802,0.235433,1.2912,0.1935,0.28309,0.15075
1702324830609375,-9.75202,0.237433,1.2412,0.1935,0.31609,0.15075
1702324830617187,-9.74102,0.248433,0.98812,0.1625,0.28209,0.13475
1702324830625000,-9.71802,0.261433,0.93612,0.1775,0.24009,0.11975
1702324830632812,-9.70002,0.278433,0.92112,0.1615,0.30109,0.15175
1702324830640625,-9.72002,0.266433,0.94312,0.1935,0.26809,0.13475
1702324830648437,-9.76502,0.245433,0.96112,0.2235,0.32209,0.13575
1702324830656250,-9.74102,0.228433,0.95912,0.1935,0.36509,0.15175
1702324830664062,-9.71002,0.215433,0.95712,0.3195,0.23609,0.13275
1702324830671875,-9.71002,0.211433,0.94112,0.2095,0.21509,0.18175
1702324830679687,-9.69002,0.214433,0.92812,0.2405,0.29809,0.18275
1702324830687500,-9.67002,0.216433,0.95912,0.2415,0.28209,0.13375
1702324830695312,-9.69002,0.205433,0.97512,0.1765,0.38009,0.19975
1702324830703125,-9.72602,0.209433,0.99112,0.1775,0.44609,0.15175
1702324830710937,-9.74102,0.215433,1.212,0.1925,0.43409,0.11975
1702324830718750,-9.73902,0.212433,1.2012,0.1605,0.38409,0.16875
1702324830726562,-9.71902,0.202433,1.1512,0.1925,0.30409,0.15175
1702324830734375,-9.68102,0.209433,0.99712,0.2855,0.25509,0.21475
1702324830742187,-9.68902,0.231433,0.99512,0.2075,0.25309,0.19975
1702324830750000,-9.69402,0.233433,1.12,0.1925,0.26809,0.19975
1702324830757812,-9.69602,0.224433,1.1312,0.1925,0.23809,0.15175
1702324830765625,-9.70702,0.219433,1.812,0.1605,0.20709,0.20075
1702324830773437,-9.74102,0.215433,1.612,0.1765,0.17009,0.24775
1702324830781250,-9.76202,0.212433,0.97712,0.1615,0.18609,0.19875
1702324830789062,-9.76102,0.225433,0.96312,0.1605,0.20909,0.18475
1702324830796875,-9.73902,0.221433,0.95212,0.1765,0.25409,0.19975
1702324830804687,-9.70302,0.213433,0.94112,0.2075,0.22209,0.23175
1702324830812500,-9.67602,0.218433,0.96312,0.1935,0.18909,0.15075
1702324830820312,-9.66902,0.229433,0.96612,0.2405,0.15209,0.18175
1702324830828125,-9.67602,0.222433,0.96812,0.2565,0.26909,0.13375
1702324830835937,-9.69202,0.218433,0.96812,0.2405,0.23209,0.18175
1702324830843750,-9.73202,0.211433,0.96612,0.3355,0.18509,0.13275
1702324830851562,-9.75702,0.201433,0.96412,0.2875,0.17009,0.16575
1702324830859375,-9.75702,0.212433,0.95212,0.1905,0.30509,0.21675
1702324830867187,-9.73902,0.226433,0.94812,0.2255,0.21809,0.14975
1702324830875000,-9.72502,0.228433,0.95412,0.1925,0.27109,0.18375
1702324830882812,-9.71402,0.246433,0.95912,0.2565,0.28409,0.13375
1702324830890625,-9.71202,0.229433,0.96412,0.2725,0.38109,0.11775
1702324830898437,-9.72802,0.231433,0.96612,0.3185,0.36409,0.14975
1702324830906250,-9.73402,0.233433,0.97512,0.2095,0.33509,0.10275
1702324830914062,-9.73402,0.235433,0.98612,0.3325,0.48409,0.13575
1702324830921875,-9.73002,0.235433,0.95512,0.2875,0.43009,0.11775
1702324830929687,-9.72302,0.233433,0.96312,0.2865,0.43409,0.13575
1702324830937500,-9.71202,0.237433,0.98412,0.3325,0.46809,0.15175
1702324830945312,-9.71402,0.246433,0.98112,0.2385,0.42309,0.13675
1702324830953125,-9.70902,0.244433,0.98412,0.2395,0.44909,0.15175
1702324830960937,-9.70102,0.236433,0.97312,0.1775,0.42909,0.13575
1702324830968750,-9.68702,0.231433,0.96812,0.1625,0.36109,0.15075
1702324830976562,-9.69202,0.224433,0.97512,0.2095,0.26709,0.13475
1702324830984375,-9.71202,0.229433,0.98412,0.2895,0.31209,0.11675
1702324830992187,-9.71202,0.226433,0.98212,0.2715,0.38209,0.15075
1702324831000000,-9.71402,0.228433,0.98112,0.2395,0.30409,0.13475
1702324831007812,-9.72802,0.230433,0.98812,0.1775,0.26809,0.15075
1702324831015625,-9.73902,0.228433,0.97912,0.1925,0.31909,0.15175
1702324831023437,-9.72102,0.231433,0.96812,0.1925,0.33509,0.13575
1702324831031250,-9.68102,0.229433,0.98412,0.1785,0.31509,0.15075
1702324831039062,-9.68702,0.231433,1.12,0.1615,0.34709,0.16775
1702324831046875,-9.72602,0.219433,1.212,0.1775,0.30109,0.13475
1702324831054687,-9.74802,0.219433,0.99712,0.1625,0.31609,0.15175
1702324831062500,-9.73502,0.231433,0.97912,0.1785,0.32909,0.13375
1702324831070312,-9.72802,0.213433,0.95412,0.1615,0.25509,0.15175
1702324831078125,-9.72102,0.219433,0.96312,0.1615,0.28909,0.13675
1702324831085937,-9.71002,0.226433,0.97712,0.1625,0.26809,0.15175
1702324831093750,-9.70102,0.222433,0.98612,0.1775,0.31709,0.13575
1702324831101562,-9.69202,0.213433,0.98412,0.1625,0.28309,0.15075
1702324831109375,-9.70102,0.216433,0.97312,0.1785,0.23309,0.13375
1702324831117187,-9.71002,0.211433,0.95912,0.1935,0.22209,0.15175
1702324831125000,-9.72602,0.208433,0.95912,0.1615,0.20509,0.15175
1702324831132812,-9.71902,0.222433,0.97712,0.1755,0.25609,0.21675
1702324831140625,-9.71002,0.231433,0.98112,0.1615,0.25309,0.16775
1702324831148437,-9.69602,0.229433,0.98412,0.1775,0.17309,0.15075
1702324831156250,-9.72802,0.230433,0.98612,0.1775,0.18909,0.13475
1702324831164062,-9.75202,0.230433,0.98212,0.1615,0.18609,0.19875
1702324831171875,-9.73002,0.229433,0.97712,0.1955,0.22909,0.14875
1702324831179687,-9.69102,0.231433,0.97512,0.2715,0.20709,0.15075
1702324831187500,-9.69202,0.229433,0.96612,0.1775,0.18909,0.13475
1702324831195312,-9.70002,0.235433,0.96812,0.2395,0.17709,0.15175
1702324831203125,-9.69802,0.229433,0.97512,0.1625,0.18909,0.13475
1702324831210937,-9.69402,0.215433,0.97912,0.1765,0.17709,0.15175
1702324831218750,-9.72302,0.217433,0.95512,0.1625,0.20309,0.13475
1702324831226562,-9.72302,0.235433,0.94512,0.1775,0.22109,0.15075
1702324831234375,-9.70502,0.228433,0.95712,0.1775,0.20609,0.13475
1702324831242187,-9.68002,0.233433,0.99712,0.1625,0.21909,0.15075
1702324831250000,-9.68702,0.229433,1.412,0.2575,0.18409,0.14875
1702324831257812,-9.73002,0.244433,1.212,0.2725,0.11709,0.21275
1702324831265625,-9.74302,0.250433,0.99312,0.1765,0.17109,0.24775
1702324831273437,-9.73002,0.264433,0.95712,0.1805,0.13209,0.10075
1702324831281250,-9.72702,0.268433,0.91612,0.1935,0.15909,0.13575
1702324831289062,-9.73202,0.270433,0.90312,0.2405,0.20309,0.14975
1702324831296875,-9.74002,0.259433,0.93612,0.2555,0.24009,0.13475
1702324831304687,-9.75402,0.232433,0.96312,0.2095,0.20609,0.13475
1702324831312500,-9.74602,0.224433,0.96612,0.1785,0.20309,0.15075
1702324831320312,-9.71902,0.206433,0.95212,0.1935,0.20109,0.19875
1702324831328125,-9.70102,0.204433,0.93412,0.1615,0.17509,0.15175
1702324831335937,-9.69202,0.204433,0.92312,0.1625,0.20309,0.16675
1702324831343750,-9.69202,0.209433,0.93212,0.1935,0.20409,0.16675
1702324831351562,-9.72802,0.217433,0.93612,0.2235,0.27409,0.15175
1702324831359375,-9.76102,0.223433,0.94812,0.1785,0.21909,0.13475
1702324831367187,-9.75402,0.234433,0.94112,0.2395,0.23809,0.15075
1702324831375000,-9.72302,0.222433,0.93712,0.2095,0.28309,0.15075
1702324831382812,-9.69902,0.222433,0.94612,0.2245,0.23609,0.18275
1702324831390625,-9.68702,0.229433,0.95412,0.1615,0.27109,0.16775
1702324831398437,-9.69602,0.229433,0.97512,0.1635,0.21809,0.13475
1702324831406250,-9.68902,0.231433,0.98412,0.2085,0.18909,0.15075
1702324831414062,-9.68902,0.229433,0.99712,0.2075,0.20509,0.19975
1702324831421875,-9.69402,0.231433,1.212,0.1605,0.19309,0.16875
1702324831429687,-9.72102,0.228433,0.98612,0.1765,0.17109,0.21575
1702324831437500,-9.73702,0.228433,0.97512,0.1615,0.18909,0.18375
1702324831445312,-9.74602,0.230433,0.95212,0.1765,0.16609,0.27875
1702324831453125,-9.72502,0.228433,0.94512,0.1135,0.22009,0.23275
1702324831460937,-9.73002,0.228433,0.93212,0.1625,0.17009,0.18275
1702324831468750,-9.70902,0.231433,0.93612,0.2085,0.22309,0.15175
1702324831476562,-9.69802,0.238433,0.94512,0.1615,0.23709,0.18375
1702324831484375,-9.71202,0.231433,0.93612,0.1765,0.22009,0.23175
1702324831492187,-9.70902,0.217433,0.93812,0.1595,0.16109,0.21675
1702324831500000,-9.71402,0.215433,0.93212,0.2385,0.21209,0.16875
1702324831507812,-9.73702,0.217433,0.92112,0.1915,0.20709,0.19975
1702324831515625,-9.74602,0.221433,0.92512,0.1625,0.20409,0.15075
1702324831523437,-9.75202,0.230433,0.92812,0.1775,0.16709,0.23075
1702324831531250,-9.74302,0.224433,0.92312,0.2095,0.25309,0.13475
1702324831539062,-9.72102,0.230433,0.93212,0.2535,0.25609,0.23175
1702324831546875,-9.72502,0.233433,0.95012,0.3195,0.18409,0.19675
1702324831554687,-9.72502,0.226433,0.93212,0.2235,0.33609,0.16775
1702324831562500,-9.72102,0.239433,0.95412,0.2075,0.30209,0.19975
1702324831570312,-9.73702,0.230433,0.94112,0.1775,0.21809,0.18275
1702324831578125,-9.74102,0.233433,0.93712,0.1935,0.21609,0.18275
1702324831585937,-9.73202,0.237433,0.93912,0.1605,0.30109,0.21675
1702324831593750,-9.70702,0.244433,0.94112,0.2075,0.30009,0.21575
1702324831601562,-9.70502,0.249433,0.94812,0.1615,0.30109,0.18375
1702324831609375,-9.70702,0.253433,0.94512,0.1755,0.20709,0.21675
1702324831617187,-9.70002,0.240433,0.94812,0.1605,0.26909,0.19975
1702324831625000,-9.70902,0.237433,0.94112,0.2405,0.22109,0.15075
1702324831632812,-9.72702,0.230433,0.92712,0.2385,0.29009,0.15175
1702324831640625,-9.72702,0.233433,0.93012,0.1915,0.25409,0.21575
1702324831648437,-9.73202,0.228433,0.93412,0.1435,0.32109,0.24975
1702324831656250,-9.75002,0.228433,0.93212,0.2235,0.30209,0.16775
1702324831664062,-9.74302,0.232433,0.92712,0.2405,0.25309,0.15075
1702324831671875,-9.72102,0.231433,0.92512,0.2105,0.25209,0.10175
1702324831679687,-9.70502,0.229433,0.91812,0.3025,0.28609,0.16675
1702324831687500,-9.70802,0.220433,0.92512,0.1465,0.31309,0.19975
1702324831695312,-9.71002,0.215433,0.93412,0.1755,0.30309,0.23275
1702324831703125,-9.72802,0.208433,0.94812,0.1605,0.35109,0.20075
1702324831710937,-9.74802,0.215433,0.93412,0.2095,0.29809,0.15075
1702324831718750,-9.74102,0.210433,0.93912,0.1625,0.28509,0.13575
1702324831726562,-9.71902,0.213433,0.93912,0.1775,0.28209,0.18275
1702324831734375,-9.72102,0.222433,0.93012,0.1595,0.35109,0.21675
1702324831742187,-9.73202,0.230433,0.93612,0.1615,0.38309,0.15175
1702324831750000,-9.71402,0.223433,0.95912,0.1755,0.32709,0.15375
1702324831757812,-9.70502,0.228433,0.96112,0.1905,0.35409,0.21775
1702324831765625,-9.69602,0.231433,0.96312,0.1585,0.28609,0.28075
1702324831773437,-9.72302,0.228433,0.94512,0.1765,0.27209,0.15175
1702324831781250,-9.74502,0.230433,0.95012,0.1595,0.40209,0.18575
1702324831789062,-9.73902,0.228433,0.95512,0.1775,0.31709,0.15175
1702324831796875,-9.73202,0.230433,0.95012,0.1625,0.20309,0.13475
1702324831804687,-9.72502,0.237433,0.93412,0.1785,0.31309,0.15075
1702324831812500,-9.71602,0.244433,0.93012,0.1615,0.30109,0.16775
1702324831820312,-9.70302,0.255433,0.94312,0.1765,0.30109,0.21575
1702324831828125,-9.67802,0.267433,0.95912,0.1605,0.31609,0.24875
1702324831835937,-9.70002,0.260433,0.95212,0.1745,0.30209,0.28075
1702324831843750,-9.73202,0.266433,0.93912,0.2075,0.27009,0.19975
1702324831851562,-9.73202,0.246433,0.94112,0.1925,0.25509,0.18375
1702324831859375,-9.74102,0.239433,0.93212,0.1765,0.23509,0.23175
1702324831867187,-9.74802,0.239433,0.92712,0.2075,0.26809,0.24775
1702324831875000,-9.71402,0.237433,0.92712,0.2675,0.35509,0.28175
1702324831882812,-9.67402,0.236433,0.93412,0.2375,0.33309,0.26375
1702324831890625,-9.67802,0.229433,0.95012,0.3005,0.31909,0.23175
1702324831898437,-9.70102,0.228433,0.95412,0.2375,0.25609,0.23175
1702324831906250,-9.72802,0.226433,0.93912,0.1905,0.28809,0.24875
1702324831914062,-9.73002,0.228433,0.93612,0.2695,0.27209,0.21575
1702324831921875,-9.76402,0.223433,0.92312,0.1915,0.25309,0.23175
1702324831929687,-9.75202,0.230433,0.92712,0.1925,0.28509,0.18375
1702324831937500,-9.75002,0.228433,0.93012,0.1935,0.33409,0.13575
1702324831945312,-9.74602,0.228433,0.92812,0.1775,0.41409,0.13575
1702324831953125,-9.68702,0.220433,0.93912,0.1615,0.38309,0.15175
1702324831960937,-9.66702,0.216433,0.94812,0.2405,0.28509,0.11775
1702324831968750,-9.69202,0.213433,0.94612,0.2405,0.33309,0.11875
1702324831976562,-9.71002,0.217433,0.95712,0.2235,0.36809,0.18375
1702324831984375,-9.71202,0.208433,0.93612,0.2375,0.30909,0.18475
1702324831992187,-9.72302,0.219433,0.94512,0.2545,0.30409,0.19975
1702324832000000,-9.73402,0.230433,0.95912,0.1775,0.25209,0.18375
1702324832007812,-9.74802,0.246433,0.94312,0.1775,0.20409,0.18375
1702324832015625,-9.72302,0.264433,0.90512,0.1915,0.25309,0.23175
1702324832023437,-9.70702,0.264433,0.89112,0.1615,0.31709,0.15175
1702324832031250,-9.70502,0.266433,0.93012,0.1785,0.28509,0.11875
1702324832039062,-9.71602,0.262433,0.94612,0.1615,0.33209,0.16775
1702324832046875,-9.72502,0.246433,0.95912,0.1765,0.30509,0.13575
1702324832054687,-9.73202,0.241433,0.94812,0.2085,0.28909,0.13575
1702324832062500,-9.72702,0.235433,0.94112,0.2565,0.28809,0.8675
1702324832070312,-9.72902,0.237433,0.92012,0.1615,0.22609,0.10375
1702324832078125,-9.73602,0.223433,0.91212,0.1775,0.19209,0.13575
1702324832085937,-9.71202,0.211433,0.91412,0.2075,0.28909,0.15175
1702324832093750,-9.71002,0.213433,0.92512,0.2235,0.35009,0.19975
1702324832101562,-9.69602,0.211433,0.93212,0.1615,0.46509,0.13675
1702324832109375,-9.69202,0.213433,0.95012,0.2395,0.30409,0.16775
1702324832117187,-9.69202,0.218433,0.94812,0.2405,0.25309,0.15075
1702324832125000,-9.70202,0.228433,0.94512,0.1915,0.23009,0.15375
1702324832132812,-9.73602,0.228433,0.93912,0.1605,0.30509,0.18475
1702324832140625,-9.75202,0.230433,0.94512,0.2085,0.30209,0.16775
1702324832148437,-9.74102,0.237433,0.96312,0.2075,0.26909,0.23175
1702324832156250,-9.71902,0.231433,0.96112,0.1615,0.30109,0.18375
1702324832164062,-9.71002,0.229433,0.96612,0.2075,0.30109,0.19975
1702324832171875,-9.70502,0.226433,0.97512,0.1595,0.28609,0.23275
1702324832179687,-9.71202,0.231433,0.96812,0.1755,0.21909,0.26375
1702324832187500,-9.71102,0.241433,0.96112,0.1605,0.20809,0.20075
1702324832195312,-9.72702,0.252433,0.94312,0.1745,0.31009,0.18575
1702324832203125,-9.72502,0.241433,0.94312,0.1615,0.25509,0.13575
1702324832210937,-9.72302,0.241433,0.93412,0.2075,0.27609,0.13675
1702324832218750,-9.71102,0.242433,0.92312,0.2695,0.33909,0.15175
1702324832226562,-9.67402,0.233433,0.91612,0.1935,0.20609,0.15075
1702324832234375,-9.70002,0.240433,0.92712,0.1925,0.24009,0.13575
1702324832242187,-9.73902,0.230433,0.92112,0.2255,0.21809,0.14975
1702324832250000,-9.75702,0.228433,0.92312,0.3035,0.18909,0.13375
1702324832257812,-9.72302,0.228433,0.91212,0.2705,0.26809,0.21475
1702324832265625,-9.69402,0.224433,0.91112,0.2995,0.29409,0.20075
1702324832273437,-9.70302,0.233433,0.91412,0.2235,0.19009,0.16675
1702324832281250,-9.73602,0.246433,0.92512,0.1755,0.27109,0.21675
1702324832289062,-9.76102,0.252433,0.93612,0.2075,0.28909,0.16775
1702324832296875,-9.73002,0.241433,0.93912,0.1615,0.28609,0.16775
1702324832304687,-9.70202,0.248433,0.93012,0.1755,0.30509,0.18475
1702324832312500,-9.70202,0.251433,0.92312,0.1925,0.27209,0.15175
1702324832320312,-9.73602,0.246433,0.92312,0.1615,0.28709,0.13575
1702324832328125,-9.73602,0.248433,0.94112,0.2085,0.36809,0.15175
1702324832335937,-9.72302,0.246433,0.94812,0.2065,0.33509,0.23275
1702324832343750,-9.72302,0.246433,0.94512,0.1605,0.43509,0.15275
1702324832351562,-9.74502,0.248433,0.92712,0.1775,0.23709,0.16775
1702324832359375,-9.73802,0.248433,0.92712,0.1765,0.28909,0.16875
1702324832367187,-9.71202,0.231433,0.93212,0.1915,0.40209,0.18475
1702324832375000,-9.71202,0.237433,0.93612,0.1765,0.40309,0.13675
1702324832382812,-9.71402,0.237433,0.91212,0.2095,0.25209,0.13475
1702324832390625,-9.73602,0.239433,0.92112,0.1605,0.36909,0.16875
1702324832398437,-9.74502,0.228433,0.91812,0.1755,0.35809,0.15375
1702324832406250,-9.72702,0.230433,0.92012,0.1595,0.39109,0.15375
1702324832414062,-9.73002,0.235433,0.91812,0.2075,0.38809,0.13675
1702324832421875,-9.72702,0.237433,0.92512,0.3015,0.29209,0.13575
1702324832429687,-9.73002,0.233433,0.92112,0.1785,0.30109,0.8675
1702324832437500,-9.72302,0.228433,0.93212,0.1765,0.37109,0.12075
1702324832445312,-9.71202,0.231433,0.92712,0.1615,0.41609,0.15275
1702324832453125,-9.70502,0.228433,0.93212,0.2235,0.30809,0.10375
1702324832460937,-9.71002,0.231433,0.94312,0.2695,0.46809,0.15175
1702324832468750,-9.71602,0.228433,0.94712,0.1905,0.34309,0.16975
1702324832476562,-9.71202,0.224433,0.94712,0.2065,0.35809,0.15375
1702324832484375,-9.70302,0.220433,0.95712,0.1605,0.36609,0.18475
1702324832492187,-9.73802,0.239433,0.95012,0.1755,0.35709,0.15375
1702324832500000,-9.72702,0.237433,0.93912,0.1745,0.35509,0.20175
1702324832507812,-9.70502,0.241433,0.93412,0.1905,0.39109,0.15375
1702324832515625,-9.72002,0.246433,0.93012,0.1755,0.29109,0.15275
1702324832523437,-9.70702,0.248433,0.96112,0.1905,0.35809,0.18575
1702324832531250,-9.72302,0.246433,0.94312,0.1915,0.35309,0.16875
1702324832539062,-9.73402,0.239433,0.93412,0.2085,0.20809,0.13575
1702324832546875,-9.72302,0.232433,0.93012,0.1595,0.24209,0.18475
1702324832554687,-9.71402,0.231433,0.92712,0.1755,0.28609,0.24875
1702324832562500,-9.71802,0.239433,0.93012,0.1755,0.27209,0.23275
1702324832570312,-9.72902,0.248433,0.92712,0.1925,0.27109,0.16775
1702324832578125,-9.73202,0.248433,0.93012,0.1615,0.36809,0.13575
1702324832585937,-9.72102,0.241433,0.92712,0.1605,0.30509,0.15275
1702324832593750,-9.72302,0.239433,0.93412,0.1755,0.32709,0.13775
1702324832601562,-9.71802,0.241433,0.92312,0.2215,0.29509,0.15375
1702324832609375,-9.71802,0.241433,0.92512,0.2075,0.27809,0.12075
1702324832617187,-9.72702,0.248433,0.93212,0.1765,0.32609,0.10475
1702324832625000,-9.73202,0.232433,0.93612,0.1595,0.40709,0.13775
1702324832632812,-9.73202,0.237433,0.92712,0.1745,0.38909,0.20175
1702324832640625,-9.71602,0.230433,0.93012,0.1595,0.39009,0.15375
1702324832648437,-9.68702,0.224433,0.92712,0.2075,0.38609,0.13575
1702324832656250,-9.68902,0.224433,0.94312,0.2395,0.41909,0.11975
1702324832664062,-9.69202,0.231433,0.96612,0.1615,0.31709,0.15175
1702324832671875,-9.69402,0.229433,0.96312,0.2395,0.33509,0.13475
1702324832679687,-9.72702,0.235433,0.97212,0.3025,0.25609,0.15075
1702324832687500,-9.73902,0.228433,0.97912,0.2235,0.16209,0.13575
1702324832695312,-9.75002,0.245433,0.94112,0.1595,0.19409,0.18475
1702324832703125,-9.73802,0.277433,0.90012,0.2555,0.19109,0.15075
1702324832710937,-9.72702,0.281433,0.89112,0.2555,0.30309,0.15075
1702324832718750,-9.71302,0.272433,0.93612,0.1775,0.24209,0.10375
1702324832726562,-9.71602,0.261433,0.96812,0.2075,0.29009,0.15275
1702324832734375,-9.72702,0.241433,0.94512,0.2395,0.30809,0.8775
1702324832742187,-9.72702,0.228433,0.92112,0.1465,0.17509,0.11975
1702324832750000,-9.72702,0.225433,0.91412,0.2065,0.24509,0.15275
1702324832757812,-9.73402,0.230433,0.90012,0.2075,0.26009,0.13675
1702324832765625,-9.70902,0.228433,0.90912,0.2075,0.30709,0.13575
1702324832773437,-9.69802,0.215433,0.91812,0.2545,0.30509,0.15175
1702324832781250,-9.70902,0.231433,0.94112,0.2395,0.32209,0.13575
1702324832789062,-9.73202,0.230433,0.96812,0.3175,0.25909,0.15075
1702324832796875,-9.74702,0.230433,0.96812,0.2065,0.32709,0.13775
1702324832804687,-9.68902,0.227433,0.95012,0.2705,0.38409,0.13475
1702324832812500,-9.65302,0.223433,0.92512,0.1925,0.20709,0.15175
1702324832820312,-9.69902,0.215433,0.93412,0.1775,0.18909,0.15075
1702324832828125,-9.74302,0.232433,0.96312,0.2385,0.25609,0.18375
1702324832835937,-9.76602,0.232433,0.97912,0.2075,0.29109,0.13675
1702324832843750,-9.73902,0.228433,0.96112,0.1915,0.28909,0.18475
1702324832851562,-9.70702,0.231433,0.93912,0.1935,0.19109,0.11875
1702324832859375,-9.73902,0.228433,0.91212,0.1475,0.15609,0.11875
1702324832867187,-9.74802,0.232433,0.91612,0.1295,0.27209,0.16875
1702324832875000,-9.70902,0.239433,0.92912,0.1595,0.41209,0.9075
1702324832882812,-9.68902,0.244433,0.95212,0.1765,0.24409,0.13675
1702324832890625,-9.69602,0.246433,0.92712,0.1625,0.20409,0.15075
1702324832898437,-9.72702,0.248433,0.91112,0.1765,0.19409,0.15275
1702324832906250,-9.72902,0.241433,0.89812,0.2085,0.25709,0.11975
1702324832914062,-9.73402,0.232433,0.91212,0.1925,0.24109,0.13575
1702324832921875,-9.75002,0.246433,0.91412,0.2075,0.20409,0.21575
1702324832929687,-9.74302,0.232433,0.90912,0.1925,0.20509,0.18375
1702324832937500,-9.72802,0.228433,0.91612,0.1605,0.33209,0.19975
1702324832945312,-9.70002,0.228433,0.91612,0.1755,0.35609,0.15275
1702324832953125,-9.66902,0.245433,0.92512,0.1605,0.35009,0.20075
1702324832960937,-9.68702,0.249433,0.93612,0.1935,0.28509,0.15075
1702324832968750,-9.72502,0.250433,0.93912,0.2235,0.33809,0.15175
1702324832976562,-9.74702,0.239433,0.93612,0.1445,0.34009,0.13775
1702324832984375,-9.74302,0.228433,0.94112,0.2105,0.27009,0.8675
1702324832992187,-9.72702,0.246433,0.93212,0.2395,0.33509,0.13475
1702324833000000,-9.73402,0.239433,0.92712,0.2085,0.31909,0.15175
1702324833007812,-9.73602,0.241433,0.92712,0.2075,0.30509,0.15175
1702324833015625,-9.73202,0.235433,0.93612,0.2555,0.32209,0.13575
1702324833023437,-9.72302,0.246433,0.94312,0.2545,0.35609,0.15175
1702324833031250,-9.71402,0.246433,0.91412,0.2565,0.18709,0.13375
1702324833039062,-9.71402,0.239433,0.90912,0.1755,0.29109,0.15275
1702324833046875,-9.71002,0.231433,0.89612,0.1765,0.33709,0.13575
1702324833054687,-9.70502,0.229433,0.89812,0.1625,0.36709,0.11975
1702324833062500,-9.71202,0.231433,0.91612,0.1775,0.30109,0.15175
1702324833070312,-9.72102,0.231433,0.92112,0.1615,0.31909,0.15175
1702324833078125,-9.72802,0.228433,0.92312,0.1765,0.35109,0.18475
1702324833085937,-9.72802,0.231433,0.92712,0.2095,0.30109,0.13475
1702324833093750,-9.73002,0.232433,0.93212,0.1915,0.27409,0.18475
1702324833101562,-9.71202,0.233433,0.93412,0.1605,0.32309,0.13675
1702324833109375,-9.71402,0.235433,0.93412,0.2245,0.30409,0.11875
1702324833117187,-9.71202,0.230433,0.95412,0.1915,0.32309,0.15275
1702324833125000,-9.71002,0.222433,0.95212,0.1615,0.33409,0.16775
1702324833132812,-9.71902,0.219433,0.96112,0.1925,0.30409,0.15175
1702324833140625,-9.71202,0.215433,0.95212,0.1775,0.28609,0.15175
1702324833148437,-9.72102,0.230433,0.94312,0.2255,0.20609,0.10275
1702324833156250,-9.74302,0.232433,0.93612,0.1465,0.25609,0.8775
1702324833164062,-9.74302,0.226433,0.93012,0.1775,0.35009,0.11975
1702324833171875,-9.71402,0.230433,0.92512,0.1605,0.25909,0.13675
1702324833179687,-9.71802,0.237433,0.92312,0.2395,0.27809,0.8775
1702324833187500,-9.71202,0.226433,0.92712,0.2095,0.22109,0.11875
1702324833195312,-9.71802,0.233433,0.92712,0.1615,0.18909,0.16775
1702324833203125,-9.71602,0.231433,0.92112,0.1795,0.21709,0.13375
1702324833210937,-9.72502,0.228433,0.92712,0.1615,0.25309,0.15175
