time,Acceleration X (m/s^2),Acceleration Y (m/s^2),Acceleration Z (m/s^2),Angular Velocity X (rad/s),Angular Velocity Y (rad/s),Angular Velocity Z (rad/s)
1702325178929687,-7.826376,-0.537507,4.348353,,,
1702325178937500,-7.925376,0.513507,4.418353,0.10653,0.26267,0.38683
1702325178945312,-8.166376,0.522507,4.569353,0.10453,0.17733,0.40083
1702325178953125,-8.254376,0.450507,4.686353,0.5653,0.25833,0.36683
1702325178960937,-8.348376,0.326507,4.897353,0.9847,0.40033,0.39783
1702325178968750,-8.514376,0.249507,4.846353,0.14747,0.55933,0.55483
1702325178984375,-8.726376,0.179507,4.677353,0.13947,0.11767,0.62583
1702325178992187,-8.688376,0.173507,4.643353,0.20147,0.50767,0.56283
1702325179000000,-8.508376,0.209507,4.727353,0.10947,0.97267,0.51683
1702325179007812,-8.464376,0.154507,4.596353,0.15547,0.91567,0.43683
1702325179031250,-8.282376,0.299507,4.578353,0.25253,0.127467,0.36283
1702325179039062,-8.58376,0.347507,4.708353,0.36253,0.129367,0.33283
1702325179046875,-7.918376,0.429507,4.697353,0.24753,0.105967,0.23183
1702325179054687,-7.958376,0.444507,4.607353,0.5753,0.81467,0.19583
1702325179062500,-8.34376,0.454507,4.695353,0.3847,0.74967,0.12983
1702325179070312,-8.74376,0.486507,4.801353,0.14647,0.62367,0.16083
1702325179078125,-8.253376,0.437507,4.866353,0.25847,0.52067,0.15783
1702325179085937,-8.401376,0.457507,4.778353,0.41547,0.39267,0.15583
1702325179093750,-8.462376,0.452507,4.760353,0.49247,0.59667,0.29983
1702325179101562,-8.585376,0.479507,4.697353,0.60247,0.74467,0.23483
1702325179109375,-8.573376,0.478507,4.704353,0.64447,0.98167,0.28683
1702325179117187,-8.499376,0.493507,4.708353,0.65947,0.114267,0.31883
1702325179125000,-8.366376,0.497507,4.702353,0.84447,0.132367,0.38283
1702325179132812,-8.312376,0.471507,4.683353,0.93447,0.130167,0.41683
1702325179140625,-8.334376,0.407507,4.594353,0.96947,0.119267,0.42883
1702325179148437,-8.382376,0.375507,4.589353,0.86147,0.115667,0.41283
1702325179156250,-8.481376,0.371507,4.609353,0.89047,0.116167,0.42983
1702325179164062,-8.595376,0.394507,4.675353,0.86047,0.110467,0.52483
1702325179171875,-8.659376,0.457507,4.810353,0.69947,0.115867,0.65783
1702325179179687,-8.656376,0.537507,4.850353,0.76447,0.108767,0.65483
1702325179187500,-8.647376,0.540507,4.745353,0.73047,0.107067,0.76883
1702325179195312,-8.683376,0.515507,4.706353,0.65247,0.112267,0.67383
1702325179203125,-8.686376,0.430507,4.792353,0.61747,0.121567,0.67683
1702325179210937,-8.663376,0.362507,4.792353,0.47647,0.134367,0.66283
1702325179218750,-8.654376,0.330507,4.711353,0.39747,0.126667,0.61583
1702325179226562,-8.609376,0.338507,4.650353,0.29247,0.122367,0.58183
1702325179234375,-8.544376,0.355507,4.630353,0.22847,0.132667,0.50383
1702325179242187,-8.500376,0.388507,4.614353,0.11847,0.132967,0.50583
1702325179250000,-8.486376,0.435507,4.614353,0.6947,0.128267,0.57183
1702325179257812,-8.484376,0.453507,4.620353,0.8647,0.118467,0.52183
1702325179265625,-8.537376,0.508507,4.602353,0.2447,0.108367,0.56983
1702325179273437,-8.561376,0.540507,4.666353,0.3653,0.105067,0.52183
1702325179281250,-8.587376,0.578507,4.744353,0.11353,0.106467,0.45783
1702325179289062,-8.664376,0.561507,4.722353,0.11153,0.85167,0.43983
1702325179296875,-8.737376,0.529507,4.736353,0.10853,0.79467,0.46983
1702325179304687,-8.761376,0.575507,4.796353,0.6353,0.80267,0.39083
1702325179312500,-8.728376,0.567507,4.866353,0.1847,0.80567,0.46683
1702325179320312,-8.707376,0.556507,4.810353,0.10847,0.70167,0.53283
1702325179328125,-8.673376,0.539507,4.729353,0.13647,0.66067,0.54983
1702325179335937,-8.608376,0.553507,4.724353,0.13947,0.66867,0.54783
1702325179343750,-8.542376,0.581507,4.672353,0.15147,0.64167,0.64583
1702325179351562,-8.482376,0.571507,4.621353,0.12447,0.64767,0.59583
1702325179359375,-8.388376,0.541507,4.643353,0.13847,0.63067,0.69183
1702325179367187,-8.346376,0.493507,4.702353,0.14047,0.53567,0.59483
1702325179375000,-8.407376,0.474507,4.733353,0.10947,0.43967,0.54683
1702325179382812,-8.479376,0.485507,4.814353,0.11447,0.22167,0.49583
1702325179390625,-8.551376,0.494507,4.893353,0.15947,0.13167,0.44783
1702325179398437,-8.629376,0.539507,4.895353,0.1153,0.6567,0.40083
1702325179406250,-8.676376,0.523507,4.956353,0.8247,0.3667,0.38383
1702325179414062,-8.674376,0.517507,5.10353,0.10047,0.433,0.41383
1702325179421875,-8.654376,0.520507,4.945353,0.13347,0.667,0.42883
1702325179429687,-8.602376,0.512507,4.828353,0.16547,0.2633,0.41183
1702325179437500,-8.492376,0.509507,4.801353,0.19647,0.16767,0.42783
1702325179445312,-8.367376,0.488507,4.794353,0.24147,0.27167,0.38183
1702325179453125,-8.270376,0.492507,4.758353,0.31947,0.27467,0.36483
1702325179460937,-8.227376,0.535507,4.749353,0.36847,0.20667,0.31483
1702325179468750,-8.262376,0.546507,4.812353,0.40147,0.9167,0.28183
1702325179476562,-8.327376,0.587507,4.877353,0.40147,0.7567,0.29783
1702325179484375,-8.398376,0.628507,4.941353,0.43547,0.3767,0.27883
1702325179492187,-8.472376,0.602507,4.992353,0.36647,0.5367,0.28383
1702325179500000,-8.550376,0.552507,5.10353,0.49247,0.167,0.29783
1702325179507812,-8.596376,0.491507,4.985353,0.46147,0.6767,0.28283
1702325179515625,-8.621376,0.466507,4.992353,0.50847,0.16267,0.29783
1702325179523437,-8.605376,0.442507,4.979353,0.56947,0.21767,0.28283
1702325179531250,-8.561376,0.426507,4.909353,0.60347,0.26667,0.37583
1702325179539062,-8.460376,0.414507,4.891353,0.61647,0.32667,0.33083
1702325179546875,-8.366376,0.384507,4.880353,0.47947,0.28567,0.29783
1702325179554687,-8.348376,0.413507,4.828353,0.36747,0.38667,0.28383
1702325179562500,-8.329376,0.473507,4.823353,0.39747,0.43867,0.30083
1702325179570312,-8.317376,0.494507,4.884353,0.33547,0.53367,0.28483
1702325179578125,-8.357376,0.517507,4.893353,0.20647,0.52767,0.30583
1702325179585937,-8.397376,0.516507,4.882353,0.26947,0.60767,0.28883
1702325179593750,-8.427376,0.483507,4.898353,0.14647,0.61867,0.27283
1702325179601562,-8.425376,0.474507,4.916353,0.15947,0.70267,0.30583
1702325179609375,-8.423376,0.452507,4.909353,0.14447,0.79867,0.28983
1702325179617187,-8.417376,0.419507,4.909353,0.19247,0.81167,0.30483
1702325179625000,-8.410376,0.414507,4.913353,0.20747,0.84767,0.28983
1702325179632812,-8.422376,0.367507,4.927353,0.14147,0.90167,0.30783
1702325179640625,-8.465376,0.367507,4.945353,0.9847,0.81167,0.28983
1702325179648437,-8.541376,0.421507,4.925353,0.12947,0.77967,0.30583
1702325179656250,-8.512376,0.486507,4.949353,0.11047,0.82267,0.29283
1702325179664062,-8.535376,0.532507,4.913353,0.14547,0.82867,0.30583
1702325179671875,-8.521376,0.530507,4.922353,0.8047,0.80367,0.29183
1702325179679687,-8.488376,0.518507,4.913353,0.6947,0.77667,0.25683
1702325179687500,-8.450376,0.505507,4.900353,0.14947,0.79067,0.17483
1702325179695312,-8.416376,0.488507,4.929353,0.13147,0.79867,0.17683
1702325179703125,-8.457376,0.470507,4.893353,0.15247,0.75267,0.17383
1702325179710937,-8.493376,0.480507,4.857353,0.13447,0.72767,0.15883
1702325179718750,-8.503376,0.501507,4.882353,0.14447,0.72467,0.17883
1702325179726562,-8.495376,0.491507,4.918353,0.13247,0.79567,0.19283
1702325179734375,-8.467376,0.520507,4.884353,0.14847,0.77967,0.15983
1702325179742187,-8.485376,0.533507,4.823353,0.11447,0.80167,0.17783
1702325179750000,-8.453376,0.542507,4.805353,0.13147,0.78267,0.17683
1702325179757812,-8.400376,0.525507,4.812353,0.12947,0.75267,0.22583
1702325179765625,-8.363376,0.530507,4.870353,0.14147,0.76267,0.21283
1702325179773437,-8.344376,0.507507,4.898353,0.10147,0.63267,0.20783
1702325179781250,-8.441376,0.461507,4.916353,0.10247,0.55067,0.15883
1702325179789062,-8.561376,0.452507,4.927353,0.16647,0.54767,0.17383
1702325179796875,-8.594376,0.474507,4.988353,0.853,0.60167,0.17683
1702325179804687,-8.525376,0.528507,5.21353,0.8853,0.62367,0.16383
1702325179812500,-8.474376,0.529507,4.914353,0.2547,0.57767,0.20683
1702325179820312,-8.424376,0.563507,4.877353,0.547,0.71367,0.27383
1702325179828125,-8.358376,0.604507,4.918353,0.13147,0.76067,0.25683
1702325179835937,-8.372376,0.593507,4.859353,0.14747,0.51767,0.30383
1702325179843750,-8.446376,0.556507,4.756353,0.13047,0.60467,0.25683
1702325179851562,-8.433376,0.527507,4.796353,0.14547,0.58867,0.25683
1702325179859375,-8.382376,0.508507,4.850353,0.3947,0.55067,0.19183
1702325179867187,-8.382376,0.512507,4.859353,0.653,0.47367,0.9583
1702325179875000,-8.416376,0.503507,4.857353,0.11353,0.33767,0.7883
1702325179882812,-8.483376,0.491507,4.884353,0.9953,0.34267,0.4783
1702325179890625,-8.537376,0.528507,4.913353,0.11253,0.27467,0.3083
1702325179898437,-8.550376,0.543507,4.925353,0.20953,0.39467,0.3383
1702325179906250,-8.554376,0.581507,4.925353,0.20653,0.44967,0.4783
1702325179914062,-8.547376,0.598507,4.925353,0.17853,0.41067,0.3383
1702325179921875,-8.540376,0.587507,4.911353,0.9853,0.27767,0.4783
1702325179929687,-8.507376,0.562507,4.909353,0.14353,0.25567,0.2983
1702325179937500,-8.456376,0.560507,4.900353,0.9553,0.25067,0.9283
1702325179945312,-8.417376,0.574507,4.888353,0.11753,0.24667,0.17683
1702325179953125,-8.383376,0.568507,4.880353,0.353,0.20367,0.15683
1702325179960937,-8.372376,0.561507,4.866353,0.5253,0.15967,0.17483
1702325179968750,-8.370376,0.564507,4.871353,0.11353,0.14367,0.11083
1702325179976562,-8.388376,0.561507,4.891353,0.9853,0.11367,0.9483
1702325179984375,-8.426376,0.563507,4.893353,0.10953,0.933,0.5983
1702325179992187,-8.449376,0.558507,4.902353,0.9453,0.2233,0.5983
1702325180000000,-8.460376,0.560507,4.902353,0.11153,0.1567,0.317
1702325180007812,-8.437376,0.589507,4.925353,0.9153,0.767,0.6917
1702325180015625,-8.424376,0.590507,4.931353,0.10753,0.3833,0.6917
1702325180023437,-8.441376,0.612507,4.916353,0.5553,0.14433,0.15317
1702325180031250,-8.461376,0.627507,4.925353,0.6447,0.6833,0.11917
1702325180039062,-8.499376,0.613507,4.947353,0.7947,0.3533,0.7017
1702325180046875,-8.515376,0.621507,4.931353,0.14047,0.1067,0.883
1702325180054687,-8.502376,0.606507,4.920353,0.18647,0.3267,0.2217
1702325180062500,-8.475376,0.593507,4.911353,0.29647,0.4667,0.2483
1702325180070312,-8.417376,0.572507,4.884353,0.31347,0.5733,0.5483
1702325180078125,-8.349376,0.584507,4.884353,0.38647,0.2167,0.7383
1702325180085937,-8.333376,0.598507,4.891353,0.40647,0.1067,0.7083
1702325180093750,-8.377376,0.561507,4.893353,0.39147,0.3833,0.3783
1702325180101562,-8.427376,0.543507,4.895353,0.40947,0.20433,0.1983
1702325180109375,-8.458376,0.529507,4.931353,0.31247,0.24333,0.783
1702325180117187,-8.501376,0.526507,4.952353,0.29747,0.23233,0.3883
1702325180125000,-8.525376,0.548507,4.961353,0.15647,0.13133,0.2317
1702325180132812,-8.554376,0.561507,5.4353,0.14347,0.12033,0.8917
1702325180140625,-8.615376,0.575507,4.999353,0.15947,0.12033,0.7317
1702325180148437,-8.652376,0.583507,4.972353,0.17047,0.18833,0.7017
1702325180156250,-8.634376,0.574507,4.940353,0.14947,0.10133,0.4483
1702325180164062,-8.549376,0.551507,4.927353,0.21347,0.5833,0.5983
1702325180171875,-8.460376,0.509507,4.884353,0.26147,0.4733,0.13883
1702325180179687,-8.384376,0.481507,4.796353,0.35547,0.6767,0.7383
1702325180187500,-8.317376,0.480507,4.780353,0.38847,0.3567,0.883
1702325180195312,-8.261376,0.485507,4.787353,0.37047,0.467,0.10583
1702325180203125,-8.236376,0.493507,4.801353,0.39347,0.567,0.3683
1702325180210937,-8.278376,0.512507,4.801353,0.26447,0.1667,0.717
1702325180218750,-8.352376,0.544507,4.828353,0.37447,0.1367,0.3983
1702325180226562,-8.412376,0.569507,4.839353,0.23147,0.1867,0.2583
1702325180234375,-8.493376,0.590507,4.864353,0.18347,0.2167,0.4383
1702325180242187,-8.573376,0.607507,4.904353,0.22947,0.4067,0.2783
1702325180250000,-8.632376,0.623507,4.915353,0.18147,0.2067,0.12483
1702325180257812,-8.658376,0.582507,4.936353,0.25147,0.1433,0.11883
1702325180265625,-8.647376,0.531507,4.940353,0.15247,0.11067,0.15583
1702325180273437,-8.616376,0.507507,4.898353,0.16647,0.7867,0.20383
1702325180281250,-8.573376,0.483507,4.834353,0.20947,0.18467,0.25483
1702325180289062,-8.463376,0.467507,4.771353,0.24247,0.22767,0.26883
1702325180296875,-8.355376,0.468507,4.724353,0.28547,0.31567,0.30283
1702325180304687,-8.279376,0.463507,4.735353,0.27147,0.27967,0.28583
1702325180312500,-8.242376,0.437507,4.756353,0.29247,0.26967,0.25083
1702325180320312,-8.275376,0.419507,4.780353,0.21047,0.26367,0.20583
1702325180328125,-8.399376,0.446507,4.808353,0.13447,0.27767,0.12583
1702325180335937,-8.532376,0.503507,4.886353,0.14847,0.23067,0.17383
1702325180343750,-8.619376,0.573507,4.936353,0.13847,0.26967,0.7483
1702325180351562,-8.659376,0.608507,4.954353,0.12247,0.25067,0.13883
1702325180359375,-8.666376,0.590507,4.909353,0.10347,0.43567,0.17383
1702325180367187,-8.666376,0.552507,4.904353,0.12947,0.51467,0.16183
1702325180375000,-8.633376,0.528507,4.850353,0.13247,0.34567,0.17483
1702325180382812,-8.568376,0.518507,4.794353,0.14747,0.46067,0.17583
1702325180390625,-8.492376,0.489507,4.790353,0.21147,0.40567,0.22183
1702325180398437,-8.409376,0.487507,4.758353,0.9747,0.44567,0.27383
1702325180406250,-8.393376,0.499507,4.747353,0.13447,0.43867,0.12583
1702325180414062,-8.409376,0.503507,4.774353,0.11547,0.44667,0.17683
1702325180421875,-8.458376,0.511507,4.821353,0.10247,0.47167,0.15883
1702325180429687,-8.562376,0.510507,4.855353,0.13447,0.50467,0.14283
1702325180437500,-8.591376,0.504507,4.888353,0.5047,0.53367,0.16283
1702325180445312,-8.548376,0.503507,4.927353,0.8247,0.62667,0.17883
1702325180453125,-8.506376,0.484507,4.902353,0.5247,0.54467,0.12983
1702325180460937,-8.508376,0.517507,4.884353,0.10147,0.59167,0.9683
1702325180468750,-8.514376,0.552507,4.927353,0.14547,0.64567,0.11383
1702325180476562,-8.547376,0.574507,4.940353,0.13347,0.53667,0.17483
1702325180484375,-8.612376,0.600507,4.868353,0.18147,0.63267,0.14283
1702325180492187,-8.596376,0.598507,4.848353,0.30347,0.74967,0.22383
1702325180500000,-8.533376,0.596507,4.879353,0.15647,0.89167,0.24483
1702325180507812,-8.473376,0.580507,4.888353,0.26747,0.100067,0.25883
1702325180515625,-8.471376,0.555507,4.828353,0.31447,0.103867,0.16383
1702325180523437,-8.495376,0.504507,4.805353,0.35047,0.104267,0.15983
1702325180531250,-8.501376,0.513507,4.866353,0.30047,0.108067,0.17783
1702325180539062,-8.514376,0.535507,4.925353,0.33047,0.109967,0.19483
1702325180546875,-8.537376,0.519507,4.880353,0.39347,0.118167,0.17883
1702325180554687,-8.535376,0.486507,4.853353,0.30247,0.125267,0.19383
1702325180562500,-8.508376,0.457507,4.902353,0.28247,0.132867,0.19683
1702325180570312,-8.482376,0.442507,4.990353,0.18747,0.138767,0.29383
1702325180578125,-8.475376,0.462507,4.947353,0.18647,0.137467,0.29483
1702325180585937,-8.519376,0.499507,4.913353,0.28047,0.145667,0.29383
1702325180593750,-8.561376,0.534507,4.988353,0.21647,0.149167,0.31183
1702325180601562,-8.558376,0.564507,5.12353,0.25747,0.160367,0.29883
1702325180609375,-8.563376,0.581507,4.952353,0.32647,0.156767,0.35783
1702325180617187,-8.554376,0.558507,4.936353,0.37147,0.158967,0.32683
1702325180625000,-8.554376,0.536507,4.934353,0.38547,0.169067,0.34383
1702325180632812,-8.529376,0.560507,4.931353,0.34847,0.179967,0.39683
1702325180640625,-8.513376,0.575507,4.916353,0.36947,0.166867,0.47183
1702325180648437,-8.484376,0.584507,4.900353,0.38647,0.161467,0.50283
1702325180656250,-8.516376,0.561507,4.920353,0.36647,0.173367,0.56983
1702325180664062,-8.487376,0.564507,4.967353,0.35147,0.163567,0.56883
1702325180671875,-8.491376,0.557507,5.30353,0.38147,0.154267,0.60183
1702325180679687,-8.502376,0.559507,4.985353,0.38247,0.158967,0.55283
1702325180687500,-8.498376,0.532507,4.981353,0.47247,0.152867,0.68183
1702325180695312,-8.496376,0.555507,5.6353,0.44447,0.147167,0.67983
1702325180703125,-8.527376,0.566507,4.963353,0.51047,0.135467,0.59683
1702325180710937,-8.523376,0.554507,4.958353,0.47847,0.129167,0.62983
1702325180718750,-8.521376,0.492507,5.1353,0.43147,0.135767,0.59883
1702325180726562,-8.476376,0.502507,5.44353,0.39747,0.139767,0.58483
1702325180734375,-8.440376,0.505507,5.33353,0.36847,0.139267,0.56783
1702325180742187,-8.456376,0.507507,5.15353,0.36947,0.135767,0.58283
1702325180750000,-8.480376,0.537507,5.1353,0.36847,0.139267,0.53583
1702325180757812,-8.424376,0.533507,5.3353,0.37947,0.148567,0.57083
1702325180765625,-8.435376,0.554507,4.904353,0.36747,0.151767,0.66383
1702325180773437,-8.435376,0.565507,4.857353,0.36847,0.153467,0.58383
1702325180781250,-8.296376,0.644507,4.990353,0.38147,0.167067,0.60183
1702325180789062,-8.281376,0.627507,5.64353,0.36647,0.157267,0.61783
1702325180796875,-8.302376,0.602507,4.999353,0.39947,0.132967,0.56783
1702325180804687,-8.330376,0.526507,5.37353,0.41247,0.147967,0.58483
1702325180812500,-8.290376,0.500507,5.118353,0.35347,0.160067,0.55183
1702325180820312,-8.366376,0.512507,5.141353,0.35247,0.138967,0.59983
1702325180828125,-8.413376,0.520507,5.134353,0.31947,0.135967,0.64883
1702325180835937,-8.370376,0.568507,5.118353,0.22847,0.151767,0.55283
1702325180843750,-8.365376,0.610507,5.152353,0.14947,0.154767,0.64983
1702325180851562,-8.349376,0.624507,5.224353,0.16647,0.152567,0.68083
1702325180859375,-8.364376,0.636507,5.152353,0.30247,0.149067,0.66583
1702325180867187,-8.310376,0.622507,5.150353,0.36447,0.166767,0.73083
1702325180875000,-8.279376,0.598507,5.172353,0.34947,0.169767,0.69783
1702325180882812,-8.285376,0.565507,5.141353,0.38347,0.174467,0.60083
1702325180890625,-8.217376,0.590507,5.148353,0.36847,0.184367,0.53683
1702325180898437,-8.183376,0.600507,5.215353,0.27347,0.182967,0.57083
1702325180906250,-8.183376,0.602507,5.208353,0.16547,0.180967,0.53883
1702325180914062,-8.198376,0.635507,5.220353,0.32247,0.170667,0.64783
1702325180921875,-8.169376,0.660507,5.272353,0.29347,0.176667,0.59883
1702325180929687,-8.227376,0.650507,5.240353,0.31947,0.184867,0.57083
1702325180937500,-8.225376,0.639507,5.278353,0.52447,0.182667,0.58383
1702325180945312,-8.209376,0.644507,5.323353,0.46347,0.184067,0.56783
1702325180953125,-8.227376,0.625507,5.314353,0.36547,0.185167,0.55483
1702325180960937,-8.200376,0.630507,5.332353,0.38147,0.183167,0.56983
1702325180968750,-8.216376,0.612507,5.335353,0.38447,0.184367,0.55283
1702325180976562,-8.111376,0.601507,5.328353,0.40147,0.180467,0.58283
1702325180984375,-8.165376,0.620507,5.285353,0.36847,0.184067,0.58483
1702325180992187,-8.153376,0.637507,5.382353,0.38047,0.185367,0.53983
1702325181000000,-8.56376,0.655507,5.429353,0.38547,0.184667,0.45683
1702325181007812,-8.81376,0.654507,5.379353,0.36747,0.176967,0.48983
1702325181015625,-8.119376,0.638507,5.312353,0.39847,0.170667,0.45683
1702325181023437,-8.128376,0.653507,5.409353,0.43047,0.191467,0.48983
1702325181031250,-8.44376,0.702507,5.420353,0.38747,0.181867,0.55083
1702325181039062,-8.27376,0.660507,5.373353,0.43247,0.184067,0.51883
1702325181046875,-7.990376,0.583507,5.409353,0.47847,0.182667,0.53583
1702325181054687,-8.4376,0.569507,5.449353,0.35347,0.187367,0.55283
1702325181062500,-8.3376,0.584507,5.584353,0.38247,0.191667,0.49083
1702325181070312,-8.47376,0.637507,5.548353,0.37147,0.161967,0.40683
1702325181078125,-8.153376,0.660507,5.535353,0.39047,0.157667,0.43683
1702325181085937,-8.233376,0.690507,5.544353,0.38847,0.153567,0.37383
1702325181093750,-8.231376,0.681507,5.519353,0.42347,0.151167,0.33883
1702325181101562,-8.248376,0.630507,5.495353,0.39147,0.156067,0.37183
1702325181109375,-8.149376,0.612507,5.513353,0.45447,0.165567,0.40383
1702325181117187,-7.991376,0.667507,5.603353,0.63847,0.185767,0.43683
1702325181125000,-7.991376,0.694507,5.558353,0.64247,0.171867,0.40083
1702325181132812,-8.7376,0.692507,5.425353,0.66347,0.161267,0.30083
1702325181140625,-8.74376,0.672507,5.375353,0.62747,0.154767,0.28883
1702325181148437,-8.14376,0.611507,5.510353,0.60847,0.166667,0.32383
1702325181156250,-8.28376,0.575507,5.544353,0.49947,0.151967,0.33983
1702325181164062,-8.87376,0.537507,5.528353,0.51747,0.140267,0.30583
1702325181171875,-8.139376,0.547507,5.537353,0.42447,0.148167,0.29083
1702325181179687,-8.46376,0.593507,5.575353,0.42047,0.150567,0.30883
1702325181187500,-8.2376,0.642507,5.614353,0.43847,0.146767,0.30683
1702325181195312,-8.2376,0.635507,5.569353,0.40347,0.149467,0.29383
1702325181203125,-7.999376,0.582507,5.548353,0.43647,0.142667,0.29283
1702325181210937,-7.944376,0.603507,5.589353,0.37547,0.156867,0.24483
1702325181218750,-7.927376,0.581507,5.609353,0.39447,0.150067,0.17883
1702325181226562,-7.967376,0.565507,5.542353,0.44247,0.134267,0.4883
1702325181234375,-8.9376,0.534507,5.625353,0.38147,0.125267,0.14383
1702325181242187,-7.994376,0.585507,5.663353,0.39747,0.113767,0.17583
1702325181250000,-7.994376,0.625507,5.648353,0.42747,0.118967,0.19183
1702325181257812,-8.18376,0.657507,5.593353,0.59847,0.119267,0.19083
1702325181265625,-8.20376,0.684507,5.600353,0.45747,0.128767,0.19283
1702325181273437,-8.60376,0.657507,5.618353,0.36247,0.121167,0.19483
1702325181281250,-8.56376,0.632507,5.616353,0.54747,0.123267,0.22583
1702325181289062,-8.90376,0.612507,5.566353,0.61247,0.121167,0.23983
1702325181296875,-8.39376,0.590507,5.584353,0.72147,0.124767,0.20783
1702325181304687,-7.953376,0.603507,5.607353,0.75447,0.130767,0.18983
1702325181312500,-7.968376,0.547507,5.704353,0.66247,0.128867,0.12583
1702325181320312,-7.927376,0.550507,5.679353,0.63247,0.109167,0.15683
1702325181328125,-7.964376,0.530507,5.591353,0.64847,0.114167,0.9283
1702325181335937,-8.27376,0.482507,5.571353,0.63247,0.114367,0.9383
1702325181343750,-7.928376,0.466507,5.612353,0.67747,0.135967,0.6283
1702325181351562,-7.843376,0.474507,5.713353,0.52047,0.145767,0.6483
1702325181359375,-7.849376,0.518507,5.713353,0.38147,0.135667,0.4883
1702325181367187,-7.927376,0.554507,5.758353,0.36547,0.127767,0.3383
1702325181375000,-8.15376,0.553507,5.751353,0.30247,0.117867,0.6583
1702325181382812,-8.35376,0.562507,5.729353,0.24047,0.124167,0.6583
1702325181390625,-8.48376,0.561507,5.711353,0.25447,0.119467,0.11483
1702325181398437,-8.19376,0.575507,5.794353,0.28647,0.120567,0.14583
1702325181406250,-8.28376,0.566507,5.810353,0.33047,0.124667,0.16383
1702325181414062,-8.1376,0.571507,5.789353,0.33247,0.112667,0.17783
1702325181421875,-8.27376,0.529507,5.785353,0.25447,0.117267,0.19383
1702325181429687,-7.955376,0.523507,5.765353,0.33247,0.124167,0.14583
1702325181437500,-7.939376,0.537507,5.751353,0.36447,0.115667,0.20883
1702325181445312,-7.858376,0.549507,5.681353,0.38047,0.115967,0.14483
1702325181453125,-7.825376,0.594507,5.652353,0.41047,0.114867,0.9683
1702325181460937,-7.902376,0.552507,5.638353,0.28547,0.110267,0.8283
1702325181468750,-7.835376,0.536507,5.695353,0.12647,0.121367,0.16583
1702325181476562,-7.751376,0.570507,5.794353,0.17347,0.124967,0.11783
1702325181484375,-7.782376,0.619507,5.760353,0.13047,0.117267,0.16283
1702325181492187,-7.815376,0.669507,5.724353,0.16147,0.128767,0.14783
1702325181500000,-7.836376,0.669507,5.767353,0.26847,0.132067,0.24383
1702325181507812,-7.840376,0.689507,5.785353,0.25047,0.130867,0.27683
1702325181515625,-7.802376,0.701507,5.783353,0.25347,0.116967,0.30683
1702325181523437,-7.826376,0.687507,5.794353,0.28347,0.115867,0.29083
1702325181531250,-7.874376,0.646507,5.839353,0.31047,0.120267,0.30983
1702325181539062,-7.822376,0.657507,5.888353,0.37147,0.120767,0.29483
1702325181546875,-7.827376,0.640507,5.875353,0.37347,0.123267,0.30883
1702325181554687,-7.933376,0.603507,5.805353,0.39147,0.118067,0.25883
1702325181562500,-7.942376,0.623507,5.810353,0.43747,0.119967,0.25983
1702325181570312,-7.910376,0.636507,5.891353,0.41947,0.126767,0.30883
1702325181578125,-7.870376,0.658507,5.916353,0.58347,0.113767,0.28583
1702325181585937,-7.851376,0.668507,5.823353,0.62647,0.113167,0.28883
1702325181593750,-7.795376,0.654507,5.807353,0.62647,0.105067,0.30383
1702325181601562,-7.701376,0.640507,5.902353,0.53347,0.109667,0.27283
1702325181609375,-7.721376,0.628507,5.875353,0.48147,0.107967,0.24483
1702325181617187,-7.716376,0.646507,5.796353,0.46747,0.107467,0.29183
1702325181625000,-7.796376,0.623507,5.798353,0.36347,0.104467,0.22483
1702325181632812,-7.778376,0.632507,5.832353,0.39447,0.104467,0.27283
1702325181640625,-7.832376,0.627507,5.839353,0.38047,0.84567,0.27083
1702325181648437,-7.772376,0.672507,5.839353,0.39347,0.77167,0.30483
1702325181656250,-7.714376,0.682507,5.886353,0.38147,0.79367,0.28583
1702325181664062,-7.743376,0.675507,5.895353,0.41147,0.74967,0.30283
1702325181671875,-7.797376,0.667507,5.897353,0.50447,0.73667,0.28583
1702325181679687,-7.842376,0.646507,5.879353,0.42447,0.78767,0.30383
1702325181687500,-7.863376,0.655507,5.814353,0.50347,0.77167,0.28683
1702325181695312,-7.888376,0.635507,5.821353,0.52347,0.77767,0.25183
1702325181703125,-7.784376,0.648507,5.861353,0.52047,0.86467,0.26983
1702325181710937,-7.696376,0.673507,5.945353,0.65947,0.85667,0.27083
1702325181718750,-7.759376,0.694507,5.888353,0.54947,0.82067,0.30283
1702325181726562,-7.899376,0.668507,5.886353,0.53647,0.79867,0.28583
1702325181734375,-7.905376,0.666507,5.902353,0.60047,0.79667,0.30083
1702325181742187,-7.807376,0.640507,5.861353,0.53347,0.90267,0.30383
1702325181750000,-7.748376,0.646507,5.821353,0.47247,0.102267,0.36783
1702325181757812,-7.651376,0.671507,5.877353,0.45247,0.103567,0.37083
1702325181765625,-7.626376,0.697507,5.918353,0.40747,0.99467,0.40183
1702325181773437,-7.690376,0.742507,5.931353,0.37447,0.88567,0.41883
1702325181781250,-7.821376,0.756507,5.922353,0.39247,0.83067,0.43283
1702325181789062,-7.922376,0.719507,5.864353,0.43847,0.79767,0.49683
1702325181796875,-7.927376,0.674507,5.870353,0.44947,0.78967,0.56283
1702325181804687,-7.855376,0.679507,5.947353,0.51347,0.88567,0.54583
1702325181812500,-7.840376,0.653507,5.940353,0.57647,0.89867,0.56083
1702325181820312,-7.822376,0.629507,5.942353,0.51247,0.98367,0.54683
1702325181828125,-7.809376,0.640507,5.873353,0.41947,0.99667,0.56383
1702325181835937,-7.832376,0.634507,5.931353,0.37347,0.100767,0.57883
1702325181843750,-7.793376,0.627507,5.963353,0.38747,0.102967,0.54783
1702325181851562,-7.787376,0.606507,5.909353,0.37347,0.104067,0.56283
1702325181859375,-7.803376,0.621507,5.934353,0.37447,0.105467,0.54683
1702325181867187,-7.829376,0.631507,5.938353,0.39047,0.104067,0.51483
1702325181875000,-7.879376,0.653507,5.922353,0.37647,0.102467,0.43383
1702325181882812,-7.869376,0.691507,5.997353,0.38947,0.105967,0.48283
1702325181890625,-7.888376,0.728507,6.8353,0.35747,0.107967,0.46783
1702325181898437,-7.874376,0.759507,5.951353,0.37047,0.111467,0.56583
1702325181906250,-7.846376,0.713507,5.907353,0.38947,0.118567,0.54683
1702325181914062,-7.811376,0.652507,5.970353,0.37047,0.135467,0.56583
1702325181921875,-7.771376,0.608507,6.24353,0.44947,0.132167,0.54883
1702325181929687,-7.722376,0.622507,6.8353,0.41747,0.133867,0.56583
1702325181937500,-7.683376,0.615507,5.954353,0.39947,0.136267,0.51983
1702325181945312,-7.672376,0.632507,5.976353,0.40547,0.133567,0.45183
1702325181953125,-7.683376,0.674507,5.958353,0.61147,0.133367,0.40083
1702325181960937,-7.719376,0.678507,5.967353,0.62747,0.133367,0.38383
1702325181968750,-7.702376,0.747507,5.943353,0.57847,0.143467,0.38583
1702325181976562,-7.634376,0.752507,5.963353,0.62247,0.159067,0.33983
1702325181984375,-7.645376,0.745507,6.24353,0.67047,0.157167,0.32283
1702325181992187,-7.670376,0.747507,6.35353,0.76447,0.151967,0.38483
1702325182000000,-7.686376,0.728507,6.53353,0.87147,0.141267,0.43383
1702325182007812,-7.711376,0.690507,6.89353,0.88847,0.144367,0.40083
1702325182015625,-7.711376,0.661507,6.113353,0.86847,0.149267,0.34083
1702325182023437,-7.764376,0.610507,6.87353,0.93747,0.137767,0.33483
1702325182031250,-7.733376,0.605507,6.91353,0.96547,0.137267,0.32083
1702325182039062,-7.625376,0.612507,6.152353,0.85847,0.139467,0.35183
1702325182046875,-7.632376,0.601507,6.136353,0.87447,0.134467,0.36783
1702325182054687,-7.616376,0.614507,6.48353,0.77747,0.136667,0.40283
1702325182062500,-7.542376,0.620507,6.48353,0.76747,0.143767,0.30383
1702325182070312,-7.515376,0.616507,6.55353,0.67147,0.139467,0.28983
1702325182078125,-7.452376,0.630507,6.96353,0.57847,0.147067,0.30583
1702325182085937,-7.407376,0.598507,6.154353,0.48547,0.134267,0.25883
1702325182093750,-7.443376,0.570507,6.102353,0.39247,0.126267,0.19483
1702325182101562,-7.489376,0.534507,6.102353,0.40447,0.118867,0.27683
1702325182109375,-7.527376,0.522507,6.177353,0.38947,0.123267,0.29283
1702325182117187,-7.599376,0.552507,6.215353,0.31247,0.118367,0.24483
1702325182125000,-7.637376,0.554507,6.215353,0.17247,0.111767,0.22983
1702325182132812,-7.711376,0.560507,6.197353,0.14347,0.112567,0.24383
1702325182140625,-7.731376,0.574507,6.129353,0.16747,0.123767,0.31283
1702325182148437,-7.677376,0.569507,6.150353,0.18647,0.134467,0.29483
1702325182156250,-7.646376,0.550507,6.186353,0.13847,0.131167,0.31183
1702325182164062,-7.619376,0.590507,6.177353,0.12447,0.132467,0.31083
1702325182171875,-7.556376,0.600507,6.202353,0.14247,0.128967,0.22883
1702325182179687,-7.531376,0.580507,6.224353,0.9447,0.129267,0.23083
1702325182187500,-7.520376,0.553507,6.199353,0.10847,0.123467,0.21583
1702325182195312,-7.509376,0.525507,6.280353,0.4647,0.109067,0.18383
1702325182203125,-7.525376,0.682507,6.143353,0.10947,0.111467,0.26183
1702325182210937,-7.507376,0.680507,6.280353,0.14247,0.111767,0.16483
1702325182218750,-7.585376,0.712507,6.265353,0.12947,0.107967,0.14783
1702325182226562,-7.577376,0.706507,6.262353,0.14747,0.112367,0.8183
1702325182234375,-7.595376,0.644507,6.323353,0.12947,0.109667,0.13183
1702325182242187,-7.611376,0.610507,6.346353,0.14447,0.98467,0.16383
1702325182250000,-7.623376,0.623507,6.411353,0.13047,0.94667,0.17783
1702325182257812,-7.599376,0.674507,6.366353,0.14547,0.83967,0.11483
1702325182265625,-7.615376,0.697507,6.316353,0.13147,0.79867,0.17683
1702325182273437,-7.624376,0.705507,6.346353,0.27347,0.77967,0.15883
1702325182281250,-7.554376,0.731507,6.357353,0.28847,0.78267,0.17483
1702325182289062,-7.547376,0.713507,6.292353,0.36647,0.73367,0.17383
1702325182296875,-7.476376,0.670507,6.260353,0.39747,0.81867,0.12683
1702325182304687,-7.427376,0.615507,6.283353,0.38547,0.71267,0.13983
1702325182312500,-7.335376,0.607507,6.316353,0.39247,0.83167,0.12983
1702325182320312,-7.290376,0.595507,6.246353,0.39647,0.73967,0.14283
1702325182328125,-7.336376,0.586507,6.251353,0.38547,0.58667,0.7583
1702325182335937,-7.352376,0.577507,6.260353,0.40247,0.63367,0.2683
1702325182343750,-7.324376,0.577507,6.253353,0.41647,0.75067,0.2783
1702325182351562,-7.351376,0.605507,6.242353,0.38547,0.74767,0.5983
1702325182359375,-7.410376,0.571507,6.222353,0.39947,0.63867,0.10883
1702325182367187,-7.419376,0.555507,6.249353,0.39747,0.72567,0.6283
1702325182375000,-7.433376,0.544507,6.290353,0.37047,0.79467,0.9283
1702325182382812,-7.486376,0.578507,6.273353,0.31747,0.79367,0.6483
1702325182390625,-7.373376,0.582507,6.280353,0.20747,0.89467,0.1883
1702325182398437,-7.322376,0.555507,6.283353,0.22647,0.80467,0.3183
1702325182406250,-7.334376,0.550507,6.319353,0.36647,0.72267,0.9483
1702325182414062,-7.298376,0.555507,6.366353,0.35547,0.60067,0.5983
1702325182421875,-7.343376,0.545507,6.370353,0.35347,0.54267,0.2883
1702325182429687,-7.401376,0.582507,6.328353,0.33747,0.54267,0.2883
1702325182437500,-7.472376,0.639507,6.348353,0.34147,0.51567,0.5883
1702325182445312,-7.492376,0.676507,6.348353,0.30647,0.53767,0.14083
1702325182453125,-7.467376,0.632507,6.364353,0.24247,0.58667,0.15783
1702325182460937,-7.419376,0.593507,6.352353,0.14947,0.65167,0.11083
1702325182468750,-7.478376,0.546507,6.294353,0.18347,0.58067,0.9283
1702325182476562,-7.496376,0.544507,6.335353,0.32647,0.69067,0.7483
1702325182484375,-7.503376,0.539507,6.362353,0.22947,0.69267,0.15683
1702325182492187,-7.518376,0.561507,6.368353,0.19847,0.72867,0.9383
1702325182500000,-7.473376,0.548507,6.368353,0.20747,0.75767,0.14583
1702325182507812,-7.464376,0.557507,6.301353,0.19547,0.65167,0.15883
1702325182515625,-7.408376,0.554507,6.312353,0.22847,0.69867,0.10983
1702325182523437,-7.406376,0.556507,6.323353,0.14947,0.74767,0.9483
1702325182531250,-7.360376,0.578507,6.348353,0.14747,0.73867,0.9683
1702325182539062,-7.398376,0.595507,6.350353,0.18047,0.69067,0.1583
1702325182546875,-7.485376,0.625507,6.366353,0.13347,0.63767,0.9583
1702325182554687,-7.549376,0.629507,6.323353,0.16647,0.67867,0.10983
1702325182562500,-7.548376,0.640507,6.283353,0.29147,0.66267,0.15683
1702325182570312,-7.486376,0.603507,6.343353,0.36747,0.79667,0.15783
1702325182578125,-7.459376,0.597507,6.328353,0.39847,0.78067,0.17383
1702325182585937,-7.425376,0.604507,6.314353,0.38247,0.91367,0.14283
1702325182593750,-7.405376,0.602507,6.397353,0.35047,0.99567,0.14383
1702325182601562,-7.394376,0.623507,6.393353,0.36847,0.97467,0.9383
1702325182609375,-7.428376,0.607507,6.373353,0.38447,0.95767,0.9383
1702325182617187,-7.443376,0.604507,6.402353,0.39847,0.105867,0.9483
1702325182625000,-7.475376,0.583507,6.469353,0.33147,0.105267,0.14683
1702325182632812,-7.506376,0.609507,6.379353,0.31547,0.101967,0.17883
1702325182640625,-7.504376,0.599507,6.371353,0.36347,0.120567,0.24183
1702325182648437,-7.515376,0.593507,6.469353,0.35847,0.125467,0.19783
1702325182656250,-7.543376,0.580507,6.438353,0.34947,0.117067,0.20883
1702325182664062,-7.554376,0.536507,6.339353,0.29847,0.132267,0.25983
1702325182671875,-7.485376,0.537507,6.404353,0.36247,0.141567,0.25883
1702325182679687,-7.399376,0.569507,6.472353,0.25447,0.138267,0.21083
1702325182687500,-7.348376,0.634507,6.508353,0.23647,0.128967,0.24383
1702325182695312,-7.396376,0.706507,6.478353,0.32747,0.121367,0.30883
1702325182703125,-7.502376,0.745507,6.368353,0.36247,0.109367,0.25783
1702325182710937,-7.462376,0.713507,6.377353,0.42947,0.117867,0.26983
1702325182718750,-7.357376,0.677507,6.357353,0.50447,0.133167,0.30383
1702325182726562,-7.280376,0.578507,6.346353,0.47147,0.132067,0.27383
1702325182734375,-7.214376,0.563507,6.332353,0.37447,0.139367,0.27683
1702325182742187,-7.212376,0.583507,6.391353,0.39647,0.136467,0.20883
1702325182750000,-7.304376,0.559507,6.393353,0.29647,0.126267,0.29283
1702325182757812,-7.361376,0.545507,6.411353,0.23847,0.115367,0.28983
1702325182765625,-7.356376,0.563507,6.456353,0.25047,0.121067,0.30883
1702325182773437,-7.302376,0.582507,6.506353,0.33147,0.117267,0.28983
1702325182781250,-7.316376,0.571507,6.481353,0.27147,0.106667,0.30383
1702325182789062,-7.348376,0.535507,6.438353,0.25447,0.97367,0.30483
1702325182796875,-7.403376,0.576507,6.454353,0.15847,0.104367,0.29183
1702325182804687,-7.429376,0.662507,6.398353,0.14347,0.125167,0.30783
1702325182812500,-7.374376,0.707507,6.422353,0.15847,0.134967,0.29283
1702325182820312,-7.359376,0.692507,6.463353,0.17147,0.140467,0.29383
1702325182828125,-7.324376,0.657507,6.436353,0.19247,0.142967,0.19583
1702325182835937,-7.284376,0.609507,6.510353,0.34947,0.133467,0.16083
1702325182843750,-7.300376,0.572507,6.499353,0.26947,0.126367,0.8383
1702325182851562,-7.395376,0.538507,6.407353,0.30247,0.106167,0.16083
1702325182859375,-7.385376,0.573507,6.526353,0.31447,0.105267,0.17883
1702325182867187,-7.371376,0.636507,6.542353,0.24047,0.105867,0.14483
1702325182875000,-7.404376,0.638507,6.438353,0.31847,0.106167,0.16083
1702325182882812,-7.405376,0.620507,6.422353,0.41247,0.109167,0.15983
1702325182890625,-7.326376,0.626507,6.535353,0.38047,0.109167,0.19183
1702325182898437,-7.308376,0.623507,6.537353,0.37947,0.106367,0.19283
1702325182906250,-7.403376,0.580507,6.386353,0.31547,0.108567,0.13083
1702325182914062,-7.348376,0.603507,6.379353,0.35947,0.121967,0.17983
1702325182921875,-7.213376,0.645507,6.524353,0.39447,0.125767,0.19383
1702325182929687,-7.193376,0.627507,6.476353,0.36347,0.109667,0.17783
1702325182937500,-7.187376,0.610507,6.447353,0.38147,0.106967,0.23883
1702325182945312,-7.183376,0.581507,6.598353,0.39647,0.110767,0.20783
1702325182953125,-7.216376,0.578507,6.627353,0.34747,0.111267,0.17783
1702325182960937,-7.297376,0.588507,6.580353,0.39747,0.104267,0.17583
1702325182968750,-7.355376,0.609507,6.625353,0.40847,0.106367,0.28983
1702325182976562,-7.416376,0.620507,6.616353,0.37747,0.104767,0.27383
1702325182984375,-7.392376,0.598507,6.630353,0.39547,0.103867,0.30383
1702325182992187,-7.385376,0.611507,6.566353,0.37747,0.116167,0.25883
1702325183000000,-7.363376,0.590507,6.497353,0.39647,0.124667,0.27183
1702325183007812,-7.288376,0.568507,6.616353,0.40447,0.133067,0.30883
1702325183015625,-7.241376,0.580507,6.695353,0.35847,0.131167,0.29283
1702325183023437,-7.255376,0.576507,6.625353,0.34547,0.127067,0.30683
1702325183031250,-7.259376,0.578507,6.584353,0.37647,0.122467,0.29083
1702325183039062,-7.221376,0.578507,6.614353,0.39147,0.111267,0.32283
1702325183046875,-7.104376,0.625507,6.602353,0.37847,0.115667,0.30583
1702325183054687,-7.29376,0.650507,6.681353,0.42247,0.109867,0.29083
1702325183062500,-7.58376,0.676507,6.688353,0.51747,0.109667,0.30483
1702325183070312,-7.120376,0.682507,6.650353,0.40747,0.96767,0.30583
1702325183078125,-7.116376,0.662507,6.713353,0.48847,0.94367,0.35083
1702325183085937,-7.114376,0.685507,6.787353,0.50647,0.93867,0.30083
1702325183093750,-7.125376,0.675507,6.791353,0.50147,0.98467,0.32083
1702325183101562,-7.182376,0.616507,6.764353,0.62747,0.100067,0.28783
1702325183109375,-7.187376,0.581507,6.807353,0.45647,0.102867,0.30483
1702325183117187,-7.232376,0.569507,6.643353,0.45647,0.96567,0.28883
1702325183125000,-7.276376,0.542507,6.456353,0.45347,0.117567,0.38583
1702325183132812,-7.78376,0.556507,6.690353,0.62447,0.150367,0.35483
1702325183140625,-6.949376,0.574507,6.695353,0.53047,0.158467,0.33983
1702325183148437,-6.931376,0.565507,6.629353,0.46647,0.155767,0.30983
1702325183156250,-7.11376,0.513507,6.659353,0.56147,0.141067,0.30683
1702325183164062,-7.49376,0.528507,6.672353,0.48347,0.134467,0.29183
1702325183171875,-7.21376,0.590507,6.582353,0.56447,0.140767,0.22583
1702325183179687,-6.919376,0.634507,6.663353,0.57947,0.139167,0.27383
1702325183187500,-6.885376,0.619507,6.744353,0.50047,0.130967,0.29083
1702325183195312,-6.913376,0.595507,6.740353,0.50547,0.121667,0.30283
1702325183203125,-6.955376,0.527507,6.659353,0.50547,0.124967,0.28783
1702325183210937,-6.964376,0.492507,6.735353,0.47247,0.133467,0.25683
1702325183218750,-6.930376,0.494507,6.907353,0.33247,0.135067,0.22583
1702325183226562,-6.964376,0.505507,6.843353,0.36147,0.132267,0.22683
1702325183234375,-7.51376,0.530507,6.848353,0.39247,0.134167,0.22783
1702325183242187,-7.123376,0.513507,6.857353,0.39047,0.141567,0.14883
1702325183250000,-7.58376,0.499507,6.913353,0.37947,0.154967,0.11483
1702325183257812,-6.973376,0.475507,7.41353,0.35947,0.159367,0.13383
1702325183265625,-7.1376,0.449507,6.958353,0.36247,0.150067,0.17883
1702325183273437,-7.14376,0.446507,6.792353,0.37647,0.151967,0.21183
1702325183281250,-6.941376,0.476507,6.888353,0.37347,0.154667,0.16683
1702325183289062,-6.855376,0.535507,6.922353,0.28247,0.144067,0.18083
1702325183296875,-6.924376,0.585507,6.702353,0.12847,0.132267,0.16483
1702325183304687,-6.878376,0.652507,6.738353,0.39347,0.142167,0.16283
1702325183312500,-6.801376,0.705507,6.873353,0.27147,0.144367,0.17783
1702325183320312,-6.799376,0.696507,6.780353,0.36147,0.139167,0.19583
1702325183328125,-6.831376,0.651507,6.776353,0.41447,0.131267,0.15883
1702325183335937,-6.864376,0.577507,6.866353,0.44347,0.123667,0.17583
1702325183343750,-6.908376,0.506507,6.852353,0.37947,0.120567,0.22483
1702325183351562,-6.937376,0.494507,6.862353,0.39747,0.105267,0.23883
1702325183359375,-6.971376,0.502507,6.882353,0.31847,0.104167,0.20883
1702325183367187,-6.982376,0.471507,6.864353,0.22147,0.104967,0.19583
1702325183375000,-6.951376,0.449507,6.828353,0.12647,0.110167,0.19783
1702325183382812,-6.924376,0.440507,6.920353,0.12647,0.116667,0.16583
1702325183390625,-7.15376,0.438507,6.895353,0.10047,0.105267,0.20983
1702325183398437,-7.74376,0.474507,6.918353,0.1553,0.108767,0.16783
1702325183406250,-7.81376,0.487507,6.936353,0.13953,0.109867,0.19983
1702325183414062,-7.58376,0.521507,6.891353,0.10753,0.118067,0.15183
1702325183421875,-7.3376,0.555507,6.988353,0.13953,0.119367,0.21583
1702325183429687,-7.54376,0.594507,6.927353,0.20253,0.114467,0.24883
1702325183437500,-7.90376,0.598507,6.837353,0.13853,0.114167,0.23083
1702325183445312,-7.65376,0.605507,6.861353,0.11053,0.124567,0.24883
1702325183453125,-7.4376,0.637507,6.965353,0.12253,0.130267,0.23183
1702325183460937,-7.16376,0.644507,6.945353,0.10553,0.123467,0.19783
1702325183468750,-7.47376,0.647507,6.900353,0.13853,0.124067,0.18383
1702325183476562,-7.54376,0.650507,6.940353,0.1847,0.128467,0.26183
1702325183484375,-7.2376,0.661507,6.985353,0.1847,0.115867,0.19683
1702325183492187,-7.20376,0.639507,6.891353,0.8347,0.110767,0.17983
1702325183500000,-7.30376,0.597507,6.915353,0.9747,0.106367,0.16383
1702325183507812,-7.39376,0.561507,6.904353,0.7947,0.101967,0.18183
1702325183515625,-7.75376,0.565507,6.893353,0.9947,0.99267,0.17783
1702325183523437,-7.66376,0.601507,6.954353,0.13147,0.102567,0.16183
1702325183531250,-7.18376,0.632507,6.875353,0.14447,0.85367,0.17883
1702325183539062,-7.43376,0.627507,6.913353,0.13147,0.80167,0.14583
1702325183546875,-7.54376,0.645507,6.934353,0.16647,0.77467,0.15883
1702325183554687,-7.50376,0.643507,6.943353,0.22947,0.72567,0.14083
1702325183562500,-7.43376,0.583507,6.942353,0.25447,0.74167,0.16083
1702325183570312,-7.20376,0.542507,6.985353,0.32147,0.56467,0.23683
1702325183578125,-6.968376,0.549507,7.28353,0.35347,0.53167,0.21983
1702325183585937,-7.6376,0.553507,7.46353,0.34147,0.47467,0.21783
1702325183593750,-7.12376,0.568507,6.970353,0.27547,0.43367,0.21983
1702325183601562,-6.994376,0.589507,6.940353,0.36747,0.51467,0.31683
1702325183609375,-6.958376,0.593507,6.877353,0.39847,0.48767,0.26883
1702325183617187,-6.888376,0.632507,6.920353,0.38247,0.55067,0.26883
1702325183625000,-6.896376,0.636507,6.848353,0.39747,0.50667,0.23683
1702325183632812,-6.874376,0.615507,6.825353,0.35047,0.50367,0.30183
1702325183640625,-6.897376,0.598507,6.938353,0.34747,0.53167,0.23983
1702325183648437,-7.376,0.605507,6.958353,0.33247,0.43267,0.25583
1702325183656250,-6.976376,0.559507,6.987353,0.39347,0.41967,0.28783
1702325183664062,-6.973376,0.502507,6.958353,0.27247,0.29367,0.26983
1702325183671875,-6.903376,0.510507,6.870353,0.30247,0.36167,0.26983
1702325183679687,-6.760376,0.567507,6.951353,0.39347,0.48467,0.25583
1702325183687500,-6.707376,0.643507,6.920353,0.37947,0.38367,0.23883
1702325183695312,-6.723376,0.616507,6.868353,0.42947,0.25367,0.15583
1702325183703125,-6.695376,0.591507,6.846353,0.43347,0.27567,0.15383
1702325183710937,-6.728376,0.590507,6.836353,0.38247,0.26667,0.17283
1702325183718750,-6.754376,0.577507,6.886353,0.32447,0.27267,0.17083
1702325183726562,-6.779376,0.549507,7.19353,0.22747,0.26067,0.20483
1702325183734375,-6.911376,0.567507,7.1353,0.13347,0.29667,0.15883
1702325183742187,-7.63376,0.610507,6.983353,0.21347,0.28867,0.20383
1702325183750000,-7.162376,0.639507,6.981353,0.32147,0.40267,0.26883
1702325183757812,-7.137376,0.644507,6.911353,0.38147,0.50367,0.30183
1702325183765625,-6.958376,0.609507,6.900353,0.39647,0.58567,0.30183
1702325183773437,-6.807376,0.571507,6.931353,0.53247,0.59667,0.35183
1702325183781250,-6.648376,0.560507,6.931353,0.41247,0.56967,0.30183
1702325183789062,-6.611376,0.494507,6.828353,0.39647,0.44367,0.28583
1702325183796875,-6.616376,0.443507,6.902353,0.38247,0.41167,0.18883
1702325183804687,-6.584376,0.450507,7.37353,0.39847,0.37867,0.17283
1702325183812500,-6.699376,0.484507,6.972353,0.29047,0.26367,0.14083
1702325183820312,-6.817376,0.498507,7.3353,0.36747,0.28367,0.14083
1702325183828125,-6.880376,0.488507,7.84353,0.27347,0.26967,0.12583
1702325183835937,-6.934376,0.513507,7.50353,0.13147,0.31567,0.19183
1702325183843750,-7.5376,0.621507,7.60353,0.14747,0.45767,0.23983
1702325183851562,-7.62376,0.714507,6.997353,0.16447,0.35367,0.26983
1702325183859375,-7.61376,0.773507,6.976353,0.20747,0.41067,0.30383
1702325183867187,-6.985376,0.757507,6.976353,0.38247,0.43867,0.30083
1702325183875000,-6.909376,0.709507,6.931353,0.38147,0.49067,0.28583
1702325183882812,-6.780376,0.609507,6.940353,0.41047,0.51267,0.25483
1702325183890625,-6.713376,0.548507,7.1353,0.55347,0.42467,0.29983
1702325183898437,-6.684376,0.511507,7.14353,0.59947,0.28567,0.26783
1702325183906250,-6.709376,0.499507,6.940353,0.57047,0.25067,0.20283
1702325183914062,-6.770376,0.521507,6.954353,0.47847,0.19567,0.23383
1702325183921875,-6.781376,0.545507,6.994353,0.41347,0.26967,0.17283
1702325183929687,-6.821376,0.577507,7.14353,0.38447,0.21467,0.15483
1702325183937500,-6.839376,0.586507,7.32353,0.39947,0.26467,0.17183
1702325183945312,-6.837376,0.580507,6.983353,0.37047,0.27567,0.15483
1702325183953125,-6.837376,0.571507,6.976353,0.38547,0.22567,0.20283
1702325183960937,-6.823376,0.604507,7.5353,0.39947,0.29667,0.13983
1702325183968750,-6.837376,0.657507,7.55353,0.38147,0.33167,0.23783
1702325183976562,-6.844376,0.664507,7.69353,0.38347,0.22867,0.23583
1702325183984375,-6.860376,0.661507,6.963353,0.41847,0.14167,0.21683
1702325183992187,-6.891376,0.661507,6.938353,0.50847,0.10067,0.28183
1702325184000000,-6.847376,0.637507,6.958353,0.52347,0.24467,0.28283
1702325184007812,-6.767376,0.581507,6.958353,0.53947,0.24467,0.29883
1702325184015625,-6.686376,0.548507,6.920353,0.56647,0.19067,0.29983
1702325184023437,-6.637376,0.543507,6.897353,0.63347,0.11667,0.28083
1702325184031250,-6.610376,0.583507,6.859353,0.52647,0.333,0.29583
1702325184039062,-6.602376,0.608507,6.789353,0.52647,0.1267,0.27983
1702325184046875,-6.566376,0.626507,6.706353,0.52747,0.633,0.29583
1702325184054687,-6.514376,0.636507,6.737353,0.47847,0.1567,0.28083
1702325184062500,-6.449376,0.639507,6.776353,0.47747,0.6633,0.34483
1702325184070312,-6.404376,0.660507,6.715353,0.39947,0.19733,0.36083
1702325184078125,-6.349376,0.683507,6.668353,0.57147,0.19733,0.40783
1702325184085937,-6.317376,0.716507,6.652353,0.63147,0.29333,0.48783
1702325184093750,-6.290376,0.732507,6.681353,0.64847,0.52533,0.54983
1702325184101562,-6.299376,0.768507,6.697353,0.63547,0.74133,0.53183
1702325184109375,-6.325376,0.823507,6.704353,0.76747,0.102933,0.52583
1702325184117187,-6.374376,0.887507,6.699353,0.98547,0.125933,0.66683
1702325184125000,-6.436376,0.905507,6.686353,0.113947,0.151333,0.71383
1702325184132812,-6.535376,0.904507,6.701353,0.118347,0.183633,0.88983
1702325184140625,-6.562376,0.879507,6.776353,0.133847,0.199733,0.98383
1702325184148437,-6.614376,0.829507,6.769353,0.133747,0.222133,0.103183
1702325184156250,-6.692376,0.757507,6.609353,0.136847,0.245333,0.114283
1702325184164062,-6.849376,0.632507,6.568353,0.129147,0.261733,0.115783
1702325184171875,-6.978376,0.597507,6.661353,0.119547,0.278733,0.139883
1702325184179687,-7.108376,0.635507,6.767353,0.100547,0.323133,0.160783
1702325184187500,-7.223376,0.713507,6.719353,0.48847,0.383533,0.177083
1702325184195312,-7.296376,0.825507,6.591353,0.22047,0.427933,0.198083
1702325184203125,-7.351376,0.916507,6.519353,0.26947,0.470033,0.221683
1702325184210937,-7.283376,-1.90507,6.415353,0.37347,0.502333,0.248883
1702325184218750,-6.929376,-1.277507,6.262353,0.38347,0.508733,0.277983
1702325184226562,-6.705376,-1.261507,6.179353,0.74347,0.527233,0.295083
1702325184234375,-6.469376,-1.258507,5.956353,0.93847,0.585833,0.346183
1702325184242187,-6.197376,-1.276507,5.726353,0.67347,0.634233,0.368583
1702325184250000,-5.896376,-1.123507,5.688353,0.26247,0.658933,0.393083
1702325184257812,-6.155376,0.744507,5.728353,0.52053,0.678233,0.389083
1702325184265625,-6.367376,0.543507,5.679353,0.136653,0.680233,0.391583
1702325184273437,-6.466376,0.400507,5.476353,0.185353,0.629533,0.381283
1702325184281250,-6.720376,0.249507,5.249353,0.235053,0.541833,0.389083
1702325184289062,-7.77376,0.180507,5.339353,0.264553,0.462633,0.439983
1702325184296875,-7.393376,0.100507,5.326353,0.180753,0.453633,0.492183
1702325184304687,-7.665376,0.203493,5.488353,0.130653,0.363633,0.540683
1702325184312500,-8.184376,0.162493,5.756353,0.144253,0.268733,0.564183
1702325184320312,-8.460376,0.163507,5.981353,0.148053,0.157133,0.556983
1702325184328125,-8.373376,0.220507,5.700353,0.54953,0.20433,0.545783
1702325184335937,-8.310376,0.252507,5.745353,0.17747,0.215267,0.520783
1702325184343750,-8.695376,0.593507,6.93353,0.1847,0.278967,0.489383
1702325184351562,-9.71376,0.745507,6.377353,0.3053,0.221767,0.398283
1702325184359375,-9.423376,0.912507,6.553353,0.26353,0.193667,0.299983
1702325184367187,-9.406376,-1.177507,6.280353,0.70153,0.158567,0.245183
1702325184375000,-9.269376,-1.294507,6.186353,0.94153,0.178667,0.181083
1702325184382812,-8.861376,-1.394507,5.981353,0.111453,0.232267,0.171883
1702325184390625,-8.217376,-1.610507,6.73353,0.138953,0.330667,0.179383
1702325184398437,-7.717376,-1.912507,6.167353,0.149253,0.321767,0.205583
1702325184406250,-7.541376,-1.671507,6.473353,0.105753,0.297167,0.233883
1702325184414062,-7.653376,-1.459507,6.604353,0.36153,0.234267,0.235683
1702325184421875,-7.448376,-1.570507,6.622353,0.59553,0.261367,0.208883
1702325184429687,-7.468376,-1.625507,6.600353,0.38853,0.237367,0.121383
1702325184437500,-7.883376,-1.506507,6.618353,0.25647,0.204467,0.23517
1702325184445312,-8.775376,-1.396507,6.811353,0.129747,0.102667,0.186717
1702325184453125,-9.479376,-1.496507,6.818353,0.237247,0.21333,0.268017
1702325184460937,-9.695376,-1.504507,6.962353,0.328547,0.73533,0.267817
1702325184468750,-9.194376,-1.359507,6.933353,0.283047,0.64933,0.175417
1702325184476562,-8.78376,-1.254507,6.607353,0.181647,0.31933,0.72017
1702325184484375,-7.66376,-1.175507,6.257353,0.121947,0.26367,0.3217
1702325184492187,-6.640376,-1.95507,6.226353,0.114747,0.51067,0.29383
1702325184500000,-6.734376,0.954507,6.337353,0.107647,0.20567,0.25783
1702325184507812,-6.943376,0.800507,6.503353,0.69947,0.2667,0.26183
1702325184515625,-7.201376,0.696507,6.692353,0.29547,0.1033,0.5517
1702325184523437,-7.393376,0.684507,6.778353,0.10447,0.3633,0.47517
1702325184531250,-7.502376,0.758507,6.798353,0.1547,0.3267,0.82817
1702325184539062,-7.537376,0.932507,6.782353,0.32553,0.2167,0.108117
1702325184546875,-7.473376,-1.113507,6.818353,0.49553,0.3733,0.128817
1702325184554687,-7.389376,-1.221507,6.785353,0.78553,0.17933,0.141817
1702325184562500,-7.197376,-1.370507,6.710353,0.107153,0.16133,0.131717
1702325184570312,-6.997376,-1.519507,6.600353,0.110453,0.13933,0.129917
1702325184578125,-6.842376,-1.549507,6.541353,0.112853,0.15233,0.144817
1702325184585937,-6.800376,-1.489507,6.401353,0.91353,0.31933,0.141617
1702325184593750,-6.781376,-1.385507,6.377353,0.59753,0.35333,0.148517
1702325184601562,-6.791376,-1.314507,6.291353,0.56353,0.25733,0.158217
1702325184609375,-6.704376,-1.303507,6.271353,0.40953,0.19533,0.142217
1702325184617187,-6.461376,-1.202507,6.314353,0.37053,0.11433,0.105117
1702325184625000,-6.292376,-1.234507,6.255353,0.34553,0.24467,0.83917
1702325184632812,-6.292376,-1.54507,6.222353,0.35153,0.81167,0.64217
1702325184640625,-6.290376,-1.41507,6.249353,0.34653,0.110767,0.26817
1702325184656250,-6.186376,-1.251507,6.332353,0.47253,0.76367,0.57083
1702325184664062,-6.304376,-1.471507,6.381353,0.39953,0.116967,0.76683
1702325184671875,-6.492376,-1.461507,6.368353,0.32353,0.119167,0.78283
1702325184679687,-6.597376,-1.404507,6.366353,0.30853,0.143467,0.76783
1702325184687500,-6.899376,-1.213507,6.287353,0.43653,0.160367,0.77183
1702325184695312,-7.354376,0.969507,6.334353,0.19753,0.225467,0.46583
1702325184703125,-7.884376,-1.9507,6.636353,0.12247,0.288267,0.13017
1702325184710937,-8.331376,-1.69507,6.922353,0.14047,0.247267,0.82817
1702325184718750,-8.766376,-1.117507,6.762353,0.16553,0.99067,0.157717
