time,Acceleration X (m/s^2),Acceleration Y (m/s^2),Acceleration Z (m/s^2),Angular Velocity X (rad/s),Angular Velocity Y (rad/s),Angular Velocity Z (rad/s)
1702327194101562,-11.868879,-0.486298,-4.712546,,,
1702327194109375,-11.878879,0.548298,-4.750546,0.86971,0.464341,0.9422
1702327194117187,-11.951879,0.492298,-4.791546,0.56571,0.490141,0.30522
1702327194125000,-12.88879,0.524298,-4.894546,0.11771,0.542241,0.61222
1702327194132812,-12.69879,0.568298,-4.924546,0.7429,0.612541,0.70822
1702327194140625,-12.34879,0.540298,-4.933546,0.40929,0.677441,0.93522
1702327194156250,-12.374879,0.502298,-5.102546,0.112129,0.755041,0.148122
1702327194164062,-12.491879,0.522298,-5.77546,0.124829,0.799741,0.170722
1702327194171875,-12.724879,0.499298,-5.104546,0.142329,0.849041,0.193322
1702327194179687,-12.945879,0.550298,-5.18546,0.150829,0.893441,0.207522
1702327194203125,-13.321879,0.396298,-4.573546,0.203129,0.931241,0.245822
1702327194210937,-13.380879,0.243298,-4.202546,0.207429,0.942641,0.259022
1702327194218750,-13.254879,0.119298,-3.721546,0.222229,0.935241,0.257222
1702327194226562,-13.143879,0.114702,-3.166546,0.190929,0.880141,0.261722
1702327194234375,-12.950879,0.240702,-2.441546,0.145529,0.755941,0.245922
1702327194242187,-12.823879,0.341702,-1.976546,0.105129,0.587341,0.234222
1702327194250000,-12.613879,0.443702,-1.664546,0.40929,0.434241,0.210222
1702327194257812,-12.193879,0.538702,-1.439546,0.18571,0.325141,0.181322
1702327194265625,-11.853879,0.554702,-1.428546,0.58471,0.277541,0.161822
1702327194273437,-11.320879,0.542702,-1.448546,0.78771,0.277941,0.155722
1702327194281250,-10.772879,0.408702,-1.627546,0.78971,0.321441,0.157422
1702327194289062,-10.215879,0.340702,-1.745546,0.90771,0.428641,0.173622
1702327194296875,-9.740879,0.196702,-1.815546,0.72071,0.568641,0.196222
1702327194304687,-9.146879,0.48702,-1.744546,0.50971,0.717941,0.208722
1702327194312500,-8.724879,0.102702,-1.663546,0.46771,0.843441,0.239522
1702327194320312,-8.434879,0.172702,-1.471546,0.29371,0.953741,0.270122
1702327194328125,-8.223879,0.299702,-1.250546,0.29671,-1.21641,0.305522
1702327194335937,-8.30879,0.341702,0.990546,0.42771,-1.58541,0.321722
1702327194343750,-7.834879,0.469702,0.855546,0.48571,-1.76441,0.339122
1702327194351562,-7.842879,0.559702,0.649546,0.60271,-1.127341,0.355322
1702327194359375,-7.845879,0.579702,0.556546,0.63871,-1.158141,0.350622
1702327194367187,-7.774879,0.576702,0.575546,0.27371,-1.182941,0.333122
1702327194375000,-7.681879,0.599702,0.712546,0.4371,-1.163841,0.305522
1702327194382812,-7.670879,0.651702,0.801546,0.16771,-1.136041,0.278722
1702327194390625,-7.648879,0.697702,0.859546,0.47471,-1.45241,0.254722
1702327194398437,-7.810879,0.773702,0.719546,0.57371,0.947741,0.223522
1702327194406250,-8.33879,0.823702,0.249546,0.16171,0.914441,0.186922
1702327194414062,-8.268879,0.914702,0.23454,0.82029,0.876741,0.174222
1702327194421875,-8.365879,0.994702,0.330454,0.161429,0.873341,0.149822
1702327194429687,-8.428879,1.17702,0.604454,0.219829,0.813241,0.124022
1702327194437500,-8.496879,1.33702,0.839454,0.229929,0.716941,0.104622
1702327194445312,-8.619879,1.46702,1.10454,0.240129,0.605041,0.83622
1702327194453125,-8.733879,1.10702,1.108454,0.241929,0.516641,0.54622
1702327194460937,-8.800879,1.9702,1.135454,0.259329,0.478841,0.33922
1702327194468750,-8.979879,1.23702,1.108454,0.290529,0.489541,0.19122
1702327194476562,-9.116879,0.892702,0.941454,0.307529,0.501541,0.6378
1702327194484375,-9.65879,0.812702,0.837454,0.281729,0.518941,0.7978
1702327194492187,-9.113879,0.777702,0.878454,0.260029,0.542941,0.9278
1702327194500000,-9.213879,0.759702,0.993454,0.258629,0.565341,0.7878
1702327194507812,-9.355879,0.634702,1.15454,0.263029,0.581841,0.7678
1702327194515625,-9.369879,0.569702,1.97454,0.260029,0.594841,0.9378
1702327194523437,-9.361879,0.582702,1.253454,0.258229,0.597641,0.7678
1702327194531250,-9.363879,0.603702,1.456454,0.258129,0.589541,0.9278
1702327194539062,-9.369879,0.646702,1.587454,0.259829,0.584841,0.1178
1702327194546875,-9.369879,0.697702,1.727454,0.257329,0.567041,0.3322
1702327194554687,-9.395879,0.755702,1.806454,0.257229,0.544641,0.9822
1702327194562500,-9.425879,0.801702,1.903454,0.255829,0.532041,0.27522
1702327194570312,-9.443879,0.850702,1.946454,0.257729,0.499341,0.27422
1702327194578125,-9.501879,0.854702,1.892454,0.259929,0.466941,0.41722
1702327194585937,-9.537879,0.874702,1.835454,0.241029,0.440641,0.51222
1702327194593750,-9.628879,0.915702,1.899454,0.190729,0.398741,0.70822
1702327194601562,-9.749879,0.899702,1.894454,0.180529,0.332741,0.80122
1702327194609375,-9.737879,0.886702,1.833454,0.164429,0.301241,0.83322
1702327194617187,-9.784879,0.900702,1.872454,0.163229,0.289041,0.94522
1702327194625000,-9.822879,0.874702,1.813454,0.160029,0.281241,0.97722
1702327194632812,-9.832879,0.806702,1.831454,0.163329,0.268741,0.96022
1702327194640625,-9.891879,0.745702,1.800454,0.165529,0.236741,0.95822
1702327194648437,-9.994879,0.729702,1.849454,0.165929,0.232741,0.92422
1702327194656250,-10.40879,0.710702,1.913454,0.175929,0.214341,0.93922
1702327194664062,-10.81879,0.683702,1.956454,0.191429,0.199141,0.92622
1702327194671875,-10.121879,0.664702,2.39454,0.209129,0.221341,0.87822
1702327194679687,-10.153879,0.676702,2.127454,0.230029,0.240041,0.84622
1702327194687500,-10.199879,0.654702,2.161454,0.253729,0.263141,0.76722
1702327194695312,-10.240879,0.642702,2.130454,0.269829,0.266341,0.75122
1702327194703125,-10.263879,0.645702,2.66454,0.278229,0.300241,0.77322
1702327194710937,-10.268879,0.634702,2.23454,0.278229,0.326341,0.81322
1702327194718750,-10.233879,0.567702,1.985454,0.281129,0.352441,0.89422
1702327194726562,-10.249879,0.549702,1.895454,0.277129,0.365541,0.80122
1702327194734375,-10.300879,0.530702,1.859454,0.259829,0.378941,0.78222
1702327194742187,-10.316879,0.521702,1.859454,0.257829,0.375141,0.76822
1702327194750000,-10.329879,0.506702,1.888454,0.256529,0.394441,0.78222
1702327194757812,-10.331879,0.505702,1.922454,0.253629,0.396641,0.76422
1702327194765625,-10.336879,0.528702,1.944454,0.255929,0.410541,0.88222
1702327194773437,-10.327879,0.524702,2.26454,0.251329,0.440741,0.86422
1702327194781250,-10.240879,0.497702,2.112454,0.232829,0.442541,0.93222
1702327194789062,-10.222879,0.495702,2.168454,0.213829,0.452441,0.94622
1702327194796875,-10.208879,0.495702,2.227454,0.207629,0.446541,0.97822
1702327194804687,-10.168879,0.490702,2.299454,0.194629,0.444941,0.92922
1702327194812500,-10.146879,0.499702,2.335454,0.178629,0.448441,0.86422
1702327194820312,-10.41879,0.526702,2.353454,0.172029,0.473741,0.75122
1702327194828125,-9.940879,0.520702,2.337454,0.164829,0.485641,0.51322
1702327194835937,-9.797879,0.506702,2.290454,0.145129,0.480741,0.33722
1702327194843750,-9.680879,0.516702,2.296454,0.130429,0.485541,0.22522
1702327194851562,-9.585879,0.446702,2.269454,0.119329,0.475341,0.4722
1702327194859375,-9.468879,0.418702,2.235454,0.103029,0.483141,0.6478
1702327194867187,-9.392879,0.371702,2.210454,0.98829,0.473841,0.7678
1702327194875000,-9.315879,0.360702,2.204454,0.100829,0.477641,0.12678
1702327194882812,-9.255879,0.352702,2.255454,0.86329,0.476441,0.25578
1702327194890625,-9.210879,0.345702,2.287454,0.78129,0.471841,0.35178
1702327194898437,-9.167879,0.362702,2.366454,0.53929,0.474841,0.33578
1702327194906250,-9.120879,0.350702,2.477454,0.23529,0.451841,0.43278
1702327194914062,-9.89879,0.368702,2.526454,0.1329,0.405441,0.43478
1702327194921875,-9.87879,0.363702,2.490454,0.171,0.385241,0.48278
1702327194929687,-9.47879,0.369702,2.450454,0.24671,0.370641,0.48178
1702327194937500,-9.46879,0.396702,2.413454,0.38271,0.340741,0.50178
1702327194945312,-9.78879,0.418702,2.328454,0.35371,0.307141,0.51478
1702327194953125,-9.126879,0.452702,2.280454,0.34071,0.301841,0.49678
1702327194960937,-9.148879,0.468702,2.255454,0.36571,0.295241,0.51678
1702327194968750,-9.189879,0.473702,2.289454,0.33771,0.274141,0.51478
1702327194976562,-9.241879,0.493702,2.316454,0.30871,0.267341,0.56078
1702327194984375,-9.257879,0.486702,2.389454,0.44171,0.258941,0.57478
1702327194992187,-9.304879,0.496702,2.423454,0.49971,0.245841,0.54578
1702327195000000,-9.300879,0.498702,2.513454,0.51871,0.243641,0.49578
1702327195007812,-9.363879,0.445702,2.497454,0.47571,0.229941,0.61378
1702327195015625,-9.346879,0.453702,2.495454,0.62571,0.221241,0.57978
1702327195023437,-9.362879,0.453702,2.578454,0.56071,0.184741,0.48178
1702327195031250,-9.438879,0.416702,2.475454,0.48271,0.175141,0.54478
1702327195039062,-9.448879,0.417702,2.448454,0.50971,0.168041,0.51478
1702327195046875,-9.479879,0.393702,2.389454,0.50471,0.149941,0.50078
1702327195054687,-9.499879,0.375702,2.344454,0.54171,0.144341,0.44978
1702327195062500,-9.513879,0.357702,2.321454,0.44671,0.138641,0.39278
1702327195070312,-9.521879,0.336702,2.319454,0.44371,0.128341,0.30478
1702327195078125,-9.548879,0.352702,2.339454,0.46971,0.129241,0.24378
1702327195085937,-9.559879,0.339702,2.369454,0.29171,0.113741,0.25978
1702327195093750,-9.592879,0.362702,2.409454,0.22071,0.103741,0.24678
1702327195101562,-9.626879,0.374702,2.405454,0.23871,0.106541,0.22978
1702327195109375,-9.613879,0.351702,2.454454,0.22571,0.99641,0.21178
1702327195117187,-9.624879,0.358702,2.472454,0.23871,0.89041,0.19678
1702327195125000,-9.619879,0.343702,2.477454,0.17071,0.81941,0.23078
1702327195132812,-9.617879,0.349702,2.461454,0.19071,0.78241,0.24578
1702327195140625,-9.599879,0.333702,2.441454,0.10871,0.89441,0.26178
1702327195148437,-9.598879,0.323702,2.396454,0.13671,0.90741,0.27278
1702327195156250,-9.570879,0.310702,2.436454,0.11271,0.93541,0.24378
1702327195164062,-9.554879,0.301702,2.427454,0.1871,0.96341,0.30778
1702327195171875,-9.515879,0.277702,2.427454,0.629,0.99541,0.39178
1702327195179687,-9.481879,0.256702,2.423454,0.17929,0.103641,0.40678
1702327195187500,-9.466879,0.260702,2.396454,0.20929,0.104841,0.40578
1702327195195312,-9.463879,0.256702,2.371454,0.25729,0.97141,0.48578
1702327195203125,-9.456879,0.245702,2.362454,0.44129,0.101241,0.47278
1702327195210937,-9.427879,0.231702,2.353454,0.51829,0.97541,0.48678
1702327195218750,-9.406879,0.232702,2.346454,0.57229,0.79841,0.55378
1702327195226562,-9.426879,0.214702,2.362454,0.57129,0.77941,0.52078
1702327195234375,-9.430879,0.215702,2.407454,0.62829,0.81341,0.48478
1702327195242187,-9.443879,0.205702,2.414454,0.77329,0.61241,0.64578
1702327195250000,-9.453879,0.208702,2.420454,0.81429,0.56241,0.56978
1702327195257812,-9.432879,0.197702,2.407454,0.80329,0.52441,0.58878
1702327195265625,-9.442879,0.196702,2.400454,0.81329,0.37241,0.53678
1702327195273437,-9.456879,0.199702,2.355454,0.82929,0.29141,0.50378
1702327195281250,-9.460879,0.179702,2.344454,0.87929,0.27841,0.52078
1702327195289062,-9.453879,0.174702,2.335454,0.100229,0.30041,0.50178
1702327195296875,-9.473879,0.168702,2.328454,0.107129,0.24441,0.48778
1702327195304687,-9.493879,0.143702,2.308454,0.105029,0.14241,0.48478
1702327195312500,-9.529879,0.142702,2.274454,0.109029,0.8841,0.37578
1702327195320312,-9.545879,0.131702,2.265454,0.107029,0.5141,0.38978
1702327195328125,-9.557879,0.132702,2.260454,0.102929,0.6341,0.36178
1702327195335937,-9.573879,0.123702,2.253454,0.108829,0.10041,0.32678
1702327195343750,-9.585879,0.103702,2.260454,0.98929,0.3141,0.27678
1702327195351562,-9.596879,0.105702,2.285454,0.83029,0.1841,0.24578
1702327195359375,-9.601879,0.100702,2.281454,0.80329,0.10941,0.12778
1702327195367187,-9.609879,0.83702,2.251454,0.74829,0.15441,0.9978
1702327195375000,-9.609879,0.81702,2.229454,0.68429,0.10741,0.8378
1702327195382812,-9.606879,0.61702,2.211454,0.64129,0.13241,0.10278
1702327195390625,-9.593879,0.65702,2.204454,0.57529,0.5141,0.8578
1702327195398437,-9.602879,0.63702,2.170454,0.56729,0.8541,0.9778
1702327195406250,-9.604879,0.63702,2.174454,0.55929,0.1059,0.10178
1702327195414062,-9.594879,0.69702,2.163454,0.60229,0.19759,0.9078
1702327195421875,-9.584879,0.69702,2.61454,0.68229,0.25659,0.9878
1702327195429687,-9.606879,0.77702,2.19454,0.56229,0.11659,0.8678
1702327195437500,-9.609879,0.110702,2.125454,0.17329,0.741,0.10278
1702327195445312,-9.596879,0.129702,2.249454,0.2529,0.1541,0.2078
1702327195453125,-9.583879,0.142702,2.253454,0.16929,0.1241,0.378
1702327195460937,-9.561879,0.139702,2.192454,0.3429,0.20441,0.11122
1702327195468750,-9.551879,0.131702,2.111454,0.2929,0.34741,0.18622
1702327195476562,-9.537879,0.129702,2.28454,0.18071,0.31541,0.15422
1702327195484375,-9.519879,0.87702,1.991454,0.22871,0.33141,0.15422
1702327195492187,-9.503879,0.68702,1.987454,0.23371,0.21341,0.17322
1702327195500000,-9.525879,0.68702,2.37454,0.15671,0.10641,0.23122
1702327195507812,-9.550879,0.94702,2.95454,0.21171,0.2959,0.18722
1702327195515625,-9.574879,0.88702,2.134454,0.20471,0.10759,0.23922
1702327195523437,-9.582879,0.98702,2.159454,0.10371,0.24159,0.18922
1702327195531250,-9.591879,0.119702,2.136454,0.171,0.20059,0.13822
1702327195539062,-9.612879,0.134702,2.116454,0.571,0.20659,0.12422
1702327195546875,-9.619879,0.143702,2.102454,0.15071,0.12959,0.20422
1702327195554687,-9.654879,0.153702,2.95454,0.1971,0.6441,0.12222
1702327195562500,-9.667879,0.171702,2.102454,0.15571,0.7541,0.24722
1702327195570312,-9.672879,0.173702,2.82454,0.22371,0.6841,0.32922
1702327195578125,-9.687879,0.172702,2.73454,0.27071,0.4441,0.30522
1702327195585937,-9.707879,0.181702,2.64454,0.33171,0.3441,0.28722
1702327195593750,-9.681879,0.173702,2.23454,0.21071,0.6241,0.31522
1702327195601562,-9.673879,0.184702,2.12454,0.31271,0.5641,0.25322
1702327195609375,-9.659879,0.184702,2.3454,0.27571,0.1641,0.28322
1702327195617187,-9.654879,0.180702,1.987454,0.20771,0.3841,0.26522
1702327195625000,-9.643879,0.193702,1.989454,0.18771,0.4441,0.27922
1702327195632812,-9.637879,0.185702,1.982454,0.21371,0.12241,0.26822
1702327195640625,-9.628879,0.185702,1.978454,0.13571,0.19741,0.25322
1702327195648437,-9.619879,0.185702,1.967454,0.10371,0.24341,0.28522
1702327195656250,-9.614879,0.176702,1.971454,0.9971,0.28041,0.31522
1702327195664062,-9.621879,0.177702,1.980454,0.10071,0.31241,0.25122
1702327195671875,-9.627879,0.175702,1.989454,0.22371,0.32041,0.31222
1702327195679687,-9.621879,0.177702,1.987454,0.3571,0.31241,0.28322
1702327195687500,-9.619879,0.170702,1.989454,0.9971,0.32741,0.33122
1702327195695312,-9.612879,0.174702,1.985454,0.16671,0.33941,0.31622
1702327195703125,-9.604879,0.178702,2.454,0.9171,0.39241,0.35122
1702327195710937,-9.595879,0.170702,1.994454,0.7971,0.43341,0.32122
1702327195718750,-9.594879,0.181702,1.991454,0.2071,0.53041,0.28322
1702327195726562,-9.608879,0.178702,1.976454,0.4029,0.47741,0.30122
1702327195734375,-9.599879,0.169702,1.969454,0.2729,0.54141,0.44522
1702327195742187,-9.615879,0.172702,1.978454,0.5729,0.55441,0.41422
1702327195750000,-9.632879,0.172702,2.7454,0.9129,0.55741,0.38122
1702327195757812,-9.635879,0.170702,2.48454,0.23629,0.52641,0.36522
1702327195765625,-9.636879,0.178702,2.19454,0.35829,0.62041,0.39222
1702327195773437,-9.632879,0.182702,1.958454,0.33929,0.72641,0.31322
1702327195781250,-9.599879,0.174702,1.971454,0.13729,0.50841,0.34922
1702327195789062,-9.595879,0.176702,1.998454,0.2529,0.41441,0.39722
1702327195796875,-9.612879,0.174702,1.958454,0.7529,0.46441,0.36422
1702327195804687,-9.623879,0.177702,1.962454,0.6029,0.52941,0.34822
1702327195812500,-9.623879,0.175702,2.23454,0.1529,0.51641,0.42722
1702327195820312,-9.634879,0.184702,2.30454,0.11129,0.53241,0.41122
1702327195828125,-9.614879,0.183702,2.34454,0.20629,0.60741,0.42822
1702327195835937,-9.605879,0.179702,2.48454,0.25729,0.53241,0.44322
1702327195843750,-9.625879,0.193702,2.48454,0.30929,0.57041,0.40922
1702327195851562,-9.621879,0.181702,2.61454,0.30829,0.55041,0.49022
1702327195859375,-9.637879,0.181702,2.57454,0.33129,0.50441,0.47922
1702327195867187,-9.635879,0.190702,2.41454,0.38129,0.52341,0.47822
1702327195875000,-9.637879,0.188702,2.37454,0.30729,0.55141,0.45822
1702327195882812,-9.648879,0.190702,2.19454,0.30529,0.51741,0.42722
1702327195890625,-9.642879,0.185702,2.10454,0.24629,0.51341,0.48122
1702327195898437,-9.639879,0.190702,2.12454,0.20829,0.51741,0.41122
1702327195906250,-9.641879,0.195702,2.12454,0.22429,0.61041,0.42722
1702327195914062,-9.632879,0.179702,2.7454,0.14029,0.51041,0.44522
1702327195921875,-9.623879,0.175702,2.21454,0.9829,0.59741,0.50622
1702327195929687,-9.630879,0.172702,2.41454,0.4729,0.71841,0.55522
1702327195937500,-9.627879,0.166702,2.46454,0.3329,0.65941,0.50622
1702327195945312,-9.631879,0.174702,2.57454,0.3929,0.64041,0.59222
1702327195953125,-9.628879,0.183702,2.75454,0.2629,0.71241,0.47722
1702327195960937,-9.615879,0.188702,2.91454,0.4429,0.71541,0.44422
1702327195968750,-9.611879,0.189702,2.93454,0.2329,0.70641,0.47922
1702327195976562,-9.608879,0.187702,2.91454,0.1229,0.68441,0.44422
1702327195984375,-9.592879,0.191702,2.82454,0.4229,0.68141,0.42922
1702327195992187,-9.601879,0.185702,2.73454,0.2429,0.67841,0.41422
1702327196000000,-9.604879,0.187702,2.64454,0.2329,0.70541,0.51122
1702327196007812,-9.597879,0.196702,2.61454,0.4729,0.65641,0.52322
1702327196015625,-9.596879,0.208702,2.59454,0.129,0.72541,0.42522
1702327196023437,-9.597879,0.211702,2.93454,0.2371,0.60041,0.43022
1702327196031250,-9.601879,0.210702,2.98454,0.271,0.68741,0.42722
1702327196039062,-9.593879,0.212702,2.109454,0.6871,0.71541,0.46022
1702327196046875,-9.588879,0.219702,2.107454,0.11071,0.56941,0.45722
1702327196054687,-9.588879,0.229702,2.113454,0.14871,0.54441,0.44422
1702327196062500,-9.593879,0.229702,2.122454,0.13571,0.58441,0.49422
1702327196070312,-9.600879,0.226702,2.113454,0.14171,0.49841,0.38422
1702327196078125,-9.579879,0.229702,2.116454,0.11271,0.53541,0.42622
1702327196085937,-9.584879,0.231702,2.102454,0.18471,0.50741,0.39822
1702327196093750,-9.581879,0.222702,2.100454,0.5271,0.52941,0.36422
1702327196101562,-9.593879,0.245702,2.116454,0.9671,0.50441,0.36222
1702327196109375,-9.590879,0.237702,2.118454,0.9171,0.46341,0.40822
1702327196117187,-9.593879,0.234702,2.120454,0.14871,0.54441,0.42822
1702327196125000,-9.587879,0.233702,2.127454,0.15271,0.55341,0.41422
1702327196132812,-9.582879,0.233702,2.131454,0.13271,0.54441,0.42822
1702327196140625,-9.580879,0.242702,2.127454,0.8371,0.46741,0.36422
1702327196148437,-9.582879,0.240702,2.118454,0.771,0.52341,0.39822
1702327196156250,-9.582879,0.235702,2.113454,0.20071,0.42941,0.39822
1702327196164062,-9.587879,0.242702,2.102454,0.2671,0.48541,0.39922
1702327196171875,-9.591879,0.246702,2.91454,0.3929,0.51941,0.41522
1702327196179687,-9.589879,0.242702,2.86454,0.4529,0.54441,0.42822
1702327196187500,-9.593879,0.247702,2.89454,0.3229,0.51941,0.39422
1702327196195312,-9.575879,0.245702,2.109454,0.8329,0.53841,0.39322
1702327196203125,-9.589879,0.256702,2.120454,0.9329,0.49841,0.36422
1702327196210937,-9.584879,0.255702,2.111454,0.6029,0.40141,0.38022
1702327196218750,-9.610879,0.269702,2.111454,0.5529,0.47341,0.38222
1702327196226562,-9.603879,0.264702,2.118454,0.5829,0.46041,0.41422
1702327196234375,-9.614879,0.280702,2.140454,0.4129,0.50741,0.39822
1702327196242187,-9.593879,0.269702,2.150454,0.1229,0.60641,0.41222
1702327196250000,-9.596879,0.270702,2.163454,0.2771,0.56341,0.41622
1702327196257812,-9.591879,0.256702,2.159454,0.2171,0.58841,0.38122
1702327196265625,-9.603879,0.255702,2.156454,0.3871,0.46041,0.43022
1702327196273437,-9.588879,0.236702,2.150454,0.3229,0.48941,0.34622
1702327196281250,-9.591879,0.220702,2.109454,0.10629,0.46041,0.41422
1702327196289062,-9.585879,0.221702,2.75454,0.21329,0.43341,0.31222
1702327196296875,-9.568879,0.226702,2.68454,0.20229,0.46141,0.34922
1702327196304687,-9.573879,0.227702,2.82454,0.19029,0.34341,0.31522
1702327196312500,-9.561879,0.238702,2.57454,0.20829,0.31541,0.28222
1702327196320312,-9.571879,0.242702,2.21454,0.28529,0.29441,0.28422
1702327196328125,-9.577879,0.238702,2.89454,0.9629,0.29941,0.33022
1702327196335937,-9.586879,0.251702,2.199454,0.1671,0.33041,0.34622
1702327196343750,-9.589879,0.265702,2.256454,0.1771,0.26841,0.28222
1702327196351562,-9.578879,0.285702,2.222454,0.4829,0.33041,0.37822
1702327196359375,-9.566879,0.283702,2.147454,0.8329,0.53841,0.40922
1702327196367187,-9.555879,0.260702,2.70454,0.3671,0.65341,0.38022
1702327196375000,-9.555879,0.237702,2.28454,0.27971,0.50941,0.42922
1702327196382812,-9.533879,0.208702,2.37454,0.30071,0.45441,0.41622
1702327196390625,-9.543879,0.199702,2.52454,0.16471,0.30741,0.41222
1702327196398437,-9.557879,0.213702,2.79454,0.19371,0.31341,0.42722
1702327196406250,-9.570879,0.220702,2.113454,0.6771,0.21441,0.41222
1702327196414062,-9.577879,0.231702,2.138454,0.71,0.20241,0.41122
1702327196421875,-9.575879,0.249702,2.143454,0.14329,0.7541,0.39622
1702327196429687,-9.578879,0.262702,2.131454,0.23829,0.559,0.34922
1702327196437500,-9.589879,0.291702,2.109454,0.25629,0.3359,0.38022
1702327196445312,-9.613879,0.308702,2.98454,0.31529,0.441,0.38322
1702327196453125,-9.624879,0.311702,2.111454,0.20529,0.459,0.30122
1702327196460937,-9.648879,0.307702,2.109454,0.6029,0.15341,0.26822
1702327196468750,-9.663879,0.306702,2.125454,0.4929,0.33341,0.32922
1702327196476562,-9.659879,0.294702,2.100454,0.2129,0.28441,0.28722
1702327196484375,-9.627879,0.276702,2.86454,0.2529,0.29041,0.30122
1702327196492187,-9.621879,0.278702,2.64454,0.2271,0.29041,0.28522
1702327196500000,-9.609879,0.260702,2.23454,0.3929,0.33441,0.27022
1702327196507812,-9.613879,0.254702,2.14454,0.2929,0.32741,0.29922
1702327196515625,-9.617879,0.257702,2.25454,0.4829,0.36541,0.28122
1702327196523437,-9.600879,0.256702,2.46454,0.3129,0.39641,0.20122
1702327196531250,-9.600879,0.261702,2.64454,0.2829,0.40941,0.12222
1702327196539062,-9.605879,0.257702,2.70454,0.10029,0.36341,0.15922
1702327196546875,-9.592879,0.260702,2.70454,0.11829,0.31941,0.14222
1702327196554687,-9.594879,0.253702,2.77454,0.5429,0.35041,0.17422
1702327196562500,-9.588879,0.245702,2.61454,0.4729,0.42741,0.24922
1702327196570312,-9.597879,0.245702,2.61454,0.2729,0.40541,0.23522
1702327196578125,-9.591879,0.249702,2.57454,0.7329,0.29041,0.26922
1702327196585937,-9.585879,0.246702,2.59454,0.3829,0.30341,0.22222
1702327196593750,-9.582879,0.249702,2.70454,0.3029,0.39341,0.26622
1702327196601562,-9.584879,0.256702,2.68454,0.4929,0.46241,0.21622
1702327196609375,-9.578879,0.250702,2.57454,0.10129,0.30041,0.19122
1702327196617187,-9.591879,0.249702,2.55454,0.7229,0.36841,0.23722
1702327196625000,-9.584879,0.246702,2.55454,0.2429,0.32241,0.20522
1702327196632812,-9.575879,0.245702,2.43454,0.7829,0.37841,0.21822
1702327196640625,-9.593879,0.244702,2.41454,0.12329,0.27841,0.20422
1702327196648437,-9.602879,0.241702,2.57454,0.4829,0.39641,0.26522
1702327196656250,-9.605879,0.242702,2.82454,0.10329,0.31941,0.22222
1702327196664062,-9.620879,0.233702,2.111454,0.21629,0.28841,0.22222
1702327196671875,-9.617879,0.248702,2.57454,0.42129,0.32241,0.23222
1702327196679687,-9.604879,0.249702,1.996454,0.41529,0.37541,0.20322
1702327196687500,-9.584879,0.234702,2.57454,0.6571,0.28341,0.29822
1702327196695312,-9.579879,0.243702,2.64454,0.12971,0.12841,0.28222
1702327196703125,-9.580879,0.233702,2.9454,0.2729,0.34041,0.31622
1702327196710937,-9.572879,0.236702,1.978454,0.6271,0.30541,0.26422
1702327196718750,-9.582879,0.243702,2.3454,0.3371,0.29941,0.26622
1702327196726562,-9.580879,0.235702,2.5454,0.7329,0.29041,0.25322
1702327196734375,-9.575879,0.246702,2.14454,0.12129,0.29041,0.25322
1702327196742187,-9.579879,0.234702,2.43454,0.6529,0.16341,0.23322
1702327196750000,-9.605879,0.244702,2.57454,0.7229,0.13241,0.22222
1702327196757812,-9.609879,0.233702,2.61454,0.2329,0.5541,0.10922
1702327196765625,-9.609879,0.231702,2.57454,0.9029,0.5741,0.20522
1702327196773437,-9.613879,0.227702,2.48454,0.4529,0.21941,0.26722
1702327196781250,-9.615879,0.225702,2.30454,0.14029,0.27841,0.25222
1702327196789062,-9.627879,0.238702,2.9454,0.11829,0.25341,0.27122
1702327196796875,-9.638879,0.232702,1.985454,0.1129,0.29341,0.26822
1702327196804687,-9.627879,0.236702,1.996454,0.2271,0.33641,0.31722
1702327196812500,-9.645879,0.227702,2.454,0.2371,0.32141,0.26922
1702327196820312,-9.645879,0.224702,2.14454,0.2971,0.29641,0.25622
1702327196828125,-9.628879,0.223702,2.34454,0.11671,0.42041,0.28322
1702327196835937,-9.624879,0.228702,2.55454,0.6771,0.48641,0.26622
1702327196843750,-9.622879,0.229702,2.43454,0.9071,0.38041,0.25422
1702327196851562,-9.593879,0.225702,2.43454,0.3571,0.34341,0.26722
1702327196859375,-9.605879,0.229702,2.34454,0.771,0.47041,0.37422
1702327196867187,-9.597879,0.241702,2.28454,0.4629,0.40841,0.31422
1702327196875000,-9.588879,0.240702,2.5454,0.3129,0.45441,0.36322
1702327196882812,-9.580879,0.233702,2.16454,0.4329,0.35541,0.30022
1702327196890625,-9.589879,0.235702,2.19454,0.2529,0.35241,0.30122
1702327196898437,-9.586879,0.235702,2.19454,0.5729,0.30641,0.28522
1702327196906250,-9.584879,0.245702,1.998454,0.4529,0.26541,0.29922
1702327196914062,-9.591879,0.245702,1.985454,0.2929,0.32741,0.29922
1702327196921875,-9.586879,0.249702,2.5454,0.4829,0.36541,0.24922
1702327196929687,-9.606879,0.249702,2.12454,0.2829,0.38941,0.29922
1702327196937500,-9.611879,0.256702,2.21454,0.3329,0.27141,0.29722
1702327196945312,-9.613879,0.258702,2.25454,0.2929,0.28141,0.29922
1702327196953125,-9.615879,0.257702,2.23454,0.3229,0.33441,0.26522
1702327196960937,-9.605879,0.256702,2.25454,0.2529,0.30641,0.26922
1702327196968750,-9.608879,0.255702,2.23454,0.3729,0.32841,0.23022
1702327196976562,-9.611879,0.250702,2.25454,0.4829,0.30341,0.24922
1702327196984375,-9.616879,0.242702,1.998454,0.2329,0.25641,0.27022
1702327196992187,-9.618879,0.245702,1.991454,0.4529,0.28141,0.26722
1702327197000000,-9.593879,0.242702,1.987454,0.2629,0.27841,0.23622
1702327197007812,-9.598879,0.224702,1.987454,0.5729,0.25941,0.25322
1702327197015625,-9.592879,0.225702,1.987454,0.4729,0.22241,0.26622
1702327197023437,-9.606879,0.225702,1.987454,0.3029,0.26841,0.25022
1702327197031250,-9.607879,0.231702,1.989454,0.4129,0.30641,0.26922
1702327197039062,-9.615879,0.243702,1.994454,0.3229,0.28741,0.26522
1702327197046875,-9.615879,0.243702,2.454,0.8229,0.28741,0.32922
1702327197054687,-9.611879,0.239702,2.7454,0.4729,0.23741,0.29822
1702327197062500,-9.631879,0.247702,1.989454,0.7629,0.26241,0.34822
1702327197070312,-9.601879,0.261702,2.454,0.7029,0.27741,0.34322
1702327197078125,-9.594879,0.258702,1.994454,0.4229,0.22841,0.30122
1702327197085937,-9.595879,0.251702,1.987454,0.2829,0.21541,0.30022
1702327197093750,-9.590879,0.241702,1.991454,0.1829,0.24041,0.34522
1702327197101562,-9.587879,0.244702,1.987454,0.3829,0.20641,0.28722
1702327197109375,-9.587879,0.246702,1.987454,0.2529,0.22841,0.26922
1702327197117187,-9.591879,0.233702,1.989454,0.13729,0.11641,0.28622
1702327197125000,-9.595879,0.216702,1.980454,0.30129,0.10441,0.28522
1702327197132812,-9.597879,0.226702,1.955454,0.19729,0.16641,0.29622
1702327197140625,-9.606879,0.221702,1.953454,0.16429,0.5341,0.34522
1702327197148437,-9.608879,0.228702,1.946454,0.18029,0.6941,0.34522
1702327197156250,-9.624879,0.228702,1.942454,0.9729,0.17541,0.34622
1702327197164062,-9.631879,0.230702,1.953454,0.6129,0.24641,0.38022
1702327197171875,-9.647879,0.245702,1.969454,0.3571,0.27741,0.38022
1702327197179687,-9.646879,0.253702,1.985454,0.14371,0.34841,0.41022
1702327197187500,-9.662879,0.248702,2.10454,0.20871,0.31341,0.49122
1702327197195312,-9.660879,0.242702,2.7454,0.20671,0.27041,0.45822
1702327197203125,-9.670879,0.239702,1.994454,0.13571,0.27041,0.51122
1702327197210937,-9.681879,0.243702,1.962454,0.3671,0.25741,0.47722
1702327197218750,-9.674879,0.241702,1.924454,0.829,0.25141,0.51122
1702327197226562,-9.656879,0.247702,1.890454,0.10829,0.24241,0.47722
1702327197234375,-9.634879,0.271702,1.883454,0.10729,0.30541,0.38122
1702327197242187,-9.623879,0.276702,1.906454,0.4529,0.18341,0.41222
1702327197250000,-9.627879,0.283702,1.915454,0.7829,0.11041,0.28322
1702327197257812,-9.638879,0.272702,1.876454,0.10729,0.16541,0.33322
1702327197265625,-9.647879,0.281702,1.942454,0.4871,0.9741,0.29822
1702327197273437,-9.663879,0.292702,2.73454,0.6371,0.6641,0.31422
1702327197281250,-9.652879,0.313702,2.111454,0.9271,0.3659,0.26422
1702327197289062,-9.634879,0.323702,2.59454,0.6771,0.11041,0.21922
1702327197296875,-9.609879,0.323702,1.964454,0.3429,0.32141,0.24822
1702327197304687,-9.593879,0.307702,1.883454,0.6471,0.39641,0.24922
1702327197312500,-9.564879,0.282702,1.856454,0.21171,0.42341,0.33122
1702327197320312,-9.551879,0.253702,1.865454,0.31171,0.33941,0.28422
1702327197328125,-9.550879,0.240702,1.874454,0.27671,0.29541,0.34722
1702327197335937,-9.573879,0.244702,1.888454,0.14971,0.27741,0.31622
1702327197343750,-9.589879,0.259702,1.926454,0.971,0.26741,0.39922
1702327197351562,-9.596879,0.271702,1.960454,0.7529,0.22741,0.38122
1702327197359375,-9.594879,0.282702,1.978454,0.28729,0.13741,0.38022
1702327197367187,-9.587879,0.311702,1.973454,0.37029,0.2841,0.46022
1702327197375000,-9.574879,0.321702,1.944454,0.30329,0.559,0.41322
1702327197382812,-9.614879,0.336702,1.937454,0.35729,0.5759,0.34622
1702327197390625,-9.633879,0.353702,1.928454,0.27029,0.3659,0.38122
1702327197398437,-9.659879,0.336702,1.921454,0.14229,0.2841,0.33222
1702327197406250,-9.666879,0.316702,1.930454,0.5729,0.8441,0.33422
1702327197414062,-9.662879,0.313702,1.921454,0.2229,0.19041,0.28722
1702327197421875,-9.661879,0.290702,1.903454,0.4529,0.25041,0.28322
1702327197429687,-9.642879,0.268702,1.888454,0.4629,0.20341,0.31522
1702327197437500,-9.658879,0.251702,1.869454,0.6329,0.31941,0.12122
1702327197445312,-9.658879,0.241702,1.860454,0.2429,0.31041,0.4422
1702327197453125,-9.644879,0.244702,1.867454,0.2829,0.31741,0.4222
1702327197460937,-9.622879,0.254702,1.885454,0.7529,0.26741,0.7522
1702327197468750,-9.607879,0.274702,1.899454,0.10729,0.28241,0.4322
1702327197476562,-9.596879,0.275702,1.908454,0.3729,0.24241,0.6122
1702327197484375,-9.592879,0.277702,1.926454,0.2229,0.23041,0.378
1702327197492187,-9.585879,0.280702,1.953454,0.1029,0.22041,0.4222
1702327197500000,-9.607879,0.298702,1.946454,0.4429,0.26641,0.21922
1702327197507812,-9.629879,0.299702,1.924454,0.2929,0.26941,0.15422
1702327197515625,-9.648879,0.307702,1.912454,0.4529,0.6441,0.13822
1702327197523437,-9.664879,0.316702,1.879454,0.2729,0.7641,0.15522
1702327197531250,-9.670879,0.308702,1.863454,0.15729,0.4941,0.5822
1702327197539062,-9.641879,0.308702,1.856454,0.17529,0.6841,0.4122
1702327197546875,-9.636879,0.292702,1.874454,0.15729,0.3341,0.5822
1702327197554687,-9.627879,0.278702,1.908454,0.28629,0.1841,0.5822
1702327197562500,-9.634879,0.256702,1.903454,0.24729,0.9841,0.15822
1702327197570312,-9.630879,0.262702,1.926454,0.30929,0.9641,0.14322
1702327197578125,-9.645879,0.260702,1.906454,0.24829,0.14841,0.14122
1702327197585937,-9.642879,0.245702,1.921454,0.17329,0.22041,0.15522
1702327197593750,-9.638879,0.247702,1.930454,0.16929,0.26041,0.12522
1702327197601562,-9.642879,0.241702,1.908454,0.28729,0.27041,0.9022
1702327197609375,-9.626879,0.246702,1.858454,0.43729,0.29541,0.5522
1702327197617187,-9.631879,0.259702,1.788454,0.31729,0.39141,0.12322
1702327197625000,-9.629879,0.225702,1.845454,0.5471,0.17041,0.14022
1702327197632812,-9.638879,0.241702,1.867454,0.16771,0.6141,0.9122
1702327197640625,-9.627879,0.229702,1.838454,0.329,0.23841,0.11022
1702327197648437,-9.606879,0.225702,1.815454,0.18471,0.29441,0.15622
1702327197656250,-9.618879,0.245702,1.838454,0.20071,0.21741,0.4322
1702327197664062,-9.595879,0.242702,1.867454,0.8971,0.22941,0.7622
1702327197671875,-9.597879,0.243702,1.865454,0.1129,0.26641,0.9122
1702327197679687,-9.595879,0.251702,1.863454,0.4129,0.21741,0.10822
1702327197687500,-9.620879,0.257702,1.867454,0.1629,0.841,0.5622
1702327197695312,-9.620879,0.247702,1.860454,0.3929,0.7441,0.378
1702327197703125,-9.617879,0.250702,1.847454,0.8229,0.13641,0.8822
1702327197710937,-9.619879,0.257702,1.824454,0.16629,0.17341,0.5422
1702327197718750,-9.619879,0.250702,1.820454,0.17929,0.12441,0.978
1702327197726562,-9.617879,0.245702,1.806454,0.17229,0.15841,0.7422
1702327197734375,-9.613879,0.240702,1.777454,0.10429,0.15241,0.2822
1702327197742187,-9.621879,0.235702,1.790454,0.21229,0.12441,0.5522
1702327197750000,-9.615879,0.232702,1.829454,0.17229,0.9641,0.2178
1702327197757812,-9.615879,0.234702,1.858454,0.12129,0.18641,0.2722
1702327197765625,-9.599879,0.246702,1.874454,0.11429,0.20241,0.978
1702327197773437,-9.586879,0.254702,1.888454,0.4429,0.17741,0.922
1702327197781250,-9.596879,0.260702,1.876454,0.7329,0.9341,0.1122
1702327197789062,-9.608879,0.253702,1.869454,0.10129,0.5041,0.4278
1702327197796875,-9.615879,0.256702,1.865454,0.9229,0.6541,0.2622
1702327197804687,-9.631879,0.236702,1.845454,0.21629,0.5541,0.6122
1702327197812500,-9.632879,0.240702,1.808454,0.27829,0.3741,0.3022
1702327197820312,-9.642879,0.236702,1.781454,0.30029,0.9341,0.4322
1702327197828125,-9.653879,0.208702,1.761454,0.28329,0.14041,0.4322
1702327197835937,-9.648879,0.206702,1.768454,0.32529,0.8941,0.12022
1702327197843750,-9.661879,0.186702,1.736454,0.38429,0.3341,0.13822
1702327197851562,-9.664879,0.163702,1.784454,0.31429,0.13241,0.20622
1702327197859375,-9.643879,0.159702,1.842454,0.33529,0.3041,0.22022
1702327197867187,-9.652879,0.152702,1.829454,0.26829,0.15141,0.25322
1702327197875000,-9.661879,0.144702,1.795454,0.15629,0.5741,0.28522
1702327197882812,-9.628879,0.145702,1.804454,0.3829,0.20641,0.30322
1702327197890625,-9.634879,0.150702,1.813454,0.4629,0.6341,0.26722
1702327197898437,-9.650879,0.141702,1.795454,0.7629,0.14741,0.30822
1702327197906250,-9.658879,0.140702,1.795454,0.1271,0.11941,0.26422
1702327197914062,-9.661879,0.157702,1.777454,0.5171,0.159,0.25222
1702327197921875,-9.658879,0.180702,1.793454,0.2671,0.4441,0.26322
1702327197929687,-9.692879,0.158702,1.759454,0.3071,0.741,0.23322
1702327197937500,-9.664879,0.182702,1.779454,0.11571,0.6341,0.18722
1702327197945312,-9.657879,0.184702,1.809454,0.4729,0.1059,0.10522
1702327197953125,-9.673879,0.175702,1.770454,0.2071,0.4759,0.12322
1702327197960937,-9.675879,0.177702,1.786454,0.5829,0.4241,0.17222
1702327197968750,-9.668879,0.175702,1.781454,0.3771,0.1041,0.25322
1702327197976562,-9.659879,0.175702,1.799454,0.1871,0.6341,0.20322
1702327197984375,-9.664879,0.181702,1.818454,0.1029,0.7241,0.25322
1702327197992187,-9.674879,0.192702,1.811454,0.1071,0.6041,0.23122
1702327198000000,-9.668879,0.188702,1.804454,0.14971,0.10641,0.26822
1702327198007812,-9.661879,0.197702,1.781454,0.4971,0.12841,0.23422
1702327198015625,-9.665879,0.207702,1.775454,0.7471,0.5941,0.29522
1702327198023437,-9.660879,0.208702,1.754454,0.21371,0.4441,0.28422
1702327198031250,-9.641879,0.222702,1.727454,0.11171,0.2241,0.23322
1702327198039062,-9.651879,0.219702,1.716454,0.8271,0.3241,0.25122
1702327198046875,-9.645879,0.223702,1.720454,0.12271,0.1941,0.27122
1702327198054687,-9.653879,0.219702,1.716454,0.3029,0.1641,0.23522
1702327198062500,-9.671879,0.210702,1.711454,0.1229,0.10741,0.25222
1702327198070312,-9.669879,0.212702,1.705454,0.2829,0.2941,0.26822
1702327198078125,-9.664879,0.212702,1.732454,0.4529,0.1341,0.28422
1702327198085937,-9.677879,0.200702,1.720454,0.3429,0.3841,0.29722
1702327198093750,-9.685879,0.203702,1.711454,0.4129,0.741,0.27022
1702327198101562,-9.684879,0.204702,1.707454,0.3329,0.9741,0.33022
1702327198109375,-9.687879,0.213702,1.691454,0.10929,0.12241,0.34822
1702327198117187,-9.689879,0.210702,1.687454,0.13929,0.1041,0.25322
1702327198125000,-9.682879,0.208702,1.678454,0.1229,0.6041,0.26822
1702327198132812,-9.680879,0.213702,1.671454,0.7729,0.1341,0.26822
1702327198140625,-9.677879,0.220702,1.666454,0.3429,0.5441,0.24922
1702327198148437,-9.676879,0.221702,1.687454,0.671,0.18141,0.28522
1702327198156250,-9.664879,0.223702,1.696454,0.4129,0.29041,0.25322
1702327198164062,-9.661879,0.225702,1.698454,0.1471,0.26241,0.28922
1702327198171875,-9.667879,0.218702,1.696454,0.14171,0.29641,0.32022
1702327198179687,-9.673879,0.204702,1.680454,0.1671,0.31441,0.34622
1702327198187500,-9.684879,0.195702,1.673454,0.7729,0.21541,0.36422
1702327198195312,-9.682879,0.188702,1.659454,0.7629,0.21541,0.28422
1702327198203125,-9.681879,0.180702,1.644454,0.14829,0.25941,0.31222
1702327198210937,-9.680879,0.174702,1.635454,0.28029,0.28141,0.24622
1702327198218750,-9.663879,0.180702,1.628454,0.27529,0.24541,0.13622
1702327198226562,-9.666879,0.186702,1.632454,0.22229,0.3341,0.12222
1702327198234375,-9.673879,0.202702,1.603454,0.21929,0.7741,0.4322
1702327198242187,-9.692879,0.214702,1.567454,0.31329,0.9941,0.6922
1702327198250000,-9.695879,0.220702,1.680454,0.2929,0.15741,0.18722
1702327198257812,-9.714879,0.226702,1.770454,0.2171,0.2059,0.25322
1702327198265625,-9.725879,0.245702,1.788454,0.5029,0.3959,0.23322
1702327198273437,-9.711879,0.249702,1.752454,0.3129,0.22241,0.26622
1702327198281250,-9.695879,0.242702,1.653454,0.4829,0.38041,0.24922
1702327198289062,-9.678879,0.234702,1.574454,0.10471,0.37941,0.41422
1702327198296875,-9.648879,0.202702,1.547454,0.28971,0.37941,0.39422
1702327198304687,-9.630879,0.186702,1.556454,0.30671,0.26741,0.41122
1702327198312500,-9.638879,0.173702,1.576454,0.20771,0.28541,0.42622
1702327198320312,-9.650879,0.175702,1.583454,0.11271,0.25141,0.41022
1702327198328125,-9.686879,0.190702,1.614454,0.2829,0.25741,0.49422
1702327198335937,-9.702879,0.200702,1.653454,0.6629,0.14241,0.47422
1702327198343750,-9.696879,0.208702,1.687454,0.23629,0.10041,0.41422
1702327198351562,-9.696879,0.233702,1.693454,0.37029,0.1759,0.42822
1702327198359375,-9.714879,0.246702,1.669454,0.35429,0.1241,0.49222
1702327198367187,-9.736879,0.258702,1.662454,0.30529,0.2841,0.46022
1702327198375000,-9.750879,0.247702,1.630454,0.29029,0.6241,0.41122
1702327198382812,-9.753879,0.237702,1.632454,0.22929,0.19341,0.42522
1702327198390625,-9.751879,0.221702,1.639454,0.12929,0.33041,0.42722
1702327198398437,-9.747879,0.205702,1.639454,0.9329,0.30841,0.41222
1702327198406250,-9.742879,0.197702,1.605454,0.9829,0.28641,0.36122
1702327198414062,-9.734879,0.189702,1.596454,0.16929,0.25641,0.31822
1702327198421875,-9.717879,0.189702,1.571454,0.17229,0.26241,0.28422
1702327198429687,-9.719879,0.190702,1.558454,0.30729,0.28741,0.26522
1702327198437500,-9.713879,0.193702,1.558454,0.28129,0.30341,0.25422
1702327198445312,-9.696879,0.195702,1.567454,0.26329,0.31541,0.27122
1702327198453125,-9.695879,0.196702,1.598454,0.35529,0.36541,0.24922
1702327198460937,-9.695879,0.207702,1.610454,0.27229,0.42441,0.25022
1702327198468750,-9.699879,0.205702,1.623454,0.30529,0.34741,0.26622
1702327198476562,-9.697879,0.205702,1.639454,0.29429,0.40341,0.24722
1702327198484375,-9.704879,0.205702,1.644454,0.27629,0.29041,0.26422
1702327198492187,-9.695879,0.211702,1.644454,0.30529,0.28441,0.26622
1702327198500000,-9.691879,0.204702,1.632454,0.28429,0.30641,0.33322
1702327198507812,-9.685879,0.205702,1.619454,0.23129,0.33141,0.30322
1702327198515625,-9.682879,0.201702,1.605454,0.13429,0.30041,0.25522
1702327198523437,-9.680879,0.199702,1.603454,0.20229,0.25541,0.38222
1702327198531250,-9.680879,0.195702,1.614454,0.21829,0.36841,0.30122
1702327198539062,-9.670879,0.191702,1.605454,0.27129,0.25041,0.29922
1702327198546875,-9.697879,0.189702,1.612454,0.11329,0.38041,0.31322
1702327198554687,-9.702879,0.189702,1.619454,0.18929,0.32441,0.34822
1702327198562500,-9.699879,0.191702,1.632454,0.7729,0.35841,0.33122
1702327198570312,-9.709879,0.189702,1.648454,0.15729,0.29341,0.39622
1702327198578125,-9.702879,0.190702,1.693454,0.24829,0.33041,0.39922
1702327198585937,-9.710879,0.181702,1.664454,0.39129,0.30541,0.40822
1702327198593750,-9.720879,0.216702,1.585454,0.48429,0.44341,0.28122
1702327198601562,-9.679879,0.222702,1.596454,0.17629,0.34641,0.33022
1702327198609375,-9.651879,0.210702,1.621454,0.1329,0.15241,0.38022
1702327198617187,-9.664879,0.213702,1.621454,0.171,0.24941,0.39522
1702327198625000,-9.650879,0.210702,1.589454,0.1871,0.35841,0.36322
1702327198632812,-9.653879,0.212702,1.574454,0.4229,0.32141,0.38122
1702327198640625,-9.649879,0.212702,1.578454,0.929,0.29841,0.37422
1702327198648437,-9.648879,0.219702,1.576454,0.6129,0.33941,0.46122
1702327198656250,-9.663879,0.231702,1.587454,0.16729,0.29241,0.40822
1702327198664062,-9.660879,0.241702,1.608454,0.14329,0.31141,0.42722
1702327198679687,-9.694879,0.252702,1.623454,0.6029,0.18041,0.42922
1702327198687500,-9.694879,0.257702,1.628454,0.10729,0.28941,0.41322
1702327198695312,-9.685879,0.248702,1.626454,0.10929,0.30841,0.42822
1702327198703125,-9.703879,0.251702,1.617454,0.1429,0.32641,0.42822
1702327198710937,-9.711879,0.245702,1.596454,0.5029,0.39441,0.47422
1702327198718750,-9.714879,0.253702,1.585454,0.3229,0.42341,0.42722
1702327198726562,-9.716879,0.253702,1.578454,0.3571,0.43241,0.47722
1702327198734375,-9.698879,0.251702,1.601454,0.4771,0.50341,0.44222
1702327198742187,-9.702879,0.238702,1.598454,0.3471,0.48241,0.42822
1702327198750000,-9.692879,0.257702,1.612454,0.7371,0.50441,0.41522
1702327198757812,-9.692879,0.262702,1.623454,0.471,0.41741,0.42922
1702327198765625,-9.671879,0.262702,1.628454,0.1529,0.43841,0.42722
1702327198773437,-9.675879,0.253702,1.630454,0.1171,0.41341,0.47322
1702327198781250,-9.678879,0.264702,1.626454,0.3029,0.38941,0.42822
1702327198789062,-9.667879,0.275702,1.612454,0.1329,0.48241,0.39622
1702327198796875,-9.660879,0.259702,1.614454,0.3129,0.45441,0.41122
1702327198804687,-9.661879,0.261702,1.598454,0.5671,0.36441,0.41422
