time,Acceleration X (m/s^2),Acceleration Y (m/s^2),Acceleration Z (m/s^2),Angular Velocity X (rad/s),Angular Velocity Y (rad/s),Angular Velocity Z (rad/s)
1702327628101562,-9.337655,2.522435,-0.032356,,,
1702327628109375,-9.368655,0.746808,2.551435,0.49013,0.31656,0.8674
1702327628117187,-9.381655,0.733808,2.558435,0.50613,0.30156,0.10274
1702327628125000,-9.390655,0.729808,2.547435,0.47213,0.35156,0.8774
1702327628132812,-9.374655,0.722808,2.538435,0.55413,0.22356,0.10274
1702327628140625,-9.298655,0.709808,2.526435,0.50513,0.14556,0.8674
1702327628156250,-9.160655,0.659808,2.542435,0.53313,0.19344,0.8774
1702327628164062,-9.135655,0.648808,2.594435,0.59113,0.38644,0.10674
1702327628171875,-9.124655,0.637808,2.623435,0.68713,0.52644,0.9074
1702327628179687,-9.106655,0.616808,2.673435,0.80613,0.77244,0.10374
1702327628203125,-9.142655,0.592808,2.741435,0.80413,0.144444,0.11974
1702327628210937,-9.197655,0.577808,2.675435,0.91313,0.150044,0.20174
1702327628218750,-9.254655,0.600808,2.768435,0.110813,0.145744,0.13674
1702327628226562,-9.277655,0.634808,2.829435,0.121913,0.150144,0.8974
1702327628234375,-9.260655,0.666808,2.685435,0.127213,0.163544,0.10274
1702327628242187,-9.217655,0.684808,2.526435,0.117313,0.166344,0.10374
1702327628250000,-9.173655,0.698808,2.472435,0.111113,0.182544,0.8574
1702327628257812,-9.187655,0.700808,2.474435,0.124313,0.201844,0.5174
1702327628265625,-9.198655,0.730808,2.535435,0.124813,0.212744,0.4074
1702327628273437,-9.188655,0.749808,2.621435,0.128613,0.245544,0.10726
1702327628281250,-9.221655,0.761808,2.612435,0.109813,0.269244,0.24826
1702327628289062,-9.273655,0.795808,2.549435,0.84013,0.289744,0.26426
1702327628296875,-9.330655,0.864808,2.488435,0.65113,0.293744,0.31526
1702327628304687,-9.355655,0.931808,2.479435,0.51313,0.287944,0.40826
1702327628312500,-9.402655,1.29808,2.438435,0.45013,0.289844,0.42526
1702327628320312,-9.449655,1.114808,2.355435,0.46013,0.293544,0.48626
1702327628328125,-9.493655,1.210808,2.278435,0.44313,0.292044,0.55026
1702327628335937,-9.537655,1.299808,2.226435,0.46113,0.290844,0.55126
1702327628343750,-9.552655,1.399808,2.156435,0.43113,0.283344,0.55226
1702327628351562,-9.516655,1.491808,2.88435,0.35213,0.277444,0.58526
1702327628359375,-9.443655,1.574808,2.57435,0.23913,0.282044,0.56926
1702327628367187,-9.378655,1.641808,2.18435,0.24613,0.279844,0.52426
1702327628375000,-9.340655,1.719808,1.928435,0.15413,0.276844,0.63126
1702327628382812,-9.327655,1.774808,1.840435,0.8513,0.291744,0.61326
1702327628390625,-9.290655,1.821808,1.763435,0.11213,0.298344,0.66726
1702327628398437,-9.279655,1.890808,1.731435,0.887,0.298644,0.71126
1702327628406250,-9.282655,1.926808,1.722435,0.14087,0.320444,0.77526
1702327628414062,-9.299655,1.986808,1.725435,0.7887,0.334144,0.79026
1702327628421875,-9.330655,2.45808,1.673435,0.23287,0.345044,0.85926
1702327628429687,-9.381655,2.69808,1.571435,0.31787,0.355344,0.88926
1702327628437500,-9.444655,2.87808,1.494435,0.25587,0.359744,0.93626
1702327628445312,-9.527655,2.93808,1.442435,0.26987,0.361644,0.92126
1702327628453125,-9.604655,2.125808,1.458435,0.33187,0.369944,0.92326
1702327628460937,-9.680655,2.101808,1.461435,0.34087,0.366444,0.94226
1702327628468750,-9.756655,2.111808,1.440435,0.36387,0.370044,0.95526
1702327628476562,-9.814655,2.101808,1.449435,0.31587,0.373144,0.92226
1702327628484375,-9.878655,2.65808,1.440435,0.33287,0.358744,0.93826
1702327628492187,-9.885655,2.65808,1.377435,0.31987,0.348844,0.93626
1702327628500000,-9.907655,2.57808,1.348435,0.30187,0.327044,0.90426
1702327628507812,-9.920655,2.55808,1.312435,0.38187,0.314544,0.88826
1702327628515625,-9.909655,2.63808,1.237435,0.42587,0.310544,0.87426
1702327628523437,-9.875655,2.37808,1.77435,0.57587,0.295544,0.82326
1702327628531250,-9.837655,2.40808,1.34435,0.31387,0.278744,0.82526
1702327628539062,-9.832655,2.38808,1.120435,0.10287,0.261644,0.77726
1702327628546875,-9.834655,2.25808,1.176435,0.24887,0.251944,0.76026
1702327628554687,-9.835655,2.42808,1.187435,0.34087,0.232344,0.77826
1702327628562500,-9.835655,2.29808,1.190435,0.40187,0.223244,0.69926
1702327628570312,-9.848655,1.992808,1.174435,0.53187,0.207344,0.68226
1702327628578125,-9.852655,1.980808,1.183435,0.43087,0.179644,0.63526
1702327628585937,-9.868655,1.972808,1.142435,0.46087,0.168644,0.55526
1702327628593750,-9.863655,1.978808,1.95435,0.41187,0.148444,0.57126
1702327628601562,-9.874655,1.954808,1.122435,0.42287,0.126944,0.44426
1702327628609375,-9.891655,1.924808,1.135435,0.37987,0.110044,0.37726
1702327628617187,-9.838655,1.909808,1.156435,0.42087,0.93844,0.29926
1702327628625000,-9.795655,1.909808,1.151435,0.48187,0.73444,0.5926
1702327628632812,-9.794655,1.903808,1.68435,0.37287,0.54944,0.7274
1702327628640625,-9.788655,1.898808,1.7435,0.30287,0.35344,0.11874
1702327628648437,-9.777655,1.907808,0.982435,0.25187,0.25944,0.29474
1702327628656250,-9.782655,1.908808,0.961435,0.29187,0.16244,0.27474
1702327628664062,-9.755655,1.910808,0.968435,0.25887,0.8444,0.35474
1702327628671875,-9.725655,1.923808,0.959435,0.19787,0.1856,0.42174
1702327628679687,-9.692655,1.948808,0.923435,0.26487,0.22756,0.47174
1702327628687500,-9.683655,1.974808,0.876435,0.8487,0.34856,0.45474
1702327628695312,-9.683655,1.970808,0.839435,0.6887,0.47656,0.47074
1702327628703125,-9.665655,1.950808,0.810435,0.1887,0.68256,0.68074
1702327628710937,-9.649655,1.929808,0.801435,0.3713,0.79856,0.77374
1702327628718750,-9.618655,1.926808,0.824435,0.11713,0.81756,0.83874
1702327628726562,-9.658655,1.905808,0.851435,0.7213,0.101756,0.88574
1702327628734375,-9.709655,1.886808,0.889435,0.10213,0.100856,0.104774
1702327628742187,-9.711655,1.875808,0.925435,0.25113,0.113056,0.112674
1702327628750000,-9.789655,1.847808,0.900435,0.33513,0.138056,0.125474
1702327628757812,-9.970655,1.830808,0.831435,0.51213,0.160456,0.135274
1702327628765625,-10.139655,1.747808,0.840435,0.49613,0.182656,0.144974
1702327628773437,-10.259655,1.662808,0.975435,0.61613,0.187956,0.155874
1702327628781250,-10.356655,1.611808,1.138435,0.74413,0.184056,0.175374
1702327628789062,-10.396655,1.560808,1.269435,0.69613,0.174756,0.184974
1702327628796875,-10.379655,1.489808,1.328435,0.63413,0.168356,0.197774
1702327628804687,-10.327655,1.420808,1.303435,0.57113,0.179656,0.213874
1702327628812500,-10.198655,1.385808,1.224435,0.52413,0.195356,0.223474
1702327628820312,-10.53655,1.353808,1.142435,0.33513,0.199456,0.226474
1702327628828125,-9.947655,1.350808,1.90435,0.9513,0.211956,0.234474
1702327628835937,-9.822655,1.314808,1.97435,0.2013,0.234756,0.237474
1702327628843750,-9.698655,1.259808,1.81435,0.23687,0.244156,0.248674
1702327628851562,-9.567655,1.218808,1.124435,0.28987,0.254456,0.252174
1702327628859375,-9.466655,1.167808,1.171435,0.34687,0.251656,0.251774
1702327628867187,-9.381655,1.130808,1.226435,0.44087,0.270056,0.251674
1702327628875000,-9.335655,1.106808,1.296435,0.43287,0.280556,0.242474
1702327628882812,-9.297655,1.99808,1.323435,0.41687,0.289856,0.234374
1702327628890625,-9.283655,1.110808,1.341435,0.45187,0.291656,0.221674
1702327628898437,-9.283655,1.114808,1.311435,0.27687,0.288356,0.203974
1702327628906250,-9.308655,1.106808,1.316435,0.26287,0.286656,0.187974
1702327628914062,-9.343655,1.52808,1.320435,0.23987,0.280756,0.182774
1702327628921875,-9.378655,0.978808,1.329435,0.26187,0.270356,0.170174
1702327628929687,-9.383655,0.867808,1.293435,0.24787,0.249756,0.154074
1702327628937500,-9.394655,0.762808,1.264435,0.20487,0.253756,0.154374
1702327628945312,-9.387655,0.634808,1.262435,0.11887,0.255256,0.141974
1702327628953125,-9.373655,0.523808,1.214435,0.17387,0.252056,0.136674
1702327628960937,-9.333655,0.433808,1.226435,0.10687,0.259556,0.138174
1702327628968750,-9.323655,0.334808,1.246435,0.10987,0.252056,0.138274
1702327628976562,-9.331655,0.263808,1.273435,0.10687,0.265756,0.136574
1702327628984375,-9.343655,0.190808,1.330435,0.18787,0.264256,0.134974
1702327628992187,-9.372655,0.140808,1.400435,0.15587,0.264156,0.130174
1702327629000000,-9.371655,0.95808,1.485435,0.28487,0.261156,0.134974
1702327629007812,-9.375655,0.58808,1.573435,0.18587,0.251456,0.139674
1702327629015625,-9.395655,0.29808,1.648435,0.23687,0.251756,0.134974
1702327629023437,-9.432655,0.33808,1.711435,0.16887,0.234956,0.137174
1702327629031250,-9.517655,0.1808,1.702435,0.5487,0.229956,0.130674
1702327629039062,-9.611655,0.0,1.752435,0.3013,0.216556,0.125574
1702327629046875,-9.644655,0.25192,1.919435,0.687,0.190356,0.120874
1702327629054687,-9.660655,0.47192,1.879435,0.2387,0.163956,0.125774
1702327629062500,-9.676655,0.61192,1.779435,0.7713,0.139256,0.112574
1702327629070312,-9.714655,0.51192,1.811435,0.26513,0.135456,0.111274
1702327629078125,-9.745655,0.46192,1.861435,0.32713,0.116756,0.101674
1702327629085937,-9.723655,0.55192,1.809435,0.39213,0.112056,0.103274
1702327629093750,-9.694655,0.38192,1.693435,0.39113,0.104256,0.103274
1702327629101562,-9.669655,0.62192,1.650435,0.37413,0.96456,0.101674
1702327629109375,-9.678655,0.69192,1.815435,0.50313,0.80856,0.103274
1702327629117187,-9.698655,0.85192,1.944435,0.50613,0.68956,0.86974
1702327629125000,-9.713655,0.100192,1.949435,0.43813,0.56856,0.87074
1702327629132812,-9.742655,0.128192,1.974435,0.19313,0.54056,0.82374
1702327629140625,-9.793655,0.127192,2.12435,0.4213,0.53456,0.77874
1702327629148437,-9.798655,0.107192,2.14435,0.10187,0.54656,0.72974
1702327629156250,-9.826655,0.31192,2.5435,0.29787,0.56156,0.56974
1702327629164062,-9.768655,0.18808,2.16435,0.33287,0.53256,0.52174
1702327629171875,-9.730655,0.121808,2.25435,0.48787,0.58256,0.37374
1702327629179687,-9.661655,0.207808,2.37435,0.49687,0.52256,0.30574
1702327629187500,-9.542655,0.253808,2.7435,0.45887,0.53756,0.24674
1702327629195312,-9.460655,0.300808,1.892435,0.40887,0.51456,0.11674
1702327629203125,-9.395655,0.317808,1.781435,0.31587,0.51656,0.10726
1702327629210937,-9.326655,0.317808,1.698435,0.32787,0.52156,0.27026
1702327629218750,-9.287655,0.298808,1.625435,0.30587,0.51656,0.47526
1702327629226562,-9.269655,0.250808,1.576435,0.28687,0.52156,0.68626
1702327629234375,-9.299655,0.227808,1.562435,0.17987,0.52556,0.90926
1702327629242187,-9.366655,0.185808,1.616435,0.4787,0.45356,0.105626
1702327629250000,-9.453655,0.152808,1.628435,0.5287,0.48956,0.116626
1702327629257812,-9.533655,0.104808,1.675435,0.2287,0.47656,0.126226
1702327629265625,-9.598655,0.54808,1.687435,0.3287,0.44756,0.136226
1702327629273437,-9.642655,0.24808,1.673435,0.4987,0.59156,0.134526
1702327629281250,-9.676655,0.10808,1.655435,0.2787,0.48856,0.130026
1702327629289062,-9.706655,0.9808,1.646435,0.4887,0.65356,0.128126
1702327629296875,-9.705655,0.17808,1.653435,0.4487,0.66356,0.126726
1702327629304687,-9.682655,0.39808,1.653435,0.11087,0.71356,0.123426
1702327629312500,-9.681655,0.73808,1.623435,0.14187,0.82256,0.118626
1702327629320312,-9.681655,0.93808,1.599435,0.6287,0.96956,0.112026
1702327629328125,-9.706655,0.117808,1.619435,0.2087,0.105056,0.101226
1702327629335937,-9.720655,0.159808,1.637435,0.2187,0.122556,0.102726
1702327629343750,-9.735655,0.180808,1.653435,0.1813,0.131856,0.95826
1702327629351562,-9.775655,0.225808,1.648435,0.4113,0.143456,0.92926
1702327629359375,-9.820655,0.252808,1.653435,0.7513,0.163656,0.88126
1702327629367187,-9.852655,0.274808,1.673435,0.487,0.166856,0.84926
1702327629375000,-9.863655,0.303808,1.614435,0.1787,0.182056,0.83426
1702327629382812,-9.873655,0.350808,1.700435,0.20613,0.200956,0.94626
1702327629390625,-9.873655,0.394808,1.885435,0.26913,0.199656,0.96126
1702327629398437,-9.876655,0.401808,1.879435,0.10513,0.204656,0.96026
1702327629406250,-9.899655,0.412808,1.931435,0.4913,0.203056,0.104526
1702327629414062,-9.901655,0.442808,2.21435,0.713,0.220556,0.102326
1702327629421875,-9.876655,0.459808,2.98435,0.23487,0.236056,0.112026
1702327629429687,-9.845655,0.466808,2.105435,0.23787,0.256856,0.116626
1702327629437500,-9.791655,0.474808,2.107435,0.27387,0.255956,0.114826
1702327629445312,-9.743655,0.488808,2.116435,0.41187,0.264056,0.118426
1702327629453125,-9.708655,0.518808,2.138435,0.52087,0.274256,0.125026
1702327629460937,-9.660655,0.547808,2.174435,0.54587,0.282056,0.126226
1702327629468750,-9.614655,0.602808,2.199435,0.51387,0.282056,0.127826
1702327629476562,-9.568655,0.635808,2.217435,0.55287,0.286656,0.131526
1702327629484375,-9.522655,0.665808,2.226435,0.50287,0.295656,0.136426
1702327629492187,-9.493655,0.690808,2.210435,0.44387,0.296556,0.137726
1702327629500000,-9.486655,0.706808,2.201435,0.49587,0.298356,0.148826
1702327629507812,-9.478655,0.720808,2.192435,0.52487,0.303956,0.155426
1702327629515625,-9.467655,0.733808,2.199435,0.53787,0.293956,0.160426
1702327629523437,-9.468655,0.739808,2.233435,0.53287,0.284556,0.169626
1702327629531250,-9.489655,0.752808,2.276435,0.55987,0.277456,0.169926
1702327629539062,-9.505655,0.761808,2.308435,0.56287,0.271456,0.174626
1702327629546875,-9.527655,0.773808,2.341435,0.55187,0.268956,0.182426
1702327629554687,-9.537655,0.774808,2.366435,0.69187,0.267956,0.187526
1702327629562500,-9.539655,0.777808,2.387435,0.59687,0.251256,0.176126
1702327629570312,-9.502655,0.757808,2.368435,0.66387,0.251556,0.182526
1702327629578125,-9.469655,0.745808,2.362435,0.80887,0.250056,0.174426
1702327629585937,-9.440655,0.724808,2.335435,0.80387,0.251056,0.166626
1702327629593750,-9.412655,0.705808,2.310435,0.82587,0.248856,0.166326
1702327629601562,-9.437655,0.686808,2.296435,0.80087,0.246056,0.160326
1702327629609375,-9.437655,0.664808,2.321435,0.84987,0.243056,0.157126
1702327629617187,-9.443655,0.643808,2.339435,0.83787,0.232756,0.156926
1702327629625000,-9.458655,0.623808,2.387435,0.77187,0.221556,0.150526
1702327629632812,-9.453655,0.601808,2.459435,0.82087,0.209556,0.134426
1702327629640625,-9.444655,0.577808,2.488435,0.87087,0.203656,0.127926
1702327629648437,-9.428655,0.560808,2.495435,0.86387,0.202856,0.115326
1702327629656250,-9.433655,0.556808,2.452435,0.100687,0.193256,0.113826
1702327629664062,-9.453655,0.545808,2.420435,0.120487,0.190756,0.110426
1702327629671875,-9.470655,0.544808,2.414435,0.123787,0.191156,0.100726
1702327629679687,-9.518655,0.564808,2.418435,0.135087,0.191156,0.102326
1702327629687500,-9.554655,0.598808,2.502435,0.148287,0.185256,0.103826
1702327629695312,-9.560655,0.635808,2.567435,0.154087,0.182156,0.101726
1702327629703125,-9.590655,0.707808,2.581435,0.159187,0.183156,0.103926
1702327629710937,-9.528655,0.734808,2.664435,0.159087,0.173456,0.102426
1702327629718750,-9.384655,0.753808,2.734435,0.167787,0.160456,0.103726
1702327629726562,-9.279655,0.818808,2.687435,0.158287,0.152956,0.102026
1702327629734375,-9.202655,0.876808,2.558435,0.158287,0.132356,0.103726
1702327629742187,-9.149655,0.908808,2.393435,0.154887,0.127456,0.99026
1702327629750000,-9.143655,0.907808,2.305435,0.134987,0.110956,0.99226
1702327629757812,-9.156655,0.892808,2.300435,0.132087,0.95656,0.103926
1702327629765625,-9.169655,0.868808,2.316435,0.135487,0.73456,0.118426
1702327629773437,-9.212655,0.841808,2.319435,0.136587,0.51656,0.119526
1702327629781250,-9.297655,0.825808,2.334435,0.128787,0.41056,0.119426
1702327629789062,-9.410655,0.816808,2.321435,0.125787,0.29656,0.112126
1702327629796875,-9.558655,0.810808,2.276435,0.113087,0.31456,0.116826
1702327629804687,-9.712655,0.826808,2.213435,0.105287,0.30156,0.116726
1702327629812500,-9.852655,0.852808,2.193435,0.111587,0.34156,0.117526
1702327629820312,-9.970655,0.888808,2.272435,0.102987,0.31656,0.117826
1702327629828125,-10.44655,0.920808,2.387435,0.99687,0.31756,0.111426
1702327629835937,-10.90655,0.976808,2.457435,0.97787,0.31456,0.106726
1702327629843750,-10.134655,1.27808,2.486435,0.84487,0.37056,0.108526
1702327629851562,-10.155655,1.35808,2.550435,0.83587,0.52956,0.100926
1702327629859375,-10.147655,1.43808,2.624435,0.73187,0.66856,0.105226
1702327629867187,-10.41655,1.13808,2.604435,0.65387,0.78356,0.103526
1702327629875000,-9.899655,0.981808,2.461435,0.77187,0.75056,0.100826
1702327629882812,-9.819655,0.960808,2.484435,0.79187,0.103956,0.107026
1702327629890625,-9.734655,0.961808,2.768435,0.56587,0.125656,0.115026
1702327629898437,-9.654655,0.944808,2.859435,0.49587,0.123056,0.118526
1702327629906250,-9.541655,0.903808,2.716435,0.46587,0.142356,0.120026
1702327629914062,-9.399655,0.859808,2.601435,0.48387,0.155556,0.110226
1702327629921875,-9.320655,0.815808,2.596435,0.59287,0.150256,0.102326
1702327629929687,-9.252655,0.790808,2.680435,0.54887,0.150856,0.103726
1702327629937500,-9.238655,0.780808,2.691435,0.56787,0.149956,0.100326
1702327629945312,-9.238655,0.771808,2.646435,0.54987,0.140356,0.95626
1702327629953125,-9.248655,0.773808,2.657435,0.56387,0.126156,0.84526
1702327629960937,-9.264655,0.792808,2.633435,0.50687,0.121856,0.73626
1702327629968750,-9.256655,0.832808,2.596435,0.37987,0.103956,0.52526
1702327629976562,-9.211655,0.881808,2.535435,0.36787,0.107656,0.52426
1702327629984375,-9.189655,0.891808,2.463435,0.24587,0.102256,0.22226
1702327629992187,-9.196655,0.900808,2.418435,0.14987,0.112356,0.2726
1702327630000000,-9.214655,0.903808,2.393435,0.6787,0.109256,0.6874
1702327630007812,-9.204655,0.901808,2.361435,0.5487,0.113056,0.10274
1702327630015625,-9.191655,0.864808,2.404435,0.9687,0.109056,0.17974
1702327630023437,-9.213655,0.838808,2.416435,0.18987,0.103856,0.25874
1702327630031250,-9.256655,0.818808,2.434435,0.23787,0.100756,0.30674
1702327630039062,-9.298655,0.804808,2.447435,0.20687,0.102656,0.32374
1702327630046875,-9.328655,0.803808,2.477435,0.32887,0.104256,0.35974
1702327630054687,-9.353655,0.803808,2.484435,0.43887,0.102456,0.48774
1702327630062500,-9.384655,0.806808,2.502435,0.55187,0.93156,0.51974
1702327630070312,-9.436655,0.807808,2.497435,0.53487,0.88156,0.50274
1702327630078125,-9.475655,0.816808,2.522435,0.61287,0.86356,0.54974
1702327630085937,-9.523655,0.820808,2.576435,0.66787,0.86356,0.54574
1702327630093750,-9.571655,0.801808,2.626435,0.73987,0.84556,0.59774
1702327630101562,-9.596655,0.812808,2.631435,0.73487,0.97956,0.59574
1702327630109375,-9.614655,0.799808,2.671435,0.74687,0.103556,0.59374
1702327630117187,-9.602655,0.797808,2.692435,0.79987,0.118456,0.61174
1702327630125000,-9.558655,0.816808,2.710435,0.69987,0.130256,0.51374
1702327630132812,-9.525655,0.825808,2.734435,0.73287,0.136756,0.53074
1702327630140625,-9.528655,0.828808,2.737435,0.66087,0.146556,0.49574
1702327630148437,-9.542655,0.832808,2.710435,0.74987,0.166656,0.49874
1702327630156250,-9.525655,0.835808,2.694435,0.59787,0.176156,0.36674
1702327630164062,-9.514655,0.836808,2.725435,0.71687,0.184856,0.30574
1702327630171875,-9.520655,0.818808,2.741435,0.81287,0.200356,0.22474
1702327630179687,-9.495655,0.816808,2.795435,0.71787,0.205356,0.22574
1702327630187500,-9.490655,0.781808,2.793435,0.72387,0.207856,0.21274
1702327630195312,-9.497655,0.738808,2.694435,0.77687,0.202856,0.23874
1702327630203125,-9.496655,0.734808,2.755435,0.39687,0.222656,0.13074
1702327630210937,-9.516655,0.732808,2.845435,0.32987,0.223856,0.16174
1702327630218750,-9.532655,0.717808,2.825435,0.29887,0.210256,0.25874
1702327630226562,-9.529655,0.691808,2.845435,0.44887,0.209356,0.21274
1702327630234375,-9.526655,0.668808,2.890435,0.46187,0.196256,0.24274
1702327630242187,-9.495655,0.668808,2.920435,0.50987,0.194756,0.29074
1702327630250000,-9.476655,0.669808,2.922435,0.35887,0.182956,0.32074
1702327630257812,-9.445655,0.654808,2.883435,0.36787,0.176756,0.42174
1702327630265625,-9.392655,0.664808,2.868435,0.31387,0.191356,0.37074
1702327630273437,-9.331655,0.656808,2.906435,0.36387,0.201356,0.46874
1702327630281250,-9.297655,0.647808,2.870435,0.36587,0.189256,0.51774
1702327630289062,-9.257655,0.649808,2.897435,0.38687,0.183656,0.51974
1702327630296875,-9.224655,0.655808,2.908435,0.28287,0.176256,0.49974
1702327630304687,-9.203655,0.666808,2.910435,0.28787,0.180256,0.48674
1702327630312500,-9.167655,0.655808,2.919435,0.22687,0.178956,0.42374
1702327630320312,-9.152655,0.654808,2.919435,0.18787,0.174556,0.37174
1702327630328125,-9.141655,0.667808,2.922435,0.7687,0.170156,0.35674
1702327630335937,-9.130655,0.682808,2.922435,0.6187,0.166956,0.27674
1702327630343750,-9.136655,0.692808,2.924435,0.10387,0.157956,0.24074
1702327630351562,-9.144655,0.693808,2.931435,0.8887,0.154756,0.9674
1702327630359375,-9.182655,0.696808,2.960435,0.13187,0.154756,0.6874
1702327630367187,-9.218655,0.697808,2.985435,0.6787,0.153056,0.474
1702327630375000,-9.253655,0.682808,3.3435,0.2087,0.134356,0.4326
1702327630382812,-9.266655,0.663808,3.19435,0.5787,0.129956,0.21826
1702327630390625,-9.299655,0.645808,3.21435,0.7487,0.129856,0.31526
1702327630398437,-9.317655,0.623808,3.28435,0.10487,0.123356,0.20326
1702327630406250,-9.324655,0.615808,3.44435,0.5887,0.103456,0.20226
1702327630414062,-9.335655,0.604808,3.37435,0.2487,0.103156,0.18726
1702327630421875,-9.348655,0.600808,3.39435,0.4487,0.99156,0.18526
1702327630429687,-9.348655,0.599808,3.53435,0.4187,0.92256,0.21926
1702327630437500,-9.348655,0.597808,3.64435,0.2587,0.77956,0.25226
1702327630445312,-9.347655,0.594808,3.82435,0.87,0.76756,0.19126
1702327630453125,-9.339655,0.595808,3.73435,0.4287,0.73656,0.13826
1702327630460937,-9.332655,0.602808,3.80435,0.2887,0.70856,0.13726
1702327630468750,-9.333655,0.612808,3.66435,0.3887,0.60656,0.7626
1702327630476562,-9.315655,0.602808,3.62435,0.1887,0.50756,0.1426
1702327630484375,-9.290655,0.601808,3.71435,0.2387,0.57856,0.4326
1702327630492187,-9.274655,0.603808,3.69435,0.3813,0.50356,0.1026
1702327630500000,-9.272655,0.591808,3.66435,0.7213,0.32956,0.2174
1702327630507812,-9.275655,0.587808,3.66435,0.7513,0.26156,0.374
1702327630515625,-9.285655,0.563808,3.73435,0.8513,0.31656,0.1026
1702327630523437,-9.272655,0.562808,3.73435,0.3487,0.25556,0.1426
1702327630531250,-9.270655,0.553808,3.66435,0.17713,0.28256,0.0
1702327630539062,-9.261655,0.566808,3.75435,0.13913,0.21456,0.1226
1702327630546875,-9.266655,0.562808,3.68435,0.15813,0.22356,0.9426
1702327630554687,-9.283655,0.563808,3.53435,0.21213,0.19156,0.18626
1702327630562500,-9.290655,0.558808,3.41435,0.15113,0.16956,0.15626
1702327630570312,-9.287655,0.552808,3.46435,0.5413,0.23156,0.17226
1702327630578125,-9.274655,0.551808,3.59435,0.2313,0.34056,0.18826
1702327630585937,-9.274655,0.538808,3.57435,0.5587,0.30656,0.18926
1702327630593750,-9.258655,0.542808,3.53435,0.5987,0.26256,0.26826
1702327630601562,-9.238655,0.555808,3.57435,0.13787,0.27956,0.7526
1702327630609375,-9.221655,0.579808,3.35435,0.13987,0.21656,0.20426
1702327630617187,-9.212655,0.597808,3.37435,0.4187,0.29056,0.28526
1702327630625000,-9.192655,0.603808,3.48435,0.6187,0.28056,0.31526
1702327630632812,-9.187655,0.622808,3.39435,0.9987,0.22456,0.40926
1702327630640625,-9.189655,0.630808,3.26435,0.21287,0.19356,0.40926
1702327630648437,-9.178655,0.628808,3.7435,0.21487,0.10256,0.42426
1702327630656250,-9.165655,0.632808,3.26435,0.19887,0.5256,0.52126
1702327630664062,-9.160655,0.634808,3.37435,0.23087,0.13056,0.53826
1702327630671875,-9.149655,0.633808,3.19435,0.30187,0.12356,0.63126
1702327630679687,-9.167655,0.630808,2.987435,0.11787,0.3256,0.65126
1702327630687500,-9.218655,0.624808,2.946435,0.3987,0.3556,0.71426
1702327630695312,-9.269655,0.624808,3.19435,0.3287,0.844,0.79826
1702327630703125,-9.303655,0.608808,2.947435,0.613,0.16744,0.79426
1702327630710937,-9.348655,0.579808,2.838435,0.2487,0.23344,0.84326
1702327630718750,-9.419655,0.604808,2.935435,0.20513,0.20044,0.90126
1702327630726562,-9.450655,0.632808,3.105435,0.47413,0.26544,0.92326
1702327630734375,-9.469655,0.626808,3.37435,0.66113,0.34644,0.83926
1702327630742187,-9.447655,0.610808,2.881435,0.58813,0.43644,0.79526
1702327630750000,-9.437655,0.588808,2.852435,0.61913,0.44844,0.69726
1702327630757812,-9.422655,0.576808,2.879435,0.76913,0.45444,0.66726
1702327630765625,-9.381655,0.543808,2.872435,0.86213,0.43244,0.66526
1702327630773437,-9.328655,0.523808,2.858435,0.74113,0.51044,0.68626
1702327630781250,-9.282655,0.528808,2.888435,0.73313,0.63744,0.65026
1702327630789062,-9.283655,0.560808,2.924435,0.62513,0.70944,0.66926
1702327630796875,-9.270655,0.591808,2.940435,0.60713,0.70244,0.57126
1702327630804687,-9.270655,0.621808,2.886435,0.71513,0.72344,0.45626
1702327630812500,-9.290655,0.645808,2.786435,0.70113,0.71044,0.40826
1702327630820312,-9.315655,0.681808,2.707435,0.76513,0.72244,0.34326
1702327630828125,-9.345655,0.722808,2.673435,0.86313,0.70744,0.27926
1702327630835937,-9.369655,0.745808,2.653435,0.95413,0.71344,0.24426
1702327630843750,-9.379655,0.778808,2.642435,0.105313,0.70144,0.26126
1702327630851562,-9.416655,0.804808,2.658435,0.107513,0.72544,0.24826
1702327630859375,-9.452655,0.802808,2.678435,0.109413,0.68544,0.29826
1702327630867187,-9.474655,0.810808,2.682435,0.104213,0.67944,0.26426
1702327630875000,-9.490655,0.796808,2.671435,0.104813,0.67344,0.28326
1702327630882812,-9.517655,0.808808,2.678435,0.106013,0.62044,0.32926
1702327630890625,-9.535655,0.812808,2.678435,0.103013,0.48344,0.34726
1702327630898437,-9.529655,0.812808,2.691435,0.98613,0.42744,0.38126
1702327630906250,-9.522655,0.823808,2.700435,0.96913,0.36244,0.34826
1702327630914062,-9.498655,0.851808,2.721435,0.95313,0.31544,0.34826
1702327630921875,-9.505655,0.840808,2.732435,0.92413,0.33744,0.39826
1702327630929687,-9.486655,0.857808,2.734435,0.83113,0.20644,0.34326
1702327630937500,-9.478655,0.858808,2.755435,0.82413,0.19044,0.38026
1702327630945312,-9.480655,0.871808,2.768435,0.70813,0.16844,0.34626
1702327630953125,-9.474655,0.875808,2.768435,0.61713,0.2356,0.42926
1702327630960937,-9.473655,0.875808,2.761435,0.58113,0.6156,0.41126
1702327630968750,-9.453655,0.883808,2.746435,0.46013,0.5756,0.45626
1702327630976562,-9.444655,0.885808,2.764435,0.34713,0.21356,0.50426
1702327630984375,-9.435655,0.889808,2.782435,0.31713,0.25656,0.55326
1702327630992187,-9.422655,0.894808,2.775435,0.27613,0.30656,0.58926
1702327631000000,-9.402655,0.897808,2.768435,0.20813,0.42156,0.65126
1702327631007812,-9.380655,0.894808,2.766435,0.22613,0.46456,0.68426
1702327631015625,-9.379655,0.892808,2.764435,0.7413,0.53556,0.73026
1702327631023437,-9.361655,0.885808,2.779435,0.12413,0.51656,0.77926
1702327631031250,-9.361655,0.878808,2.777435,0.15913,0.54556,0.73226
1702327631039062,-9.345655,0.890808,2.827435,0.7313,0.53556,0.82626
1702327631046875,-9.318655,0.854808,2.770435,0.4287,0.37156,0.72726
1702327631054687,-9.295655,0.845808,2.673435,0.887,0.46156,0.72926
1702327631062500,-9.281655,0.852808,2.716435,0.24213,0.35156,0.78126
1702327631070312,-9.267655,0.841808,2.745435,0.35513,0.36756,0.78126
1702327631078125,-9.296655,0.819808,2.739435,0.30613,0.25856,0.73326
1702327631085937,-9.322655,0.831808,2.723435,0.27013,0.31156,0.73126
1702327631093750,-9.333655,0.825808,2.757435,0.34713,0.25556,0.76126
1702327631101562,-9.365655,0.830808,2.777435,0.41613,0.31156,0.71526
1702327631109375,-9.388655,0.843808,2.818435,0.45313,0.30556,0.65326
1702327631117187,-9.432655,0.838808,2.820435,0.55913,0.33356,0.63326
1702327631125000,-9.470655,0.834808,2.820435,0.65713,0.19056,0.58626
1702327631132812,-9.477655,0.843808,2.789435,0.65713,0.14456,0.53826
1702327631140625,-9.475655,0.844808,2.750435,0.66413,0.8956,0.41226
1702327631148437,-9.460655,0.835808,2.716435,0.71713,0.8356,0.38226
1702327631156250,-9.435655,0.837808,2.689435,0.77713,0.10856,0.25126
1702327631164062,-9.401655,0.835808,2.691435,0.74113,0.2256,0.18526
1702327631171875,-9.379655,0.847808,2.676435,0.76213,0.3156,0.10726
1702327631179687,-9.365655,0.863808,2.682435,0.84013,0.2356,0.774
1702327631187500,-9.353655,0.878808,2.696435,0.97513,0.2956,0.1126
1702327631195312,-9.350655,0.893808,2.682435,0.95813,0.1756,0.6974
1702327631203125,-9.348655,0.916808,2.653435,0.103813,0.7856,0.1026
1702327631210937,-9.365655,0.946808,2.657435,0.107513,0.4156,0.3574
1702327631218750,-9.378655,0.969808,2.662435,0.103813,0.1656,0.574
1702327631226562,-9.387655,0.987808,2.657435,0.108513,0.3556,0.674
1702327631234375,-9.402655,1.2808,2.657435,0.110713,0.7256,0.374
1702327631242187,-9.420655,1.20808,2.644435,0.113713,0.2956,0.474
1702327631250000,-9.450655,0.997808,2.639435,0.116513,0.3556,0.674
1702327631257812,-9.480655,0.999808,2.633435,0.106913,0.1656,0.7526
1702327631265625,-9.517655,0.984808,2.626435,0.105413,0.4756,0.4226
1702327631273437,-9.544655,0.969808,2.624435,0.104113,0.4156,0.6026
1702327631281250,-9.564655,0.948808,2.628435,0.95313,0.3856,0.5726
1702327631289062,-9.568655,0.953808,2.640435,0.90513,0.14656,0.8926
1702327631296875,-9.573655,0.950808,2.664435,0.84213,0.27256,0.926
1702327631304687,-9.582655,0.946808,2.673435,0.95513,0.26756,0.13826
1702327631312500,-9.589655,0.966808,2.671435,0.82813,0.29656,0.13926
1702327631320312,-9.586655,0.964808,2.678435,0.74313,0.38356,0.8826
1702327631328125,-9.576655,0.965808,2.680435,0.83213,0.38756,0.4426
1702327631335937,-9.571655,0.965808,2.691435,0.62513,0.49356,0.4526
1702327631343750,-9.553655,0.965808,2.680435,0.49013,0.51856,0.4226
1702327631351562,-9.535655,0.954808,2.669435,0.41113,0.54656,0.4326
1702327631359375,-9.516655,0.961808,2.680435,0.25813,0.54356,0.5526
1702327631367187,-9.485655,0.947808,2.705435,0.21313,0.66056,0.20226
1702327631375000,-9.463655,0.946808,2.709435,0.21513,0.72056,0.17026
1702327631382812,-9.411655,0.937808,2.714435,0.513,0.75156,0.23526
1702327631390625,-9.364655,0.943808,2.712435,0.2887,0.67256,0.29926
1702327631398437,-9.331655,0.960808,2.718435,0.6387,0.72256,0.37826
1702327631406250,-9.307655,0.968808,2.727435,0.18987,0.76656,0.36326
1702327631414062,-9.273655,0.990808,2.725435,0.24187,0.78456,0.44226
1702327631421875,-9.257655,1.15808,2.718435,0.27687,0.88456,0.42426
1702327631429687,-9.251655,1.26808,2.716435,0.27787,0.80556,0.52026
1702327631437500,-9.242655,1.32808,2.716435,0.37387,0.83356,0.60226
1702327631445312,-9.251655,1.25808,2.705435,0.42187,0.76756,0.68326
1702327631453125,-9.262655,1.28808,2.696435,0.48987,0.77356,0.66526
1702327631460937,-9.275655,1.20808,2.675435,0.51287,0.73656,0.71026
1702327631468750,-9.307655,0.988808,2.644435,0.53487,0.68656,0.78026
1702327631476562,-9.351655,0.959808,2.664435,0.55687,0.66456,0.76126
1702327631484375,-9.395655,0.937808,2.687435,0.60587,0.53956,0.80926
1702327631492187,-9.423655,0.898808,2.712435,0.61187,0.57956,0.83826
1702327631500000,-9.423655,0.867808,2.734435,0.56087,0.59256,0.80726
1702327631507812,-9.452655,0.836808,2.752435,0.60187,0.59556,0.81126
1702327631515625,-9.476655,0.825808,2.777435,0.57187,0.64556,0.81026
1702327631523437,-9.477655,0.798808,2.782435,0.54487,0.64556,0.73426
1702327631531250,-9.478655,0.808808,2.766435,0.57087,0.68156,0.60026
1702327631539062,-9.477655,0.809808,2.770435,0.48287,0.70356,0.52326
1702327631546875,-9.459655,0.811808,2.768435,0.41587,0.74756,0.46026
1702327631554687,-9.432655,0.808808,2.768435,0.49687,0.73156,0.47626
1702327631562500,-9.387655,0.804808,2.768435,0.43487,0.69256,0.33026
1702327631570312,-9.358655,0.801808,2.764435,0.30287,0.76656,0.29926
1702327631578125,-9.315655,0.827808,2.802435,0.29187,0.71456,0.24826
1702327631585937,-9.275655,0.844808,2.791435,0.25587,0.66156,0.20126
1702327631593750,-9.255655,0.829808,2.660435,0.28787,0.61956,0.2426
1702327631601562,-9.244655,0.851808,2.736435,0.14587,0.55956,0.8726
1702327631609375,-9.225655,0.910808,2.847435,0.19413,0.68356,0.8726
1702327631617187,-9.171655,0.933808,2.730435,0.22813,0.69556,0.12026
1702327631625000,-9.130655,0.952808,2.635435,0.20413,0.71456,0.4426
1702327631632812,-9.120655,0.982808,2.614435,0.22513,0.67156,0.2226
1702327631640625,-9.123655,0.981808,2.628435,0.42613,0.57656,0.18726
1702327631648437,-9.136655,0.982808,2.639435,0.64113,0.55956,0.27926
1702327631656250,-9.154655,0.982808,2.673435,0.71013,0.45656,0.34626
1702327631664062,-9.211655,0.957808,2.682435,0.70113,0.27356,0.28526
1702327631671875,-9.293655,0.930808,2.694435,0.74613,0.18256,0.34826
1702327631679687,-9.380655,0.939808,2.723435,0.70513,0.7056,0.36026
1702327631687500,-9.465655,0.949808,2.721435,0.72113,0.744,0.34426
1702327631695312,-9.525655,0.948808,2.710435,0.75113,0.1556,0.27826
1702327631703125,-9.581655,0.957808,2.705435,0.86713,0.856,0.31226
1702327631710937,-9.629655,0.965808,2.732435,0.99913,0.544,0.8826
1702327631718750,-9.655655,0.952808,2.703435,0.106113,0.4544,0.5874
1702327631726562,-9.675655,0.933808,2.685435,0.107613,0.456,0.9174
1702327631734375,-9.673655,0.899808,2.664435,0.121313,0.856,0.15174
1702327631742187,-9.670655,0.872808,2.640435,0.126913,0.1556,0.29274
1702327631750000,-9.654655,0.841808,2.662435,0.118813,0.6556,0.35774
1702327631757812,-9.627655,0.840808,2.692435,0.122213,0.10956,0.34074
1702327631765625,-9.609655,0.845808,2.705435,0.118313,0.19956,0.40874
1702327631773437,-9.589655,0.874808,2.714435,0.115013,0.25056,0.48974
1702327631781250,-9.559655,0.899808,2.737435,0.117313,0.36556,0.50274
1702327631789062,-9.532655,0.927808,2.741435,0.122413,0.30056,0.55074
1702327631796875,-9.488655,0.958808,2.746435,0.103013,0.45956,0.59974
1702327631804687,-9.463655,0.987808,2.750435,0.103813,0.55356,0.68374
1702327631812500,-9.442655,1.7808,2.748435,0.90713,0.51356,0.64474
1702327631820312,-9.388655,1.23808,2.743435,0.70713,0.52256,0.56674
1702327631828125,-9.346655,1.37808,2.746435,0.63013,0.67156,0.50074
1702327631835937,-9.311655,1.54808,2.745435,0.52013,0.69556,0.41874
1702327631843750,-9.285655,1.84808,2.734435,0.42313,0.71956,0.31374
1702327631851562,-9.279655,1.97808,2.736435,0.28013,0.80656,0.15174
1702327631859375,-9.287655,1.120808,2.748435,0.9213,0.79656,0.10074
1702327631867187,-9.285655,1.142808,2.754435,0.1313,0.82056,0.7726
1702327631875000,-9.293655,1.162808,2.761435,0.14887,0.78356,0.15026
1702327631882812,-9.287655,1.174808,2.761435,0.30687,0.88156,0.37726
1702327631890625,-9.286655,1.173808,2.764435,0.34487,0.83156,0.47926
1702327631898437,-9.289655,1.152808,2.732435,0.54887,0.81556,0.53826
1702327631906250,-9.306655,1.123808,2.705435,0.55087,0.78356,0.69926
1702327631914062,-9.321655,1.100808,2.709435,0.70287,0.79256,0.77626
1702327631921875,-9.330655,1.53808,2.707435,0.76087,0.74856,0.86026
1702327631929687,-9.356655,0.989808,2.705435,0.100587,0.67356,0.90726
1702327631937500,-9.387655,0.947808,2.775435,0.112987,0.52456,0.86226
1702327631945312,-9.390655,0.875808,2.728435,0.128387,0.53656,0.90626
1702327631953125,-9.392655,0.855808,2.642435,0.115587,0.54056,0.87326
1702327631960937,-9.385655,0.826808,2.667435,0.103787,0.51556,0.87626
1702327631968750,-9.384655,0.791808,2.703435,0.110587,0.53656,0.87426
1702327631976562,-9.402655,0.773808,2.761435,0.121487,0.54656,0.87626
1702327631984375,-9.420655,0.775808,2.777435,0.127987,0.51956,0.77826
1702327631992187,-9.409655,0.777808,2.777435,0.117787,0.52556,0.76526
1702327632000000,-9.398655,0.797808,2.770435,0.108187,0.62156,0.78026
1702327632007812,-9.402655,0.806808,2.779435,0.103887,0.64656,0.76226
1702327632015625,-9.389655,0.821808,2.775435,0.95587,0.67456,0.76326
1702327632023437,-9.392655,0.839808,2.770435,0.85487,0.62156,0.70026
1702327632031250,-9.379655,0.840808,2.759435,0.81687,0.67456,0.67126
1702327632039062,-9.376655,0.827808,2.732435,0.78987,0.62256,0.65226
1702327632046875,-9.378655,0.822808,2.723435,0.63487,0.68156,0.56826
1702327632054687,-9.371655,0.804808,2.696435,0.53687,0.66256,0.58526
1702327632062500,-9.376655,0.788808,2.712435,0.43387,0.68456,0.58826
1702327632070312,-9.379655,0.773808,2.723435,0.30887,0.70956,0.47326
1702327632078125,-9.396655,0.770808,2.732435,0.15587,0.69756,0.46126
1702327632085937,-9.398655,0.766808,2.746435,0.4487,0.79756,0.34726
1702327632093750,-9.411655,0.769808,2.757435,0.113,0.78856,0.24926
1702327632101562,-9.431655,0.782808,2.768435,0.18113,0.76956,0.17026
1702327632109375,-9.436655,0.801808,2.775435,0.27613,0.79256,0.5526
1702327632117187,-9.425655,0.820808,2.786435,0.29313,0.74656,0.4074
1702327632125000,-9.405655,0.847808,2.798435,0.27513,0.74956,0.7374
1702327632132812,-9.387655,0.871808,2.786435,0.43913,0.77756,0.8874
1702327632140625,-9.365655,0.888808,2.788435,0.48913,0.74356,0.7174
1702327632148437,-9.351655,0.918808,2.784435,0.42813,0.70656,0.8574
1702327632156250,-9.334655,0.941808,2.791435,0.38513,0.69356,0.13974
1702327632164062,-9.331655,0.951808,2.786435,0.44713,0.73456,0.16474
1702327632171875,-9.313655,0.975808,2.786435,0.37713,0.58556,0.13474
1702327632179687,-9.309655,0.986808,2.777435,0.35913,0.60356,0.10374
1702327632187500,-9.292655,0.980808,2.766435,0.27113,0.55456,0.15574
1702327632195312,-9.277655,0.975808,2.759435,0.29613,0.52256,0.10274
1702327632203125,-9.280655,0.983808,2.773435,0.28213,0.53556,0.8574
1702327632210937,-9.280655,0.986808,2.775435,0.24813,0.52256,0.10274
1702327632218750,-9.295655,0.971808,2.755435,0.24513,0.47956,0.8774
1702327632226562,-9.302655,0.966808,2.748435,0.21913,0.48556,0.10174
1702327632234375,-9.333655,0.953808,2.752435,0.24613,0.41356,0.7074
1702327632242187,-9.342655,0.936808,2.759435,0.27513,0.36956,0.2426
1702327632250000,-9.375655,0.932808,2.741435,0.22913,0.36656,0.926
1702327632257812,-9.391655,0.914808,2.750435,0.25213,0.33856,0.4526
1702327632265625,-9.402655,0.907808,2.752435,0.31513,0.32656,0.474
1702327632273437,-9.414655,0.898808,2.748435,0.38413,0.33556,0.5074
1702327632281250,-9.435655,0.888808,2.752435,0.23313,0.26756,0.5374
1702327632289062,-9.460655,0.877808,2.755435,0.26513,0.28256,0.2174
1702327632296875,-9.457655,0.871808,2.759435,0.29413,0.30456,0.7174
1702327632304687,-9.465655,0.868808,2.770435,0.35413,0.27056,0.9774
1702327632312500,-9.460655,0.864808,2.775435,0.39313,0.33256,0.8674
1702327632320312,-9.457655,0.853808,2.773435,0.34713,0.37656,0.10174
1702327632328125,-9.452655,0.877808,2.768435,0.25613,0.36756,0.9874
1702327632335937,-9.437655,0.880808,2.770435,0.29513,0.42956,0.8674
1702327632343750,-9.427655,0.894808,2.768435,0.32113,0.39856,0.9874
1702327632351562,-9.398655,0.905808,2.768435,0.30113,0.48256,0.8474
1702327632359375,-9.384655,0.916808,2.768435,0.31413,0.47256,0.10174
1702327632367187,-9.353655,0.936808,2.768435,0.31013,0.52556,0.5574
1702327632375000,-9.353655,0.943808,2.768435,0.24513,0.54156,0.7174
1702327632382812,-9.349655,0.947808,2.748435,0.23113,0.49156,0.7074
1702327632390625,-9.336655,0.957808,2.736435,0.21913,0.41956,0.374
1702327632398437,-9.338655,0.971808,2.736435,0.23213,0.44156,0.2174
1702327632406250,-9.338655,0.977808,2.743435,0.21813,0.52756,0.15626
1702327632414062,-9.343655,0.983808,2.752435,0.17213,0.50556,0.23826
1702327632421875,-9.365655,0.980808,2.761435,0.4813,0.50456,0.34626
1702327632429687,-9.367655,0.967808,2.764435,0.16313,0.53256,0.36326
1702327632437500,-9.387655,0.950808,2.759435,0.19113,0.49156,0.39326
1702327632445312,-9.392655,0.956808,2.759435,0.13213,0.55956,0.49226
1702327632453125,-9.400655,0.941808,2.755435,0.14213,0.56856,0.48926
1702327632460937,-9.418655,0.942808,2.750435,0.5913,0.66456,0.53626
1702327632468750,-9.420655,0.921808,2.748435,0.1613,0.56256,0.50726
1702327632476562,-9.429655,0.910808,2.755435,0.3713,0.52556,0.47726
1702327632484375,-9.444655,0.891808,2.748435,0.7713,0.52256,0.48926
1702327632492187,-9.442655,0.877808,2.743435,0.3413,0.52856,0.49226
1702327632500000,-9.443655,0.867808,2.734435,0.10613,0.52856,0.47126
1702327632507812,-9.433655,0.850808,2.755435,0.19813,0.52556,0.49326
1702327632515625,-9.415655,0.877808,2.786435,0.15013,0.49456,0.39726
1702327632523437,-9.401655,0.850808,2.709435,0.1587,0.52056,0.36226
1702327632531250,-9.406655,0.852808,2.721435,0.8513,0.56056,0.34826
1702327632539062,-9.429655,0.897808,2.895435,0.30813,0.57856,0.41126
1702327632546875,-9.420655,0.919808,2.870435,0.40513,0.56256,0.42726
1702327632554687,-9.376655,0.922808,2.721435,0.28313,0.69356,0.38226
1702327632562500,-9.343655,0.939808,2.707435,0.22113,0.64456,0.30326
1702327632570312,-9.345655,0.948808,2.705435,0.26513,0.63456,0.34926
1702327632578125,-9.329655,0.968808,2.680435,0.42413,0.62156,0.39626
1702327632585937,-9.311655,0.977808,2.716435,0.48713,0.65156,0.52426
1702327632593750,-9.316655,0.952808,2.779435,0.47313,0.61756,0.50926
1702327632601562,-9.347655,0.933808,2.802435,0.48813,0.50856,0.50926
1702327632609375,-9.379655,0.919808,2.836435,0.47913,0.46556,0.56126
1702327632617187,-9.406655,0.933808,2.852435,0.38313,0.50556,0.55326
1702327632625000,-9.434655,0.948808,2.838435,0.29313,0.49756,0.46026
1702327632632812,-9.447655,0.960808,2.820435,0.27413,0.56556,0.44226
1702327632640625,-9.472655,0.974808,2.852435,0.20613,0.58756,0.42426
1702327632648437,-9.492655,0.971808,2.843435,0.22513,0.60056,0.32926
1702327632656250,-9.503655,0.967808,2.820435,0.17913,0.67556,0.28226
1702327632664062,-9.502655,0.960808,2.816435,0.16713,0.66956,0.26826
1702327632671875,-9.497655,0.951808,2.818435,0.10113,0.71956,0.23526
1702327632679687,-9.490655,0.944808,2.834435,0.3713,0.78256,0.21926
1702327632687500,-9.481655,0.929808,2.829435,0.2587,0.79856,0.15426
1702327632695312,-9.458655,0.938808,2.831435,0.14487,0.79256,0.15226
1702327632703125,-9.445655,0.949808,2.849435,0.20987,0.77656,0.21626
1702327632710937,-9.409655,0.950808,2.856435,0.22187,0.80156,0.20226
1702327632718750,-9.376655,0.956808,2.883435,0.28187,0.84256,0.15526
1702327632726562,-9.345655,0.955808,2.904435,0.31287,0.85456,0.18826
1702327632734375,-9.309655,0.961808,2.917435,0.32587,0.79056,0.1326
1702327632742187,-9.265655,0.974808,2.906435,0.45787,0.76256,0.10826
1702327632750000,-9.236655,0.957808,2.879435,0.48387,0.79356,0.11926
1702327632757812,-9.205655,0.951808,2.883435,0.51187,0.77156,0.10526
1702327632765625,-9.199655,0.946808,2.890435,0.55387,0.77456,0.20526
1702327632773437,-9.193655,0.948808,2.899435,0.54987,0.78356,0.23926
1702327632781250,-9.201655,0.937808,2.913435,0.53987,0.76156,0.25226
1702327632789062,-9.206655,0.933808,2.895435,0.63787,0.77656,0.30126
1702327632796875,-9.227655,0.928808,2.901435,0.59787,0.79556,0.28826
1702327632804687,-9.266655,0.912808,2.895435,0.57487,0.81056,0.31626
1702327632812500,-9.279655,0.903808,2.892435,0.63587,0.78856,0.35026
1702327632820312,-9.308655,0.909808,2.895435,0.70787,0.83256,0.34626
1702327632828125,-9.337655,0.895808,2.877435,0.70487,0.79556,0.34826
1702327632835937,-9.344655,0.891808,2.908435,0.80087,0.79556,0.30026
1702327632843750,-9.353655,0.882808,2.899435,0.84887,0.74956,0.21926
1702327632851562,-9.375655,0.880808,2.886435,0.78287,0.76156,0.28426
1702327632859375,-9.386655,0.861808,2.897435,0.86687,0.75256,0.21826
1702327632867187,-9.404655,0.830808,2.949435,0.84387,0.72856,0.9326
1702327632875000,-9.412655,0.819808,2.990435,0.101087,0.62956,0.4226
1702327632882812,-9.407655,0.777808,2.908435,0.100787,0.67356,0.3674
1702327632890625,-9.378655,0.787808,2.901435,0.77987,0.70156,0.374
1702327632898437,-9.345655,0.784808,2.892435,0.75987,0.71056,0.174
1702327632906250,-9.347655,0.776808,2.935435,0.73087,0.73256,0.1226
1702327632914062,-9.365655,0.787808,2.962435,0.77787,0.66756,0.1874
1702327632921875,-9.356655,0.796808,2.987435,0.81387,0.72056,0.474
1702327632929687,-9.338655,0.802808,3.3435,0.79587,0.67056,0.1226
1702327632937500,-9.334655,0.806808,3.3435,0.80987,0.71456,0.3474
1702327632945312,-9.340655,0.798808,2.999435,0.79487,0.74856,0.8374
1702327632953125,-9.318655,0.796808,2.960435,0.81387,0.72056,0.2074
1702327632960937,-9.309655,0.790808,2.928435,0.78887,0.75456,0.8174
1702327632968750,-9.298655,0.795808,2.926435,0.75887,0.77356,0.8274
1702327632976562,-9.298655,0.799808,2.931435,0.77387,0.78956,0.9874
1702327632984375,-9.286655,0.802808,2.922435,0.81187,0.86056,0.10074
1702327632992187,-9.273655,0.803808,2.917435,0.75987,0.86956,0.8274
1702327633000000,-9.267655,0.803808,2.937435,0.68087,0.82256,0.1326
1702327633007812,-9.278655,0.806808,2.933435,0.68287,0.81356,0.6874
1702327633015625,-9.277655,0.813808,2.904435,0.57587,0.83856,0.8774
1702327633023437,-9.294655,0.835808,2.877435,0.61887,0.81356,0.6874
1702327633031250,-9.296655,0.831808,2.917435,0.58887,0.72356,0.10174
1702327633039062,-9.291655,0.835808,2.951435,0.53887,0.75056,0.3674
1702327633046875,-9.300655,0.831808,2.967435,0.54087,0.75356,0.2174
1702327633054687,-9.302655,0.822808,2.971435,0.57087,0.75056,0.2074
1702327633062500,-9.296655,0.822808,2.962435,0.55387,0.73256,0.374
1702327633070312,-9.289655,0.815808,2.947435,0.53587,0.68256,0.1326
1702327633078125,-9.276655,0.809808,2.924435,0.54687,0.65756,0.0
1702327633085937,-9.293655,0.805808,2.899435,0.54387,0.69456,0.926
1702327633093750,-9.304655,0.798808,2.919435,0.46587,0.66656,0.5626
1702327633101562,-9.329655,0.791808,2.940435,0.34287,0.52656,0.1326
1702327633109375,-9.338655,0.778808,2.940435,0.28287,0.53256,0.2726
1702327633117187,-9.349655,0.791808,2.965435,0.27887,0.54156,0.6126
1702327633125000,-9.376655,0.783808,2.960435,0.7187,0.51256,0.6026
1702327633132812,-9.412655,0.786808,2.942435,0.10587,0.51656,0.4326
1702327633140625,-9.442655,0.781808,2.924435,0.4813,0.37656,0.4726
1702327633148437,-9.455655,0.781808,2.913435,0.1713,0.42356,0.0
1702327633156250,-9.477655,0.767808,2.913435,0.487,0.44756,0.1326
1702327633164062,-9.461655,0.764808,2.897435,0.4313,0.27756,0.8374
1702327633171875,-9.466655,0.759808,2.906435,0.12813,0.36456,0.4974
1702327633179687,-9.452655,0.746808,2.911435,0.17313,0.32356,0.5174
1702327633187500,-9.431655,0.733808,2.904435,0.20413,0.35756,0.8474
1702327633195312,-9.425655,0.732808,2.910435,0.24013,0.38256,0.6674
1702327633203125,-9.399655,0.727808,2.924435,0.21313,0.40156,0.10474
1702327633210937,-9.387655,0.727808,2.933435,0.18913,0.41356,0.12374
1702327633218750,-9.385655,0.734808,2.947435,0.21113,0.42756,0.17774
1702327633226562,-9.367655,0.743808,2.929435,0.17413,0.41756,0.11574
1702327633234375,-9.346655,0.752808,2.917435,0.20413,0.40456,0.10074
1702327633242187,-9.353655,0.772808,2.926435,0.22113,0.46756,0.16474
1702327633250000,-9.360655,0.779808,2.929435,0.20113,0.53556,0.13474
1702327633257812,-9.347655,0.791808,2.944435,0.22113,0.49856,0.11674
1702327633265625,-9.347655,0.798808,2.926435,0.23513,0.51656,0.11774
1702327633273437,-9.347655,0.801808,2.919435,0.813,0.56656,0.11774
1702327633281250,-9.338655,0.807808,2.940435,0.3887,0.59456,0.10074
1702327633289062,-9.338655,0.818808,2.942435,0.2287,0.51656,0.8574
1702327633296875,-9.326655,0.842808,2.951435,0.387,0.52556,0.1874
1702327633304687,-9.311655,0.849808,2.926435,0.4387,0.63156,0.926
1702327633312500,-9.296655,0.882808,2.917435,0.2787,0.66156,0.10526
1702327633320312,-9.269655,0.880808,2.951435,0.4887,0.58656,0.26526
1702327633328125,-9.267655,0.886808,2.922435,0.3087,0.58256,0.26626
1702327633335937,-9.265655,0.877808,2.928435,0.8187,0.67856,0.39326
1702327633343750,-9.264655,0.876808,2.933435,0.19987,0.57556,0.43926
1702327633351562,-9.284655,0.867808,2.928435,0.14987,0.58856,0.44026
1702327633359375,-9.298655,0.849808,2.933435,0.20987,0.48456,0.53926
1702327633367187,-9.320655,0.825808,2.935435,0.19487,0.42256,0.55526
1702327633375000,-9.334655,0.802808,2.949435,0.15287,0.40756,0.54426
1702327633382812,-9.354655,0.785808,2.942435,0.25687,0.35356,0.60526
1702327633390625,-9.356655,0.769808,2.938435,0.30387,0.46256,0.60526
1702327633398437,-9.369655,0.758808,2.931435,0.24987,0.51556,0.64026
1702327633406250,-9.387655,0.757808,2.935435,0.17487,0.49356,0.60526
1702327633414062,-9.376655,0.756808,2.935435,0.25487,0.52556,0.54126
1702327633421875,-9.372655,0.751808,2.924435,0.26487,0.57156,0.60026
1702327633429687,-9.382655,0.743808,2.938435,0.20487,0.69656,0.54126
1702327633437500,-9.391655,0.748808,2.999435,0.28687,0.57156,0.57326
1702327633445312,-9.393655,0.728808,2.999435,0.9387,0.63756,0.50826
1702327633453125,-9.387655,0.736808,2.996435,0.13687,0.64356,0.52726
1702327633460937,-9.388655,0.729808,3.8435,0.19587,0.63156,0.47326
1702327633468750,-9.386655,0.732808,3.5435,0.21887,0.68256,0.34926
1702327633476562,-9.366655,0.732808,3.39435,0.19087,0.61056,0.31526
1702327633484375,-9.339655,0.737808,2.910435,0.17787,0.55556,0.26426
1702327633492187,-9.336655,0.741808,2.831435,0.6487,0.58556,0.28126
1702327633500000,-9.333655,0.767808,2.996435,0.413,0.67356,0.25126
1702327633507812,-9.317655,0.787808,3.48435,0.23013,0.71956,0.26726
1702327633515625,-9.290655,0.793808,2.926435,0.24513,0.72256,0.20226
1702327633523437,-9.247655,0.789808,2.784435,0.22613,0.65856,0.6326
1702327633531250,-9.222655,0.798808,2.802435,0.25613,0.61556,0.1426
1702327633539062,-9.240655,0.802808,2.967435,0.40113,0.47156,0.15926
1702327633546875,-9.251655,0.812808,3.10435,0.47413,0.51456,0.15526
1702327633554687,-9.256655,0.821808,2.996435,0.49013,0.43256,0.30026
1702327633562500,-9.302655,0.793808,3.78435,0.44013,0.35856,0.21926
1702327633570312,-9.347655,0.776808,3.136435,0.34513,0.30956,0.18826
1702327633578125,-9.364655,0.768808,3.89435,0.28013,0.29756,0.4326
1702327633585937,-9.361655,0.768808,3.19435,0.27313,0.37256,0.3926
1702327633593750,-9.376655,0.781808,2.996435,0.21813,0.40756,0.3674
1702327633601562,-9.375655,0.804808,3.10435,0.22713,0.43556,0.10474
1702327633609375,-9.363655,0.814808,3.1435,0.20113,0.49756,0.6174
1702327633617187,-9.357655,0.822808,2.956435,0.25213,0.57256,0.7674
1702327633625000,-9.343655,0.836808,2.928435,0.30213,0.54456,0.10074
1702327633632812,-9.331655,0.841808,2.940435,0.23113,0.49156,0.8674
1702327633640625,-9.321655,0.842808,2.947435,0.18813,0.54156,0.10874
1702327633648437,-9.300655,0.833808,2.922435,0.13413,0.42956,0.8774
1702327633656250,-9.300655,0.835808,2.892435,0.13813,0.40756,0.10174
1702327633664062,-9.282655,0.833808,2.899435,0.9913,0.40156,0.8874
1702327633671875,-9.282655,0.826808,2.906435,0.13313,0.28956,0.10374
1702327633679687,-9.282655,0.831808,2.924435,0.11713,0.27356,0.8774
1702327633687500,-9.289655,0.829808,2.935435,0.15013,0.19356,0.8674
1702327633695312,-9.300655,0.818808,2.919435,0.8213,0.23056,0.10474
1702327633703125,-9.309655,0.811808,2.933435,0.5313,0.20856,0.8674
1702327633710937,-9.322655,0.807808,2.928435,0.713,0.25256,0.10174
1702327633718750,-9.324655,0.799808,2.942435,0.1387,0.29256,0.8874
1702327633726562,-9.344655,0.788808,2.965435,0.1713,0.29256,0.5674
1702327633734375,-9.354655,0.787808,2.949435,0.913,0.32656,0.3674
1702327633742187,-9.353655,0.783808,2.933435,0.4287,0.44156,0.2174
1702327633750000,-9.371655,0.761808,2.931435,0.587,0.45156,0.8474
1702327633757812,-9.386655,0.771808,2.935435,0.1713,0.48256,0.4074
1702327633765625,-9.398655,0.768808,2.933435,0.5687,0.58256,0.5374
1702327633773437,-9.393655,0.768808,2.935435,0.10387,0.54856,0.6874
1702327633781250,-9.403655,0.768808,2.931435,0.3587,0.52656,0.5174
1702327633789062,-9.405655,0.767808,2.940435,0.9587,0.50456,0.9774
1702327633796875,-9.397655,0.773808,2.926435,0.18987,0.54256,0.8774
1702327633804687,-9.389655,0.755808,2.929435,0.3987,0.51656,0.3674
1702327633812500,-9.381655,0.751808,2.922435,0.11287,0.56356,0.8974
1702327633820312,-9.379655,0.742808,2.938435,0.12587,0.57356,0.8774
1702327633828125,-9.359655,0.739808,2.951435,0.17387,0.65056,0.7174
1702327633835937,-9.343655,0.730808,2.983435,0.30187,0.47756,0.10374
1702327633843750,-9.309655,0.706808,2.906435,0.28887,0.46756,0.10574
1702327633851562,-9.292655,0.731808,2.895435,0.7187,0.53256,0.8574
1702327633859375,-9.272655,0.733808,3.23435,0.2187,0.51356,0.6874
1702327633867187,-9.271655,0.720808,3.23435,0.6087,0.46056,0.2274
1702327633875000,-9.276655,0.700808,3.1435,0.15387,0.50156,0.474
1702327633882812,-9.274655,0.704808,2.983435,0.20187,0.43956,0.5374
1702327633890625,-9.290655,0.702808,2.992435,0.19787,0.44856,0.3574
1702327633898437,-9.315655,0.699808,3.1435,0.17587,0.43956,0.6474
1702327633906250,-9.339655,0.703808,2.978435,0.19987,0.45156,0.474
1702327633914062,-9.350655,0.701808,2.969435,0.18187,0.44856,0.1974
1702327633921875,-9.353655,0.698808,2.969435,0.16187,0.36456,0.6574
1702327633929687,-9.348655,0.685808,2.947435,0.21587,0.37456,0.10074
1702327633937500,-9.334655,0.662808,2.924435,0.19487,0.31856,0.8174
1702327633945312,-9.334655,0.660808,2.926435,0.17987,0.36856,0.9874
1702327633953125,-9.328655,0.662808,2.917435,0.17587,0.34656,0.8074
1702327633960937,-9.327655,0.658808,2.935435,0.23087,0.35556,0.6774
1702327633968750,-9.316655,0.660808,2.931435,0.21487,0.27756,0.8374
1702327633976562,-9.307655,0.662808,2.935435,0.26487,0.26556,0.6874
1702327633984375,-9.308655,0.666808,2.928435,0.24287,0.31856,0.8174
1702327633992187,-9.310655,0.664808,2.931435,0.29187,0.31856,0.4974
1702327634000000,-9.311655,0.667808,2.926435,0.28087,0.26556,0.10074
1702327634007812,-9.305655,0.674808,2.928435,0.31587,0.28356,0.2174
1702327634015625,-9.305655,0.667808,2.931435,0.18687,0.25256,0.3774
1702327634023437,-9.314655,0.665808,2.926435,0.8887,0.24856,0.474
1702327634031250,-9.313655,0.667808,2.928435,0.28587,0.24056,0.3874
1702327634039062,-9.332655,0.674808,2.926435,0.13887,0.23656,0.3774
1702327634046875,-9.346655,0.667808,2.924435,0.26187,0.5356,0.1426
1702327634054687,-9.360655,0.664808,2.924435,0.22187,0.20856,0.3874
1702327634062500,-9.380655,0.646808,2.915435,0.7787,0.9956,0.926
1702327634070312,-9.389655,0.644808,2.917435,0.20587,0.17756,0.674
1702327634078125,-9.409655,0.631808,2.910435,0.18687,0.9356,0.474
1702327634085937,-9.421655,0.631808,2.910435,0.10587,0.6256,0.1126
1702327634093750,-9.416655,0.627808,2.915435,0.7687,0.9956,0.2274
1702327634101562,-9.410655,0.628808,2.913435,0.1887,0.13056,0.174
1702327634109375,-9.409655,0.615808,2.915435,0.2387,0.5856,0.4426
1702327634117187,-9.400655,0.618808,2.913435,0.6087,0.22356,0.2526
1702327634125000,-9.388655,0.609808,2.915435,0.8087,0.21456,0.726
1702327634132812,-9.387655,0.613808,2.922435,0.7487,0.20456,0.4226
1702327634140625,-9.366655,0.614808,2.931435,0.4987,0.20156,0.626
1702327634148437,-9.354655,0.611808,2.938435,0.3587,0.34456,0.3826
1702327634156250,-9.348655,0.615808,2.929435,0.3087,0.33856,0.774
1702327634164062,-9.331655,0.621808,2.915435,0.5987,0.16256,0.10274
1702327634171875,-9.334655,0.629808,2.913435,0.6887,0.21156,0.1326
1702327634179687,-9.319655,0.637808,2.879435,0.7887,0.19556,0.826
1702327634187500,-9.309655,0.659808,2.872435,0.2887,0.16156,0.674
1702327634195312,-9.304655,0.661808,2.886435,0.4887,0.18256,0.5626
1702327634203125,-9.311655,0.665808,2.895435,0.4687,0.6756,0.10526
1702327634210937,-9.289655,0.664808,2.852435,0.5687,0.15156,0.12426
1702327634218750,-9.291655,0.663808,2.845435,0.3287,0.16356,0.23326
1702327634226562,-9.293655,0.665808,2.861435,0.4487,0.14156,0.20326
1702327634234375,-9.295655,0.661808,2.856435,0.6487,0.12856,0.29826
1702327634242187,-9.304655,0.667808,2.838435,0.3187,0.8256,0.25026
1702327634250000,-9.305655,0.662808,2.820435,0.4287,0.8856,0.26926
1702327634257812,-9.307655,0.666808,2.820435,0.2487,0.6956,0.28626
1702327634265625,-9.312655,0.678808,2.813435,0.4687,0.244,0.39626
1702327634273437,-9.323655,0.676808,2.804435,0.3613,0.5556,0.46126
1702327634281250,-9.336655,0.681808,2.809435,0.4813,0.3156,0.41126
1702327634289062,-9.358655,0.679808,2.804435,0.19213,0.6456,0.42626
1702327634296875,-9.390655,0.673808,2.811435,0.24213,0.4556,0.45926
1702327634304687,-9.421655,0.672808,2.804435,0.22213,0.9856,0.49026
1702327634312500,-9.462655,0.660808,2.834435,0.21613,0.0,0.43826
1702327634320312,-9.499655,0.657808,2.865435,0.20813,0.3244,0.49126
1702327634328125,-9.537655,0.641808,2.868435,0.29313,0.2244,0.49326
1702327634335937,-9.534655,0.627808,2.861435,0.28313,0.344,0.37526
1702327634343750,-9.544655,0.629808,2.838435,0.19313,0.7744,0.37926
1702327634351562,-9.541655,0.625808,2.816435,0.28613,0.2456,0.32826
1702327634359375,-9.525655,0.617808,2.825435,0.25913,0.3156,0.29926
1702327634367187,-9.504655,0.625808,2.827435,0.23413,0.11556,0.27026
1702327634375000,-9.481655,0.630808,2.827435,0.32913,0.27756,0.22026
1702327634382812,-9.459655,0.625808,2.809435,0.32913,0.24756,0.15626
1702327634390625,-9.429655,0.637808,2.818435,0.41713,0.26256,0.13526
1702327634398437,-9.402655,0.639808,2.845435,0.44813,0.25056,0.3826
1702327634406250,-9.384655,0.643808,2.827435,0.43413,0.29456,0.2326
1702327634414062,-9.382655,0.635808,2.798435,0.29713,0.26756,0.2174
1702327634421875,-9.380655,0.649808,2.827435,0.32213,0.29456,0.874
1702327634429687,-9.376655,0.670808,2.890435,0.41013,0.23556,0.1026
1702327634437500,-9.365655,0.657808,2.798435,0.29813,0.9256,0.2074
1702327634445312,-9.385655,0.662808,2.734435,0.27713,0.2156,0.674
1702327634453125,-9.417655,0.706808,2.836435,0.39513,0.24756,0.2726
1702327634460937,-9.400655,0.744808,2.915435,0.49213,0.30956,0.7626
1702327634468750,-9.373655,0.752808,2.827435,0.48813,0.28456,0.10626
1702327634476562,-9.349655,0.756808,2.694435,0.39613,0.35256,0.14126
1702327634484375,-9.311655,0.762808,2.673435,0.23213,0.35556,0.22026
1702327634492187,-9.323655,0.755808,2.757435,0.30213,0.40156,0.32826
1702327634500000,-9.325655,0.768808,2.818435,0.49213,0.35656,0.45526
1702327634507812,-9.340655,0.769808,2.847435,0.37513,0.30356,0.52626
1702327634515625,-9.368655,0.750808,2.892435,0.23713,0.17556,0.58626
1702327634523437,-9.430655,0.732808,2.933435,0.13113,0.12556,0.67826
1702327634531250,-9.448655,0.725808,2.924435,0.5787,0.2656,0.55226
1702327634539062,-9.451655,0.723808,2.892435,0.3587,0.9556,0.61926
1702327634546875,-9.455655,0.718808,2.840435,0.6687,0.14256,0.52326
1702327634554687,-9.468655,0.721808,2.811435,0.16787,0.13356,0.50526
1702327634562500,-9.455655,0.728808,2.811435,0.29587,0.28956,0.52126
1702327634570312,-9.448655,0.734808,2.798435,0.26087,0.31756,0.49026
1702327634578125,-9.426655,0.722808,2.791435,0.22887,0.31756,0.50626
1702327634585937,-9.420655,0.708808,2.789435,0.31687,0.32956,0.45426
1702327634593750,-9.418655,0.693808,2.779435,0.33487,0.45756,0.51726
1702327634601562,-9.407655,0.670808,2.766435,0.42787,0.42056,0.48726
1702327634609375,-9.389655,0.669808,2.775435,0.47387,0.44856,0.50426
1702327634617187,-9.390655,0.655808,2.784435,0.48187,0.37056,0.52526
1702327634625000,-9.379655,0.659808,2.773435,0.46187,0.43856,0.50226
1702327634632812,-9.380655,0.672808,2.775435,0.55687,0.40456,0.51926
1702327634640625,-9.371655,0.669808,2.786435,0.52087,0.33656,0.48926
1702327634648437,-9.367655,0.667808,2.798435,0.50487,0.33656,0.45726
1702327634656250,-9.374655,0.666808,2.800435,0.49787,0.29256,0.47626
1702327634664062,-9.371655,0.666808,2.809435,0.53587,0.28656,0.50626
1702327634671875,-9.392655,0.646808,2.818435,0.56387,0.31256,0.42726
1702327634679687,-9.380655,0.647808,2.825435,0.55287,0.33656,0.45726
1702327634687500,-9.369655,0.642808,2.825435,0.56387,0.32756,0.50826
1702327634695312,-9.369655,0.637808,2.825435,0.54887,0.34656,0.44226
1702327634703125,-9.371655,0.646808,2.825435,0.54687,0.42056,0.42726
1702327634710937,-9.362655,0.653808,2.813435,0.48987,0.47956,0.45626
1702327634718750,-9.360655,0.666808,2.807435,0.47187,0.52356,0.47326
1702327634726562,-9.358655,0.668808,2.793435,0.46887,0.53556,0.42626
1702327634734375,-9.363655,0.675808,2.807435,0.48387,0.51756,0.45926
1702327634742187,-9.374655,0.675808,2.784435,0.46487,0.60756,0.44426
1702327634750000,-9.373655,0.671808,2.782435,0.50387,0.56956,0.48926
1702327634757812,-9.380655,0.684808,2.782435,0.45287,0.53556,0.44226
1702327634765625,-9.382655,0.673808,2.777435,0.38987,0.55456,0.40926
1702327634773437,-9.381655,0.670808,2.770435,0.38387,0.60756,0.41226
1702327634781250,-9.385655,0.676808,2.764435,0.55187,0.53856,0.45726
1702327634789062,-9.392655,0.669808,2.834435,0.51487,0.47156,0.31426
1702327634796875,-9.395655,0.639808,2.818435,0.57187,0.31256,0.29426
1702327634804687,-9.382655,0.622808,2.707435,0.45387,0.43156,0.28026
1702327634812500,-9.345655,0.661808,2.737435,0.9187,0.43356,0.36426
1702327634820312,-9.309655,0.661808,2.770435,0.14287,0.47056,0.29826
1702327634828125,-9.309655,0.665808,2.779435,0.22087,0.30956,0.30026
1702327634835937,-9.284655,0.677808,2.777435,0.31187,0.26256,0.34326
1702327634843750,-9.269655,0.698808,2.782435,0.30887,0.32156,0.26426
1702327634851562,-9.260655,0.711808,2.777435,0.28987,0.31556,0.34626
1702327634859375,-9.263655,0.720808,2.750435,0.27187,0.35856,0.39526
1702327634867187,-9.289655,0.734808,2.730435,0.8187,0.36456,0.36126
1702327634875000,-9.321655,0.732808,2.716435,0.14387,0.28056,0.44326
1702327634882812,-9.339655,0.737808,2.732435,0.13287,0.46056,0.44126
1702327634890625,-9.395655,0.722808,2.728435,0.1587,0.36156,0.39526
1702327634898437,-9.445655,0.701808,2.714435,0.5387,0.37056,0.40826
1702327634906250,-9.488655,0.695808,2.705435,0.487,0.27756,0.32726
1702327634914062,-9.548655,0.674808,2.723435,0.9213,0.29256,0.32726
1702327634921875,-9.572655,0.646808,2.743435,0.15713,0.27756,0.26326
1702327634929687,-9.583655,0.634808,2.743435,0.20713,0.28956,0.26426
1702327634937500,-9.587655,0.635808,2.734435,0.24913,0.28756,0.21226
1702327634945312,-9.587655,0.609808,2.739435,0.34813,0.28356,0.19726
1702327634953125,-9.557655,0.606808,2.741435,0.29513,0.30556,0.21126
1702327634960937,-9.538655,0.614808,2.762435,0.43513,0.27556,0.10426
1702327634968750,-9.500655,0.611808,2.757435,0.34313,0.36256,0.10626
1702327634976562,-9.474655,0.610808,2.766435,0.28213,0.43756,0.2726
1702327634984375,-9.456655,0.625808,2.775435,0.39213,0.42456,0.5826
1702327634992187,-9.424655,0.639808,2.786435,0.43413,0.51556,0.626
1702327635000000,-9.398655,0.663808,2.777435,0.37013,0.51556,0.974
1702327635007812,-9.380655,0.684808,2.770435,0.42213,0.52456,0.826
1702327635015625,-9.372655,0.706808,2.779435,0.43813,0.54056,0.2374
1702327635023437,-9.365655,0.735808,2.755435,0.48713,0.52456,0.774
1702327635031250,-9.349655,0.747808,2.741435,0.46413,0.48756,0.5326
1702327635039062,-9.350655,0.759808,2.718435,0.48413,0.45056,0.726
1702327635046875,-9.365655,0.762808,2.732435,0.41713,0.46856,0.5426
1702327635054687,-9.366655,0.779808,2.732435,0.45413,0.41156,0.15326
1702327635062500,-9.386655,0.773808,2.734435,0.35013,0.46656,0.31126
1702327635070312,-9.393655,0.782808,2.730435,0.45413,0.39256,0.28226
1702327635078125,-9.384655,0.787808,2.730435,0.38113,0.38856,0.32726
1702327635085937,-9.391655,0.795808,2.723435,0.31913,0.52556,0.37626
1702327635093750,-9.404655,0.807808,2.723435,0.25013,0.46956,0.40626
1702327635101562,-9.413655,0.798808,2.732435,0.20413,0.44756,0.48826
1702327635109375,-9.425655,0.791808,2.734435,0.22713,0.45056,0.52426
1702327635117187,-9.431655,0.783808,2.732435,0.17313,0.49056,0.53726
1702327635125000,-9.433655,0.794808,2.748435,0.18713,0.53956,0.61626
1702327635132812,-9.447655,0.774808,2.746435,0.10713,0.47456,0.66526
1702327635140625,-9.458655,0.771808,2.741435,0.16313,0.41456,0.66926
1702327635148437,-9.453655,0.761808,2.746435,0.6113,0.48656,0.65026
1702327635156250,-9.457655,0.748808,2.768435,0.813,0.53956,0.72926
1702327635164062,-9.447655,0.747808,2.766435,0.1613,0.51156,0.68426
1702327635171875,-9.424655,0.742808,2.768435,0.387,0.51756,0.71526
1702327635179687,-9.422655,0.733808,2.779435,0.12813,0.52656,0.76526
1702327635187500,-9.397655,0.731808,2.773435,0.6887,0.50256,0.68226
1702327635195312,-9.389655,0.736808,2.768435,0.1087,0.50256,0.70326
1702327635203125,-9.388655,0.728808,2.770435,0.1487,0.52756,0.62026
1702327635210937,-9.390655,0.733808,2.759435,0.3587,0.51756,0.69826
1702327635218750,-9.386655,0.730808,2.770435,0.1187,0.53656,0.67026
1702327635226562,-9.384655,0.728808,2.777435,0.1487,0.52356,0.71726
1702327635234375,-9.382655,0.737808,2.777435,0.6513,0.57456,0.63626
1702327635242187,-9.388655,0.731808,2.775435,0.6213,0.58056,0.61826
1702327635250000,-9.389655,0.732808,2.773435,0.16413,0.57056,0.62126
1702327635257812,-9.393655,0.735808,2.768435,0.8113,0.57356,0.65226
1702327635265625,-9.395655,0.728808,2.768435,0.17713,0.62356,0.58726
1702327635273437,-9.404655,0.735808,2.779435,0.12913,0.60856,0.55526
1702327635281250,-9.406655,0.753808,2.779435,0.14213,0.55256,0.52126
1702327635289062,-9.406655,0.760808,2.773435,0.22613,0.56256,0.50726
1702327635296875,-9.400655,0.768808,2.770435,0.19613,0.57456,0.52426
1702327635304687,-9.389655,0.773808,2.775435,0.17813,0.59356,0.47526
1702327635312500,-9.384655,0.777808,2.755435,0.20813,0.51856,0.49026
1702327635320312,-9.380655,0.775808,2.757435,0.17613,0.53456,0.47426
1702327635328125,-9.376655,0.790808,2.766435,0.18213,0.50956,0.44526
1702327635335937,-9.385655,0.801808,2.777435,0.20013,0.52256,0.47826
1702327635343750,-9.388655,0.805808,2.784435,0.20013,0.52256,0.47826
1702327635351562,-9.385655,0.803808,2.782435,0.18313,0.57256,0.41326
1702327635359375,-9.383655,0.816808,2.782435,0.21613,0.50656,0.43026
1702327635367187,-9.374655,0.816808,2.779435,0.13713,0.53856,0.36626
1702327635375000,-9.370655,0.829808,2.779435,0.18313,0.52556,0.39726
1702327635382812,-9.370655,0.834808,2.773435,0.21613,0.50656,0.43026
1702327635390625,-9.372655,0.834808,2.791435,0.22813,0.51656,0.33126
1702327635398437,-9.370655,0.825808,2.784435,0.10013,0.52856,0.41226
1702327635406250,-9.366655,0.818808,2.773435,0.18713,0.47356,0.35026
1702327635414062,-9.351655,0.809808,2.770435,0.11613,0.46656,0.38026
1702327635421875,-9.361655,0.800808,2.766435,0.2313,0.53856,0.43026
1702327635429687,-9.370655,0.803808,2.795435,0.16913,0.61656,0.39826
1702327635437500,-9.343655,0.818808,2.797435,0.13413,0.57256,0.41326
1702327635445312,-9.312655,0.805808,2.718435,0.3787,0.43256,0.45626
1702327635453125,-9.334655,0.811808,2.752435,0.13513,0.52656,0.34926
1702327635460937,-9.346655,0.862808,2.883435,0.29913,0.39456,0.39826
1702327635468750,-9.322655,0.887808,2.865435,0.41513,0.38856,0.43226
1702327635476562,-9.272655,0.891808,2.714435,0.24113,0.50356,0.41026
1702327635484375,-9.246655,0.918808,2.669435,0.7013,0.49456,0.39726
1702327635492187,-9.277655,0.928808,2.660435,0.12913,0.39156,0.41126
1702327635500000,-9.291655,0.926808,2.669435,0.42313,0.36956,0.49326
1702327635507812,-9.317655,0.926808,2.752435,0.48413,0.27756,0.60426
1702327635515625,-9.354655,0.924808,2.809435,0.47313,0.29956,0.65526
1702327635523437,-9.405655,0.894808,2.802435,0.46913,0.11556,0.68626
1702327635531250,-9.447655,0.886808,2.827435,0.48413,0.4156,0.62126
1702327635539062,-9.473655,0.882808,2.840435,0.38313,0.156,0.58726
1702327635546875,-9.489655,0.883808,2.795435,0.36613,0.4144,0.52126
1702327635554687,-9.487655,0.880808,2.739435,0.37213,0.444,0.50826
1702327635562500,-9.484655,0.865808,2.712435,0.33413,0.3656,0.50526
1702327635570312,-9.473655,0.852808,2.709435,0.48013,0.2056,0.44126
1702327635578125,-9.455655,0.842808,2.682435,0.46713,0.3356,0.36226
1702327635585937,-9.441655,0.849808,2.646435,0.48113,0.2156,0.32926
1702327635593750,-9.418655,0.847808,2.644435,0.46113,0.20256,0.29426
1702327635601562,-9.415655,0.848808,2.646435,0.49213,0.25856,0.22126
1702327635609375,-9.401655,0.861808,2.644435,0.45613,0.29556,0.25126
1702327635617187,-9.406655,0.879808,2.635435,0.47413,0.32456,0.23626
1702327635625000,-9.420655,0.902808,2.646435,0.48513,0.30256,0.16926
1702327635632812,-9.440655,0.910808,2.646435,0.47413,0.32356,0.26826
1702327635640625,-9.468655,0.946808,2.637435,0.49213,0.28956,0.23726
1702327635648437,-9.470655,0.948808,2.673435,0.45613,0.32756,0.23526
1702327635656250,-9.471655,0.979808,2.694435,0.47513,0.27856,0.10826
1702327635664062,-9.459655,0.983808,2.703435,0.47413,0.29256,0.23626
1702327635671875,-9.451655,0.972808,2.714435,0.48013,0.40856,0.23926
1702327635679687,-9.443655,0.970808,2.705435,0.31113,0.42056,0.26726
1702327635687500,-9.436655,0.984808,2.709435,0.27513,0.47356,0.29826
1702327635695312,-9.426655,0.988808,2.716435,0.29213,0.53156,0.41126
1702327635703125,-9.425655,0.986808,2.725435,0.23913,0.52156,0.48926
1702327635710937,-9.421655,0.997808,2.741435,0.16213,0.67056,0.55526
1702327635718750,-9.423655,1.8808,2.764435,0.20813,0.59656,0.55426
1702327635726562,-9.426655,1.10808,2.768435,0.9713,0.73256,0.65226
1702327635734375,-9.422655,1.9808,2.770435,0.8913,0.70156,0.68826
1702327635742187,-9.424655,1.17808,2.750435,0.6213,0.73556,0.65126
1702327635750000,-9.426655,1.16808,2.755435,0.6487,0.77856,0.73226
1702327635757812,-9.417655,1.7808,2.757435,0.1387,0.75656,0.78226
1702327635765625,-9.403655,0.985808,2.770435,0.5087,0.78156,0.74726
1702327635773437,-9.383655,0.965808,2.755435,0.2987,0.72556,0.75026
1702327635781250,-9.374655,0.951808,2.759435,0.14087,0.69156,0.75126
1702327635789062,-9.361655,0.933808,2.791435,0.15387,0.68556,0.75326
1702327635796875,-9.356655,0.933808,2.872435,0.19187,0.66356,0.76626
1702327635804687,-9.349655,0.870808,2.784435,0.35887,0.67756,0.77126
1702327635812500,-9.326655,0.869808,2.680435,0.10987,0.78856,0.71826
1702327635820312,-9.319655,0.887808,2.696435,0.3287,0.82556,0.78026
1702327635828125,-9.319655,0.869808,2.750435,0.3287,0.74856,0.66826
1702327635835937,-9.339655,0.887808,2.802435,0.9787,0.70156,0.68426
1702327635843750,-9.351655,0.889808,2.791435,0.7687,0.71156,0.62126
1702327635851562,-9.348655,0.914808,2.809435,0.9787,0.63956,0.65126
1702327635859375,-9.369655,0.916808,2.800435,0.14487,0.56256,0.52326
1702327635867187,-9.378655,0.927808,2.777435,0.18887,0.66556,0.52526
1702327635875000,-9.387655,0.940808,2.779435,0.5987,0.60356,0.50926
1702327635882812,-9.393655,0.952808,2.791435,0.11587,0.61556,0.52126
1702327635890625,-9.383655,0.951808,2.784435,0.10787,0.66556,0.47726
1702327635898437,-9.358655,0.961808,2.791435,0.5087,0.69356,0.47326
1702327635906250,-9.347655,0.965808,2.777435,0.16187,0.64456,0.44226
1702327635914062,-9.351655,0.954808,2.768435,0.9887,0.64756,0.42526
1702327635921875,-9.338655,0.949808,2.773435,0.9487,0.59456,0.42726
1702327635929687,-9.342655,0.951808,2.770435,0.10887,0.59156,0.38026
1702327635937500,-9.344655,0.951808,2.775435,0.4487,0.67256,0.33126
1702327635945312,-9.335655,0.967808,2.784435,0.3187,0.58256,0.37826
1702327635953125,-9.342655,0.964808,2.782435,0.3087,0.56356,0.41126
1702327635960937,-9.336655,0.962808,2.788435,0.4487,0.56056,0.39626
1702327635968750,-9.336655,0.968808,2.797435,0.2787,0.52956,0.34826
1702327635976562,-9.338655,0.980808,2.797435,0.1787,0.53856,0.34526
1702327635984375,-9.345655,0.977808,2.800435,0.4387,0.56056,0.31626
1702327635992187,-9.342655,0.974808,2.811435,0.3587,0.55756,0.32826
1702327636000000,-9.350655,0.959808,2.809435,0.687,0.62556,0.32626
1702327636007812,-9.348655,0.956808,2.809435,0.1887,0.57356,0.28026
1702327636015625,-9.355655,0.947808,2.822435,0.4987,0.56956,0.36126
1702327636023437,-9.353655,0.944808,2.827435,0.2787,0.54556,0.28326
1702327636031250,-9.366655,0.950808,2.822435,0.4887,0.52356,0.26426
1702327636039062,-9.366655,0.955808,2.834435,0.4213,0.54856,0.24626
1702327636046875,-9.358655,0.947808,2.827435,0.7113,0.43756,0.12326
1702327636054687,-9.374655,0.951808,2.820435,0.5713,0.43056,0.20526
1702327636062500,-9.360655,0.942808,2.822435,0.10413,0.43756,0.5926
1702327636070312,-9.361655,0.948808,2.807435,0.4213,0.41556,0.10926
1702327636078125,-9.349655,0.953808,2.786435,0.18413,0.40656,0.4326
1702327636085937,-9.363655,0.977808,2.777435,0.22113,0.43156,0.2926
1702327636093750,-9.351655,0.973808,2.784435,0.19813,0.45656,0.10626
1702327636101562,-9.349655,0.964808,2.786435,0.23413,0.48456,0.1126
1702327636109375,-9.351655,0.960808,2.793435,0.21513,0.42556,0.1026
1702327636117187,-9.356655,0.967808,2.807435,0.15013,0.40956,0.4226
1702327636125000,-9.363655,0.969808,2.802435,0.18513,0.45356,0.2074
1702327636132812,-9.376655,0.960808,2.804435,0.23513,0.41956,0.1974
1702327636140625,-9.363655,0.973808,2.782435,0.20713,0.41356,0.1874
1702327636148437,-9.368655,0.975808,2.795435,0.7613,0.46356,0.274
1702327636156250,-9.372655,0.960808,2.816435,0.13713,0.42256,0.474
1702327636164062,-9.374655,0.976808,2.816435,0.2413,0.46956,0.2074
1702327636171875,-9.388655,0.973808,2.807435,0.8913,0.37256,0.4426
1702327636179687,-9.404655,0.971808,2.818435,0.15713,0.42856,0.9426
1702327636187500,-9.408655,0.969808,2.813435,0.19013,0.41356,0.4626
1702327636195312,-9.409655,0.966808,2.818435,0.11613,0.49056,0.4126
1702327636203125,-9.427655,0.962808,2.820435,0.187,0.57856,0.2226
1702327636210937,-9.423655,0.958808,2.798435,0.2387,0.45056,0.7626
1702327636218750,-9.417655,0.963808,2.804435,0.3787,0.49456,0.6126
1702327636226562,-9.416655,0.966808,2.816435,0.2987,0.50656,0.10526
1702327636234375,-9.391655,0.950808,2.827435,0.7787,0.56856,0.13726
1702327636242187,-9.378655,0.959808,2.818435,0.6287,0.54056,0.5626
1702327636250000,-9.374655,0.949808,2.816435,0.5887,0.53056,0.17126
1702327636257812,-9.376655,0.941808,2.820435,0.4487,0.51756,0.25026
1702327636265625,-9.376655,0.952808,2.818435,0.12487,0.61156,0.21826
1702327636273437,-9.373655,0.941808,2.818435,0.27687,0.54256,0.24726
1702327636281250,-9.367655,0.933808,2.822435,0.20087,0.50856,0.26926
1702327636289062,-9.360655,0.933808,2.822435,0.11987,0.50856,0.25326
1702327636296875,-9.373655,0.927808,2.831435,0.31987,0.53356,0.29826
1702327636304687,-9.384655,0.919808,2.825435,0.28987,0.55256,0.29726
1702327636312500,-9.386655,0.914808,2.827435,0.14387,0.55256,0.24926
1702327636320312,-9.379655,0.910808,2.825435,0.25787,0.55156,0.31426
1702327636328125,-9.368655,0.896808,2.820435,0.30487,0.54856,0.34726
1702327636335937,-9.362655,0.905808,2.816435,0.25587,0.54856,0.29826
1702327636343750,-9.351655,0.895808,2.807435,0.31287,0.52056,0.31826
1702327636351562,-9.348655,0.896808,2.811435,0.32287,0.52056,0.33026
1702327636359375,-9.331655,0.892808,2.825435,0.36087,0.58356,0.30226
1702327636367187,-9.326655,0.891808,2.829435,0.41387,0.62056,0.38126
1702327636375000,-9.331655,0.890808,2.847435,0.40987,0.58356,0.35026
1702327636382812,-9.335655,0.889808,2.867435,0.41587,0.54556,0.38026
1702327636390625,-9.337655,0.893808,2.854435,0.39687,0.58956,0.34826
1702327636398437,-9.339655,0.896808,2.849435,0.36987,0.56356,0.41126
1702327636406250,-9.343655,0.894808,2.852435,0.45087,0.61456,0.29826
1702327636414062,-9.355655,0.891808,2.852435,0.26787,0.57356,0.34926
1702327636421875,-9.348655,0.900808,2.843435,0.25387,0.54556,0.33126
1702327636429687,-9.356655,0.901808,2.838435,0.29387,0.56456,0.28726
1702327636437500,-9.356655,0.895808,2.836435,0.24787,0.55256,0.30226
1702327636445312,-9.346655,0.882808,2.825435,0.29587,0.50556,0.27026
1702327636453125,-9.352655,0.858808,2.825435,0.29987,0.52756,0.28426
1702327636460937,-9.361655,0.845808,2.834435,0.28587,0.53056,0.29926
1702327636468750,-9.353655,0.844808,2.863435,0.26187,0.48656,0.28726
1702327636476562,-9.352655,0.827808,2.813435,0.26587,0.44656,0.22126
1702327636484375,-9.364655,0.820808,2.791435,0.30987,0.45656,0.19126
1702327636492187,-9.386655,0.844808,2.922435,0.9987,0.42556,0.17526
1702327636500000,-9.390655,0.884808,2.967435,0.1713,0.44756,0.27326
1702327636507812,-9.353655,0.898808,2.849435,0.7113,0.53056,0.15526
1702327636515625,-9.306655,0.899808,2.779435,0.5287,0.52556,0.1326
1702327636523437,-9.292655,0.908808,2.784435,0.2687,0.50356,0.5826
1702327636531250,-9.286655,0.905808,2.770435,0.87,0.44156,0.3026
1702327636539062,-9.269655,0.918808,2.784435,0.12613,0.39756,0.2926
1702327636546875,-9.253655,0.909808,2.829435,0.17313,0.39656,0.14226
1702327636554687,-9.254655,0.901808,2.831435,0.2213,0.30956,0.25226
1702327636562500,-9.288655,0.897808,2.865435,0.4687,0.33056,0.29826
1702327636570312,-9.328655,0.906808,2.881435,0.2687,0.26256,0.28426
1702327636578125,-9.337655,0.930808,2.879435,0.5287,0.30856,0.29526
1702327636585937,-9.367655,0.945808,2.845435,0.2887,0.25056,0.25126
1702327636593750,-9.402655,0.950808,2.827435,0.4887,0.19456,0.20126
1702327636601562,-9.439655,0.953808,2.816435,0.5113,0.22356,0.9026
1702327636609375,-9.450655,0.943808,2.795435,0.10913,0.21156,0.1874
1702327636617187,-9.464655,0.923808,2.757435,0.20713,0.25456,0.1426
1702327636625000,-9.459655,0.899808,2.743435,0.19013,0.27356,0.1874
1702327636632812,-9.464655,0.889808,2.750435,0.21513,0.28556,0.3874
1702327636640625,-9.451655,0.878808,2.750435,0.19913,0.27056,0.7074
1702327636648437,-9.419655,0.871808,2.761435,0.13213,0.28956,0.3974
1702327636656250,-9.410655,0.866808,2.773435,0.19813,0.23956,0.2274
1702327636664062,-9.400655,0.881808,2.764435,0.18413,0.20556,0.6974
1702327636671875,-9.390655,0.879808,2.752435,0.21013,0.28056,0.10574
1702327636679687,-9.379655,0.886808,2.750435,0.27613,0.29256,0.8874
1702327636687500,-9.370655,0.890808,2.752435,0.27213,0.28356,0.10674
1702327636695312,-9.353655,0.909808,2.750435,0.31813,0.27656,0.8374
1702327636703125,-9.352655,0.919808,2.748435,0.32213,0.23956,0.9774
1702327636710937,-9.339655,0.949808,2.741435,0.38913,0.27656,0.8874
1702327636718750,-9.348655,0.949808,2.739435,0.34113,0.29256,0.7274
1702327636726562,-9.348655,0.952808,2.752435,0.43513,0.27956,0.7274
1702327636734375,-9.373655,0.950808,2.741435,0.33613,0.35956,0.2226
1702327636742187,-9.378655,0.954808,2.755435,0.29713,0.31356,0.2726
1702327636750000,-9.395655,0.961808,2.750435,0.41813,0.34056,0.5526
1702327636757812,-9.382655,0.959808,2.761435,0.39713,0.37756,0.14926
1702327636765625,-9.390655,0.969808,2.750435,0.42513,0.39056,0.12326
1702327636773437,-9.392655,0.974808,2.755435,0.32313,0.42656,0.24926
1702327636781250,-9.387655,0.981808,2.741435,0.22913,0.50156,0.26626
1702327636789062,-9.380655,0.981808,2.741435,0.23913,0.47956,0.23126
1702327636796875,-9.394655,0.970808,2.748435,0.17713,0.52356,0.24826
1702327636804687,-9.398655,0.983808,2.741435,0.25913,0.48856,0.29826
1702327636812500,-9.412655,0.976808,2.737435,0.18013,0.51756,0.28226
1702327636820312,-9.420655,0.953808,2.764435,0.17213,0.49856,0.31126
1702327636828125,-9.420655,0.953808,2.820435,0.21813,0.37756,0.26126
1702327636835937,-9.411655,0.926808,2.764435,0.17913,0.31556,0.25026
1702327636843750,-9.395655,0.915808,2.709435,0.23613,0.35856,0.29426
1702327636851562,-9.387655,0.912808,2.709435,0.40713,0.43556,0.31526
1702327636859375,-9.364655,0.886808,2.725435,0.31513,0.30156,0.33426
1702327636867187,-9.398655,0.878808,2.768435,0.22213,0.38956,0.36826
1702327636875000,-9.399655,0.886808,2.775435,0.22513,0.27156,0.28126
1702327636882812,-9.390655,0.890808,2.784435,0.20813,0.42956,0.32926
1702327636890625,-9.393655,0.892808,2.791435,0.29313,0.39256,0.25026
1702327636898437,-9.393655,0.897808,2.777435,0.27613,0.36156,0.26626
1702327636906250,-9.395655,0.901808,2.768435,0.21413,0.38956,0.23526
1702327636914062,-9.400655,0.910808,2.759435,0.39113,0.43956,0.20226
1702327636921875,-9.395655,0.910808,2.741435,0.29213,0.44356,0.15326
1702327636929687,-9.386655,0.912808,2.730435,0.24613,0.42456,0.17026
1702327636937500,-9.354655,0.926808,2.716435,0.24013,0.59356,0.7026
1702327636945312,-9.362655,0.943808,2.716435,0.26113,0.50556,0.13726
1702327636953125,-9.355655,0.947808,2.714435,0.30813,0.46256,0.8826
1702327636960937,-9.366655,0.944808,2.723435,0.28613,0.48756,0.8526
1702327636968750,-9.373655,0.955808,2.721435,0.33413,0.40956,0.8526
1702327636976562,-9.385655,0.970808,2.727435,0.37413,0.45956,0.8926
1702327636984375,-9.381655,0.985808,2.739435,0.24713,0.43656,0.18726
1702327636992187,-9.373655,0.986808,2.752435,0.20313,0.47056,0.24626
1702327637000000,-9.383655,0.992808,2.752435,0.22313,0.43356,0.26326
1702327637007812,-9.382655,1.6808,2.748435,0.28413,0.43956,0.24626
1702327637015625,-9.373655,1.1808,2.732435,0.18613,0.45456,0.27826
1702327637023437,-9.371655,0.997808,2.732435,0.25313,0.40456,0.27926
1702327637031250,-9.371655,0.988808,2.734435,0.25213,0.42056,0.31126
1702327637039062,-9.382655,0.988808,2.737435,0.20613,0.46356,0.31226
1702327637046875,-9.385655,0.976808,2.739435,0.22613,0.45756,0.29726
1702327637054687,-9.389655,0.975808,2.748435,0.20713,0.49556,0.24726
1702327637062500,-9.393655,0.964808,2.741435,0.17413,0.44856,0.29626
1702327637070312,-9.398655,0.952808,2.748435,0.20913,0.41056,0.34626
1702327637078125,-9.400655,0.953808,2.750435,0.12513,0.47956,0.34426
1702327637085937,-9.395655,0.948808,2.748435,0.9213,0.48356,0.24726
1702327637093750,-9.422655,0.937808,2.746435,0.10913,0.37056,0.27926
1702327637101562,-9.423655,0.941808,2.748435,0.16413,0.43956,0.26626
1702327637109375,-9.416655,0.943808,2.752435,0.16413,0.51756,0.25026
1702327637117187,-9.409655,0.942808,2.750435,0.10913,0.47956,0.32826
1702327637125000,-9.402655,0.955808,2.750435,0.5913,0.49856,0.29526
1702327637132812,-9.403655,0.956808,2.766435,0.2313,0.55856,0.25226
1702327637140625,-9.403655,0.954808,2.752435,0.15213,0.55756,0.26826
1702327637148437,-9.396655,0.959808,2.750435,0.21113,0.50456,0.28226
1702327637156250,-9.387655,0.970808,2.764435,0.9813,0.45856,0.24926
1702327637164062,-9.385655,0.968808,2.750435,0.6513,0.50856,0.18426
1702327637171875,-9.389655,0.977808,2.750435,0.4613,0.46456,0.23126
1702327637179687,-9.389655,0.979808,2.761435,0.4913,0.55156,0.28226
1702327637187500,-9.399655,0.987808,2.746435,0.2013,0.53356,0.21826
1702327637195312,-9.405655,0.981808,2.748435,0.1187,0.47156,0.15426
1702327637203125,-9.394655,0.979808,2.757435,0.3213,0.43156,0.15226
1702327637210937,-9.402655,0.975808,2.741435,0.8687,0.50656,0.10026
1702327637218750,-9.391655,0.981808,2.743435,0.9987,0.46856,0.11826
1702327637226562,-9.404655,0.980808,2.752435,0.2187,0.53356,0.21426
1702327637234375,-9.405655,0.983808,2.757435,0.11187,0.55256,0.24926
1702327637242187,-9.407655,0.986808,2.766435,0.19487,0.50856,0.24826
1702327637250000,-9.401655,0.979808,2.770435,0.22287,0.53356,0.26626
1702327637257812,-9.401655,0.983808,2.768435,0.28487,0.51556,0.21926
1702327637265625,-9.390655,0.980808,2.768435,0.26787,0.52756,0.30026
1702327637273437,-9.388655,0.985808,2.770435,0.35087,0.53056,0.29926
1702327637281250,-9.386655,0.996808,2.768435,0.38087,0.51156,0.28426
1702327637289062,-9.390655,0.989808,2.779435,0.34987,0.46456,0.33226
1702327637296875,-9.376655,0.985808,2.773435,0.49987,0.56756,0.34626
1702327637304687,-9.371655,0.981808,2.788435,0.50287,0.55456,0.42526
1702327637312500,-9.372655,0.982808,2.788435,0.54287,0.55856,0.34826
1702327637320312,-9.374655,0.953808,2.786435,0.55387,0.54856,0.43126
1702327637328125,-9.383655,0.942808,2.784435,0.55987,0.54256,0.41326
1702327637335937,-9.390655,0.942808,2.775435,0.54187,0.56956,0.47826
1702327637343750,-9.376655,0.940808,2.777435,0.55987,0.52656,0.39626
1702327637351562,-9.373655,0.943808,2.779435,0.57987,0.51756,0.39526
1702327637359375,-9.368655,0.934808,2.768435,0.55287,0.57356,0.39226
1702327637367187,-9.365655,0.926808,2.788435,0.62287,0.55456,0.43026
1702327637375000,-9.360655,0.924808,2.779435,0.65687,0.51156,0.44526
1702327637382812,-9.353655,0.912808,2.773435,0.58187,0.53656,0.41026
1702327637390625,-9.355655,0.909808,2.761435,0.61387,0.50556,0.42626
1702327637398437,-9.351655,0.902808,2.741435,0.56187,0.49856,0.41226
1702327637406250,-9.354655,0.892808,2.746435,0.54987,0.44256,0.39426
1702327637414062,-9.357655,0.894808,2.746435,0.65787,0.46856,0.28326
1702327637421875,-9.370655,0.883808,2.764435,0.61287,0.49056,0.28126
1702327637429687,-9.393655,0.876808,2.770435,0.65687,0.51556,0.26726
1702327637437500,-9.406655,0.879808,2.775435,0.62787,0.53756,0.23326
1702327637445312,-9.417655,0.862808,2.773435,0.53287,0.52556,0.18426
1702327637453125,-9.419655,0.859808,2.779435,0.55887,0.53556,0.4226
1702327637460937,-9.424655,0.877808,2.782435,0.65587,0.56656,0.7426
1702327637468750,-9.422655,0.872808,2.768435,0.55587,0.57556,0.12426
1702327637476562,-9.422655,0.879808,2.768435,0.57387,0.53256,0.5926
1702327637484375,-9.422655,0.875808,2.773435,0.52587,0.62956,0.2626
1702327637492187,-9.408655,0.866808,2.795435,0.40187,0.61856,0.10426
1702327637500000,-9.403655,0.850808,2.775435,0.44587,0.56656,0.574
1702327637507812,-9.388655,0.839808,2.777435,0.41087,0.56356,0.3674
1702327637515625,-9.383655,0.832808,2.802435,0.39487,0.54856,0.5374
1702327637523437,-9.357655,0.838808,2.811435,0.40587,0.57356,0.9974
1702327637531250,-9.338655,0.836808,2.721435,0.53987,0.44056,0.8574
1702327637539062,-9.347655,0.834808,2.746435,0.36287,0.42456,0.10174
1702327637546875,-9.373655,0.872808,2.877435,0.23287,0.48656,0.8574
1702327637554687,-9.375655,0.885808,2.872435,0.3987,0.45456,0.8574
1702327637562500,-9.346655,0.893808,2.752435,0.11987,0.54856,0.10174
1702327637570312,-9.325655,0.882808,2.727435,0.28387,0.52056,0.8674
1702327637578125,-9.332655,0.878808,2.734435,0.22287,0.52656,0.10374
1702327637585937,-9.336655,0.888808,2.700435,0.3087,0.49856,0.5674
1702327637593750,-9.334655,0.883808,2.739435,0.2787,0.53856,0.674
1702327637601562,-9.335655,0.843808,2.788435,0.0,0.49756,0.5674
1702327637609375,-9.356655,0.845808,2.764435,0.16987,0.42356,0.2174
1702327637617187,-9.379655,0.823808,2.825435,0.20387,0.26756,0.1026
1702327637625000,-9.400655,0.827808,2.870435,0.30887,0.26856,0.5874
1702327637632812,-9.400655,0.840808,2.838435,0.29187,0.23356,0.4174
1702327637640625,-9.392655,0.853808,2.791435,0.30687,0.28056,0.7374
1702327637648437,-9.401655,0.855808,2.800435,0.28887,0.29356,0.5674
1702327637656250,-9.408655,0.848808,2.779435,0.29987,0.26856,0.6974
1702327637664062,-9.403655,0.844808,2.759435,0.29087,0.29656,0.10574
1702327637671875,-9.387655,0.847808,2.730435,0.30987,0.33356,0.9174
1702327637679687,-9.378655,0.817808,2.725435,0.25787,0.32756,0.10574
1702327637687500,-9.385655,0.804808,2.739435,0.25387,0.36756,0.8774
1702327637695312,-9.392655,0.805808,2.743435,0.31287,0.31256,0.8474
1702327637703125,-9.378655,0.803808,2.748435,0.24887,0.29656,0.3674
1702327637710937,-9.362655,0.802808,2.748435,0.29087,0.31156,0.4174
1702327637718750,-9.367655,0.808808,2.737435,0.20687,0.24356,0.8774
1702327637726562,-9.369655,0.810808,2.730435,0.15487,0.26856,0.5374
1702327637734375,-9.358655,0.808808,2.741435,0.14187,0.28956,0.3974
1702327637742187,-9.347655,0.811808,2.741435,0.20187,0.26456,0.1126
1702327637750000,-9.350655,0.809808,2.725435,0.24387,0.27156,0.174
1702327637757812,-9.352655,0.809808,2.718435,0.13487,0.26156,0.1226
1702327637765625,-9.348655,0.804808,2.714435,0.16287,0.27156,0.3374
1702327637773437,-9.360655,0.795808,2.723435,0.10987,0.24256,0.3974
1702327637781250,-9.380655,0.785808,2.725435,0.5687,0.20256,0.1126
1702327637789062,-9.382655,0.788808,2.721435,0.2987,0.28956,0.774
1702327637796875,-9.384655,0.782808,2.709435,0.4587,0.27356,0.774
1702327637804687,-9.377655,0.782808,2.723435,0.3313,0.26056,0.826
1702327637812500,-9.369655,0.787808,2.727435,0.5713,0.24856,0.2074
1702327637820312,-9.354655,0.803808,2.712435,0.2413,0.26456,0.474
1702327637828125,-9.347655,0.809808,2.691435,0.15513,0.24556,0.374
1702327637835937,-9.349655,0.807808,2.696435,0.7513,0.29256,0.2826
1702327637843750,-9.367655,0.812808,2.671435,0.18613,0.32656,0.1126
1702327637851562,-9.392655,0.810808,2.664435,0.16813,0.29856,0.1026
1702327637859375,-9.419655,0.808808,2.687435,0.21813,0.35656,0.4426
1702327637867187,-9.436655,0.804808,2.680435,0.23313,0.37556,0.2726
1702327637875000,-9.459655,0.811808,2.732435,0.21413,0.28556,0.4226
1702327637882812,-9.473655,0.770808,2.685435,0.22413,0.26356,0.2326
1702327637890625,-9.479655,0.789808,2.660435,0.47513,0.32856,0.1126
1702327637898437,-9.465655,0.787808,2.649435,0.53513,0.31956,0.2526
1702327637906250,-9.451655,0.772808,2.621435,0.48513,0.29156,0.774
1702327637914062,-9.451655,0.760808,2.687435,0.47113,0.27256,0.926
1702327637921875,-9.453655,0.765808,2.685435,0.48513,0.27556,0.774
1702327637929687,-9.418655,0.773808,2.698435,0.47113,0.25756,0.5574
1702327637937500,-9.413655,0.776808,2.700435,0.48513,0.22956,0.4074
1702327637945312,-9.409655,0.791808,2.700435,0.51913,0.25756,0.3974
1702327637953125,-9.393655,0.811808,2.678435,0.51613,0.37256,0.726
1702327637960937,-9.388655,0.825808,2.698435,0.49413,0.38156,0.1174
1702327637968750,-9.389655,0.833808,2.696435,0.55013,0.35356,0.2374
1702327637976562,-9.384655,0.842808,2.669435,0.54613,0.35956,0.2574
1702327637984375,-9.389655,0.846808,2.651435,0.56713,0.43156,0.2374
1702327637992187,-9.387655,0.868808,2.642435,0.70913,0.29456,0.2474
1702327638000000,-9.394655,0.876808,2.644435,0.65513,0.28856,0.2774
1702327638007812,-9.408655,0.884808,2.633435,0.64713,0.41556,0.774
1702327638015625,-9.411655,0.886808,2.633435,0.68313,0.33156,0.1026
1702327638023437,-9.424655,0.882808,2.637435,0.68013,0.30356,0.5726
1702327638031250,-9.426655,0.884808,2.633435,0.68013,0.31856,0.8926
1702327638039062,-9.417655,0.888808,2.644435,0.69713,0.26856,0.12226
1702327638046875,-9.408655,0.893808,2.653435,0.69313,0.32056,0.20026
1702327638054687,-9.406655,0.890808,2.664435,0.71213,0.39156,0.28226
1702327638062500,-9.408655,0.895808,2.653435,0.76013,0.37556,0.34726
1702327638070312,-9.396655,0.895808,2.648435,0.62313,0.40356,0.34326
1702327638078125,-9.399655,0.879808,2.644435,0.69213,0.42856,0.31326
1702327638085937,-9.410655,0.879808,2.646435,0.69413,0.44156,0.31426
1702327638093750,-9.419655,0.886808,2.635435,0.61413,0.37956,0.26526
1702327638101562,-9.428655,0.880808,2.635435,0.59513,0.41356,0.31326
1702327638109375,-9.442655,0.879808,2.642435,0.60113,0.41956,0.34826
1702327638117187,-9.462655,0.883808,2.649435,0.57813,0.38256,0.34526
1702327638125000,-9.466655,0.876808,2.644435,0.61313,0.47256,0.34626
1702327638132812,-9.477655,0.874808,2.649435,0.66213,0.37956,0.24926
1702327638140625,-9.470655,0.879808,2.642435,0.54313,0.42056,0.26326
1702327638148437,-9.473655,0.881808,2.649435,0.56313,0.44456,0.32926
1702327638156250,-9.477655,0.874808,2.667435,0.62413,0.45056,0.29526
1702327638164062,-9.474655,0.879808,2.646435,0.49413,0.54756,0.24626
1702327638171875,-9.468655,0.878808,2.653435,0.55013,0.53556,0.26626
1702327638179687,-9.463655,0.879808,2.673435,0.57613,0.57556,0.29526
1702327638187500,-9.455655,0.883808,2.671435,0.48213,0.52656,0.21626
1702327638195312,-9.451655,0.903808,2.676435,0.48213,0.63556,0.24826
1702327638203125,-9.440655,0.897808,2.682435,0.48813,0.65656,0.26726
1702327638210937,-9.438655,0.905808,2.680435,0.47813,0.64756,0.27026
1702327638218750,-9.436655,0.926808,2.682435,0.50713,0.73156,0.25226
1702327638226562,-9.443655,0.937808,2.691435,0.49113,0.74756,0.26826
1702327638234375,-9.440655,0.935808,2.696435,0.47013,0.76856,0.29826
1702327638242187,-9.441655,0.945808,2.698435,0.49313,0.80656,0.28526
1702327638250000,-9.426655,0.965808,2.694435,0.46113,0.81556,0.29326
1702327638257812,-9.427655,0.968808,2.691435,0.48513,0.81856,0.28126
1702327638265625,-9.425655,0.975808,2.705435,0.46513,0.87156,0.31126
1702327638273437,-9.420655,0.987808,2.712435,0.41213,0.84556,0.37326
1702327638281250,-9.415655,0.975808,2.718435,0.33313,0.84256,0.37426
1702327638289062,-9.401655,0.974808,2.712435,0.26013,0.86156,0.39426
1702327638296875,-9.394655,0.984808,2.705435,0.33713,0.82156,0.37626
1702327638304687,-9.393655,0.984808,2.709435,0.27013,0.79256,0.40726
1702327638312500,-9.385655,0.983808,2.709435,0.27513,0.76756,0.47426
1702327638320312,-9.393655,0.968808,2.718435,0.26913,0.77756,0.43926
1702327638328125,-9.393655,0.950808,2.723435,0.15813,0.86756,0.47226
1702327638335937,-9.395655,0.950808,2.730435,0.8013,0.88056,0.40926
1702327638343750,-9.402655,0.944808,2.741435,0.7913,0.84856,0.52226
1702327638351562,-9.422655,0.951808,2.752435,0.1113,0.77756,0.47126
1702327638359375,-9.424655,0.942808,2.750435,0.6787,0.80556,0.45626
1702327638367187,-9.438655,0.935808,2.764435,0.5087,0.86756,0.45626
1702327638375000,-9.444655,0.934808,2.773435,0.17187,0.88056,0.48526
1702327638382812,-9.436655,0.922808,2.775435,0.12587,0.92056,0.49126
1702327638390625,-9.438655,0.928808,2.773435,0.25287,0.88656,0.46026
1702327638398437,-9.438655,0.926808,2.784435,0.30487,0.97156,0.42626
1702327638406250,-9.431655,0.929808,2.798435,0.29287,0.99256,0.45726
1702327638414062,-9.420655,0.931808,2.813435,0.30987,0.96556,0.39126
1702327638421875,-9.412655,0.933808,2.818435,0.27687,0.99956,0.44826
1702327638429687,-9.391655,0.946808,2.831435,0.33887,0.100556,0.44126
1702327638437500,-9.380655,0.941808,2.818435,0.30687,0.106756,0.49026
1702327638445312,-9.352655,0.950808,2.802435,0.34387,0.107756,0.42326
1702327638453125,-9.335655,0.943808,2.797435,0.41987,0.105156,0.53826
1702327638460937,-9.333655,0.952808,2.802435,0.42187,0.108556,0.53726
1702327638468750,-9.311655,0.953808,2.804435,0.52687,0.102756,0.49226
1702327638476562,-9.326655,0.947808,2.811435,0.56487,0.100556,0.45726
1702327638484375,-9.326655,0.952808,2.820435,0.55287,0.93356,0.47126
1702327638492187,-9.317655,0.943808,2.818435,0.64787,0.93156,0.44026
1702327638500000,-9.333655,0.944808,2.820435,0.62687,0.84356,0.50726
1702327638507812,-9.346655,0.929808,2.840435,0.67487,0.87556,0.44326
1702327638515625,-9.348655,0.936808,2.845435,0.67987,0.96256,0.40826
1702327638523437,-9.357655,0.932808,2.845435,0.71487,0.93456,0.45526
1702327638531250,-9.378655,0.920808,2.870435,0.68787,0.88456,0.49326
1702327638539062,-9.375655,0.914808,2.852435,0.78487,0.95056,0.39626
1702327638546875,-9.375655,0.916808,2.845435,0.81887,0.91856,0.49226
1702327638554687,-9.389655,0.916808,2.872435,0.81587,0.91656,0.44526
1702327638562500,-9.391655,0.910808,2.899435,0.80787,0.83556,0.40926
1702327638570312,-9.384655,0.892808,2.890435,0.82287,0.92856,0.42526
1702327638578125,-9.386655,0.877808,2.856435,0.73887,0.90656,0.39526
1702327638585937,-9.383655,0.870808,2.888435,0.72587,0.88256,0.37726
1702327638593750,-9.376655,0.867808,2.861435,0.81287,0.89556,0.26126
1702327638601562,-9.371655,0.835808,2.766435,0.80687,0.77356,0.28126
1702327638609375,-9.385655,0.855808,2.798435,0.77587,0.87056,0.32826
1702327638617187,-9.394655,0.880808,2.935435,0.56687,0.95056,0.27926
1702327638625000,-9.381655,0.893808,2.947435,0.47087,0.93456,0.32726
1702327638632812,-9.352655,0.892808,2.856435,0.48687,0.102856,0.34326
1702327638640625,-9.318655,0.879808,2.777435,0.58287,0.98256,0.26326
1702327638648437,-9.301655,0.873808,2.764435,0.52387,0.90556,0.13926
1702327638656250,-9.303655,0.871808,2.867435,0.51187,0.94256,0.15426
1702327638664062,-9.308655,0.884808,3.5435,0.35087,0.76756,0.26726
1702327638671875,-9.298655,0.894808,3.59435,0.48487,0.77656,0.24826
1702327638679687,-9.321655,0.883808,3.75435,0.58287,0.66756,0.26426
1702327638687500,-9.355655,0.880808,3.125435,0.68687,0.68756,0.18726
1702327638695312,-9.360655,0.860808,3.134435,0.81187,0.63156,0.27026
1702327638703125,-9.357655,0.869808,3.64435,0.86487,0.65656,0.13926
1702327638710937,-9.366655,0.878808,3.17435,0.81287,0.80956,0.9226
1702327638718750,-9.375655,0.881808,3.3435,0.83387,0.77256,0.5726
1702327638726562,-9.381655,0.897808,2.996435,0.76987,0.93156,0.774
1702327638734375,-9.360655,0.902808,2.951435,0.66687,0.96856,0.3674
1702327638742187,-9.346655,0.900808,2.890435,0.83187,0.100656,0.2526
1702327638750000,-9.304655,0.895808,2.895435,0.77787,0.87256,0.3574
1702327638757812,-9.277655,0.885808,2.888435,0.77887,0.87256,0.1226
1702327638765625,-9.259655,0.874808,2.854435,0.81087,0.77556,0.6126
1702327638773437,-9.238655,0.874808,2.838435,0.79987,0.75356,0.2626
1702327638781250,-9.214655,0.867808,2.840435,0.81187,0.60456,0.12526
1702327638789062,-9.222655,0.875808,2.881435,0.75587,0.55856,0.16126
1702327638796875,-9.230655,0.867808,2.904435,0.76287,0.52356,0.12626
1702327638804687,-9.240655,0.867808,2.917435,0.68687,0.51656,0.9126
1702327638812500,-9.267655,0.870808,2.915435,0.55887,0.48556,0.13926
1702327638820312,-9.281655,0.857808,2.915435,0.55687,0.46256,0.25326
1702327638828125,-9.303655,0.848808,2.904435,0.54287,0.44956,0.31626
1702327638835937,-9.329655,0.838808,2.924435,0.54487,0.51856,0.21826
1702327638843750,-9.351655,0.830808,2.931435,0.54987,0.50056,0.20826
1702327638851562,-9.390655,0.807808,2.947435,0.53987,0.52456,0.26926
1702327638859375,-9.413655,0.812808,2.956435,0.50587,0.50656,0.25426
1702327638867187,-9.435655,0.815808,2.940435,0.50687,0.58756,0.25326
1702327638875000,-9.439655,0.811808,2.940435,0.39887,0.56156,0.26726
1702327638882812,-9.455655,0.811808,2.956435,0.33287,0.57856,0.15526
1702327638890625,-9.455655,0.806808,2.985435,0.42687,0.60656,0.14026
1702327638898437,-9.442655,0.805808,2.971435,0.37187,0.67556,0.7926
1702327638906250,-9.421655,0.801808,2.962435,0.27687,0.75956,0.3474
1702327638914062,-9.414655,0.786808,2.969435,0.34587,0.73456,0.474
1702327638921875,-9.397655,0.792808,2.987435,0.33987,0.74056,0.1426
1702327638929687,-9.385655,0.795808,2.992435,0.28387,0.77256,0.3874
1702327638937500,-9.340655,0.807808,3.1435,0.29587,0.73556,0.10074
1702327638945312,-9.327655,0.773808,3.12435,0.43887,0.52756,0.8374
1702327638953125,-9.293655,0.766808,2.890435,0.29287,0.58956,0.9974
1702327638960937,-9.259655,0.804808,2.976435,0.2987,0.70056,0.8874
1702327638968750,-9.235655,0.803808,3.39435,0.7287,0.62956,0.10174
1702327638976562,-9.239655,0.807808,3.19435,0.19487,0.56356,0.2574
1702327638984375,-9.239655,0.801808,3.12435,0.23487,0.59756,0.2174
1702327638992187,-9.227655,0.811808,3.12435,0.27687,0.64756,0.6226
1702327639000000,-9.234655,0.824808,3.48435,0.22187,0.57356,0.4926
1702327639007812,-9.254655,0.820808,3.39435,0.23887,0.57556,0.3226
1702327639015625,-9.270655,0.818808,3.19435,0.24087,0.53256,0.6426
1702327639023437,-9.287655,0.814808,3.37435,0.29187,0.53456,0.9526
1702327639031250,-9.276655,0.808808,3.32435,0.29387,0.50756,0.4626
1702327639039062,-9.282655,0.802808,2.994435,0.34687,0.53256,0.2726
1702327639046875,-9.280655,0.788808,2.967435,0.35787,0.50756,0.4626
1702327639054687,-9.285655,0.785808,2.958435,0.43787,0.51956,0.14326
1702327639062500,-9.283655,0.776808,2.969435,0.43387,0.55656,0.7226
1702327639070312,-9.271655,0.763808,2.965435,0.50587,0.51056,0.12526
1702327639078125,-9.257655,0.770808,2.971435,0.52787,0.45356,0.26726
1702327639085937,-9.262655,0.772808,2.956435,0.51987,0.42556,0.17526
1702327639093750,-9.260655,0.759808,2.965435,0.50687,0.39756,0.27026
1702327639101562,-9.259655,0.759808,2.958435,0.52687,0.37256,0.28426
1702327639109375,-9.278655,0.754808,2.962435,0.52187,0.30056,0.27126
1702327639117187,-9.277655,0.744808,2.969435,0.51087,0.49656,0.31626
1702327639125000,-9.297655,0.726808,2.965435,0.39587,0.50856,0.34926
1702327639132812,-9.313655,0.730808,2.965435,0.48687,0.42156,0.30426
1702327639140625,-9.331655,0.720808,2.962435,0.39187,0.40956,0.27126
1702327639148437,-9.336655,0.715808,2.971435,0.43587,0.41856,0.25726
1702327639156250,-9.358655,0.711808,2.967435,0.27687,0.34356,0.27226
1702327639164062,-9.375655,0.705808,2.978435,0.26187,0.36256,0.22326
1702327639171875,-9.372655,0.701808,2.953435,0.15587,0.38756,0.28426
1702327639179687,-9.371655,0.689808,2.951435,0.8487,0.44056,0.25526
1702327639187500,-9.375655,0.699808,2.983435,0.10387,0.46656,0.6026
1702327639195312,-9.364655,0.696808,2.994435,0.3787,0.44756,0.4526
1702327639203125,-9.364655,0.699808,3.12435,0.2087,0.51056,0.2926
1702327639210937,-9.346655,0.707808,2.999435,0.3787,0.56056,0.3574
1702327639218750,-9.315655,0.727808,2.974435,0.1213,0.52556,0.3474
1702327639226562,-9.317655,0.737808,2.958435,0.187,0.52256,0.174
1702327639234375,-9.315655,0.743808,2.962435,0.3913,0.58156,0.3774
1702327639242187,-9.317655,0.749808,2.962435,0.10513,0.53156,0.3674
1702327639250000,-9.336655,0.753808,2.956435,0.16213,0.50456,0.6574
1702327639257812,-9.349655,0.760808,2.969435,0.22713,0.51956,0.9774
1702327639265625,-9.359655,0.773808,2.971435,0.26213,0.48256,0.7974
1702327639273437,-9.383655,0.772808,2.983435,0.25313,0.43556,0.10074
1702327639281250,-9.412655,0.774808,2.958435,0.35113,0.38556,0.11574
1702327639289062,-9.420655,0.773808,2.960435,0.44513,0.48556,0.8474
1702327639296875,-9.420655,0.773808,2.947435,0.41313,0.50056,0.10074
1702327639304687,-9.423655,0.775808,2.929435,0.40013,0.43256,0.8374
1702327639312500,-9.402655,0.773808,2.933435,0.36213,0.44156,0.11874
1702327639320312,-9.387655,0.765808,2.951435,0.39713,0.34256,0.10074
1702327639328125,-9.365655,0.769808,2.929435,0.35513,0.41056,0.8174
1702327639335937,-9.347655,0.769808,2.910435,0.28913,0.42956,0.9874
1702327639343750,-9.331655,0.782808,2.926435,0.28713,0.44856,0.8374
1702327639351562,-9.314655,0.806808,2.926435,0.39813,0.41956,0.10074
1702327639359375,-9.311655,0.798808,2.915435,0.34613,0.50356,0.8574
1702327639367187,-9.302655,0.802808,2.933435,0.37813,0.45756,0.10274
1702327639375000,-9.298655,0.828808,2.924435,0.44613,0.48156,0.5174
1702327639382812,-9.299655,0.823808,2.919435,0.38413,0.41256,0.3026
1702327639390625,-9.303655,0.814808,2.935435,0.40213,0.44056,0.3126
1702327639398437,-9.317655,0.821808,2.919435,0.32113,0.40956,0.4726
1702327639406250,-9.327655,0.833808,2.895435,0.23413,0.32556,0.2826
1702327639414062,-9.336655,0.822808,2.897435,0.26913,0.43156,0.7726
1702327639421875,-9.357655,0.808808,2.886435,0.30713,0.40256,0.20926
1702327639429687,-9.366655,0.802808,2.890435,0.22213,0.42356,0.27126
1702327639437500,-9.386655,0.807808,2.897435,0.23613,0.42756,0.25426
1702327639445312,-9.383655,0.794808,2.917435,0.22213,0.39256,0.25526
1702327639453125,-9.401655,0.801808,2.947435,0.23313,0.29056,0.26926
1702327639460937,-9.408655,0.796808,2.983435,0.22513,0.32456,0.24126
1702327639468750,-9.416655,0.788808,2.996435,0.13513,0.41756,0.25226
1702327639476562,-9.405655,0.788808,2.976435,0.2413,0.38356,0.26926
1702327639484375,-9.388655,0.793808,2.962435,0.1887,0.40556,0.28826
1702327639492187,-9.367655,0.812808,2.933435,0.1613,0.36456,0.29726
1702327639500000,-9.345655,0.822808,2.938435,0.3813,0.38656,0.30026
1702327639507812,-9.341655,0.820808,2.931435,0.1013,0.45856,0.28626
1702327639515625,-9.325655,0.820808,2.917435,0.2313,0.41456,0.34926
1702327639523437,-9.314655,0.819808,2.913435,0.4187,0.41456,0.38126
1702327639531250,-9.309655,0.802808,2.919435,0.2687,0.27456,0.39726
1702327639539062,-9.307655,0.806808,2.928435,0.4287,0.27356,0.42926
1702327639546875,-9.318655,0.773808,2.940435,0.2887,0.32356,0.41226
1702327639554687,-9.333655,0.763808,2.947435,0.8087,0.34556,0.42726
1702327639562500,-9.334655,0.761808,2.983435,0.10287,0.32356,0.45626
1702327639570312,-9.350655,0.750808,3.53435,0.14687,0.31756,0.37726
1702327639578125,-9.346655,0.752808,2.901435,0.22787,0.28656,0.40926
1702327639585937,-9.333655,0.760808,2.852435,0.20487,0.30556,0.42926
1702327639593750,-9.348655,0.781808,2.978435,0.18087,0.29056,0.32826
1702327639601562,-9.346655,0.782808,2.971435,0.3987,0.28056,0.40726
1702327639609375,-9.312655,0.781808,2.933435,0.5187,0.32056,0.39326
1702327639617187,-9.293655,0.797808,2.831435,0.2887,0.24956,0.28326
1702327639625000,-9.271655,0.786808,2.804435,0.17287,0.21556,0.28426
1702327639632812,-9.268655,0.804808,2.996435,0.6787,0.9956,0.36126
1702327639640625,-9.271655,0.788808,3.17435,0.3287,0.1556,0.41126
1702327639648437,-9.259655,0.775808,2.956435,0.3287,0.3156,0.42726
1702327639656250,-9.288655,0.773808,3.19435,0.16087,0.1556,0.39526
1702327639664062,-9.308655,0.745808,3.78435,0.24587,0.2256,0.37726
1702327639671875,-9.301655,0.741808,3.3435,0.35987,0.7256,0.37626
1702327639679687,-9.297655,0.751808,2.913435,0.36887,0.15356,0.42826
1702327639687500,-9.320655,0.764808,2.895435,0.45887,0.2056,0.30326
1702327639695312,-9.331655,0.780808,2.904435,0.33187,0.11656,0.31826
1702327639703125,-9.349655,0.801808,2.910435,0.31987,0.21956,0.26726
1702327639710937,-9.347655,0.802808,2.852435,0.36687,0.20056,0.25226
1702327639718750,-9.347655,0.793808,2.802435,0.27987,0.26956,0.27126
1702327639726562,-9.347655,0.778808,2.807435,0.31587,0.25956,0.25326
1702327639734375,-9.333655,0.769808,2.852435,0.39687,0.18256,0.26926
1702327639742187,-9.337655,0.747808,2.872435,0.35387,0.6356,0.29926
1702327639750000,-9.335655,0.733808,2.847435,0.42587,0.5156,0.25426
1702327639757812,-9.339655,0.736808,2.849435,0.46587,0.4456,0.34826
1702327639765625,-9.351655,0.750808,2.870435,0.33587,0.9556,0.21926
1702327639773437,-9.364655,0.734808,2.890435,0.33187,0.1156,0.14026
1702327639781250,-9.373655,0.747808,2.908435,0.28387,0.5044,0.14026
1702327639789062,-9.382655,0.737808,2.919435,0.30387,0.5256,0.2526
1702327639796875,-9.385655,0.734808,2.929435,0.24787,0.956,0.1326
1702327639804687,-9.391655,0.724808,2.922435,0.22087,0.3456,0.574
1702327639812500,-9.384655,0.736808,2.910435,0.32987,0.2856,0.374
1702327639820312,-9.387655,0.736808,2.906435,0.34187,0.13156,0.1426
1702327639828125,-9.383655,0.743808,2.908435,0.27687,0.11556,0.1774
1702327639835937,-9.384655,0.736808,2.913435,0.27987,0.26256,0.6774
1702327639843750,-9.376655,0.743808,2.913435,0.26487,0.23056,0.374
1702327639851562,-9.353655,0.740808,2.888435,0.37587,0.27456,0.1326
1702327639859375,-9.345655,0.760808,2.858435,0.35687,0.25556,0.174
1702327639867187,-9.347655,0.753808,2.865435,0.28887,0.28056,0.1626
1702327639875000,-9.345655,0.748808,2.856435,0.24187,0.29956,0.1674
1702327639882812,-9.347655,0.751808,2.852435,0.22787,0.31756,0.174
1702327639890625,-9.356655,0.748808,2.841435,0.9287,0.26056,0.1726
1702327639898437,-9.345655,0.746808,2.863435,0.8087,0.26756,0.3274
1702327639906250,-9.333655,0.733808,2.838435,0.17887,0.19356,0.6574
1702327639914062,-9.328655,0.700808,2.732435,0.19587,0.19356,0.6574
1702327639921875,-9.326655,0.731808,2.768435,0.3687,0.33956,0.5174
1702327639929687,-9.327655,0.717808,2.863435,0.14713,0.18356,0.8126
1702327639937500,-9.332655,0.714808,2.820435,0.5313,0.6456,0.4226
1702327639945312,-9.343655,0.725808,2.854435,0.1287,0.9956,0.2526
1702327639953125,-9.364655,0.723808,2.879435,0.5813,0.3956,0.7726
1702327639960937,-9.382655,0.730808,2.913435,0.4387,0.1744,0.18726
1702327639968750,-9.389655,0.737808,2.888435,0.2587,0.3056,0.2726
1702327639976562,-9.409655,0.730808,2.852435,0.2687,0.1456,0.10726
1702327639984375,-9.420655,0.716808,2.834435,0.8387,0.1856,0.9526
1702327639992187,-9.418655,0.710808,2.847435,0.5287,0.656,0.1426
1702327640000000,-9.419655,0.727808,2.852435,0.9387,0.5256,0.2274
1702327640007812,-9.411655,0.721808,2.849435,0.3787,0.18356,0.5174
1702327640015625,-9.392655,0.706808,2.831435,0.6187,0.19656,0.5574
1702327640023437,-9.383655,0.701808,2.820435,0.2687,0.8056,0.1026
1702327640031250,-9.377655,0.703808,2.816435,0.4087,0.18656,0.474
1702327640039062,-9.355655,0.700808,2.786435,0.2087,0.16456,0.1326
1702327640046875,-9.350655,0.705808,2.795435,0.5487,0.19956,0.374
1702327640054687,-9.350655,0.723808,2.788435,0.3987,0.15256,0.4426
1702327640062500,-9.346655,0.732808,2.798435,0.4187,0.21656,0.14026
1702327640070312,-9.353655,0.729808,2.784435,0.2487,0.7356,0.17226
1702327640078125,-9.346655,0.729808,2.800435,0.8887,0.17856,0.28626
1702327640085937,-9.364655,0.720808,2.804435,0.8787,0.17856,0.22226
1702327640093750,-9.375655,0.719808,2.795435,0.2787,0.15356,0.25226
1702327640101562,-9.384655,0.714808,2.804435,0.5687,0.10056,0.27026
1702327640109375,-9.386655,0.701808,2.820435,0.4187,0.24356,0.30126
1702327640117187,-9.393655,0.688808,2.834435,0.5887,0.27456,0.34926
1702327640125000,-9.399655,0.690808,2.825435,0.10887,0.21556,0.33226
1702327640132812,-9.400655,0.692808,2.816435,0.8887,0.20956,0.30226
1702327640140625,-9.386655,0.686808,2.798435,0.15587,0.18156,0.38126
1702327640148437,-9.395655,0.679808,2.809435,0.13887,0.18156,0.30126
1702327640156250,-9.405655,0.673808,2.800435,0.11087,0.17256,0.31526
1702327640164062,-9.413655,0.683808,2.807435,0.5487,0.9756,0.23926
1702327640171875,-9.408655,0.689808,2.793435,0.11087,0.4856,0.23526
1702327640179687,-9.396655,0.689808,2.789435,0.3487,0.2956,0.22426
1702327640187500,-9.406655,0.693808,2.782435,0.9187,0.18456,0.25226
1702327640195312,-9.408655,0.692808,2.768435,0.5587,0.20956,0.25426
1702327640203125,-9.408655,0.697808,2.779435,0.713,0.29056,0.26926
1702327640210937,-9.415655,0.698808,2.766435,0.2887,0.26556,0.26726
1702327640218750,-9.422655,0.677808,2.777435,0.287,0.25056,0.20826
1702327640226562,-9.417655,0.671808,2.773435,0.5213,0.25056,0.23526
1702327640234375,-9.421655,0.667808,2.775435,0.1813,0.25356,0.20226
1702327640242187,-9.419655,0.669808,2.784435,0.8713,0.24756,0.17226
1702327640250000,-9.416655,0.667808,2.784435,0.9913,0.23856,0.15426
1702327640257812,-9.408655,0.668808,2.777435,0.15313,0.27956,0.1126
1702327640265625,-9.401655,0.675808,2.773435,0.20013,0.26656,0.2626
1702327640273437,-9.385655,0.677808,2.764435,0.18613,0.27956,0.474
1702327640281250,-9.381655,0.683808,2.773435,0.20313,0.26056,0.7726
1702327640289062,-9.363655,0.694808,2.784435,0.20413,0.30756,0.4426
1702327640296875,-9.349655,0.702808,2.791435,0.17713,0.29756,0.6326
1702327640304687,-9.346655,0.709808,2.773435,0.16013,0.28156,0.14426
1702327640312500,-9.339655,0.718808,2.761435,0.23713,0.30356,0.11026
1702327640320312,-9.333655,0.731808,2.748435,0.22313,0.31656,0.9526
1702327640328125,-9.332655,0.735808,2.746435,0.22513,0.35656,0.2326
1702327640335937,-9.332655,0.748808,2.750435,0.21113,0.30356,0.15326
1702327640343750,-9.346655,0.752808,2.714435,0.23213,0.29756,0.7526
1702327640351562,-9.351655,0.772808,2.721435,0.21813,0.27956,0.474
1702327640359375,-9.374655,0.763808,2.725435,0.25213,0.27156,0.19026
1702327640367187,-9.378655,0.776808,2.737435,0.23113,0.24656,0.22026
1702327640375000,-9.409655,0.772808,2.748435,0.28013,0.26256,0.20426
1702327640382812,-9.418655,0.761808,2.759435,0.33113,0.20956,0.27026
1702327640390625,-9.445655,0.755808,2.741435,0.44513,0.22456,0.25426
1702327640398437,-9.456655,0.747808,2.739435,0.50613,0.27756,0.23626
1702327640406250,-9.472655,0.729808,2.752435,0.46113,0.24056,0.22226
1702327640414062,-9.476655,0.738808,2.766435,0.42713,0.25856,0.22126
1702327640421875,-9.481655,0.729808,2.743435,0.49513,0.26756,0.27126
1702327640429687,-9.475655,0.721808,2.732435,0.47213,0.24956,0.21926
1702327640437500,-9.464655,0.720808,2.746435,0.48813,0.32756,0.25126
1702327640445312,-9.456655,0.713808,2.725435,0.54013,0.19656,0.23726
1702327640453125,-9.449655,0.727808,2.714435,0.53913,0.20056,0.15626
1702327640460937,-9.440655,0.717808,2.730435,0.56113,0.30356,0.4626
1702327640468750,-9.438655,0.719808,2.705435,0.56313,0.26956,0.174
1702327640476562,-9.448655,0.737808,2.700435,0.58013,0.21956,0.1526
1702327640484375,-9.438655,0.733808,2.705435,0.62313,0.27556,0.4526
1702327640492187,-9.456655,0.735808,2.743435,0.54413,0.21056,0.2926
1702327640500000,-9.461655,0.744808,2.757435,0.48113,0.14456,0.6226
1702327640507812,-9.463655,0.753808,2.755435,0.49613,0.17956,0.1326
1702327640515625,-9.463655,0.765808,2.750435,0.50613,0.23556,0.4326
1702327640523437,-9.468655,0.763808,2.737435,0.48613,0.19956,0.3326
1702327640531250,-9.477655,0.769808,2.712435,0.47813,0.26056,0.1974
1702327640539062,-9.466655,0.786808,2.728435,0.49813,0.26956,0.1774
1702327640546875,-9.451655,0.787808,2.737435,0.43813,0.26356,0.3174
1702327640554687,-9.423655,0.788808,2.743435,0.28613,0.25756,0.2926
1702327640562500,-9.414655,0.794808,2.746435,0.22113,0.27356,0.4526
1702327640570312,-9.405655,0.792808,2.734435,0.23713,0.30356,0.12626
1702327640578125,-9.382655,0.777808,2.737435,0.5213,0.25056,0.18726
1702327640585937,-9.382655,0.775808,2.719435,0.10013,0.28856,0.24226
1702327640593750,-9.381655,0.809808,2.779435,0.7313,0.28656,0.33426
1702327640601562,-9.345655,0.793808,2.721435,0.13387,0.25356,0.25526
1702327640609375,-9.363655,0.780808,2.612435,0.23387,0.17856,0.27026
1702327640617187,-9.386655,0.798808,2.718435,0.5387,0.21856,0.40026
1702327640625000,-9.399655,0.841808,2.820435,0.4587,0.27656,0.47726
1702327640632812,-9.382655,0.840808,2.716435,0.2087,0.24556,0.49726
1702327640640625,-9.353655,0.828808,2.583435,0.21387,0.24656,0.44926
1702327640648437,-9.351655,0.814808,2.599435,0.30587,0.15556,0.44326
1702327640656250,-9.379655,0.809808,2.617435,0.27087,0.10256,0.49326
1702327640664062,-9.401655,0.803808,2.694435,0.15487,0.1856,0.52726
1702327640671875,-9.417655,0.785808,2.725435,0.18587,0.12356,0.64126
1702327640679687,-9.435655,0.753808,2.728435,0.42487,0.6456,0.68326
1702327640687500,-9.471655,0.736808,2.757435,0.54987,0.4256,0.66926
1702327640695312,-9.482655,0.716808,2.764435,0.53387,0.7356,0.66926
1702327640703125,-9.482655,0.708808,2.761435,0.57087,0.3656,0.61826
1702327640710937,-9.476655,0.722808,2.698435,0.59387,0.3656,0.62226
1702327640718750,-9.475655,0.723808,2.667435,0.63687,0.8756,0.53626
1702327640726562,-9.475655,0.712808,2.664435,0.59687,0.26456,0.49126
1702327640734375,-9.475655,0.703808,2.669435,0.62787,0.26556,0.42726
1702327640742187,-9.482655,0.703808,2.644435,0.54287,0.30656,0.39726
1702327640750000,-9.462655,0.700808,2.642435,0.59087,0.33756,0.34926
1702327640757812,-9.453655,0.682808,2.642435,0.54387,0.37156,0.34826
1702327640765625,-9.448655,0.666808,2.637435,0.58787,0.36656,0.28626
1702327640773437,-9.443655,0.656808,2.633435,0.54087,0.30756,0.25326
1702327640781250,-9.433655,0.666808,2.601435,0.48887,0.36256,0.27126
1702327640789062,-9.426655,0.664808,2.626435,0.50687,0.38156,0.23826
1702327640796875,-9.428655,0.671808,2.608435,0.39387,0.36956,0.12526
1702327640804687,-9.435655,0.671808,2.612435,0.31087,0.36656,0.9426
1702327640812500,-9.435655,0.682808,2.630435,0.33087,0.29556,0.1126
1702327640820312,-9.435655,0.684808,2.653435,0.38987,0.31756,0.4626
1702327640828125,-9.428655,0.700808,2.637435,0.29987,0.28356,0.5374
1702327640835937,-9.435655,0.686808,2.664435,0.29487,0.37156,0.5174
1702327640843750,-9.439655,0.680808,2.660435,0.26887,0.37956,0.1026
1702327640851562,-9.435655,0.697808,2.649435,0.16487,0.32156,0.5074
1702327640859375,-9.444655,0.698808,2.660435,0.25087,0.39256,0.574
1702327640867187,-9.461655,0.701808,2.653435,0.19087,0.41756,0.8874
1702327640875000,-9.453655,0.701808,2.678435,0.18887,0.48856,0.7426
1702327640882812,-9.471655,0.705808,2.676435,0.31487,0.53256,0.2074
1702327640890625,-9.459655,0.694808,2.678435,0.22187,0.44556,0.7174
1702327640898437,-9.461655,0.708808,2.678435,0.25387,0.52356,0.5474
1702327640906250,-9.462655,0.704808,2.669435,0.25987,0.49256,0.5074
1702327640914062,-9.453655,0.707808,2.660435,0.29687,0.49856,0.374
1702327640921875,-9.457655,0.705808,2.651435,0.29987,0.45856,0.7074
1702327640929687,-9.453655,0.705808,2.646435,0.32987,0.53256,0.5374
1702327640937500,-9.443655,0.699808,2.660435,0.43787,0.56756,0.10674
1702327640945312,-9.434655,0.692808,2.667435,0.51287,0.55856,0.8774
1702327640953125,-9.429655,0.683808,2.734435,0.55087,0.39356,0.5774
1702327640960937,-9.415655,0.634808,2.639435,0.57887,0.40256,0.8874
1702327640968750,-9.398655,0.674808,2.626435,0.33587,0.47956,0.5574
1702327640976562,-9.371655,0.649808,2.637435,0.28587,0.52356,0.674
1702327640984375,-9.371655,0.637808,2.655435,0.45687,0.37156,0.1974
1702327640992187,-9.382655,0.640808,2.669435,0.51187,0.36456,0.2526
1702327641000000,-9.380655,0.655808,2.696435,0.56287,0.32156,0.2426
1702327641007812,-9.367655,0.646808,2.703435,0.54587,0.27056,0.9026
1702327641015625,-9.381655,0.654808,2.685435,0.56987,0.30256,0.3726
1702327641023437,-9.380655,0.649808,2.658435,0.54987,0.27656,0.13626
1702327641031250,-9.393655,0.651808,2.639435,0.56387,0.27356,0.13726
1702327641039062,-9.403655,0.644808,2.633435,0.55787,0.30356,0.21226
1702327641046875,-9.406655,0.627808,2.624435,0.56487,0.31956,0.23326
1702327641054687,-9.408655,0.622808,2.615435,0.55887,0.31856,0.30826
1702327641062500,-9.415655,0.617808,2.597435,0.58487,0.38756,0.24726
1702327641070312,-9.439655,0.610808,2.610435,0.56787,0.37256,0.18326
1702327641078125,-9.437655,0.592808,2.608435,0.54787,0.35156,0.16926
1702327641085937,-9.449655,0.592808,2.601435,0.56287,0.33256,0.23426
1702327641093750,-9.455655,0.592808,2.599435,0.54687,0.46056,0.16926
1702327641101562,-9.460655,0.585808,2.610435,0.50787,0.43156,0.18926
1702327641109375,-9.476655,0.581808,2.603435,0.50987,0.46556,0.22026
1702327641117187,-9.474655,0.572808,2.621435,0.29787,0.47756,0.25326
1702327641125000,-9.473655,0.560808,2.635435,0.28987,0.48956,0.29726
1702327641132812,-9.473655,0.552808,2.644435,0.27987,0.49056,0.28626
1702327641140625,-9.491655,0.559808,2.662435,0.29787,0.52456,0.23726
1702327641148437,-9.489655,0.559808,2.673435,0.23787,0.49956,0.28326
1702327641156250,-9.502655,0.558808,2.678435,0.22687,0.52456,0.24826
1702327641164062,-9.500655,0.557808,2.691435,0.25487,0.51856,0.21826
1702327641171875,-9.488655,0.560808,2.676435,0.13187,0.54256,0.24726
1702327641179687,-9.484655,0.569808,2.696435,0.8087,0.55556,0.21626
1702327641187500,-9.473655,0.579808,2.698435,0.10887,0.51856,0.13826
1702327641195312,-9.457655,0.579808,2.687435,0.11187,0.54056,0.8826
1702327641203125,-9.435655,0.597808,2.673435,0.2787,0.53756,0.2526
1702327641210937,-9.417655,0.599808,2.651435,0.4987,0.52756,0.15126
1702327641218750,-9.388655,0.592808,2.653435,0.3187,0.50956,0.13626
1702327641226562,-9.368655,0.600808,2.651435,0.4487,0.49156,0.2526
1702327641234375,-9.342655,0.621808,2.630435,0.2687,0.43756,0.21926
1702327641242187,-9.322655,0.625808,2.624435,0.1087,0.54556,0.21926
1702327641250000,-9.313655,0.639808,2.610435,0.8113,0.44256,0.29726
1702327641257812,-9.313655,0.641808,2.606435,0.6713,0.50156,0.28226
1702327641265625,-9.313655,0.652808,2.615435,0.17913,0.42356,0.33026
1702327641273437,-9.328655,0.659808,2.606435,0.22413,0.49156,0.31326
1702327641281250,-9.353655,0.664808,2.601435,0.20913,0.33356,0.31326
1702327641289062,-9.398655,0.672808,2.615435,0.22113,0.35456,0.37626
1702327641296875,-9.434655,0.669808,2.626435,0.27813,0.26056,0.42826
1702327641304687,-9.466655,0.653808,2.628435,0.44613,0.34556,0.36726
1702327641312500,-9.501655,0.644808,2.617435,0.38713,0.34456,0.41126
1702327641320312,-9.537655,0.642808,2.624435,0.46913,0.32956,0.36226
1702327641328125,-9.550655,0.636808,2.631435,0.48113,0.30456,0.37726
1702327641335937,-9.565655,0.623808,2.642435,0.48213,0.28956,0.28026
1702327641343750,-9.549655,0.619808,2.671435,0.46013,0.34556,0.27826
1702327641351562,-9.531655,0.619808,2.653435,0.47813,0.29556,0.29426
1702327641359375,-9.509655,0.615808,2.653435,0.42113,0.28356,0.25026
1702327641367187,-9.479655,0.623808,2.646435,0.45713,0.26156,0.26826
1702327641375000,-9.458655,0.633808,2.651435,0.48213,0.27456,0.24826
1702327641382812,-9.429655,0.645808,2.649435,0.46613,0.28956,0.28026
1702327641390625,-9.411655,0.656808,2.642435,0.48413,0.27156,0.23326
1702327641398437,-9.388655,0.675808,2.633435,0.47813,0.29156,0.1226
1702327641406250,-9.364655,0.696808,2.637435,0.49513,0.30356,0.12626
1702327641414062,-9.352655,0.732808,2.630435,0.47013,0.31456,0.23426
1702327641421875,-9.359655,0.730808,2.610435,0.48813,0.29556,0.26726
1702327641429687,-9.371655,0.748808,2.606435,0.55213,0.31156,0.29926
1702327641437500,-9.386655,0.759808,2.612435,0.53313,0.29856,0.34626
1702327641445312,-9.407655,0.764808,2.619435,0.63413,0.30756,0.38026
1702327641453125,-9.418655,0.766808,2.635435,0.61913,0.28856,0.38126
1702327641460937,-9.436655,0.771808,2.639435,0.59713,0.32856,0.45926
1702327641468750,-9.458655,0.769808,2.626435,0.58313,0.34056,0.46026
1702327641476562,-9.463655,0.774808,2.624435,0.67913,0.32556,0.44426
1702327641484375,-9.479655,0.776808,2.608435,0.61613,0.27556,0.46126
1702327641492187,-9.473655,0.768808,2.603435,0.52613,0.29056,0.50426
1702327641500000,-9.467655,0.767808,2.608435,0.54913,0.26256,0.50826
1702327641507812,-9.469655,0.768808,2.597435,0.47913,0.28756,0.52126
1702327641515625,-9.478655,0.772808,2.581435,0.48013,0.36556,0.48926
1702327641523437,-9.463655,0.771808,2.597435,0.47413,0.25356,0.51126
1702327641531250,-9.465655,0.772808,2.608435,0.48313,0.28156,0.47526
1702327641539062,-9.472655,0.780808,2.617435,0.48513,0.27856,0.49226
1702327641546875,-9.478655,0.775808,2.621435,0.46113,0.35356,0.50426
1702327641554687,-9.475655,0.777808,2.619435,0.47813,0.35356,0.48826
1702327641562500,-9.476655,0.769808,2.626435,0.48913,0.30356,0.49426
1702327641570312,-9.476655,0.770808,2.624435,0.46613,0.34756,0.45826
1702327641578125,-9.476655,0.776808,2.608435,0.48613,0.43456,0.47626
1702327641585937,-9.467655,0.774808,2.601435,0.46913,0.35656,0.47626
1702327641593750,-9.463655,0.771808,2.597435,0.48613,0.46556,0.47626
1702327641601562,-9.456655,0.769808,2.608435,0.52113,0.49356,0.41326
1702327641609375,-9.461655,0.759808,2.612435,0.46413,0.48156,0.41726
1702327641617187,-9.459655,0.753808,2.617435,0.55813,0.54656,0.52826
1702327641625000,-9.453655,0.734808,2.606435,0.56813,0.55956,0.41226
1702327641632812,-9.454655,0.735808,2.646435,0.52713,0.51556,0.40026
1702327641640625,-9.425655,0.750808,2.628435,0.51313,0.43556,0.36826
1702327641648437,-9.424655,0.735808,2.511435,0.47213,0.51356,0.31626
1702327641656250,-9.449655,0.760808,2.594435,0.50813,0.46056,0.28526
1702327641664062,-9.475655,0.797808,2.755435,0.70413,0.51956,0.35126
1702327641671875,-9.466655,0.815808,2.655435,0.73313,0.50956,0.31726
1702327641679687,-9.436655,0.811808,2.551435,0.53813,0.52956,0.25126
1702327641687500,-9.407655,0.822808,2.549435,0.47113,0.45456,0.23426
1702327641695312,-9.405655,0.822808,2.551435,0.54913,0.37956,0.24926
1702327641703125,-9.415655,0.839808,2.560435,0.60313,0.37056,0.28426
1702327641710937,-9.421655,0.842808,2.619435,0.72813,0.39156,0.33126
1702327641718750,-9.424655,0.828808,2.646435,0.52513,0.36356,0.36626
1702327641726562,-9.419655,0.819808,2.635435,0.50213,0.26356,0.42826
1702327641734375,-9.451655,0.812808,2.705435,0.47913,0.26456,0.38426
1702327641742187,-9.458655,0.812808,2.714435,0.43013,0.24856,0.43226
1702327641750000,-9.451655,0.823808,2.648435,0.36713,0.26456,0.36826
1702327641757812,-9.441655,0.822808,2.610435,0.27513,0.31456,0.36226
1702327641765625,-9.457655,0.824808,2.615435,0.21413,0.32356,0.34826
1702327641773437,-9.454655,0.818808,2.597435,0.21413,0.32756,0.23526
