time,Acceleration X (m/s^2),Acceleration Y (m/s^2),Acceleration Z (m/s^2),Angular Velocity X (rad/s),Angular Velocity Y (rad/s),Angular Velocity Z (rad/s)
1694109833937500,-9.650125,3.126744,-0.012576,,,
1694109833945312,-9.660125,3.87744,0.30424,0.101567,0.154395,0.619871
1694109833953125,-9.675125,3.49744,0.46424,0.118967,0.163395,0.646371
1694109833960937,-9.684125,2.997744,0.83424,0.128267,0.160995,0.668271
1694109833968750,-9.672125,2.937744,0.101424,0.146767,0.159295,0.680771
1694109833976562,-9.635125,2.856744,0.120424,0.165267,0.162495,0.686871
1694109833992187,-9.524125,2.695744,0.129424,0.177867,0.156095,0.708971
1694109834000000,-9.477125,2.594744,0.134424,0.193167,0.147495,0.712171
1694109834007812,-9.419125,2.490744,0.152424,0.193067,0.146195,0.715371
1694109834015625,-9.335125,2.402744,0.148424,0.200367,0.137395,0.705971
1694109834039062,-9.179125,2.170744,0.135424,0.197067,0.131195,0.681071
1694109834046875,-9.165125,2.101744,0.122424,0.195367,0.114095,0.676771
1694109834054687,-9.141125,2.14744,0.117424,0.182667,0.102095,0.658171
1694109834062500,-9.82125,1.935744,0.94424,0.177767,0.102095,0.648771
1694109834070312,-9.29125,1.903744,0.88424,0.177567,0.91695,0.642671
1694109834078125,-9.13125,1.857744,0.83424,0.158767,0.90095,0.628671
1694109834085937,-9.24125,1.829744,0.95424,0.149767,0.91195,0.614671
1694109834093750,-9.62125,1.792744,0.113424,0.155567,0.87195,0.600471
1694109834101562,-9.41125,1.758744,0.127424,0.140267,0.91895,0.587971
1694109834109375,-9.36125,1.715744,0.156424,0.133567,0.96595,0.568971
1694109834117187,-9.39125,1.646744,0.170424,0.132067,0.94395,0.556571
1694109834125000,-8.996125,1.563744,0.195424,0.128667,0.112695,0.545171
1694109834132812,-8.978125,1.474744,0.198424,0.124067,0.110595,0.534171
1694109834140625,-8.956125,1.354744,0.230424,0.111967,0.103195,0.525171
1694109834148437,-8.964125,1.253744,0.265424,0.105667,0.101595,0.517271
1694109834156250,-8.987125,1.157744,0.285424,0.97667,0.99695,0.504771
1694109834164062,-8.974125,1.17744,0.297424,0.80567,0.88895,0.481671
1694109834171875,-8.954125,0.903744,0.302424,0.66467,0.84895,0.458271
1694109834179687,-8.961125,0.809744,0.316424,0.44467,0.58495,0.449471
1694109834187500,-8.982125,0.756744,0.343424,0.19967,0.53095,0.430871
1694109834195312,-9.8125,0.714744,0.375424,0.2967,0.40895,0.417171
1694109834203125,-9.82125,0.633744,0.414424,0.18633,0.38995,0.400071
1694109834210937,-9.97125,0.545744,0.451424,0.23533,0.58995,0.385471
1694109834218750,-9.50125,0.427744,0.467424,0.49533,0.53695,0.371671
1694109834226562,-8.987125,0.326744,0.490424,0.69633,0.46695,0.356271
1694109834234375,-8.955125,0.226744,0.517424,0.88733,0.38295,0.332871
1694109834242187,-8.966125,0.180744,0.549424,0.119933,0.35695,0.292271
1694109834250000,-8.940125,0.131744,0.577424,0.141733,0.29395,0.256471
1694109834257812,-8.869125,0.114744,0.593424,0.156033,0.26495,0.218971
1694109834265625,-8.851125,0.141744,0.586424,0.172033,0.9895,0.175471
1694109834273437,-8.924125,0.173744,0.597424,0.195833,0.1005,0.136571
1694109834281250,-9.125,0.185744,0.595424,0.205633,0.11705,0.108471
1694109834289062,-9.27125,0.183744,0.583424,0.218033,0.2305,0.87971
1694109834296875,-9.2125,0.208744,0.597424,0.222533,0.2095,0.76971
1694109834304687,-9.50125,0.233744,0.599424,0.221333,0.1305,0.69171
1694109834312500,-9.152125,0.259744,0.599424,0.220933,0.395,0.78671
1694109834320312,-9.184125,0.266744,0.620424,0.222533,0.695,0.81671
1694109834328125,-9.113125,0.247744,0.640424,0.217733,0.15895,0.87671
1694109834335937,-9.99125,0.222744,0.661424,0.211533,0.18195,0.101671
1694109834343750,-9.115125,0.198744,0.734424,0.197633,0.16295,0.104771
1694109834351562,-9.155125,0.162744,0.779424,0.197733,0.23295,0.106171
1694109834359375,-9.237125,0.163744,0.834424,0.179533,0.32595,0.96371
1694109834367187,-9.314125,0.191744,0.914424,0.168933,0.47195,0.88171
1694109834375000,-9.305125,0.152744,0.954424,0.155433,0.53495,0.79971
1694109834382812,-9.206125,0.40744,0.978424,0.132833,0.56995,0.56271
1694109834390625,-9.111125,0.137256,1.3424,0.122533,0.46195,0.40671
1694109834398437,-9.187125,0.298256,1.31424,0.122633,0.21395,0.22571
1694109834406250,-9.388125,0.376256,1.88424,0.105033,0.2995,0.8629
1694109834414062,-9.545125,0.479256,1.150424,0.101433,0.13505,0.49229
1694109834421875,-9.764125,0.568256,1.172424,0.100933,0.18605,0.99529
1694109834429687,-9.987125,0.643256,1.211424,0.80133,0.24705,0.148029
1694109834437500,-10.143125,0.686256,1.257424,0.72133,0.40105,0.199729
1694109834445312,-10.301125,0.699256,1.293424,0.51833,0.37905,0.262729
1694109834453125,-10.591125,0.727256,1.300424,0.28533,0.47105,0.319329
1694109834460937,-10.924125,0.802256,1.343424,0.9133,0.47905,0.360129
1694109834468750,-11.234125,0.928256,1.352424,0.18867,0.49705,0.402829
1694109834476562,-11.530125,-1.100256,1.307424,0.43167,0.53005,0.423229
1694109834484375,-11.797125,-1.319256,1.283424,0.62467,0.50605,0.442329
1694109834492187,-12.86125,-1.545256,1.244424,0.62467,0.59305,0.446829
1694109834500000,-12.376125,-1.718256,1.226424,0.69767,0.55705,0.447129
1694109834507812,-12.604125,-1.763256,1.240424,0.68867,0.52305,0.432829
1694109834515625,-12.826125,-1.794256,1.258424,0.61167,0.58205,0.424929
1694109834523437,-13.145125,-1.777256,1.290424,0.67667,0.72405,0.397929
1694109834531250,-13.371125,-1.744256,1.320424,0.76167,0.63305,0.361929
1694109834539062,-13.416125,-1.775256,1.326424,0.89167,0.56905,0.321329
1694109834546875,-13.451125,-1.855256,1.333424,0.106567,0.52405,0.280629
1694109834554687,-13.495125,-2.15256,1.320424,0.114667,0.61005,0.242929
1694109834562500,-13.395125,-2.235256,1.311424,0.111067,0.50105,0.185029
1694109834570312,-13.264125,-2.490256,1.280424,0.131867,0.47805,0.144229
1694109834578125,-13.185125,-2.740256,1.255424,0.136667,0.44205,0.109929
1694109834585937,-13.228125,-2.972256,1.228424,0.135367,0.47805,0.78529
1694109834593750,-13.247125,-3.175256,1.181424,0.117967,0.48405,0.49929
1694109834601562,-13.239125,-3.296256,1.179424,0.92067,0.54105,0.40229
1694109834609375,-13.251125,-3.345256,1.170424,0.70767,0.68805,0.36629
1694109834617187,-13.253125,-3.376256,1.136424,0.55267,0.73805,0.45929
1694109834625000,-13.292125,-3.346256,1.79424,0.16967,0.90005,0.51529
1694109834632812,-13.280125,-3.276256,1.65424,0.1733,0.98205,0.60729
1694109834640625,-13.243125,-3.162256,1.29424,0.6433,0.99205,0.81029
1694109834648437,-13.213125,-3.17256,0.978424,0.8533,0.101705,0.109329
1694109834656250,-13.175125,-2.844256,0.923424,0.10533,0.97805,0.140829
1694109834664062,-13.197125,-2.665256,0.866424,0.5033,0.97705,0.175429
1694109834671875,-13.217125,-2.488256,0.850424,0.5267,0.92905,0.211629
1694109834679687,-13.196125,-2.355256,0.838424,0.36767,0.91005,0.237029
1694109834687500,-13.59125,-2.321256,0.811424,0.69867,0.74005,0.262829
1694109834695312,-12.902125,-2.363256,0.763424,0.100367,0.63405,0.272629
1694109834703125,-12.773125,-2.403256,0.733424,0.123867,0.76505,0.304129
1694109834710937,-12.684125,-2.455256,0.706424,0.146467,0.79405,0.323029
1694109834718750,-12.518125,-2.511256,0.686424,0.146267,0.82105,0.343329
1694109834726562,-12.397125,-2.505256,0.643424,0.143167,0.90905,0.349329
1694109834734375,-12.366125,-2.463256,0.620424,0.141067,0.112005,0.375529
1694109834742187,-12.376125,-2.355256,0.631424,0.133167,0.125005,0.401829
1694109834750000,-12.447125,-2.188256,0.617424,0.112767,0.133305,0.418929
1694109834757812,-12.488125,-2.2256,0.612424,0.106167,0.130805,0.447229
1694109834765625,-12.477125,-1.851256,0.603424,0.88867,0.136105,0.467529
1694109834773437,-12.453125,-1.718256,0.602424,0.84167,0.122905,0.478729
1694109834781250,-12.375125,-1.627256,0.575424,0.82567,0.118705,0.496029
1694109834789062,-12.381125,-1.561256,0.554424,0.76067,0.113505,0.504129
1694109834796875,-12.428125,-1.516256,0.550424,0.59667,0.114705,0.519329
1694109834804687,-12.397125,-1.490256,0.563424,0.57967,0.101005,0.521229
1694109834812500,-12.343125,-1.467256,0.565424,0.37767,0.95205,0.526229
1694109834820312,-12.244125,-1.435256,0.570424,0.30267,0.95605,0.533829
1694109834828125,-12.134125,-1.380256,0.536424,0.4067,0.92005,0.544829
1694109834835937,-12.80125,-1.321256,0.510424,0.23433,0.89605,0.544729
1694109834843750,-12.39125,-1.208256,0.471424,0.42033,0.99105,0.546129
1694109834851562,-11.988125,-1.122256,0.451424,0.63133,0.97105,0.544329
1694109834859375,-11.939125,-1.46256,0.458424,0.84633,0.95505,0.555229
1694109834867187,-11.862125,0.982256,0.442424,0.92233,0.91105,0.567629
1694109834875000,-11.740125,0.934256,0.410424,0.118033,0.77205,0.567729
1694109834882812,-11.622125,0.899256,0.409424,0.135333,0.79805,0.574129
1694109834890625,-11.590125,0.843256,0.414424,0.158133,0.81905,0.586329
1694109834898437,-11.576125,0.759256,0.443424,0.184033,0.72405,0.578629
1694109834906250,-11.527125,0.678256,0.457424,0.202533,0.60405,0.588229
1694109834914062,-11.399125,0.587256,0.489424,0.211533,0.55705,0.594429
1694109834921875,-11.264125,0.495256,0.534424,0.231333,0.45305,0.596129
1694109834929687,-11.109125,0.422256,0.577424,0.251333,0.32705,0.594829
1694109834937500,-10.919125,0.364256,0.598424,0.272333,0.32805,0.596029
1694109834945312,-10.707125,0.318256,0.605424,0.280033,0.30905,0.597629
1694109834953125,-10.499125,0.300256,0.575424,0.289233,0.44005,0.594129
1694109834960937,-10.332125,0.305256,0.541424,0.304633,0.61605,0.584329
1694109834968750,-10.357125,0.244256,0.561424,0.315033,0.83305,0.575729
1694109834976562,-10.515125,0.97256,0.611424,0.332133,0.109905,0.581429
1694109834984375,-10.540125,0.40744,0.656424,0.330633,0.95005,0.588029
1694109834992187,-10.401125,0.141744,0.645424,0.329133,0.83105,0.586829
1694109835000000,-10.309125,0.195744,0.599424,0.319833,0.83105,0.582129
1694109835007812,-10.243125,0.249744,0.556424,0.313433,0.81605,0.572629
1694109835015625,-10.139125,0.340744,0.476424,0.306033,0.83005,0.572929
1694109835023437,-10.49125,0.433744,0.425424,0.311933,0.88805,0.555529
1694109835031250,-9.933125,0.552744,0.368424,0.317633,0.87705,0.528729
1694109835039062,-9.830125,0.669744,0.288424,0.327733,0.100105,0.501629
1694109835046875,-9.741125,0.793744,0.222424,0.331633,0.103505,0.462229
1694109835054687,-9.639125,0.921744,0.183424,0.346233,0.106305,0.414929
1694109835062500,-9.515125,1.63744,0.144424,0.350133,0.108905,0.360029
1694109835070312,-9.434125,1.215744,0.126424,0.353433,0.100805,0.312829
1694109835078125,-9.404125,1.374744,0.123424,0.352233,0.104205,0.257629
1694109835085937,-9.379125,1.522744,0.105424,0.351433,0.88005,0.198429
1694109835093750,-9.304125,1.621744,0.79424,0.349033,0.65505,0.144029
1694109835101562,-9.232125,1.690744,0.70424,0.346233,0.48405,0.86129
1694109835109375,-9.147125,1.769744,0.77424,0.343733,0.24605,0.34829
1694109835117187,-9.3125,1.856744,0.88424,0.328833,0.9095,0.19371
1694109835125000,-8.869125,1.941744,0.92424,0.311133,0.42595,0.65671
1694109835132812,-8.733125,2.20744,0.120424,0.291733,0.67195,0.112171
1694109835140625,-8.575125,2.90744,0.138424,0.261533,0.103995,0.169371
1694109835148437,-8.398125,2.113744,0.156424,0.228633,0.139395,0.220171
1694109835156250,-8.198125,2.115744,0.158424,0.209333,0.159395,0.271471
1694109835164062,-8.28125,2.113744,0.179424,0.169933,0.174395,0.335371
1694109835171875,-7.890125,2.100744,0.193424,0.138533,0.185995,0.389871
1694109835179687,-7.739125,2.115744,0.204424,0.116033,0.221695,0.450171
1694109835187500,-7.641125,2.121744,0.209424,0.79933,0.226095,0.501771
1694109835195312,-7.569125,2.107744,0.234424,0.42433,0.239295,0.556171
1694109835203125,-7.500125,2.97744,0.241424,0.7633,0.255895,0.616871
1694109835210937,-7.362125,2.90744,0.247424,0.20467,0.267295,0.658871
1694109835218750,-7.201125,2.44744,0.252424,0.45867,0.278595,0.708771
1694109835226562,-7.60125,1.977744,0.259424,0.76867,0.280895,0.739971
1694109835234375,-6.959125,1.880744,0.271424,0.100167,0.287995,0.761571
1694109835242187,-6.861125,1.818744,0.294424,0.135667,0.290195,0.791171
1694109835250000,-6.782125,1.720744,0.271424,0.162367,0.291995,0.822471
1694109835257812,-6.767125,1.638744,0.267424,0.187467,0.295995,0.855171
1694109835265625,-6.829125,1.535744,0.269424,0.204567,0.288895,0.889771
1694109835273437,-6.890125,1.462744,0.267424,0.226567,0.299995,0.925471
1694109835281250,-6.935125,1.352744,0.284424,0.241167,0.292395,0.966471
1694109835289062,-6.989125,1.250744,0.288424,0.260167,0.310695,-1.8371
1694109835296875,-6.976125,1.123744,0.284424,0.282167,0.319995,-1.42571
1694109835304687,-6.897125,1.6744,0.328424,0.285967,0.332395,-1.70571
1694109835312500,-6.756125,0.935744,0.364424,0.303067,0.349995,-1.93671
1694109835320312,-6.633125,0.845744,0.376424,0.328367,0.343095,-1.87271
1694109835328125,-6.508125,0.706744,0.378424,0.334567,0.328195,-1.70371
1694109835335937,-6.438125,0.644744,0.422424,0.350267,0.321795,-1.27871
1694109835343750,-6.428125,0.602744,0.433424,0.372267,0.303495,0.968471
1694109835351562,-6.605125,0.495744,0.458424,0.376867,0.275695,0.898271
1694109835359375,-6.962125,0.431744,0.497424,0.378767,0.253795,0.821871
1694109835367187,-7.224125,0.361744,0.502424,0.396767,0.240095,0.732371
1694109835375000,-7.379125,0.296744,0.520424,0.398767,0.230095,0.657271
1694109835382812,-7.508125,0.216744,0.531424,0.404367,0.215395,0.569371
1694109835390625,-7.658125,0.165744,0.525424,0.416767,0.198195,0.486471
1694109835398437,-7.814125,0.118744,0.523424,0.409267,0.183495,0.406671
1694109835406250,-7.873125,0.74744,0.511424,0.407767,0.182495,0.329671
1694109835414062,-7.936125,0.66744,0.527424,0.395867,0.174795,0.256071
1694109835421875,-8.28125,0.79744,0.518424,0.390167,0.159795,0.181171
1694109835429687,-8.150125,0.122744,0.520424,0.381067,0.156195,0.113571
1694109835437500,-8.320125,0.170744,0.525424,0.363467,0.139095,0.59071
1694109835445312,-8.470125,0.225744,0.561424,0.364067,0.135095,0.1071
1694109835453125,-8.622125,0.301744,0.602424,0.341767,0.123495,0.48829
1694109835460937,-8.773125,0.369744,0.615424,0.333467,0.120995,0.80229
1694109835468750,-8.889125,0.418744,0.624424,0.320767,0.118195,0.113029
1694109835476562,-9.13125,0.438744,0.629424,0.311267,0.103695,0.137629
1694109835484375,-9.100125,0.459744,0.644424,0.305067,0.102095,0.140729
1694109835492187,-9.178125,0.517744,0.658424,0.288067,0.88895,0.146729
1694109835500000,-9.328125,0.582744,0.671424,0.279267,0.84395,0.132329
1694109835507812,-9.501125,0.608744,0.705424,0.265467,0.77095,0.119629
1694109835515625,-9.641125,0.629744,0.717424,0.264367,0.73595,0.111529
1694109835523437,-9.725125,0.609744,0.726424,0.261467,0.66495,0.86329
1694109835531250,-9.762125,0.561744,0.726424,0.260567,0.60695,0.57829
1694109835539062,-9.785125,0.525744,0.721424,0.244067,0.63695,0.34229
1694109835546875,-9.807125,0.497744,0.710424,0.223167,0.61595,0.10429
1694109835554687,-9.818125,0.479744,0.706424,0.224867,0.60795,0.6771
1694109835562500,-9.817125,0.471744,0.694424,0.218567,0.56895,0.19271
1694109835570312,-9.839125,0.467744,0.662424,0.215467,0.59495,0.2071
1694109835578125,-9.836125,0.470744,0.665424,0.209467,0.65995,0.1129
1694109835585937,-9.802125,0.481744,0.656424,0.209267,0.61595,0.21429
1694109835593750,-9.749125,0.479744,0.639424,0.214467,0.52595,0.46529
1694109835601562,-9.723125,0.489744,0.635424,0.202067,0.49495,0.77629
1694109835609375,-9.743125,0.517744,0.626424,0.207667,0.40795,0.116729
1694109835617187,-9.794125,0.571744,0.633424,0.214567,0.30995,0.152729
1694109835625000,-9.793125,0.642744,0.621424,0.212267,0.19795,0.187129
1694109835632812,-9.784125,0.668744,0.616424,0.212967,0.6195,0.233929
1694109835640625,-9.744125,0.735744,0.603424,0.210767,0.12105,0.269629
1694109835648437,-9.736125,0.779744,0.591424,0.226567,0.27205,0.310329
1694109835656250,-9.769125,0.846744,0.573424,0.222667,0.43505,0.347729
1694109835664062,-9.745125,0.904744,0.561424,0.231167,0.60305,0.383529
1694109835671875,-9.714125,0.937744,0.534424,0.233367,0.75305,0.425729
1694109835679687,-9.736125,0.983744,0.522424,0.233167,0.88705,0.453529
1694109835687500,-9.807125,1.30744,0.525424,0.223367,0.114805,0.479629
1694109835695312,-9.859125,1.63744,0.511424,0.218267,0.121205,0.513929
1694109835703125,-9.837125,1.84744,0.497424,0.206967,0.128605,0.542029
1694109835710937,-9.749125,1.88744,0.479424,0.206667,0.130705,0.556129
1694109835718750,-9.611125,1.90744,0.458424,0.195567,0.134505,0.576529
1694109835726562,-9.509125,1.105744,0.436424,0.181867,0.146705,0.583829
1694109835734375,-9.475125,1.107744,0.420424,0.177167,0.153805,0.594629
1694109835742187,-9.489125,1.165744,0.402424,0.155667,0.175505,0.598629
1694109835750000,-9.594125,1.184744,0.388424,0.136867,0.195005,0.601429
1694109835757812,-9.728125,1.210744,0.358424,0.123367,0.202505,0.587029
1694109835765625,-9.760125,1.222744,0.337424,0.99167,0.216705,0.574029
1694109835773437,-9.748125,1.233744,0.333424,0.84367,0.227705,0.554729
1694109835781250,-9.738125,1.262744,0.294424,0.66267,0.248005,0.527529
1694109835789062,-9.785125,1.290744,0.267424,0.54567,0.250505,0.505329
1694109835796875,-9.868125,1.346744,0.253424,0.36367,0.260805,0.483129
1694109835804687,-9.939125,1.394744,0.232424,0.30667,0.269805,0.457729
1694109835812500,-9.955125,1.436744,0.228424,0.11167,0.266505,0.432629
1694109835820312,-9.937125,1.474744,0.212424,0.967,0.267705,0.416629
1694109835828125,-9.915125,1.506744,0.182424,0.9133,0.268305,0.388229
1694109835835937,-9.902125,1.530744,0.182424,0.11933,0.270505,0.364629
1694109835843750,-9.879125,1.545744,0.164424,0.13033,0.268105,0.345829
1694109835851562,-9.865125,1.539744,0.141424,0.29433,0.265305,0.323729
1694109835859375,-9.880125,1.560744,0.132424,0.35533,0.266105,0.312829
1694109835867187,-9.891125,1.561744,0.102424,0.48733,0.251605,0.291029
1694109835875000,-9.889125,1.572744,0.95424,0.60533,0.248805,0.269029
1694109835882812,-9.900125,1.570744,0.82424,0.80033,0.252505,0.246829
1694109835890625,-9.887125,1.578744,0.61424,0.79733,0.258205,0.223229
1694109835898437,-9.908125,1.605744,0.52424,0.94533,0.260205,0.194729
1694109835906250,-9.962125,1.582744,0.11424,0.107833,0.257405,0.171129
1694109835914062,-9.958125,1.565744,0.11576,0.119933,0.260305,0.139829
1694109835921875,-9.962125,1.568744,0.52576,0.130133,0.266205,0.117529
1694109835929687,-9.983125,1.557744,0.86576,0.141833,0.262705,0.81429
1694109835937500,-10.25125,1.544744,0.120576,0.156433,0.266405,0.49829
1694109835945312,-10.28125,1.542744,0.154576,0.175833,0.264805,0.21429
1694109835953125,-9.988125,1.515744,0.207576,0.191833,0.258605,0.6871
1694109835960937,-9.947125,1.493744,0.248576,0.211133,0.263705,0.38571
1694109835968750,-9.913125,1.472744,0.282576,0.223033,0.259205,0.60571
1694109835976562,-9.907125,1.454744,0.327576,0.245833,0.268005,0.74971
1694109835984375,-9.910125,1.428744,0.359576,0.269533,0.267405,0.94171
1694109835992187,-9.970125,1.426744,0.414576,0.271033,0.266005,0.115971
1694109836000000,-10.80125,1.417744,0.441576,0.296433,0.263305,0.134971
1694109836007812,-10.200125,1.402744,0.509576,0.306933,0.248505,0.153471
1694109836015625,-10.273125,1.381744,0.548576,0.318533,0.225005,0.187571
1694109836023437,-10.243125,1.357744,0.589576,0.317533,0.197205,0.220071
1694109836031250,-10.170125,1.338744,0.630576,0.317033,0.180805,0.249571
1694109836039062,-10.88125,1.306744,0.641576,0.318033,0.161505,0.271171
1694109836046875,-10.4125,1.291744,0.666576,0.316133,0.149205,0.286671
1694109836054687,-9.973125,1.297744,0.671576,0.317433,0.132905,0.306671
1694109836062500,-9.994125,1.312744,0.671576,0.306533,0.120805,0.320471
1694109836070312,-10.27125,1.309744,0.662576,0.287933,0.110705,0.331071
1694109836078125,-10.38125,1.296744,0.639576,0.279733,0.80905,0.335271
1694109836085937,-10.31125,1.273744,0.625576,0.258333,0.72005,0.350571
1694109836093750,-10.69125,1.241744,0.627576,0.238033,0.60605,0.359671
1694109836101562,-10.68125,1.192744,0.616576,0.219733,0.49005,0.362371
1694109836109375,-10.56125,1.131744,0.598576,0.199633,0.35105,0.377671
1694109836117187,-10.52125,1.104744,0.570576,0.182533,0.16405,0.392871
1694109836125000,-10.121125,1.47744,0.565576,0.143833,0.6905,0.408171
1694109836132812,-10.164125,1.25744,0.527576,0.116533,0.14995,0.410571
1694109836140625,-10.172125,0.990744,0.518576,0.90033,0.34895,0.425771
1694109836148437,-10.155125,0.938744,0.508576,0.62233,0.57995,0.432971
1694109836156250,-10.146125,0.878744,0.511576,0.33333,0.69295,0.430871
1694109836164062,-10.109125,0.808744,0.490576,0.8933,0.90295,0.422471
1694109836171875,-10.51125,0.747744,0.469576,0.16867,0.101095,0.411071
1694109836179687,-10.23125,0.689744,0.467576,0.47467,0.118495,0.402671
1694109836187500,-10.25125,0.617744,0.455576,0.74367,0.119295,0.385071
1694109836195312,-10.12125,0.540744,0.437576,0.94367,0.129995,0.378571
1694109836203125,-10.14125,0.491744,0.418576,0.121467,0.147095,0.354371
1694109836210937,-10.27125,0.434744,0.391576,0.139367,0.152095,0.352471
1694109836218750,-10.24125,0.379744,0.359576,0.165267,0.156995,0.328771
1694109836226562,-10.20125,0.321744,0.334576,0.183567,0.157995,0.323871
1694109836234375,-10.48125,0.276744,0.311576,0.198267,0.174395,0.307571
1694109836242187,-10.56125,0.240744,0.279576,0.216667,0.178595,0.299571
1694109836250000,-10.56125,0.205744,0.254576,0.239167,0.182395,0.278971
1694109836257812,-10.66125,0.165744,0.208576,0.246967,0.186895,0.277271
1694109836265625,-10.43125,0.135744,0.199576,0.264967,0.198095,0.264271
1694109836273437,-10.4125,0.74744,0.167576,0.272167,0.192395,0.248671
1694109836281250,-9.964125,0.12744,0.128576,0.275167,0.197995,0.228171
1694109836289062,-9.950125,0.45256,0.105576,0.270367,0.195895,0.214071
1694109836296875,-9.899125,0.90256,0.87576,0.276067,0.199395,0.184171
1694109836304687,-9.885125,0.133256,0.62576,0.272467,0.182895,0.149971
1694109836312500,-9.869125,0.167256,0.32576,0.268667,0.184195,0.126271
1694109836320312,-9.867125,0.197256,0.3576,0.266567,0.171895,0.106071
1694109836328125,-9.882125,0.200256,0.15424,0.266267,0.160095,0.71871
1694109836335937,-9.901125,0.194256,0.46424,0.242767,0.155295,0.54771
1694109836343750,-9.910125,0.185256,0.71424,0.242367,0.150995,0.31271
1694109836351562,-9.919125,0.178256,0.101424,0.231467,0.140395,0.17471
1694109836359375,-9.912125,0.153256,0.126424,0.217367,0.136395,0.5929
1694109836367187,-9.904125,0.129256,0.135424,0.206267,0.129295,0.24529
1694109836375000,-9.893125,0.81256,0.155424,0.202967,0.122495,0.32229
1694109836382812,-9.866125,0.40256,0.167424,0.196767,0.123395,0.49429
1694109836390625,-9.851125,0.2744,0.185424,0.187167,0.106595,0.60129
1694109836398437,-9.862125,0.53744,0.196424,0.181167,0.100495,0.73829
1694109836406250,-9.893125,0.101744,0.198424,0.182067,0.82395,0.78429
1694109836414062,-9.901125,0.170744,0.196424,0.171167,0.82095,0.92529
1694109836421875,-9.894125,0.216744,0.198424,0.166767,0.73095,0.98429
1694109836429687,-9.900125,0.276744,0.196424,0.175767,0.59395,0.99729
1694109836437500,-9.906125,0.347744,0.207424,0.184567,0.54195,0.107629
1694109836445312,-9.928125,0.467744,0.241424,0.199567,0.55895,0.104729
1694109836453125,-9.915125,0.594744,0.266424,0.218167,0.56595,0.111029
1694109836460937,-9.915125,0.681744,0.274424,0.240567,0.52695,0.119029
1694109836468750,-9.913125,0.775744,0.277424,0.278867,0.49895,0.123929
1694109836476562,-9.907125,0.828744,0.281424,0.310867,0.50995,0.122529
1694109836484375,-9.886125,0.868744,0.267424,0.357867,0.34895,0.124229
1694109836492187,-9.877125,0.903744,0.249424,0.406467,0.34095,0.121429
1694109836500000,-9.882125,0.952744,0.249424,0.451067,0.34995,0.113829
1694109836507812,-9.903125,0.997744,0.231424,0.504467,0.25695,0.109229
1694109836515625,-9.937125,1.9744,0.205424,0.548567,0.19795,0.109429
1694109836523437,-9.979125,1.37744,0.203424,0.607867,0.24095,0.100629
1694109836531250,-10.3125,1.55744,0.192424,0.651367,0.26795,0.83529
1694109836539062,-10.28125,1.73744,0.167424,0.698667,0.32595,0.82329
1694109836546875,-10.60125,1.98744,0.144424,0.753967,0.37995,0.79629
1694109836554687,-10.72125,1.91744,0.132424,0.814667,0.40495,0.78629
1694109836562500,-10.100125,1.129744,0.125424,0.872667,0.47795,0.76029
1694109836570312,-10.96125,1.167744,0.139424,0.932167,0.66595,0.78429
1694109836578125,-10.52125,1.174744,0.123424,0.994967,0.81895,0.80629
1694109836585937,-10.61125,1.165744,0.103424,-1.52967,0.85795,0.77929
1694109836593750,-10.99125,1.119744,0.94424,-1.112567,0.91095,0.80029
1694109836601562,-10.74125,1.87744,0.64424,-1.176467,0.108295,0.85629
1694109836609375,-10.39125,1.47744,0.57424,-1.225367,0.115495,0.87629
1694109836617187,-10.4125,0.967744,0.26424,-1.275767,0.122195,0.95829
1694109836625000,-9.994125,0.898744,0.12424,-1.323267,0.127695,0.96129
1694109836632812,-9.977125,0.832744,0.6424,-1.361167,0.133495,0.104529
1694109836640625,-9.954125,0.758744,0.2576,-1.395967,0.132695,0.111029
1694109836648437,-9.995125,0.656744,0.18576,-1.409767,0.137395,0.109629
1694109836656250,-10.24125,0.577744,0.9576,-1.422067,0.143995,0.106729
1694109836664062,-10.61125,0.499744,0.4576,-1.426767,0.149195,0.102129
1694109836671875,-10.88125,0.423744,0.2576,-1.431367,0.164595,0.97829
1694109836679687,-10.126125,0.383744,0.15424,-1.436067,0.173395,0.87129
1694109836687500,-10.166125,0.344744,0.32424,-1.420967,0.178795,0.83929
1694109836695312,-10.163125,0.317744,0.45424,-1.410467,0.202595,0.84429
1694109836703125,-10.167125,0.257744,0.54424,-1.396967,0.221695,0.76829
1694109836710937,-10.163125,0.207744,0.64424,-1.382967,0.247495,0.77429
1694109836718750,-10.158125,0.160744,0.77424,-1.350867,0.259895,0.80729
1694109836726562,-10.120125,0.122744,0.89424,-1.339267,0.264995,0.75829
1694109836734375,-10.94125,0.82744,0.128424,-1.302867,0.285695,0.80729
1694109836742187,-10.82125,0.58744,0.160424,-1.266367,0.291195,0.83629
1694109836750000,-10.77125,0.47744,0.196424,-1.235367,0.312495,0.87229
1694109836757812,-10.57125,0.19744,0.244424,-1.202067,0.314395,0.93229
1694109836765625,-9.973125,0.10256,0.294424,-1.157967,0.321695,0.96229
1694109836773437,-9.944125,0.18256,0.324424,-1.110367,0.314795,0.92729
1694109836781250,-9.941125,0.26256,0.367424,-1.61967,0.315495,0.90729
1694109836789062,-9.923125,0.52256,0.413424,-1.25267,0.315095,0.84229
1694109836796875,-9.903125,0.64256,0.458424,0.971667,0.309495,0.87029
1694109836804687,-9.898125,0.75256,0.490424,0.927467,0.301995,0.86529
1694109836812500,-9.903125,0.80256,0.533424,0.880167,0.297095,0.70429
1694109836820312,-9.866125,0.77256,0.572424,0.819467,0.289995,0.65129
1694109836828125,-9.837125,0.89256,0.609424,0.770667,0.287895,0.60029
1694109836835937,-9.839125,0.74256,0.636424,0.720367,0.277595,0.50129
1694109836843750,-9.841125,0.62256,0.670424,0.677967,0.270195,0.43329
1694109836851562,-9.830125,0.58256,0.709424,0.633767,0.266495,0.35129
1694109836859375,-9.833125,0.52256,0.745424,0.574067,0.254595,0.31429
1694109836867187,-9.832125,0.38256,0.782424,0.530367,0.246895,0.24429
1694109836875000,-9.807125,0.10744,0.832424,0.492467,0.235795,0.20729
1694109836882812,-9.770125,0.58744,0.886424,0.448067,0.235195,0.22029
1694109836890625,-9.715125,0.119744,0.920424,0.411067,0.219295,0.26329
1694109836898437,-9.660125,0.128744,0.961424,0.383467,0.202995,0.27329
1694109836906250,-9.633125,0.154744,0.989424,0.354367,0.181495,0.31329
1694109836914062,-9.615125,0.188744,1.25424,0.334367,0.167895,0.41929
1694109836921875,-9.602125,0.192744,1.36424,0.299067,0.141395,0.48929
1694109836929687,-9.618125,0.199744,1.32424,0.271367,0.114995,0.51329
1694109836937500,-9.648125,0.212744,1.32424,0.260367,0.91495,0.60229
1694109836945312,-9.695125,0.220744,1.41424,0.237567,0.65095,0.53129
1694109836953125,-9.771125,0.240744,1.50424,0.212867,0.52795,0.46629
1694109836960937,-9.827125,0.256744,1.38424,0.202067,0.39495,0.47829
1694109836968750,-9.841125,0.257744,1.36424,0.182267,0.33195,0.46029
1694109836976562,-9.876125,0.256744,1.27424,0.165767,0.26295,0.47129
1694109836984375,-9.888125,0.264744,1.6424,0.153467,0.28595,0.45629
1694109836992187,-9.887125,0.275744,0.981424,0.131767,0.29495,0.44029
1694109837000000,-9.837125,0.293744,0.963424,0.106067,0.21195,0.46729
1694109837007812,-9.832125,0.338744,0.961424,0.89467,0.24795,0.45029
1694109837015625,-9.856125,0.371744,0.981424,0.72267,0.13295,0.54229
1694109837023437,-9.854125,0.409744,0.999424,0.64567,0.19095,0.73029
1694109837031250,-9.815125,0.434744,0.997424,0.46167,0.18895,0.85429
1694109837039062,-9.780125,0.459744,0.999424,0.39167,0.7095,0.104229
1694109837046875,-9.794125,0.475744,0.997424,0.40867,0.11195,0.119929
1694109837054687,-9.810125,0.500744,0.999424,0.22467,0.12795,0.129229
1694109837062500,-9.840125,0.529744,1.1424,0.17467,0.905,0.141429
1694109837070312,-9.849125,0.556744,0.997424,0.18967,0.595,0.146229
1694109837078125,-9.894125,0.582744,1.4424,0.17567,0.8205,0.147529
1694109837085937,-9.936125,0.612744,1.8424,0.367,0.2105,0.144629
1694109837093750,-9.949125,0.638744,1.13424,0.5233,0.7595,0.146129
1694109837101562,-9.936125,0.649744,1.6424,0.6933,0.14695,0.144829
1694109837109375,-9.952125,0.670744,1.10424,0.5133,0.7595,0.142929
1694109837117187,-9.979125,0.692744,1.10424,0.15633,0.16595,0.133629
1694109837125000,-9.980125,0.721744,1.19424,0.20133,0.20295,0.129029
1694109837132812,-9.975125,0.741744,1.33424,0.21433,0.23995,0.119629
1694109837140625,-9.967125,0.781744,1.49424,0.29133,0.34495,0.118329
1694109837148437,-9.974125,0.832744,1.60424,0.25733,0.36495,0.105729
1694109837156250,-9.962125,0.888744,1.92424,0.25633,0.33495,0.96229
1694109837164062,-9.925125,0.908744,1.110424,0.26833,0.38595,0.88429
1694109837171875,-9.913125,0.924744,1.121424,0.28633,0.39695,0.79229
1694109837179687,-9.893125,0.933744,1.139424,0.13333,0.42995,0.73129
1694109837187500,-9.854125,0.931744,1.144424,0.5333,0.40995,0.66729
1694109837195312,-9.844125,0.935744,1.144424,0.3433,0.37895,0.54029
1694109837203125,-9.838125,0.932744,1.155424,0.967,0.31795,0.47829
1694109837210937,-9.845125,0.926744,1.158424,0.10167,0.24895,0.43029
1694109837218750,-9.844125,0.906744,1.160424,0.15067,0.18595,0.27129
1694109837226562,-9.844125,0.888744,1.155424,0.21167,0.20295,0.25629
1694109837234375,-9.844125,0.891744,1.149424,0.22967,0.15395,0.14529
1694109837242187,-9.848125,0.866744,1.146424,0.24567,0.15895,0.3529
1694109837250000,-9.866125,0.842744,1.140424,0.23167,0.13095,0.5871
1694109837257812,-9.881125,0.816744,1.135424,0.24867,0.14295,0.4371
1694109837265625,-9.877125,0.797744,1.133424,0.21767,0.14895,0.12171
1694109837273437,-9.902125,0.759744,1.121424,0.20067,0.5195,0.13871
1694109837281250,-9.906125,0.724744,1.117424,0.21767,0.10595,0.24771
1694109837289062,-9.912125,0.699744,1.108424,0.20267,0.17295,0.21471
1694109837296875,-9.916125,0.689744,1.122424,0.3967,0.20695,0.27971
1694109837304687,-9.933125,0.658744,1.129424,0.2033,0.19195,0.31171
1694109837312500,-9.898125,0.630744,1.124424,0.6933,0.24795,0.29371
1694109837320312,-9.884125,0.633744,1.140424,0.26733,0.21295,0.23371
1694109837328125,-9.898125,0.641744,1.149424,0.27233,0.31495,0.13571
1694109837335937,-9.888125,0.644744,1.159424,0.41733,0.26195,0.20371
1694109837343750,-9.843125,0.616744,1.158424,0.55933,0.29695,0.6171
1694109837351562,-9.788125,0.600744,1.161424,0.72733,0.23195,0.4771
1694109837359375,-9.756125,0.598744,1.143424,0.83233,0.14795,0.6771
1694109837367187,-9.763125,0.591744,1.145424,0.101733,0.10195,0.3771
1694109837375000,-9.767125,0.592744,1.138424,0.120033,0.1605,0.529
1694109837382812,-9.806125,0.603744,1.122424,0.141533,0.9505,0.1829
1694109837390625,-9.815125,0.618744,1.120424,0.152333,0.7405,0.3429
1694109837398437,-9.809125,0.638744,1.131424,0.160033,0.15405,0.0
1694109837406250,-9.836125,0.645744,1.113424,0.172133,0.14905,0.6271
1694109837414062,-9.817125,0.658744,1.104424,0.186133,0.19505,0.3171
1694109837421875,-9.798125,0.678744,1.85424,0.195133,0.19705,0.271
1694109837429687,-9.790125,0.684744,1.67424,0.199933,0.25805,0.6571
1694109837437500,-9.805125,0.703744,1.72424,0.199533,0.33005,0.6871
1694109837445312,-9.836125,0.725744,1.67424,0.212133,0.35505,0.8471
1694109837453125,-9.858125,0.748744,1.46424,0.221133,0.38805,0.10171
1694109837460937,-9.870125,0.770744,1.35424,0.222633,0.33705,0.10071
1694109837468750,-9.873125,0.775744,1.24424,0.224233,0.28605,0.8371
1694109837476562,-9.859125,0.788744,1.12424,0.222633,0.21505,0.16071
1694109837484375,-9.868125,0.788744,0.998424,0.224133,0.23205,0.16071
1694109837492187,-9.882125,0.800744,0.992424,0.225433,0.23305,0.19371
1694109837500000,-9.881125,0.814744,0.980424,0.220733,0.26905,0.19471
1694109837507812,-9.909125,0.838744,0.980424,0.226933,0.24905,0.19371
1694109837515625,-9.923125,0.854744,0.978424,0.226933,0.28205,0.22571
1694109837523437,-9.916125,0.868744,0.955424,0.222033,0.25005,0.28871
1694109837531250,-9.907125,0.872744,0.951424,0.221933,0.16505,0.30271
1694109837539062,-9.907125,0.896744,0.946424,0.223533,0.9805,0.26971
1694109837546875,-9.896125,0.888744,0.944424,0.205133,0.5205,0.28371
1694109837554687,-9.921125,0.904744,0.937424,0.197633,0.13905,0.23771
1694109837562500,-9.928125,0.919744,0.946424,0.197633,0.1905,0.24971
1694109837570312,-9.919125,0.936744,0.966424,0.190033,0.10405,0.26671
1694109837578125,-9.922125,0.947744,0.975424,0.173533,0.7505,0.18671
1694109837585937,-9.915125,0.950744,0.980424,0.158033,0.4895,0.12171
1694109837593750,-9.899125,0.943744,0.971424,0.153633,0.11695,0.8671
1694109837601562,-9.888125,0.932744,0.953424,0.141533,0.9595,0.3971
1694109837609375,-9.867125,0.931744,0.957424,0.128033,0.17495,0.5729
1694109837617187,-9.879125,0.927744,0.953424,0.126633,0.7095,0.11829
1694109837625000,-9.890125,0.933744,0.948424,0.120633,0.15395,0.15229
1694109837632812,-9.903125,0.905744,0.951424,0.120633,0.6495,0.22829
1694109837640625,-9.911125,0.897744,0.941424,0.102833,0.8495,0.18529
1694109837648437,-9.906125,0.896744,0.937424,0.102533,0.6495,0.19929
1694109837656250,-9.902125,0.883744,0.944424,0.100633,0.5795,0.21229
1694109837664062,-9.907125,0.874744,0.941424,0.105333,0.18195,0.18529
1694109837671875,-9.891125,0.876744,0.953424,0.108233,0.22995,0.20129
1694109837679687,-9.862125,0.882744,0.962424,0.106933,0.16595,0.20029
1694109837687500,-9.864125,0.866744,0.948424,0.102333,0.16495,0.18529
1694109837695312,-9.857125,0.862744,0.957424,0.111433,0.23295,0.21729
1694109837703125,-9.835125,0.855744,0.957424,0.122133,0.14995,0.19829
1694109837710937,-9.817125,0.864744,0.939424,0.122033,0.11695,0.18229
1694109837718750,-9.810125,0.868744,0.942424,0.129633,0.6695,0.18029
1694109837726562,-9.810125,0.895744,0.944424,0.137633,0.8005,0.19329
1694109837734375,-9.821125,0.893744,0.942424,0.143333,0.3495,0.17829
1694109837742187,-9.813125,0.904744,0.937424,0.143633,0.8005,0.19229
1694109837750000,-9.819125,0.913744,0.935424,0.149533,0.7705,0.12929
1694109837757812,-9.831125,0.928744,0.939424,0.152833,0.22805,0.17329
1694109837765625,-9.822125,0.946744,0.939424,0.167833,0.23805,0.3029
1694109837773437,-9.815125,0.955744,0.932424,0.163333,0.22505,0.12529
1694109837781250,-9.814125,0.968744,0.923424,0.169633,0.30205,0.4529
1694109837789062,-9.816125,0.979744,0.925424,0.175733,0.33505,0.6029
1694109837796875,-9.823125,0.986744,0.923424,0.174133,0.28405,0.2929
1694109837804687,-9.838125,1.10744,0.921424,0.173633,0.37205,0.3671
1694109837812500,-9.852125,1.25744,0.905424,0.173833,0.48805,0.3971
1694109837820312,-9.873125,1.36744,0.902424,0.173733,0.46605,0.11671
1694109837828125,-9.882125,1.45744,0.882424,0.157033,0.50405,0.11671
1694109837835937,-9.874125,1.54744,0.868424,0.153833,0.51605,0.22571
1694109837843750,-9.876125,1.50744,0.864424,0.149233,0.56605,0.25771
1694109837851562,-9.867125,1.56744,0.850424,0.150933,0.58205,0.24271
1694109837859375,-9.865125,1.33744,0.829424,0.138933,0.61905,0.19471
1694109837867187,-9.850125,1.12744,0.795424,0.129533,0.62205,0.22671
1694109837875000,-9.857125,1.11744,0.779424,0.128033,0.70305,0.27471
1694109837882812,-9.857125,0.996744,0.764424,0.114233,0.62405,0.25671
1694109837890625,-9.866125,0.994744,0.736424,0.103633,0.72605,0.25871
1694109837898437,-9.864125,0.974744,0.716424,0.103833,0.70905,0.22571
1694109837906250,-9.882125,0.968744,0.700424,0.97633,0.73105,0.17971
1694109837914062,-9.891125,0.952744,0.684424,0.100733,0.74405,0.22671
1694109837921875,-9.927125,0.957744,0.677424,0.84033,0.71605,0.17771
1694109837929687,-9.956125,0.957744,0.652424,0.76533,0.70505,0.6771
1694109837937500,-9.988125,0.957744,0.641424,0.78033,0.60105,0.12771
1694109837945312,-9.991125,0.959744,0.618424,0.78233,0.53305,0.9471
1694109837953125,-9.990125,0.960744,0.616424,0.74633,0.35405,0.9171
1694109837960937,-10.7125,0.955744,0.606424,0.64433,0.38505,0.7471
1694109837968750,-10.4125,0.949744,0.597424,0.59733,0.27105,0.2471
1694109837976562,-9.976125,0.944744,0.597424,0.50333,0.15805,0.2271
1694109837984375,-9.988125,0.958744,0.579424,0.53133,0.12305,0.6971
1694109837992187,-9.994125,0.956744,0.593424,0.51633,0.4505,0.1029
1694109838000000,-10.4125,0.976744,0.602424,0.53433,0.4295,0.4429
1694109838007812,-10.36125,0.991744,0.620424,0.44233,0.17995,0.2971
1694109838015625,-10.41125,0.998744,0.629424,0.36633,0.22795,0.329
1694109838023437,-10.22125,0.987744,0.645424,0.27133,0.34395,0.5771
1694109838031250,-9.988125,0.983744,0.652424,0.26933,0.43995,0.971
1694109838039062,-9.925125,0.973744,0.666424,0.28633,0.49095,0.3929
1694109838046875,-9.922125,0.966744,0.686424,0.25333,0.47895,0.10171
1694109838054687,-9.952125,0.957744,0.700424,0.23933,0.52995,0.10071
1694109838062500,-9.948125,0.965744,0.725424,0.18033,0.54895,0.11471
1694109838070312,-9.945125,0.986744,0.738424,0.2433,0.49495,0.16271
1694109838078125,-9.941125,0.986744,0.761424,0.2433,0.56095,0.14571
1694109838085937,-9.926125,0.992744,0.779424,0.4967,0.61395,0.17371
1694109838093750,-9.900125,0.983744,0.784424,0.9767,0.59195,0.14371
1694109838101562,-9.858125,0.984744,0.795424,0.18767,0.66095,0.17271
1694109838109375,-9.827125,0.975744,0.811424,0.24967,0.58695,0.9571
1694109838117187,-9.814125,0.964744,0.820424,0.30867,0.61895,0.4771
1694109838125000,-9.802125,0.948744,0.839424,0.43067,0.64795,0.129
1694109838132812,-9.799125,0.940744,0.837424,0.46467,0.50895,0.5071
1694109838140625,-9.825125,0.940744,0.852424,0.44567,0.47595,0.2829
1694109838148437,-9.845125,0.929744,0.855424,0.52167,0.49195,0.2929
1694109838156250,-9.870125,0.942744,0.857424,0.52167,0.44395,0.1871
1694109838164062,-9.911125,0.936744,0.873424,0.47467,0.42795,0.271
1694109838171875,-9.932125,0.913744,0.877424,0.48767,0.46395,0.1671
1694109838179687,-9.913125,0.916744,0.875424,0.65967,0.47595,0.4871
1694109838187500,-9.904125,0.912744,0.878424,0.67467,0.49195,0.3271
1694109838195312,-9.903125,0.896744,0.880424,0.61567,0.47995,0.14271
1694109838203125,-9.890125,0.895744,0.884424,0.72067,0.42695,0.11171
1694109838210937,-9.879125,0.879744,0.880424,0.62767,0.43295,0.17471
1694109838218750,-9.883125,0.871744,0.884424,0.55467,0.39895,0.19171
1694109838226562,-9.877125,0.859744,0.889424,0.56567,0.43395,0.14271
1694109838234375,-9.883125,0.844744,0.889424,0.49267,0.51695,0.12671
1694109838242187,-9.870125,0.843744,0.891424,0.44267,0.35395,0.16071
1694109838250000,-9.859125,0.833744,0.887424,0.43467,0.33295,0.21071
1694109838257812,-9.850125,0.826744,0.889424,0.46367,0.31995,0.25771
1694109838265625,-9.883125,0.844744,0.900424,0.46367,0.37195,0.28771
1694109838273437,-9.914125,0.863744,0.891424,0.42067,0.40195,0.27271
1694109838281250,-9.907125,0.854744,0.896424,0.42067,0.43795,0.28671
1694109838289062,-9.880125,0.849744,0.889424,0.38667,0.35495,0.22571
1694109838296875,-9.864125,0.840744,0.887424,0.31267,0.37295,0.27371
1694109838304687,-9.850125,0.842744,0.889424,0.25167,0.40395,0.19471
1694109838312500,-9.857125,0.840744,0.887424,0.29567,0.32095,0.21171
1694109838320312,-9.852125,0.838744,0.889424,0.25167,0.40195,0.19471
1694109838328125,-9.846125,0.841744,0.887424,0.20167,0.20795,0.24471
1694109838335937,-9.869125,0.840744,0.898424,0.21867,0.25295,0.18171
1694109838343750,-9.880125,0.845744,0.896424,0.20467,0.23395,0.16771
1694109838351562,-9.887125,0.847744,0.889424,0.21867,0.28795,0.18071
1694109838359375,-9.916125,0.847744,0.891424,0.20367,0.18595,0.18371
1694109838367187,-9.917125,0.840744,0.891424,0.21667,0.27395,0.21171
1694109838375000,-9.917125,0.842744,0.889424,0.17067,0.32595,0.19571
1694109838382812,-9.917125,0.835744,0.891424,0.17167,0.25795,0.21271
1694109838390625,-9.918125,0.827744,0.896424,0.19067,0.30995,0.30671
1694109838398437,-9.920125,0.825744,0.894424,0.22167,0.34095,0.29071
1694109838406250,-9.902125,0.804744,0.905424,0.17367,0.27695,0.27571
1694109838414062,-9.895125,0.816744,0.907424,0.11467,0.32795,0.32271
1694109838421875,-9.889125,0.815744,0.914424,0.12967,0.34695,0.33771
1694109838429687,-9.893125,0.814744,0.905424,0.16167,0.32595,0.30671
1694109838437500,-9.897125,0.805744,0.923424,0.8467,0.34295,0.29171
1694109838445312,-9.881125,0.811744,0.919424,0.8567,0.32595,0.30771
1694109838453125,-9.882125,0.813744,0.930424,0.14567,0.34095,0.25971
1694109838460937,-9.861125,0.814744,0.935424,0.8467,0.25495,0.23071
1694109838468750,-9.841125,0.804744,0.928424,0.12867,0.35695,0.21171
1694109838476562,-9.839125,0.797744,0.935424,0.14267,0.23995,0.19871
1694109838484375,-9.838125,0.786744,0.933424,0.1967,0.18895,0.15371
1694109838492187,-9.834125,0.788744,0.928424,0.1033,0.10795,0.20271
1694109838500000,-9.840125,0.786744,0.930424,0.12867,0.13495,0.18571
1694109838507812,-9.843125,0.791744,0.933424,0.9567,0.1795,0.14171
1694109838515625,-9.849125,0.793744,0.921424,0.15667,0.6295,0.7771
1694109838523437,-9.859125,0.807744,0.933424,0.14067,0.4595,0.6171
1694109838531250,-9.866125,0.804744,0.935424,0.6267,0.5095,0.4571
1694109838539062,-9.853125,0.801744,0.923424,0.11967,0.6895,0.2771
1694109838546875,-9.843125,0.808744,0.926424,0.22967,0.5705,0.0
1694109838554687,-9.836125,0.813744,0.926424,0.16767,0.2695,0.4829
1694109838562500,-9.837125,0.812744,0.919424,0.10267,0.7305,0.12529
1694109838570312,-9.855125,0.819744,0.907424,0.14867,0.12805,0.18629
1694109838578125,-9.876125,0.831744,0.923424,0.14867,0.10905,0.14029
1694109838585937,-9.887125,0.837744,0.909424,0.13267,0.15805,0.12429
1694109838593750,-9.919125,0.864744,0.921424,0.16267,0.10905,0.15629
1694109838601562,-9.946125,0.872744,0.912424,0.22467,0.7805,0.17329
1694109838609375,-9.942125,0.889744,0.921424,0.16267,0.4705,0.26729
1694109838617187,-9.905125,0.892744,0.921424,0.13467,0.15395,0.25529
1694109838625000,-9.874125,0.877744,0.923424,0.20867,0.12195,0.25629
1694109838632812,-9.853125,0.876744,0.910424,0.19767,0.195,0.18829
1694109838640625,-9.842125,0.866744,0.900424,0.20967,0.495,0.20629
1694109838648437,-9.851125,0.880744,0.903424,0.21067,0.11405,0.18729
1694109838656250,-9.874125,0.889744,0.900424,0.19567,0.13005,0.17129
1694109838664062,-9.874125,0.898744,0.903424,0.27167,0.11205,0.12529
1694109838671875,-9.877125,0.877744,0.893424,0.25367,0.17605,0.10929
1694109838679687,-9.878125,0.871744,0.882424,0.19567,0.17605,0.9129
1694109838687500,-9.886125,0.870744,0.864424,0.30067,0.12505,0.7929
1694109838695312,-9.913125,0.864744,0.855424,0.20967,0.13805,0.1529
1694109838703125,-9.918125,0.850744,0.848424,0.23667,0.15305,0.3129
1694109838710937,-9.920125,0.830744,0.832424,0.32767,0.15005,0.7671
1694109838718750,-9.921125,0.827744,0.818424,0.21167,0.11905,0.4771
1694109838726562,-9.919125,0.826744,0.814424,0.20867,0.10105,0.3071
1694109838734375,-9.922125,0.819744,0.807424,0.20967,0.4805,0.7671
1694109838742187,-9.942125,0.830744,0.814424,0.19367,0.9705,0.9271
1694109838750000,-9.958125,0.840744,0.814424,0.20967,0.3205,0.6071
1694109838757812,-9.944125,0.844744,0.816424,0.16567,0.6895,0.5871
1694109838765625,-9.937125,0.849744,0.814424,0.10667,0.6795,0.4471
1694109838773437,-9.925125,0.864744,0.820424,0.13267,0.18795,0.2471
1694109838781250,-9.922125,0.862744,0.830424,0.19667,0.15395,0.8871
1694109838789062,-9.939125,0.861744,0.834424,0.16867,0.18295,0.2571
1694109838796875,-9.928125,0.856744,0.841424,0.16967,0.18195,0.2671
1694109838804687,-9.913125,0.857744,0.841424,0.21167,0.23595,0.5471
1694109838812500,-9.902125,0.859744,0.846424,0.22567,0.20195,0.3971
1694109838820312,-9.886125,0.841744,0.836424,0.20967,0.16695,0.629
1694109838828125,-9.878125,0.839744,0.837424,0.22967,0.20095,0.5671
1694109838835937,-9.880125,0.853744,0.828424,0.21367,0.14795,0.1071
1694109838843750,-9.918125,0.855744,0.846424,0.33167,0.16395,0.2329
1694109838851562,-9.904125,0.862744,0.852424,0.25767,0.21495,0.2329
1694109838859375,-9.896125,0.864744,0.853424,0.31967,0.14295,0.6829
1694109838867187,-9.890125,0.862744,0.846424,0.30267,0.21195,0.7029
1694109838875000,-9.879125,0.855744,0.846424,0.42267,0.17195,0.16429
1694109838882812,-9.883125,0.858744,0.850424,0.34767,0.13795,0.17829
1694109838890625,-9.869125,0.851744,0.846424,0.42567,0.20495,0.13329
1694109838898437,-9.846125,0.846744,0.848424,0.36367,0.15295,0.17829
1694109838906250,-9.851125,0.839744,0.832424,0.43967,0.10395,0.13129
1694109838914062,-9.858125,0.850744,0.848424,0.40567,0.3795,0.17729
1694109838921875,-9.874125,0.854744,0.834424,0.29667,0.5695,0.20929
1694109838929687,-9.883125,0.837744,0.832424,0.22267,0.2795,0.11329
1694109838937500,-9.886125,0.855744,0.834424,0.20667,0.10895,0.19329
1694109838945312,-9.881125,0.859744,0.825424,0.28367,0.2195,0.20729
1694109838953125,-9.899125,0.844744,0.834424,0.39267,0.3795,0.12929
1694109838960937,-9.892125,0.862744,0.837424,0.27167,0.2595,0.8129
1694109838968750,-9.887125,0.853744,0.832424,0.24367,0.12795,0.5129
1694109838976562,-9.883125,0.861744,0.832424,0.23967,0.9595,0.6729
1694109838984375,-9.899125,0.853744,0.828424,0.16667,0.12795,0.8229
1694109838992187,-9.885125,0.846744,0.825424,0.21267,0.14495,0.6729
1694109839000000,-9.894125,0.840744,0.814424,0.19767,0.9495,0.5029
1694109839007812,-9.896125,0.856744,0.818424,0.21367,0.9495,0.3429
1694109839015625,-9.898125,0.858744,0.823424,0.19967,0.7995,0.1271
1694109839023437,-9.895125,0.860744,0.814424,0.20967,0.6195,0.6629
1694109839031250,-9.887125,0.860744,0.816424,0.19867,0.11395,0.429
1694109839039062,-9.904125,0.868744,0.816424,0.20967,0.4795,0.3529
1694109839046875,-9.891125,0.870744,0.818424,0.19267,0.9895,0.5229
1694109839054687,-9.888125,0.852744,0.816424,0.23967,0.7995,0.3629
1694109839062500,-9.884125,0.873744,0.814424,0.19367,0.2895,0.8129
1694109839070312,-9.881125,0.862744,0.812424,0.27267,0.895,0.8129
1694109839078125,-9.890125,0.867744,0.809424,0.27267,0.995,0.4929
1694109839085937,-9.900125,0.868744,0.804424,0.28367,0.5605,0.8129
1694109839093750,-9.899125,0.873744,0.816424,0.24167,0.5795,0.11329
1694109839101562,-9.890125,0.876744,0.798424,0.21167,0.7695,0.8229
1694109839109375,-9.893125,0.867744,0.791424,0.28167,0.6295,0.10029
1694109839117187,-9.910125,0.890744,0.809424,0.26467,0.9495,0.16329
1694109839125000,-9.893125,0.886744,0.798424,0.34267,0.2195,0.20829
1694109839132812,-9.897125,0.895744,0.795424,0.23767,0.8895,0.24029
1694109839140625,-9.893125,0.904744,0.805424,0.22467,0.10695,0.19329
1694109839148437,-9.880125,0.899744,0.793424,0.29667,0.10795,0.21029
1694109839156250,-9.879125,0.901744,0.804424,0.35967,0.13795,0.22629
1694109839164062,-9.880125,0.908744,0.811424,0.28167,0.10595,0.25729
1694109839171875,-9.880125,0.908744,0.802424,0.35767,0.7095,0.24129
1694109839179687,-9.886125,0.908744,0.814424,0.25267,0.2195,0.22329
1694109839187500,-9.891125,0.910744,0.798424,0.26567,0.2295,0.22429
1694109839195312,-9.898125,0.913744,0.798424,0.26667,0.395,0.27029
1694109839203125,-9.917125,0.912744,0.802424,0.23867,0.6895,0.28629
1694109839210937,-9.911125,0.922744,0.795424,0.34567,0.7095,0.19329
1694109839218750,-9.907125,0.924744,0.791424,0.38867,0.2095,0.20929
1694109839226562,-9.911125,0.915744,0.798424,0.42067,0.5395,0.19429
1694109839234375,-9.914125,0.923744,0.797424,0.41767,0.10595,0.21129
1694109839242187,-9.911125,0.929744,0.791424,0.37567,0.12095,0.19429
1694109839250000,-9.877125,0.919744,0.800424,0.28367,0.17395,0.21129
1694109839257812,-9.854125,0.924744,0.795424,0.38467,0.9095,0.22729
1694109839265625,-9.871125,0.939744,0.788424,0.40267,0.3795,0.22529
1694109839273437,-9.878125,0.945744,0.802424,0.40067,0.8595,0.28929
1694109839281250,-9.884125,0.965744,0.809424,0.25467,0.6895,0.27029
1694109839289062,-9.910125,0.975744,0.816424,0.37067,0.12095,0.29029
1694109839296875,-9.931125,0.989744,0.822424,0.41767,0.15295,0.29129
1694109839304687,-9.887125,0.984744,0.818424,0.32667,0.13395,0.33629
1694109839312500,-9.837125,0.972744,0.816424,0.38767,0.6495,0.35129
1694109839320312,-9.815125,0.961744,0.807424,0.40367,0.11605,0.23729
1694109839328125,-9.837125,0.961744,0.802424,0.38767,0.11405,0.20629
1694109839335937,-9.849125,0.969744,0.795424,0.32467,0.16005,0.17429
1694109839343750,-9.876125,0.968744,0.793424,0.31367,0.11005,0.12629
1694109839351562,-9.894125,0.964744,0.788424,0.24967,0.15905,0.17329
1694109839359375,-9.878125,0.966744,0.770424,0.25067,0.15905,0.15729
1694109839367187,-9.851125,0.950744,0.750424,0.23667,0.11005,0.17329
1694109839375000,-9.844125,0.957744,0.743424,0.20667,0.12205,0.7929
1694109839382812,-9.837125,0.958744,0.734424,0.21067,0.10705,0.6229
1694109839390625,-9.846125,0.959744,0.713424,0.19167,0.25605,0.6029
1694109839398437,-9.846125,0.966744,0.706424,0.9967,0.33905,0.8929
1694109839406250,-9.874125,0.964744,0.706424,0.12867,0.37405,0.10429
1694109839414062,-9.887125,0.960744,0.702424,0.5467,0.33705,0.5729
1694109839421875,-9.887125,0.972744,0.697424,0.3333,0.30305,0.4029
1694109839429687,-9.905125,0.989744,0.697424,0.3733,0.35505,0.11929
1694109839437500,-9.915125,0.985744,0.697424,0.3733,0.36805,0.4029
1694109839445312,-9.922125,1.744,0.684424,0.3733,0.38605,0.5529
1694109839453125,-9.901125,1.30744,0.677424,0.3433,0.20205,0.4329
1694109839460937,-9.913125,1.40744,0.683424,0.3733,0.18305,0.6029
1694109839468750,-9.919125,1.57744,0.675424,0.4533,0.15405,0.2729
1694109839476562,-9.915125,1.54744,0.677424,0.433,0.17005,0.9129
1694109839484375,-9.922125,1.57744,0.668424,0.2667,0.15405,0.7629
1694109839492187,-9.915125,1.63744,0.668424,0.1733,0.11705,0.1329
1694109839500000,-9.919125,1.57744,0.661424,0.3133,0.8305,0.171
1694109839507812,-9.942125,1.59744,0.663424,0.8867,0.18405,0.3371
1694109839515625,-9.926125,1.61744,0.658424,0.4367,0.9905,0.3271
1694109839523437,-9.925125,1.53744,0.649424,0.20867,0.13005,0.12471
1694109839531250,-9.935125,1.61744,0.661424,0.19867,0.4705,0.15671
1694109839539062,-9.972125,1.65744,0.670424,0.22567,0.6505,0.9271
1694109839546875,-9.971125,1.81744,0.679424,0.23267,0.14495,0.5971
1694109839554687,-9.936125,1.79744,0.688424,0.30467,0.19895,0.3971
1694109839562500,-9.922125,1.70744,0.670424,0.39767,0.21295,0.5571
1694109839570312,-9.908125,1.57744,0.670424,0.47267,0.22495,0.2429
1694109839578125,-9.915125,1.34744,0.674424,0.44167,0.16095,0.871
1694109839585937,-9.939125,1.51744,0.684424,0.49067,0.26095,0.5371
1694109839593750,-9.942125,1.46744,0.704424,0.47567,0.29395,0.3771
1694109839601562,-9.937125,1.42744,0.706424,0.52167,0.30795,0.571
1694109839609375,-9.940125,1.44744,0.711424,0.54967,0.32495,0.2629
1694109839617187,-9.939125,1.53744,0.720424,0.65767,0.32195,0.1129
1694109839625000,-9.929125,1.57744,0.718424,0.70367,0.42595,0.4871
1694109839632812,-9.928125,1.45744,0.731424,0.68667,0.40595,0.2929
1694109839640625,-9.895125,1.44744,0.743424,0.70767,0.41295,0.5829
1694109839648437,-9.873125,1.39744,0.745424,0.69067,0.39895,0.7429
1694109839656250,-9.867125,1.31744,0.745424,0.71567,0.43895,0.6229
1694109839664062,-9.856125,1.34744,0.752424,0.83867,0.49895,0.15829
1694109839671875,-9.855125,1.16744,0.773424,0.71767,0.46795,0.12429
1694109839679687,-9.878125,1.5744,0.779424,0.83767,0.44695,0.18829
1694109839687500,-9.880125,1.7744,0.763424,0.71667,0.45095,0.14029
1694109839695312,-9.889125,1.5744,0.779424,0.76267,0.38195,0.15429
1694109839703125,-9.889125,0.998744,0.786424,0.70067,0.41795,0.13929
1694109839710937,-9.869125,0.987744,0.786424,0.74467,0.39895,0.20229
1694109839718750,-9.862125,1.744,0.793424,0.70067,0.41795,0.13929
1694109839726562,-9.863125,0.985744,0.798424,0.70267,0.46395,0.17129
1694109839734375,-9.873125,0.977744,0.798424,0.69767,0.44995,0.21929
1694109839742187,-9.868125,0.985744,0.795424,0.70167,0.44695,0.20229
1694109839750000,-9.862125,0.981744,0.802424,0.69667,0.38395,0.21829
1694109839757812,-9.878125,0.978744,0.811424,0.63867,0.41795,0.18629
1694109839765625,-9.884125,0.980744,0.809424,0.65467,0.35195,0.12229
1694109839773437,-9.882125,0.991744,0.823424,0.65667,0.42295,0.2929
1694109839781250,-9.866125,0.983744,0.823424,0.67367,0.33495,0.4229
1694109839789062,-9.857125,0.985744,0.814424,0.58167,0.31995,0.5729
1694109839796875,-9.870125,0.996744,0.809424,0.45867,0.25295,0.10229
1694109839804687,-9.852125,0.983744,0.809424,0.47467,0.20595,0.2329
1694109839812500,-9.850125,0.991744,0.811424,0.41367,0.26295,0.3871
1694109839820312,-9.858125,0.995744,0.813424,0.33567,0.28095,0.671
1694109839828125,-9.837125,1.3744,0.816424,0.30667,0.18995,0.6829
1694109839835937,-9.819125,1.6744,0.820424,0.25967,0.14295,0.6729
1694109839843750,-9.823125,1.18744,0.818424,0.22767,0.20895,0.13129
1694109839851562,-9.807125,1.29744,0.814424,0.21267,0.13495,0.20729
1694109839859375,-9.823125,1.41744,0.816424,0.19767,0.8295,0.23729
1694109839867187,-9.853125,1.65744,0.814424,0.36367,0.7895,0.28529
1694109839875000,-9.870125,1.85744,0.816424,0.25467,0.6695,0.28629
1694109839882812,-9.863125,1.89744,0.825424,0.23667,0.4695,0.41129
1694109839890625,-9.852125,1.91744,0.820424,0.34367,0.7795,0.42829
1694109839898437,-9.828125,1.85744,0.798424,0.33067,0.5495,0.45729
1694109839906250,-9.812125,1.76744,0.784424,0.31467,0.7905,0.45429
1694109839914062,-9.844125,1.69744,0.782424,0.31367,0.7405,0.39329
1694109839921875,-9.862125,1.73744,0.793424,0.28767,0.5805,0.32829
1694109839929687,-9.880125,1.75744,0.782424,0.34767,0.7305,0.29829
1694109839937500,-9.883125,1.72744,0.775424,0.38867,0.7105,0.34729
1694109839945312,-9.880125,1.73744,0.766424,0.39467,0.10705,0.25029
1694109839953125,-9.864125,1.73744,0.752424,0.32067,0.5005,0.12529
1694109839960937,-9.858125,1.58744,0.734424,0.30267,0.14605,0.10829
1694109839968750,-9.869125,1.52744,0.722424,0.35067,0.12705,0.0
1694109839976562,-9.885125,1.54744,0.718424,0.33567,0.14105,0.3271
1694109839984375,-9.901125,1.48744,0.720424,0.32167,0.9205,0.3171
1694109839992187,-9.902125,1.56744,0.718424,0.28867,0.8405,0.10871
1694109840000000,-9.924125,1.55744,0.725424,0.19967,0.5205,0.7871
1694109840007812,-9.927125,1.54744,0.736424,0.22767,0.3305,0.9271
1694109840015625,-9.915125,1.68744,0.741424,0.24867,0.3495,0.20271
1694109840023437,-9.894125,1.66744,0.741424,0.22067,0.11595,0.20171
1694109840031250,-9.885125,1.75744,0.731424,0.23267,0.11695,0.15371
1694109840039062,-9.883125,1.67744,0.740424,0.26067,0.5195,0.13771
1694109840046875,-9.872125,1.74744,0.738424,0.29167,0.4795,0.9171
1694109840054687,-9.865125,1.74744,0.736424,0.26267,0.13095,0.8971
1694109840062500,-9.876125,1.70744,0.741424,0.39767,0.7995,0.10571
1694109840070312,-9.861125,1.71744,0.743424,0.45867,0.6905,0.17071
1694109840078125,-9.869125,1.59744,0.725424,0.44467,0.405,0.13871
1694109840085937,-9.860125,1.52744,0.732424,0.49167,0.10705,0.18871
1694109840093750,-9.874125,1.56744,0.722424,0.53367,0.5205,0.20071
1694109840101562,-9.922125,1.77744,0.727424,0.52067,0.10605,0.17171
1694109840109375,-9.953125,1.66744,0.743424,0.50667,0.6595,0.23071
1694109840117187,-9.959125,1.51744,0.738424,0.52567,0.4595,0.26371
1694109840125000,-9.914125,1.33744,0.734424,0.63067,0.12895,0.22971
1694109840132812,-9.875125,1.8744,0.732424,0.66367,0.14495,0.29171
1694109840140625,-9.886125,0.988744,0.718424,0.70867,0.19795,0.32171
1694109840148437,-9.880125,0.987744,0.716424,0.69467,0.11895,0.43271
1694109840156250,-9.880125,0.976744,0.713424,0.70867,0.5395,0.46571
1694109840164062,-9.882125,0.965744,0.711424,0.70967,0.1505,0.45171
1694109840171875,-9.890125,0.957744,0.716424,0.71167,0.7305,0.40671
1694109840179687,-9.888125,0.957744,0.714424,0.70967,0.5505,0.37471
1694109840187500,-9.895125,0.950744,0.707424,0.69267,0.605,0.29471
1694109840195312,-9.899125,0.944744,0.709424,0.66367,0.605,0.31071
1694109840203125,-9.901125,0.935744,0.709424,0.67867,0.7695,0.29371
1694109840210937,-9.890125,0.927744,0.702424,0.69067,0.9395,0.21371
1694109840218750,-9.885125,0.921744,0.695424,0.66167,0.5695,0.18371
1694109840226562,-9.892125,0.915744,0.705424,0.72267,0.5595,0.19971
1694109840234375,-9.883125,0.912744,0.704424,0.65967,0.7695,0.18271
1694109840242187,-9.894125,0.915744,0.700424,0.59967,0.5195,0.7571
1694109840250000,-9.897125,0.912744,0.707424,0.52067,0.8995,0.4271
1694109840257812,-9.885125,0.914744,0.700424,0.58167,0.8595,0.529
1694109840265625,-9.901125,0.928744,0.700424,0.44367,0.13995,0.2129
1694109840273437,-9.888125,0.934744,0.707424,0.61067,0.1595,0.6629
1694109840281250,-9.854125,0.956744,0.709424,0.57767,0.3295,0.13029
1694109840289062,-9.857125,0.969744,0.700424,0.55967,0.1295,0.24029
1694109840296875,-9.884125,0.972744,0.704424,0.46767,0.4495,0.31829
1694109840304687,-9.864125,0.972744,0.707424,0.58867,0.8995,0.39829
1694109840312500,-9.843125,0.978744,0.693424,0.57367,0.6895,0.44429
1694109840320312,-9.884125,0.963744,0.700424,0.61767,0.1405,0.45929
1694109840328125,-9.913125,0.946744,0.702424,0.43567,0.2195,0.45829
1694109840335937,-9.893125,0.932744,0.679424,0.54167,0.10295,0.50829
1694109840343750,-9.840125,0.940744,0.668424,0.56967,0.6295,0.64929
1694109840351562,-9.819125,0.964744,0.693424,0.58067,0.10305,0.66229
1694109840359375,-9.798125,1.18744,0.702424,0.70567,0.17905,0.70729
1694109840367187,-9.792125,1.48744,0.702424,0.67067,0.16305,0.81829
1694109840375000,-9.760125,1.58744,0.702424,0.71467,0.14505,0.108429
1694109840382812,-9.736125,1.84744,0.693424,0.83167,0.16905,0.129029
1694109840390625,-9.740125,1.86744,0.679424,0.87367,0.19605,0.150929
1694109840398437,-9.698125,1.132744,0.704424,0.103567,0.19405,0.184129
1694109840406250,-9.696125,1.186744,0.720424,0.102867,0.28105,0.229429
1694109840414062,-9.685125,1.181744,0.752424,0.109567,0.36105,0.265529
1694109840421875,-9.686125,1.200744,0.752424,0.113167,0.44405,0.309529
1694109840429687,-9.781125,1.138744,0.740424,0.112067,0.47505,0.351929
1694109840437500,-9.843125,1.74744,0.754424,0.113567,0.35905,0.391329
1694109840445312,-9.822125,1.35744,0.734424,0.100567,0.30105,0.426029
1694109840453125,-9.811125,1.32744,0.706424,0.86467,0.37005,0.439929
1694109840460937,-9.812125,1.43744,0.672424,0.62367,0.52305,0.445529
1694109840468750,-9.821125,1.65744,0.625424,0.51867,0.57105,0.438929
1694109840476562,-9.713125,1.66744,0.622424,0.19567,0.74905,0.443129
1694109840484375,-9.730125,1.155744,0.602424,0.2567,0.98005,0.445729
1694109840492187,-9.924125,1.213744,0.587424,0.12833,0.107005,0.429929
1694109840500000,-9.985125,1.272744,0.556424,0.31733,0.103905,0.398229
1694109840507812,-9.963125,1.344744,0.537424,0.38633,0.108205,0.371229
1694109840515625,-10.21125,1.405744,0.512424,0.52233,0.107005,0.352429
1694109840523437,-10.91125,1.442744,0.496424,0.60933,0.108005,0.333429
1694109840531250,-10.116125,1.478744,0.501424,0.80233,0.88605,0.316329
1694109840539062,-10.70125,1.568744,0.503424,0.76933,0.70805,0.297929
1694109840546875,-10.85125,1.657744,0.502424,0.62833,0.59805,0.271629
1694109840554687,-10.28125,1.739744,0.539424,0.56233,0.47005,0.245329
1694109840562500,-10.10125,1.777744,0.557424,0.48033,0.28105,0.225229
1694109840570312,-10.6125,1.814744,0.582424,0.29333,0.5605,0.202329
1694109840578125,-9.993125,1.847744,0.584424,0.10733,0.8695,0.176129
1694109840585937,-9.868125,1.828744,0.570424,0.2267,0.25895,0.152929
1694109840593750,-9.821125,1.850744,0.552424,0.17567,0.34495,0.143829
1694109840601562,-9.880125,1.841744,0.557424,0.34567,0.28195,0.125029
1694109840609375,-9.846125,1.838744,0.570424,0.48467,0.28795,0.106329
1694109840617187,-9.832125,1.832744,0.554424,0.48667,0.10495,0.94829
1694109840625000,-9.831125,1.799744,0.557424,0.61567,0.27395,0.77929
1694109840632812,-9.789125,1.791744,0.552424,0.69067,0.19595,0.66929
1694109840640625,-9.786125,1.789744,0.545424,0.67667,0.6695,0.52429
1694109840648437,-9.804125,1.758744,0.557424,0.69367,0.15595,0.41729
1694109840656250,-9.794125,1.729744,0.559424,0.69767,0.14195,0.29029
1694109840664062,-9.781125,1.704744,0.555424,0.74367,0.19495,0.21329
1694109840671875,-9.746125,1.693744,0.557424,0.70167,0.17695,0.16429
1694109840679687,-9.748125,1.662744,0.559424,0.70167,0.16795,0.3929
1694109840687500,-9.745125,1.649744,0.555424,0.65967,0.16895,0.4071
1694109840695312,-9.786125,1.640744,0.557424,0.53767,0.20595,0.3971
1694109840703125,-9.793125,1.635744,0.573424,0.55367,0.31395,0.16271
1694109840710937,-9.739125,1.660744,0.587424,0.45167,0.40395,0.31871
1694109840718750,-9.728125,1.706744,0.596424,0.40467,0.40395,0.25671
1694109840726562,-9.756125,1.723744,0.611424,0.38767,0.39595,0.38071
1694109840734375,-9.758125,1.744744,0.632424,0.36167,0.43095,0.45971
1694109840742187,-9.747125,1.762744,0.660424,0.48567,0.40895,0.49171
1694109840750000,-9.751125,1.765744,0.673424,0.39567,0.32795,0.54171
1694109840757812,-9.726125,1.737744,0.678424,0.44067,0.32795,0.55671
1694109840765625,-9.728125,1.733744,0.664424,0.39367,0.32995,0.54071
1694109840773437,-9.783125,1.729744,0.671424,0.30167,0.18195,0.56071
1694109840781250,-9.793125,1.690744,0.653424,0.34867,0.12595,0.54671
1694109840789062,-9.784125,1.681744,0.639424,0.33367,0.5895,0.56371
1694109840796875,-9.834125,1.672744,0.610424,0.30267,0.505,0.59671
1694109840804687,-9.802125,1.661744,0.591424,0.31867,0.6705,0.70771
1694109840812500,-9.789125,1.682744,0.596424,0.24067,0.16205,0.74071
1694109840820312,-9.821125,1.721744,0.578424,0.27367,0.21405,0.80571
1694109840828125,-9.826125,1.755744,0.591424,0.24467,0.16405,0.82071
1694109840835937,-9.805125,1.759744,0.566424,0.21367,0.16405,0.78971
1694109840843750,-9.756125,1.758744,0.539424,0.23967,0.11605,0.64571
1694109840851562,-9.706125,1.766744,0.534424,0.40667,0.12305,0.56571
1694109840859375,-9.720125,1.793744,0.530424,0.46767,0.12805,0.51971
1694109840867187,-9.780125,1.809744,0.550424,0.45967,0.9905,0.28171
1694109840875000,-9.778125,1.806744,0.548424,0.44267,0.2995,0.12171
1694109840882812,-9.744125,1.829744,0.552424,0.57967,0.3695,0.3629
1694109840890625,-9.742125,1.884744,0.557424,0.63567,0.3095,0.17829
1694109840898437,-9.794125,1.916744,0.593424,0.60467,0.7195,0.38229
1694109840906250,-9.845125,1.932744,0.620424,0.64867,0.13595,0.46329
1694109840914062,-9.845125,1.932744,0.638424,0.69267,0.11695,0.52629
1694109840921875,-9.779125,1.925744,0.634424,0.67767,0.6595,0.54029
1694109840929687,-9.722125,1.924744,0.643424,0.72467,0.3395,0.46129
1694109840937500,-9.690125,1.913744,0.641424,0.75667,0.10105,0.39529
1694109840945312,-9.687125,1.848744,0.625424,0.80267,0.16305,0.28429
1694109840953125,-9.619125,1.831744,0.605424,0.72467,0.32805,0.26529
1694109840960937,-9.621125,1.821744,0.575424,0.83567,0.54405,0.5629
1694109840968750,-9.677125,1.775744,0.555424,0.76267,0.58705,0.10271
1694109840976562,-9.670125,1.763744,0.564424,0.71867,0.67905,0.27771
