time,Acceleration X (m/s^2),Acceleration Y (m/s^2),Acceleration Z (m/s^2),Angular Velocity X (rad/s),Angular Velocity Y (rad/s),Angular Velocity Z (rad/s)
1694638509125000,-9.47579,1.293175,2.274877,-0.02896,,
1694638509132812,-9.46479,1.293175,2.289877,0.582,0.2566,0.4344
1694638509140625,-9.45279,1.284175,2.292877,0.71,0.2716,0.2644
1694638509148437,-9.43379,1.288175,2.294877,0.683,0.2536,0.4244
1694638509156250,-9.41279,1.292175,2.263877,0.683,0.3026,0.2644
1694638509164062,-9.38179,1.267175,2.222877,0.638,0.2356,0.4244
1694638509179687,-9.40979,1.272175,2.258877,0.63,0.1746,0.4244
1694638509187500,-9.41979,1.290175,2.278877,0.648,0.1406,0.2544
1694638509195312,-9.42679,1.296175,2.348877,0.576,0.886,0.7444
1694638509203125,-9.44479,1.270175,2.366877,0.56,0.104,0.10644
1694638509226562,-9.41979,1.283175,2.245877,0.701,0.414,0.2344
1694638509234375,-9.49179,1.300175,2.254877,0.764,0.744,0.2344
1694638509242187,-9.55079,1.329175,2.283877,0.779,0.414,0.5544
1694638509250000,-9.55679,1.328175,2.305877,0.756,0.596,0.4044
1694638509257812,-9.53979,1.316175,2.292877,0.702,0.1866,0.2544
1694638509265625,-9.53279,1.300175,2.267877,0.687,0.1546,0.944
1694638509273437,-9.51379,1.285175,2.238877,0.522,0.1566,0.4344
1694638509281250,-9.49579,1.287175,2.244877,0.538,0.2056,0.2744
1694638509289062,-9.45779,1.270175,2.229877,0.522,0.1896,0.5944
1694638509296875,-9.43979,1.275175,2.231877,0.55,0.2726,0.6044
1694638509304687,-9.42779,1.268175,2.249877,0.582,0.2066,0.9144
1694638509312500,-9.41479,1.248175,2.271877,0.518,0.2066,0.10844
1694638509320312,-9.41179,1.232175,2.294877,0.56,0.2426,0.5944
1694638509328125,-9.40779,1.232175,2.319877,0.728,0.1566,0.5744
1694638509335937,-9.40779,1.221175,2.328877,0.634,0.1726,0.5844
1694638509343750,-9.40279,1.232175,2.353877,0.731,0.566,0.4044
1694638509351562,-9.40579,1.223175,2.380877,0.797,0.396,0.2344
1694638509359375,-9.41579,1.232175,2.379877,0.657,0.34,0.7244
1694638509367187,-9.43679,1.248175,2.402877,0.759,0.234,0.3944
1694638509375000,-9.47279,1.260175,2.436877,0.783,0.34,0.3944
1694638509382812,-9.48879,1.260175,2.445877,0.759,0.266,0.856
1694638509390625,-9.48479,1.262175,2.440877,0.78,0.426,0.13656
1694638509398437,-9.48479,1.273175,2.438877,0.728,0.1576,0.5556
1694638509406250,-9.45279,1.273175,2.422877,0.74,0.1266,0.7156
1694638509414062,-9.43979,1.279175,2.418877,0.632,0.1416,0.5456
1694638509421875,-9.43979,1.297175,2.422877,0.585,0.1746,0.6956
1694638509429687,-9.42879,1.312175,2.429877,0.556,0.2066,0.10056
1694638509437500,-9.41779,1.323175,2.429877,0.647,0.2076,0.3756
1694638509445312,-9.42679,1.332175,2.391877,0.599,0.2416,0.10156
1694638509453125,-9.40379,1.332175,2.359877,0.66,0.3246,0.14956
1694638509460937,-9.38879,1.323175,2.337877,0.665,0.2556,0.8556
1694638509468750,-9.37979,1.323175,2.339877,0.757,0.946,0.15256
1694638509476562,-9.36879,1.300175,2.330877,0.802,0.566,0.21756
1694638509484375,-9.36879,1.295175,2.323877,0.691,0.56,0.5556
1694638509492187,-9.36979,1.278175,2.328877,0.653,0.564,0.5556
1694638509500000,-9.37179,1.270175,2.352877,0.736,0.1494,0.2556
1694638509507812,-9.39679,1.272175,2.377877,0.818,0.2494,0.2756
1694638509515625,-9.41479,1.270175,2.377877,0.813,0.2794,0.1156
1694638509523437,-9.43979,1.270175,2.350877,0.776,0.1544,0.2244
1694638509531250,-9.46679,1.257175,2.328877,0.791,0.1064,0.11844
1694638509539062,-9.45479,1.257175,2.328877,0.782,0.854,0.13544
1694638509546875,-9.46579,1.246175,2.341877,0.803,0.394,0.19944
1694638509554687,-9.47479,1.227175,2.323877,0.763,0.684,0.18344
1694638509562500,-9.47879,1.247175,2.382877,0.776,0.514,0.19944
1694638509570312,-9.49079,1.260175,2.452877,0.743,0.1724,0.18344
1694638509578125,-9.48879,1.258175,2.314877,0.538,0.1234,0.26544
1694638509585937,-9.45079,1.266175,2.305877,0.522,0.254,0.23444
1694638509593750,-9.48179,1.285175,2.467877,0.561,0.1354,0.21744
1694638509601562,-9.44379,1.255175,2.472877,0.548,0.1534,0.20144
1694638509609375,-9.35479,1.207175,2.71877,0.562,0.2354,0.29644
1694638509617187,-9.30679,1.244175,1.936877,0.786,0.1524,0.7044
1694638509625000,-9.35279,1.307175,2.240877,0.996,0.2194,0.1944
1694638509632812,-9.50179,1.362175,2.479877,0.1025,0.4294,0.1456
1694638509640625,-9.58879,1.386175,2.539877,0.831,0.3464,0.1156
1694638509648437,-9.55979,1.352175,2.501877,0.612,0.2004,0.7144
1694638509656250,-9.43979,1.264175,2.384877,0.505,0.1044,0.8944
1694638509664062,-9.36479,1.198175,2.298877,0.539,0.574,0.15444
1694638509671875,-9.34379,1.191175,2.271877,0.519,0.2034,0.23344
1694638509679687,-9.36679,1.191175,2.303877,0.538,0.2534,0.20044
1694638509687500,-9.39179,1.221175,2.296877,0.517,0.2354,0.20144
1694638509695312,-9.42079,1.232175,2.283877,0.457,0.2684,0.20144
1694638509703125,-9.44279,1.233175,2.287877,0.486,0.2514,0.18544
1694638509710937,-9.46079,1.226175,2.289877,0.531,0.2664,0.20044
1694638509718750,-9.47179,1.198175,2.296877,0.519,0.2014,0.12144
1694638509726562,-9.48079,1.182175,2.303877,0.539,0.1894,0.23344
1694638509734375,-9.48779,1.191175,2.301877,0.524,0.1234,0.16944
1694638509742187,-9.48379,1.202175,2.310877,0.6,0.724,0.15344
1694638509750000,-9.50079,1.218175,2.305877,0.7,0.834,0.7144
1694638509757812,-9.49679,1.229175,2.298877,0.819,0.714,0.7044
1694638509765625,-9.48879,1.242175,2.292877,0.849,0.204,0.2244
1694638509773437,-9.49579,1.247175,2.271877,0.821,0.234,0.8644
1694638509781250,-9.48579,1.242175,2.285877,0.85,0.384,0.5444
1694638509789062,-9.50379,1.256175,2.282877,0.795,0.14,0.3944
1694638509796875,-9.50679,1.249175,2.280877,0.816,0.116,0.7144
1694638509804687,-9.49279,1.236175,2.276877,0.802,0.204,0.2244
1694638509812500,-9.48879,1.244175,2.269877,0.864,0.44,0.5444
1694638509820312,-9.47479,1.244175,2.271877,0.866,0.436,0.3844
1694638509828125,-9.47279,1.244175,2.274877,0.853,0.266,0.2244
1694638509835937,-9.45979,1.251175,2.280877,0.897,0.436,0.3844
1694638509843750,-9.45279,1.253175,2.269877,0.833,0.1436,0.856
1694638509851562,-9.43179,1.255175,2.249877,0.82,0.2136,0.2444
1694638509859375,-9.43679,1.244175,2.237877,0.78,0.956,0.5644
1694638509867187,-9.45179,1.255175,2.255877,0.76,0.1956,0.2544
1694638509875000,-9.47479,1.258175,2.283877,0.787,0.926,0.2344
1694638509882812,-9.47779,1.260175,2.314877,0.847,0.626,0.956
1694638509890625,-9.48079,1.238175,2.395877,0.81,0.806,0.3944
1694638509898437,-9.48079,1.202175,2.298877,0.762,0.636,0.5644
1694638509906250,-9.40679,1.197175,2.195877,0.749,0.2266,0.2544
1694638509914062,-9.41179,1.203175,2.235877,0.789,0.1406,0.4044
1694638509921875,-9.44779,1.228175,2.258877,0.806,0.426,0.856
1694638509929687,-9.49279,1.258175,2.294877,0.767,0.466,0.4056
1694638509937500,-9.51379,1.260175,2.301877,0.794,0.74,0.2456
1694638509945312,-9.49479,1.251175,2.310877,0.788,0.126,0.8856
1694638509953125,-9.48379,1.238175,2.303877,0.776,0.64,0.2456
1694638509960937,-9.47279,1.251175,2.303877,0.783,0.126,0.3944
1694638509968750,-9.47779,1.251175,2.296877,0.698,0.576,0.2444
1694638509976562,-9.46179,1.257175,2.292877,0.732,0.736,0.2444
1694638509984375,-9.47079,1.257175,2.262877,0.584,0.926,0.556
1694638509992187,-9.45979,1.262175,2.253877,0.632,0.1586,0.5456
1694638510000000,-9.45879,1.255175,2.273877,0.606,0.1456,0.1044
1694638510007812,-9.45879,1.240175,2.276877,0.751,0.956,0.3956
1694638510015625,-9.45679,1.230175,2.269877,0.744,0.1086,0.2356
1694638510023437,-9.44779,1.215175,2.278877,0.721,0.1276,0.3956
1694638510031250,-9.43879,1.232175,2.265877,0.776,0.1416,0.8756
1694638510039062,-9.43679,1.239175,2.278877,0.767,0.966,0.7256
1694638510046875,-9.42079,1.243175,2.287877,0.709,0.926,0.844
1694638510054687,-9.42779,1.237175,2.301877,0.74,0.1436,0.10356
1694638510062500,-9.45079,1.233175,2.305877,0.779,0.586,0.10456
1694638510070312,-9.45679,1.231175,2.314877,0.689,0.136,0.5556
1694638510078125,-9.46779,1.224175,2.316877,0.743,0.54,0.7256
1694638510085937,-9.47679,1.215175,2.326877,0.606,0.256,0.5456
1694638510093750,-9.47479,1.215175,2.316877,0.745,0.426,0.7256
1694638510101562,-9.48179,1.215175,2.319877,0.747,0.256,0.4056
1694638510109375,-9.49179,1.200175,2.303877,0.692,0.286,0.756
1694638510117187,-9.48979,1.202175,2.319877,0.664,0.276,0.7156
1694638510125000,-9.50379,1.200175,2.326877,0.713,0.576,0.4044
1694638510132812,-9.50779,1.205175,2.325877,0.74,0.926,0.2444
1694638510140625,-9.48279,1.223175,2.327877,0.776,0.1796,0.2444
1694638510148437,-9.46079,1.222175,2.301877,0.752,0.1936,0.2356
1694638510156250,-9.43879,1.214175,2.256877,0.766,0.2196,0.3956
1694638510164062,-9.42779,1.212175,2.260877,0.824,0.2226,0.3956
1694638510171875,-9.41879,1.223175,2.283877,0.849,0.2086,0.5656
1694638510179687,-9.41679,1.221175,2.287877,0.759,0.1576,0.756
1694638510187500,-9.42279,1.219175,2.301877,0.8,0.1276,0.7256
1694638510195312,-9.42779,1.226175,2.337877,0.805,0.786,0.15256
1694638510203125,-9.42979,1.237175,2.389877,0.857,0.916,0.10556
1694638510210937,-9.45079,1.257175,2.438877,0.915,0.766,0.8956
1694638510218750,-9.44379,1.266175,2.467877,0.951,0.1406,0.12156
1694638510226562,-9.44879,1.264175,2.456877,0.806,0.2246,0.16756
1694638510234375,-9.45079,1.262175,2.434877,0.775,0.2396,0.8756
1694638510242187,-9.42779,1.255175,2.388877,0.763,0.1956,0.3956
1694638510250000,-9.41879,1.230175,2.373877,0.786,0.1436,0.2356
1694638510257812,-9.39179,1.221175,2.366877,0.774,0.1576,0.844
1694638510265625,-9.37779,1.223175,2.440877,0.777,0.586,0.856
1694638510273437,-9.38179,1.219175,2.420877,0.61,0.364,0.8944
1694638510281250,-9.35779,1.214175,2.285877,0.442,0.554,0.9044
1694638510289062,-9.36179,1.218175,2.361877,0.458,0.884,0.7444
1694638510296875,-9.39579,1.230175,2.560877,0.537,0.2024,0.10444
1694638510304687,-9.34679,1.182175,2.355877,0.529,0.2394,0.15244
1694638510312500,-9.24479,1.156175,1.999877,0.542,0.3364,0.11944
1694638510320312,-9.24079,1.209175,2.130877,0.811,0.2694,0.1156
1694638510328125,-9.38379,1.296175,2.420877,0.997,0.3814,0.11056
1694638510335937,-9.54379,1.354175,2.517877,0.976,0.4764,0.12656
1694638510343750,-9.57579,1.341175,2.517877,0.821,0.3314,0.7556
1694638510351562,-9.50279,1.285175,2.440877,0.524,0.1204,0.3856
1694638510359375,-9.41179,1.209175,2.350877,0.407,0.1584,0.9044
1694638510367187,-9.38679,1.176175,2.296877,0.477,0.1714,0.7344
1694638510375000,-9.39979,1.183175,2.291877,0.514,0.1984,0.2444
1694638510382812,-9.42879,1.206175,2.321877,0.515,0.1504,0.5744
1694638510390625,-9.47079,1.233175,2.339877,0.539,0.1214,0.7344
1694638510398437,-9.51079,1.254175,2.343877,0.49,0.1044,0.7444
1694638510406250,-9.51179,1.258175,2.332877,0.494,0.2364,0.2444
1694638510414062,-9.50679,1.247175,2.321877,0.54,0.1054,0.4144
1694638510421875,-9.48879,1.229175,2.330877,0.545,0.1234,0.2544
1694638510429687,-9.48079,1.220175,2.341877,0.549,0.854,0.2544
1694638510437500,-9.49079,1.225175,2.375877,0.519,0.544,0.5844
1694638510445312,-9.48779,1.227175,2.400877,0.581,0.364,0.2256
1694638510453125,-9.49079,1.242175,2.395877,0.742,0.106,0.4056
1694638510460937,-9.47579,1.259175,2.393877,0.796,0.84,0.4156
1694638510468750,-9.45879,1.253175,2.379877,0.784,0.146,0.8856
1694638510476562,-9.43479,1.257175,2.382877,0.738,0.296,0.7256
1694638510484375,-9.42379,1.261175,2.373877,0.755,0.616,0.2456
1694638510492187,-9.41679,1.261175,2.352877,0.742,0.1096,0.5556
1694638510500000,-9.40979,1.259175,2.348877,0.609,0.2106,0.5356
1694638510507812,-9.41279,1.261175,2.346877,0.664,0.1256,0.7056
1694638510515625,-9.42179,1.254175,2.359877,0.697,0.1576,0.5456
1694638510523437,-9.42079,1.259175,2.352877,0.739,0.2256,0.7056
1694638510531250,-9.43479,1.261175,2.361877,0.725,0.2236,0.2256
1694638510539062,-9.42579,1.268175,2.350877,0.758,0.2556,0.2256
1694638510546875,-9.41679,1.268175,2.341877,0.791,0.2556,0.7156
1694638510554687,-9.42579,1.254175,2.346877,0.779,0.2536,0.5556
1694638510562500,-9.43279,1.264175,2.339877,0.772,0.1586,0.756
1694638510570312,-9.44379,1.260175,2.328877,0.783,0.966,0.8856
1694638510578125,-9.47279,1.271175,2.366877,0.68,0.1316,0.944
1694638510585937,-9.47579,1.271175,2.474877,0.738,0.606,0.2444
1694638510593750,-9.50579,1.238175,2.487877,0.596,0.126,0.656
1694638510601562,-9.45479,1.212175,2.310877,0.516,0.1856,0.456
1694638510609375,-9.39179,1.219175,2.303877,0.691,0.1756,0.656
1694638510617187,-9.41679,1.261175,2.357877,0.799,0.94,0.7356
1694638510625000,-9.43879,1.275175,2.366877,0.765,0.156,0.7256
1694638510632812,-9.47379,1.286175,2.393877,0.792,0.64,0.4156
1694638510640625,-9.45979,1.300175,2.406877,0.783,0.146,0.5656
1694638510648437,-9.43479,1.281175,2.404877,0.76,0.596,0.5656
1694638510656250,-9.43479,1.270175,2.395877,0.612,0.126,0.656
1694638510664062,-9.41979,1.279175,2.395877,0.601,0.436,0.2256
1694638510671875,-9.41479,1.272175,2.386877,0.633,0.256,0.5744
1694638510679687,-9.41879,1.277175,2.386877,0.591,0.306,0.944
1694638510687500,-9.41279,1.265175,2.368877,0.615,0.596,0.4144
1694638510695312,-9.40779,1.258175,2.355877,0.716,0.76,0.4044
1694638510703125,-9.40579,1.252175,2.339877,0.675,0.446,0.4044
1694638510710937,-9.40579,1.249175,2.339877,0.719,0.396,0.756
1694638510718750,-9.41879,1.252175,2.341877,0.748,0.246,0.856
1694638510726562,-9.42379,1.257175,2.332877,0.788,0.276,0.3944
1694638510734375,-9.41679,1.270175,2.339877,0.772,0.276,0.2344
1694638510742187,-9.40779,1.265175,2.357877,0.787,0.116,0.2456
1694638510750000,-9.42179,1.268175,2.364877,0.773,0.436,0.2456
1694638510757812,-9.44179,1.257175,2.386877,0.789,0.436,0.2456
1694638510765625,-9.44779,1.258175,2.386877,0.763,0.146,0.3944
1694638510773437,-9.45479,1.255175,2.397877,0.781,0.466,0.2344
1694638510781250,-9.46379,1.253175,2.382877,0.768,0.296,0.2344
1694638510789062,-9.47779,1.255175,2.375877,0.76,0.554,0.856
1694638510796875,-9.46879,1.260175,2.366877,0.722,0.374,0.7144
1694638510804687,-9.45279,1.237175,2.366877,0.696,0.724,0.3944
1694638510812500,-9.45479,1.235175,2.350877,0.708,0.64,0.10444
1694638510820312,-9.44779,1.231175,2.348877,0.671,0.194,0.7244
1694638510828125,-9.43879,1.223175,2.337877,0.763,0.246,0.2344
1694638510835937,-9.43879,1.226175,2.339877,0.789,0.256,0.8744
1694638510843750,-9.43879,1.233175,2.334877,0.768,0.1086,0.18444
1694638510851562,-9.44579,1.226175,2.321877,0.774,0.1886,0.10544
1694638510859375,-9.44279,1.224175,2.319877,0.795,0.1936,0.5644
1694638510867187,-9.45279,1.237175,2.310877,0.913,0.1406,0.10344
1694638510875000,-9.45179,1.233175,2.321877,0.925,0.1596,0.7144
1694638510882812,-9.43879,1.235175,2.330877,0.879,0.1426,0.3944
1694638510890625,-9.44179,1.248175,2.330877,0.837,0.586,0.3944
1694638510898437,-9.44379,1.253175,2.339877,0.772,0.1256,0.756
1694638510906250,-9.43979,1.263175,2.380877,0.8,0.56,0.856
1694638510914062,-9.45379,1.275175,2.431877,0.78,0.84,0.744
1694638510921875,-9.45279,1.284175,2.463877,0.795,0.0,0.7356
1694638510929687,-9.45479,1.295175,2.474877,0.83,0.146,0.4156
1694638510937500,-9.45079,1.289175,2.447877,0.761,0.1646,0.10356
1694638510945312,-9.43479,1.291175,2.429877,0.718,0.1786,0.8656
1694638510953125,-9.41879,1.277175,2.433877,0.635,0.1646,0.8656
1694638510960937,-9.40279,1.272175,2.415877,0.638,0.1476,0.13456
1694638510968750,-9.40079,1.275175,2.424877,0.575,0.646,0.7056
1694638510976562,-9.39379,1.286175,2.514877,0.573,0.0,0.2544
1694638510984375,-9.39879,1.266175,2.438877,0.387,0.844,0.4344
1694638510992187,-9.38079,1.261175,2.321877,0.245,0.844,0.9244
1694638511000000,-9.39379,1.259175,2.458877,0.279,0.854,0.7644
1694638511007812,-9.41579,1.230175,2.578877,0.313,0.2174,0.9144
1694638511015625,-9.35179,1.167175,2.231877,0.242,0.2624,0.9144
1694638511023437,-9.30079,1.148175,1.979877,0.411,0.2514,0.5744
1694638511031250,-9.34879,1.240175,2.222877,0.82,0.2824,0.2756
1694638511039062,-9.49679,1.302175,2.481877,0.845,0.3834,0.10856
1694638511046875,-9.61579,1.340175,2.551877,0.722,0.3954,0.2756
1694638511054687,-9.61279,1.300175,2.526877,0.541,0.2034,0.844
1694638511062500,-9.52479,1.236175,2.418877,0.449,0.1394,0.2644
1694638511070312,-9.41279,1.175175,2.310877,0.25,0.534,0.9344
1694638511078125,-9.38079,1.145175,2.276877,0.325,0.1344,0.17144
1694638511085937,-9.38579,1.152175,2.294877,0.454,0.2354,0.23344
1694638511093750,-9.41279,1.159175,2.303877,0.533,0.2024,0.20144
1694638511101562,-9.43179,1.179175,2.305877,0.522,0.3024,0.20044
1694638511109375,-9.44079,1.181175,2.283877,0.634,0.2544,0.18344
1694638511117187,-9.45379,1.189175,2.273877,0.622,0.3314,0.24744
1694638511125000,-9.45179,1.159175,2.294877,0.601,0.1884,0.24844
1694638511132812,-9.45579,1.137175,2.294877,0.632,0.1714,0.15244
1694638511140625,-9.44179,1.137175,2.316877,0.645,0.1864,0.20044
1694638511148437,-9.43679,1.133175,2.312877,0.745,0.1664,0.19944
1694638511156250,-9.45979,1.151175,2.312877,0.828,0.1514,0.19844
1694638511164062,-9.47379,1.180175,2.325877,0.904,0.1494,0.8544
1694638511171875,-9.47679,1.207175,2.307877,0.859,0.1014,0.10144
1694638511179687,-9.48879,1.220175,2.294877,0.902,0.1054,0.8544
1694638511187500,-9.47879,1.224175,2.289877,0.878,0.194,0.3844
1694638511195312,-9.46079,1.224175,2.289877,0.814,0.204,0.8744
1694638511203125,-9.46179,1.230175,2.260877,0.807,0.404,0.8644
1694638511210937,-9.46579,1.240175,2.256877,0.833,0.116,0.3844
1694638511218750,-9.46179,1.253175,2.251877,0.768,0.694,0.2244
1694638511226562,-9.47579,1.264175,2.265877,0.788,0.544,0.5444
1694638511234375,-9.47779,1.275175,2.256877,0.775,0.234,0.3944
1694638511242187,-9.49279,1.265175,2.264877,0.782,0.844,0.2244
1694638511250000,-9.48879,1.262175,2.251877,0.771,0.44,0.856
1694638511257812,-9.48879,1.253175,2.258877,0.768,0.126,0.744
1694638511265625,-9.47479,1.253175,2.253877,0.743,0.586,0.2444
1694638511273437,-9.47079,1.251175,2.249877,0.718,0.136,0.4044
1694638511281250,-9.47979,1.244175,2.267877,0.603,0.64,0.656
1694638511289062,-9.47779,1.249175,2.316877,0.663,0.276,0.756
1694638511296875,-9.47979,1.228175,2.420877,0.595,0.2064,0.744
1694638511304687,-9.48479,1.200175,2.318877,0.45,0.1004,0.4244
1694638511312500,-9.40879,1.177175,2.226877,0.553,0.596,0.556
1694638511320312,-9.40479,1.192175,2.305877,0.711,0.364,0.13656
1694638511328125,-9.44279,1.200175,2.328877,0.74,0.1504,0.10556
1694638511335937,-9.47679,1.209175,2.337877,0.765,0.1214,0.12156
1694638511343750,-9.50379,1.223175,2.359877,0.658,0.184,0.7156
1694638511351562,-9.48379,1.220175,2.355877,0.584,0.704,0.7156
1694638511359375,-9.45879,1.211175,2.332877,0.615,0.704,0.3956
1694638511367187,-9.45679,1.206175,2.319877,0.614,0.44,0.656
1694638511375000,-9.45879,1.206175,2.303877,0.694,0.106,0.844
1694638511382812,-9.44979,1.222175,2.298877,0.549,0.34,0.944
1694638511390625,-9.43679,1.214175,2.281877,0.58,0.56,0.656
1694638511398437,-9.45479,1.199175,2.289877,0.745,0.74,0.3944
1694638511406250,-9.44479,1.199175,2.269877,0.739,0.116,0.2344
1694638511414062,-9.44179,1.186175,2.273877,0.796,0.14,0.856
1694638511421875,-9.45179,1.193175,2.285877,0.779,0.184,0.5544
1694638511429687,-9.45179,1.189175,2.283877,0.753,0.126,0.2456
1694638511437500,-9.45179,1.193175,2.285877,0.769,0.34,0.2456
1694638511445312,-9.44279,1.201175,2.292877,0.823,0.1044,0.2656
1694638511453125,-9.44779,1.220175,2.291877,0.846,0.674,0.4256
1694638511460937,-9.43879,1.224175,2.289877,0.789,0.714,0.644
1694638511468750,-9.44579,1.231175,2.303877,0.786,0.1344,0.4156
1694638511476562,-9.45479,1.230175,2.294877,0.782,0.1884,0.5856
1694638511484375,-9.46579,1.247175,2.307877,0.782,0.994,0.7356
1694638511492187,-9.48479,1.246175,2.299877,0.783,0.914,0.2556
1694638511500000,-9.48579,1.247175,2.292877,0.752,0.1004,0.5756
1694638511507812,-9.49979,1.245175,2.285877,0.644,0.854,0.3956
1694638511515625,-9.50179,1.242175,2.274877,0.71,0.54,0.844
1694638511523437,-9.49279,1.227175,2.276877,0.618,0.426,0.944
1694638511531250,-9.49879,1.218175,2.280877,0.629,0.606,0.2544
1694638511539062,-9.49979,1.213175,2.278877,0.686,0.736,0.5556
1694638511546875,-9.49279,1.222175,2.287877,0.662,0.106,0.4044
1694638511554687,-9.48379,1.224175,2.303877,0.709,0.1256,0.4144
1694638511562500,-9.47479,1.218175,2.321877,0.598,0.276,0.944
1694638511570312,-9.47279,1.217175,2.326877,0.593,0.1046,0.2156
1694638511578125,-9.44979,1.215175,2.321877,0.743,0.756,0.844
1694638511585937,-9.42479,1.201175,2.298877,0.773,0.276,0.2456
1694638511593750,-9.41179,1.199175,2.283877,0.776,0.596,0.5656
1694638511601562,-9.39579,1.201175,2.258877,0.818,0.286,0.2556
1694638511609375,-9.38879,1.199175,2.255877,0.847,0.136,0.2556
1694638511617187,-9.39579,1.210175,2.253877,0.862,0.344,0.5856
1694638511625000,-9.40479,1.212175,2.287877,0.917,0.384,0.1056
1694638511632812,-9.42279,1.224175,2.303877,0.1005,0.524,0.2756
1694638511640625,-9.45479,1.253175,2.334877,0.1037,0.1014,0.7656
1694638511648437,-9.47479,1.256175,2.359877,0.1021,0.524,0.4356
1694638511656250,-9.50679,1.263175,2.357877,0.1022,0.34,0.4356
1694638511664062,-9.50979,1.269175,2.332877,0.103,0.96,0.9156
1694638511671875,-9.49279,1.274175,2.323877,0.909,0.24,0.5856
1694638511679687,-9.48479,1.277175,2.312877,0.919,0.1406,0.5756
1694638511687500,-9.46479,1.271175,2.301877,0.915,0.1246,0.3844
1694638511695312,-9.46179,1.278175,2.348877,0.842,0.1136,0.4056
1694638511703125,-9.46579,1.278175,2.418877,0.796,0.646,0.4056
1694638511710937,-9.45479,1.264175,2.269877,0.663,0.656,0.7344
1694638511718750,-9.42379,1.261175,2.238877,0.517,0.436,0.12244
1694638511726562,-9.44579,1.271175,2.415877,0.668,0.344,0.10444
1694638511734375,-9.43379,1.217175,2.431877,0.567,0.2194,0.18444
1694638511742187,-9.35479,1.169175,2.37877,0.607,0.2984,0.19944
1694638511750000,-9.32579,1.198175,1.987877,0.891,0.2484,0.13244
1694638511757812,-9.41479,1.279175,2.341877,0.12,0.3004,0.1644
1694638511765625,-9.59379,1.351175,2.526877,0.1101,0.2814,0.4656
1694638511773437,-9.66379,1.367175,2.562877,0.883,0.2664,0.4356
1694638511781250,-9.61979,1.306175,2.492877,0.679,0.1714,0.15144
1694638511789062,-9.49479,1.213175,2.382877,0.486,0.256,0.23544
1694638511796875,-9.40879,1.154175,2.271877,0.514,0.54,0.26744
1694638511804687,-9.40379,1.148175,2.240877,0.556,0.204,0.29844
1694638511812500,-9.41979,1.163175,2.287877,0.564,0.884,0.26544
1694638511820312,-9.44179,1.195175,2.296877,0.662,0.504,0.28144
1694638511828125,-9.45379,1.227175,2.287877,0.691,0.174,0.29744
1694638511835937,-9.46779,1.253175,2.296877,0.571,0.24,0.25044
1694638511843750,-9.45379,1.233175,2.309877,0.491,0.14,0.21944
1694638511851562,-9.44079,1.226175,2.330877,0.628,0.96,0.16944
1694638511859375,-9.41179,1.224175,2.341877,0.59,0.296,0.18644
1694638511867187,-9.40079,1.207175,2.337877,0.711,0.246,0.18444
1694638511875000,-9.38479,1.218175,2.361877,0.774,0.256,0.7144
1694638511882812,-9.39379,1.216175,2.337877,0.788,0.64,0.11944
1694638511890625,-9.39079,1.217175,2.325877,0.827,0.24,0.10344
1694638511898437,-9.39079,1.226175,2.327877,0.874,0.834,0.3744
1694638511906250,-9.40479,1.241175,2.309877,0.874,0.1654,0.2144
1694638511914062,-9.41679,1.232175,2.323877,0.854,0.1214,0.3744
1694638511921875,-9.44279,1.222175,2.319877,0.816,0.1674,0.2144
1694638511929687,-9.45879,1.224175,2.319877,0.766,0.1334,0.3844
1694638511937500,-9.47879,1.218175,2.327877,0.812,0.2304,0.2144
1694638511945312,-9.49879,1.211175,2.328877,0.803,0.1684,0.544
1694638511953125,-9.51079,1.218175,2.323877,0.773,0.714,0.2244
1694638511960937,-9.50679,1.222175,2.305877,0.767,0.754,0.644
1694638511968750,-9.49679,1.225175,2.294877,0.783,0.514,0.2556
1694638511976562,-9.48779,1.224175,2.289877,0.773,0.276,0.856
1694638511984375,-9.48779,1.233175,2.278877,0.785,0.34,0.4056
1694638511992187,-9.48179,1.249175,2.258877,0.782,0.466,0.4056
1694638512000000,-9.46579,1.246175,2.251877,0.769,0.456,0.4056
1694638512007812,-9.46879,1.253175,2.260877,0.794,0.74,0.4156
1694638512015625,-9.48179,1.242175,2.359877,0.73,0.64,0.7256
1694638512023437,-9.48479,1.209175,2.318877,0.572,0.654,0.944
1694638512031250,-9.42379,1.179175,2.188877,0.531,0.466,0.2156
1694638512039062,-9.39979,1.188175,2.231877,0.766,0.306,0.856
1694638512046875,-9.45179,1.228175,2.285877,0.773,0.204,0.8956
1694638512054687,-9.49979,1.249175,2.296877,0.795,0.874,0.17056
1694638512062500,-9.54479,1.257175,2.325877,0.756,0.194,0.16956
1694638512070312,-9.52679,1.243175,2.339877,0.775,0.116,0.12056
1694638512078125,-9.49279,1.222175,2.303877,0.772,0.796,0.20056
1694638512085937,-9.49179,1.207175,2.285877,0.701,0.326,0.11956
1694638512093750,-9.48779,1.213175,2.285877,0.773,0.126,0.12056
1694638512101562,-9.48379,1.220175,2.276877,0.784,0.476,0.12056
1694638512109375,-9.47179,1.222175,2.258877,0.768,0.636,0.8856
1694638512117187,-9.47679,1.233175,2.249877,0.781,0.806,0.7256
1694638512125000,-9.47479,1.220175,2.240877,0.772,0.776,0.8856
1694638512132812,-9.47479,1.215175,2.251877,0.774,0.1256,0.10456
1694638512140625,-9.47179,1.222175,2.247877,0.769,0.1276,0.7156
1694638512148437,-9.45179,1.217175,2.256877,0.791,0.1736,0.5556
1694638512156250,-9.46079,1.217175,2.244877,0.773,0.1586,0.7156
1694638512164062,-9.44079,1.226175,2.249877,0.802,0.1756,0.5556
1694638512171875,-9.43879,1.237175,2.267877,0.945,0.786,0.10656
1694638512179687,-9.43779,1.238175,2.294877,0.963,0.356,0.10656
1694638512187500,-9.46979,1.242175,2.309877,0.983,0.826,0.9056
1694638512195312,-9.46779,1.242175,2.312877,0.945,0.616,0.9056
1694638512203125,-9.46779,1.229175,2.296877,0.975,0.286,0.4256
1694638512210937,-9.45179,1.213175,2.267877,0.921,0.646,0.4156
1694638512218750,-9.46079,1.215175,2.273877,0.768,0.306,0.10456
1694638512226562,-9.47679,1.222175,2.265877,0.818,0.776,0.5656
1694638512234375,-9.49079,1.227175,2.287877,0.776,0.266,0.7256
1694638512242187,-9.50379,1.234175,2.287877,0.784,0.456,0.744
1694638512250000,-9.50679,1.236175,2.285877,0.772,0.1586,0.756
1694638512257812,-9.50579,1.236175,2.289877,0.875,0.1456,0.744
1694638512265625,-9.49279,1.236175,2.280877,0.843,0.1616,0.2344
1694638512273437,-9.49279,1.218175,2.287877,0.797,0.1766,0.5644
1694638512281250,-9.46479,1.213175,2.287877,0.764,0.1616,0.4044
1694638512289062,-9.46579,1.206175,2.287877,0.848,0.1426,0.2344
1694638512296875,-9.45879,1.217175,2.289877,0.813,0.1766,0.4044
1694638512304687,-9.44979,1.222175,2.280877,0.826,0.1626,0.4056
1694638512312500,-9.43579,1.228175,2.246877,0.844,0.2436,0.5556
1694638512320312,-9.42479,1.233175,2.219877,0.1017,0.2766,0.8956
1694638512328125,-9.41479,1.252175,2.206877,0.1022,0.1926,0.7456
1694638512335937,-9.41879,1.257175,2.206877,0.1055,0.1276,0.15556
1694638512343750,-9.43279,1.263175,2.213877,0.109,0.776,0.20456
1694638512351562,-9.44179,1.268175,2.219877,0.1019,0.1136,0.12256
1694638512359375,-9.44779,1.264175,2.222877,0.1034,0.306,0.7556
1694638512367187,-9.45279,1.259175,2.260877,0.1026,0.44,0.10756
1694638512375000,-9.47279,1.262175,2.314877,0.1029,0.166,0.2756
1694638512382812,-9.47479,1.260175,2.346877,0.984,0.0,0.2756
1694638512390625,-9.47679,1.260175,2.325877,0.1,0.174,0.1156
1694638512398437,-9.45679,1.233175,2.278877,0.864,0.204,0.3844
1694638512406250,-9.45679,1.222175,2.242877,0.835,0.54,0.3844
1694638512414062,-9.44979,1.215175,2.251877,0.988,0.204,0.10144
1694638512421875,-9.41779,1.221175,2.235877,0.926,0.194,0.1056
1694638512429687,-9.39579,1.223175,2.226877,0.855,0.156,0.5444
1694638512437500,-9.40279,1.243175,2.307877,0.828,0.514,0.3844
1694638512445312,-9.42779,1.243175,2.316877,0.713,0.1544,0.3944
1694638512453125,-9.43179,1.244175,2.233877,0.437,0.2174,0.17044
1694638512460937,-9.43879,1.226175,2.319877,0.404,0.2004,0.15444
1694638512468750,-9.45779,1.207175,2.465877,0.382,0.2464,0.15444
1694638512476562,-9.37179,1.141175,2.93877,0.291,0.4604,0.15344
1694638512484375,-9.30279,1.162175,1.947877,0.585,0.2464,0.16844
1694638512492187,-9.37579,1.263175,2.303877,0.969,0.2634,0.344
1694638512500000,-9.58379,1.360175,2.483877,0.1048,0.3764,0.9456
1694638512507812,-9.64479,1.372175,2.494877,0.86,0.2144,0.2756
1694638512515625,-9.60379,1.296175,2.406877,0.541,0.1974,0.12044
1694638512523437,-9.50079,1.214175,2.253877,0.312,0.1634,0.23644
1694638512531250,-9.41179,1.139175,2.192877,0.178,0.1824,0.25344
1694638512539062,-9.40579,1.139175,2.179877,0.282,0.2684,0.20344
1694638512546875,-9.43079,1.180175,2.215877,0.298,0.1804,0.28444
1694638512554687,-9.45179,1.233175,2.237877,0.492,0.2144,0.21744
1694638512562500,-9.45279,1.293175,2.258877,0.525,0.2634,0.18444
1694638512570312,-9.44479,1.315175,2.258877,0.516,0.1514,0.10544
1694638512578125,-9.42179,1.301175,2.260877,0.48,0.2154,0.16944
1694638512585937,-9.43279,1.286175,2.267877,0.436,0.2324,0.10544
1694638512593750,-9.41679,1.257175,2.287877,0.528,0.2314,0.12044
1694638512601562,-9.43379,1.240175,2.298877,0.533,0.2114,0.16944
1694638512609375,-9.44979,1.244175,2.303877,0.528,0.2484,0.12044
1694638512617187,-9.44779,1.242175,2.296877,0.558,0.1644,0.7244
1694638512625000,-9.47579,1.257175,2.292877,0.649,0.2524,0.11944
1694638512632812,-9.48179,1.253175,2.285877,0.676,0.1354,0.5544
1694638512640625,-9.50179,1.256175,2.276877,0.612,0.1184,0.844
1694638512648437,-9.49979,1.236175,2.280877,0.642,0.694,0.7244
1694638512656250,-9.49679,1.224175,2.267877,0.556,0.564,0.944
1694638512664062,-9.48779,1.204175,2.265877,0.59,0.1064,0.756
1694638512671875,-9.47879,1.211175,2.269877,0.549,0.126,0.656
1694638512679687,-9.45879,1.197175,2.258877,0.631,0.54,0.4144
1694638512687500,-9.45179,1.206175,2.253877,0.647,0.106,0.4044
1694638512695312,-9.44279,1.224175,2.242877,0.736,0.34,0.3944
1694638512703125,-9.43679,1.221175,2.242877,0.773,0.96,0.11944
1694638512710937,-9.44579,1.224175,2.235877,0.777,0.74,0.3944
1694638512718750,-9.45279,1.237175,2.244877,0.785,0.286,0.7144
1694638512726562,-9.46779,1.231175,2.260877,0.801,0.286,0.2344
1694638512734375,-9.49079,1.229175,2.287877,0.779,0.246,0.3944
1694638512742187,-9.49979,1.229175,2.301877,0.821,0.116,0.4156
1694638512750000,-9.48879,1.237175,2.357877,0.703,0.244,0.7256
1694638512757812,-9.49379,1.196175,2.312877,0.486,0.1354,0.5744
1694638512765625,-9.42479,1.188175,2.222877,0.472,0.96,0.15544
1694638512773437,-9.39879,1.209175,2.301877,0.732,0.414,0.2344
1694638512781250,-9.44179,1.266175,2.341877,0.796,0.1064,0.956
1694638512789062,-9.46879,1.279175,2.332877,0.795,0.234,0.7356
1694638512796875,-9.49779,1.289175,2.326877,0.729,0.224,0.2456
1694638512804687,-9.48979,1.302175,2.352877,0.615,0.44,0.3956
1694638512812500,-9.45779,1.280175,2.355877,0.565,0.456,0.3856
1694638512820312,-9.44179,1.253175,2.343877,0.568,0.266,0.4244
1694638512828125,-9.44779,1.240175,2.321877,0.639,0.1606,0.2644
1694638512835937,-9.45679,1.233175,2.316877,0.646,0.766,0.4144
1694638512843750,-9.45679,1.228175,2.292877,0.537,0.1416,0.1144
1694638512851562,-9.45679,1.224175,2.289877,0.64,0.1126,0.2256
1694638512859375,-9.45279,1.237175,2.283877,0.66,0.776,0.944
1694638512867187,-9.45179,1.229175,2.291877,0.731,0.656,0.3956
1694638512875000,-9.45179,1.235175,2.316877,0.769,0.946,0.4056
1694638512882812,-9.45879,1.226175,2.334877,0.694,0.446,0.8756
1694638512890625,-9.46279,1.229175,2.336877,0.703,0.156,0.10456
1694638512898437,-9.45479,1.231175,2.364877,0.706,0.616,0.2356
1694638512906250,-9.44079,1.242175,2.377877,0.787,0.136,0.13756
1694638512914062,-9.42779,1.235175,2.366877,0.772,0.126,0.5656
1694638512921875,-9.41379,1.243175,2.366877,0.788,0.44,0.7356
1694638512929687,-9.40079,1.241175,2.370877,0.771,0.136,0.12056
1694638512937500,-9.40079,1.241175,2.337877,0.788,0.204,0.7356
1694638512945312,-9.40279,1.232175,2.316877,0.77,0.34,0.5656
1694638512953125,-9.41979,1.222175,2.296877,0.714,0.156,0.844
1694638512960937,-9.44479,1.224175,2.276877,0.766,0.514,0.3944
1694638512968750,-9.45479,1.213175,2.278877,0.772,0.54,0.2344
1694638512976562,-9.47379,1.216175,2.276877,0.761,0.156,0.3944
1694638512984375,-9.48279,1.218175,2.276877,0.77,0.26,0.2344
1694638512992187,-9.48979,1.222175,2.264877,0.765,0.136,0.3944
1694638513000000,-9.49179,1.205175,2.267877,0.779,0.476,0.2344
1694638513007812,-9.49679,1.205175,2.267877,0.76,0.316,0.7144
1694638513015625,-9.50079,1.203175,2.285877,0.794,0.476,0.3944
1694638513023437,-9.49979,1.220175,2.285877,0.795,0.246,0.856
1694638513031250,-9.49879,1.203175,2.287877,0.763,0.476,0.3944
1694638513039062,-9.48079,1.211175,2.280877,0.777,0.326,0.2344
1694638513046875,-9.46479,1.216175,2.285877,0.763,0.316,0.3944
1694638513054687,-9.45379,1.217175,2.283877,0.784,0.786,0.856
1694638513062500,-9.46079,1.226175,2.267877,0.771,0.446,0.4056
1694638513070312,-9.44979,1.244175,2.262877,0.814,0.466,0.7256
1694638513078125,-9.42079,1.253175,2.264877,0.874,0.476,0.2556
1694638513085937,-9.41479,1.259175,2.267877,0.1013,0.426,0.5956
1694638513093750,-9.40279,1.261175,2.255877,0.888,0.0,0.4256
1694638513101562,-9.40279,1.259175,2.240877,0.1005,0.136,0.5956
1694638513109375,-9.40279,1.252175,2.247877,0.957,0.34,0.1056
1694638513117187,-9.40379,1.252175,2.233877,0.964,0.1044,0.444
1694638513125000,-9.41279,1.249175,2.254877,0.957,0.1074,0.7556
1694638513132812,-9.45979,1.262175,2.285877,0.887,0.2194,0.2756
1694638513140625,-9.48879,1.260175,2.319877,0.905,0.1724,0.5244
1694638513148437,-9.50679,1.261175,2.296877,0.846,0.1334,0.1056
1694638513156250,-9.51079,1.249175,2.278877,0.857,0.1224,0.1056
1694638513164062,-9.51979,1.249175,2.269877,0.77,0.214,0.3944
1694638513171875,-9.51579,1.251175,2.260877,0.788,0.384,0.2244
1694638513179687,-9.50879,1.240175,2.253877,0.728,0.266,0.756
1694638513187500,-9.49079,1.238175,2.235877,0.741,0.596,0.756
1694638513195312,-9.49079,1.249175,2.330877,0.678,0.946,0.11956
1694638513203125,-9.50379,1.254175,2.312877,0.498,0.1654,0.944
1694638513210937,-9.48579,1.244175,2.208877,0.285,0.874,0.2844
1694638513218750,-9.48579,1.229175,2.318877,0.264,0.1824,0.2056
1694638513226562,-9.46079,1.198175,2.372877,0.276,0.2144,0.4344
1694638513234375,-9.35679,1.145175,1.967877,0.257,0.3504,0.2644
1694638513242187,-9.31879,1.189175,1.895877,0.593,0.1494,0.3956
1694638513250000,-9.40279,1.272175,2.253877,0.1038,0.2964,0.14256
1694638513257812,-9.57079,1.357175,2.447877,0.1039,0.3784,0.20756
1694638513265625,-9.61579,1.389175,2.481877,0.882,0.3624,0.18956
1694638513273437,-9.56079,1.324175,2.384877,0.577,0.2624,0.7256
1694638513281250,-9.44079,1.235175,2.258877,0.354,0.664,0.2744
1694638513289062,-9.35879,1.154175,2.197877,0.253,0.1874,0.18844
1694638513296875,-9.35579,1.149175,2.192877,0.292,0.2654,0.18744
1694638513304687,-9.41279,1.170175,2.215877,0.512,0.2484,0.15244
1694638513312500,-9.44079,1.211175,2.228877,0.531,0.2504,0.20044
1694638513320312,-9.47779,1.246175,2.211877,0.523,0.2694,0.15244
1694638513328125,-9.50479,1.258175,2.199877,0.522,0.1874,0.15344
1694638513335937,-9.49579,1.260175,2.204877,0.517,0.1854,0.20144
1694638513343750,-9.48279,1.225175,2.224877,0.513,0.1334,0.5744
1694638513351562,-9.47179,1.202175,2.228877,0.513,0.854,0.15444
1694638513359375,-9.47179,1.200175,2.220877,0.538,0.1054,0.13744
1694638513367187,-9.48779,1.218175,2.215877,0.58,0.874,0.15344
1694638513375000,-9.49479,1.229175,2.222877,0.742,0.1054,0.10344
1694638513382812,-9.50879,1.236175,2.215877,0.75,0.44,0.15244
1694638513390625,-9.51579,1.240175,2.213877,0.789,0.394,0.8744
1694638513398437,-9.52879,1.241175,2.222877,0.747,0.806,0.2444
1694638513406250,-9.52579,1.239175,2.237877,0.757,0.496,0.8844
1694638513414062,-9.52879,1.218175,2.240877,0.787,0.596,0.3944
1694638513421875,-9.52879,1.223175,2.224877,0.768,0.126,0.2344
1694638513429687,-9.52179,1.225175,2.240877,0.793,0.86,0.2344
1694638513437500,-9.52179,1.232175,2.251877,0.745,0.1456,0.10544
1694638513445312,-9.51279,1.234175,2.255877,0.762,0.1456,0.4044
1694638513453125,-9.49479,1.227175,2.238877,0.782,0.1766,0.4044
1694638513460937,-9.45679,1.231175,2.233877,0.771,0.1746,0.5644
1694638513468750,-9.44379,1.237175,2.226877,0.785,0.2416,0.756
1694638513476562,-9.43479,1.246175,2.224877,0.783,0.1766,0.756
1694638513484375,-9.42079,1.243175,2.247877,0.773,0.1746,0.3956
1694638513492187,-9.40679,1.241175,2.249877,0.781,0.1456,0.2356
1694638513500000,-9.40179,1.244175,2.253877,0.754,0.1496,0.844
1694638513507812,-9.40079,1.237175,2.287877,0.734,0.466,0.844
1694638513515625,-9.42079,1.222175,2.377877,0.671,0.2144,0.3944
1694638513523437,-9.39979,1.205175,2.271877,0.522,0.1044,0.2544
1694638513531250,-9.35479,1.196175,2.222877,0.567,0.374,0.656
1694638513539062,-9.39779,1.230175,2.267877,0.683,0.814,0.8856
1694638513546875,-9.44579,1.259175,2.292877,0.789,0.1844,0.5856
1694638513554687,-9.48379,1.269175,2.285877,0.771,0.1674,0.7456
1694638513562500,-9.50679,1.283175,2.291877,0.782,0.664,0.8956
1694638513570312,-9.49079,1.256175,2.285877,0.718,0.344,0.5656
1694638513578125,-9.48079,1.238175,2.255877,0.546,0.184,0.5456
1694638513585937,-9.49279,1.225175,2.242877,0.609,0.844,0.4044
1694638513593750,-9.50379,1.216175,2.240877,0.703,0.466,0.2444
1694638513601562,-9.50779,1.225175,2.237877,0.622,0.476,0.944
1694638513609375,-9.50179,1.229175,2.219877,0.577,0.34,0.4144
1694638513617187,-9.50379,1.227175,2.215877,0.621,0.0,0.3956
1694638513625000,-9.51079,1.229175,2.222877,0.726,0.606,0.3956
1694638513632812,-9.49879,1.214175,2.222877,0.69,0.296,0.2356
1694638513640625,-9.48379,1.213175,2.228877,0.783,0.34,0.3944
1694638513648437,-9.46479,1.209175,2.246877,0.717,0.646,0.3956
1694638513656250,-9.44779,1.228175,2.251877,0.756,0.286,0.4056
1694638513664062,-9.43179,1.232175,2.258877,0.774,0.606,0.5656
1694638513671875,-9.40979,1.239175,2.265877,0.79,0.54,0.7356
1694638513679687,-9.40479,1.243175,2.274877,0.802,0.126,0.2456
1694638513687500,-9.40679,1.239175,2.287877,0.776,0.0,0.2456
1694638513695312,-9.42779,1.246175,2.294877,0.799,0.126,0.2344
1694638513703125,-9.44279,1.239175,2.292877,0.785,0.364,0.2556
1694638513710937,-9.45079,1.246175,2.287877,0.807,0.394,0.956
1694638513718750,-9.47079,1.240175,2.298877,0.773,0.54,0.744
1694638513726562,-9.47779,1.226175,2.296877,0.763,0.904,0.7144
1694638513734375,-9.48079,1.222175,2.287877,0.766,0.514,0.3944
1694638513742187,-9.49779,1.233175,2.283877,0.788,0.54,0.2344
1694638513750000,-9.49979,1.233175,2.278877,0.789,0.436,0.2456
1694638513757812,-9.50379,1.227175,2.292877,0.739,0.286,0.744
1694638513765625,-9.49779,1.233175,2.287877,0.712,0.426,0.2444
1694638513773437,-9.47179,1.231175,2.289877,0.743,0.336,0.744
1694638513781250,-9.47479,1.224175,2.292877,0.676,0.606,0.844
1694638513789062,-9.44979,1.229175,2.287877,0.669,0.476,0.844
1694638513796875,-9.43879,1.255175,2.287877,0.689,0.306,0.7156
1694638513804687,-9.43679,1.248175,2.294877,0.753,0.34,0.744
1694638513812500,-9.43979,1.264175,2.301877,0.743,0.96,0.2344
1694638513820312,-9.43679,1.257175,2.310877,0.779,0.74,0.5656
1694638513828125,-9.43679,1.264175,2.319877,0.773,0.436,0.856
1694638513835937,-9.44179,1.273175,2.303877,0.783,0.636,0.5656
1694638513843750,-9.43479,1.273175,2.296877,0.77,0.296,0.7256
1694638513851562,-9.42379,1.274175,2.287877,0.856,0.106,0.12156
1694638513859375,-9.41479,1.265175,2.280877,0.1009,0.606,0.7556
1694638513867187,-9.40579,1.257175,2.260877,0.1024,0.456,0.12356
1694638513875000,-9.40279,1.250175,2.244877,0.1037,0.24,0.9156
1694638513882812,-9.40279,1.252175,2.237877,0.1019,0.14,0.9156
1694638513890625,-9.40779,1.250175,2.244877,0.996,0.714,0.2756
1694638513898437,-9.43079,1.261175,2.267877,0.1012,0.1374,0.1256
1694638513906250,-9.44179,1.268175,2.289877,0.1028,0.2184,0.4556
1694638513914062,-9.47579,1.273175,2.287877,0.1044,0.2844,0.244
1694638513921875,-9.50879,1.272175,2.289877,0.1001,0.1164,0.3644
1694638513929687,-9.50279,1.265175,2.278877,0.1024,0.544,0.2044
1694638513937500,-9.49979,1.256175,2.287877,0.901,0.384,0.2656
1694638513945312,-9.48879,1.253175,2.274877,0.962,0.544,0.1156
1694638513953125,-9.46179,1.249175,2.260877,0.847,0.34,0.2556
1694638513960937,-9.47479,1.258175,2.370877,0.865,0.1024,0.2144
1694638513968750,-9.48179,1.256175,2.323877,0.708,0.1194,0.5544
1694638513976562,-9.46079,1.245175,2.215877,0.569,0.1134,0.4044
1694638513984375,-9.45979,1.262175,2.316877,0.518,0.2334,0.5644
1694638513992187,-9.43379,1.246175,2.415877,0.528,0.2314,0.10444
1694638514000000,-9.35279,1.193175,2.75877,0.552,0.3654,0.5544
1694638514007812,-9.31079,1.221175,1.916877,0.868,0.2834,0.2044
1694638514015625,-9.38179,1.314175,2.240877,0.1172,0.2854,0.3156
1694638514023437,-9.54479,1.396175,2.470877,0.126,0.5264,0.11456
1694638514031250,-9.62779,1.424175,2.508877,0.959,0.3144,0.1356
1694638514039062,-9.57079,1.362175,2.433877,0.636,0.2614,0.744
1694638514046875,-9.45279,1.284175,2.314877,0.369,0.1324,0.7544
1694638514054687,-9.37079,1.216175,2.233877,0.466,0.1184,0.17044
1694638514062500,-9.35979,1.202175,2.208877,0.509,0.2374,0.15344
1694638514070312,-9.38779,1.225175,2.231877,0.547,0.2574,0.16844
1694638514078125,-9.43779,1.261175,2.233877,0.607,0.2714,0.8744
1694638514085937,-9.46679,1.268175,2.226877,0.56,0.2714,0.7244
1694638514093750,-9.48679,1.284175,2.213877,0.561,0.2544,0.4044
1694638514101562,-9.49979,1.271175,2.219877,0.516,0.2324,0.5644
1694638514109375,-9.48479,1.242175,2.242877,0.533,0.2404,0.10444
1694638514117187,-9.46579,1.215175,2.258877,0.536,0.1524,0.2444
1694638514125000,-9.45479,1.219175,2.271877,0.554,0.2514,0.4044
1694638514132812,-9.44779,1.232175,2.269877,0.752,0.2224,0.2244
1694638514140625,-9.45679,1.257175,2.265877,0.785,0.2004,0.3744
1694638514148437,-9.45979,1.270175,2.249877,0.776,0.1864,0.2244
1694638514156250,-9.47279,1.273175,2.226877,0.78,0.1984,0.3744
1694638514164062,-9.49579,1.276175,2.215877,0.773,0.1364,0.2244
1694638514171875,-9.49779,1.271175,2.217877,0.783,0.1004,0.956
1694638514179687,-9.50179,1.267175,2.215877,0.756,0.1194,0.956
1694638514187500,-9.51079,1.260175,2.217877,0.772,0.1194,0.2556
1694638514195312,-9.49979,1.262175,2.215877,0.787,0.1024,0.644
1694638514203125,-9.50179,1.258175,2.217877,0.77,0.854,0.5756
1694638514210937,-9.48879,1.258175,2.204877,0.743,0.724,0.3944
1694638514218750,-9.47879,1.256175,2.190877,0.665,0.164,0.2444
1694638514226562,-9.46379,1.255175,2.186877,0.719,0.136,0.844
1694638514234375,-9.46579,1.255175,2.177877,0.783,0.34,0.3944
1694638514242187,-9.47779,1.257175,2.159877,0.741,0.106,0.3944
1694638514250000,-9.47479,1.267175,2.174877,0.781,0.24,0.2344
1694638514257812,-9.47879,1.258175,2.181877,0.757,0.506,0.744
1694638514265625,-9.47779,1.269175,2.168877,0.718,0.466,0.4044
1694638514273437,-9.48679,1.269175,2.247877,0.674,0.364,0.2444
1694638514281250,-9.50679,1.240175,2.274877,0.54,0.1214,0.2544
1694638514289062,-9.44779,1.211175,2.170877,0.517,0.364,0.5844
1694638514296875,-9.40879,1.221175,2.152877,0.564,0.286,0.4244
1694638514304687,-9.45079,1.264175,2.190877,0.775,0.1364,0.5756
1694638514312500,-9.48679,1.275175,2.184877,0.744,0.1034,0.10556
1694638514320312,-9.51379,1.292175,2.217877,0.787,0.524,0.12156
1694638514328125,-9.51179,1.294175,2.242877,0.737,0.994,0.16956
1694638514335937,-9.50079,1.273175,2.227877,0.58,0.914,0.8756
1694638514343750,-9.47979,1.267175,2.217877,0.581,0.204,0.3856
1694638514351562,-9.48179,1.256175,2.199877,0.577,0.184,0.5456
1694638514359375,-9.47979,1.258175,2.197877,0.565,0.854,0.656
1694638514367187,-9.47479,1.247175,2.188877,0.59,0.824,0.844
1694638514375000,-9.46379,1.237175,2.177877,0.6,0.54,0.4144
1694638514382812,-9.47479,1.231175,2.177877,0.65,0.1374,0.2344
1694638514390625,-9.47679,1.222175,2.181877,0.735,0.354,0.744
1694638514398437,-9.48379,1.224175,2.168877,0.69,0.204,0.756
1694638514406250,-9.47479,1.215175,2.172877,0.639,0.254,0.756
1694638514414062,-9.47679,1.213175,2.174877,0.608,0.344,0.3956
1694638514421875,-9.46779,1.229175,2.179877,0.66,0.364,0.3956
1694638514429687,-9.45679,1.239175,2.179877,0.664,0.96,0.5644
1694638514437500,-9.45979,1.253175,2.184877,0.633,0.384,0.5556
1694638514445312,-9.46879,1.264175,2.199877,0.722,0.364,0.4056
1694638514453125,-9.47079,1.262175,2.199877,0.709,0.374,0.5656
1694638514460937,-9.47079,1.269175,2.186877,0.788,0.864,0.7356
1694638514468750,-9.47779,1.271175,2.179877,0.723,0.854,0.5656
1694638514476562,-9.48879,1.269175,2.177877,0.617,0.714,0.756
1694638514484375,-9.48979,1.266175,2.179877,0.597,0.594,0.2356
1694638514492187,-9.51179,1.267175,2.168877,0.585,0.96,0.7344
1694638514500000,-9.51079,1.262175,2.157877,0.646,0.266,0.4144
1694638514507812,-9.51079,1.254175,2.170877,0.685,0.636,0.756
1694638514515625,-9.51079,1.252175,2.159877,0.533,0.456,0.556
1694638514523437,-9.51079,1.241175,2.165877,0.577,0.956,0.4244
1694638514531250,-9.50879,1.238175,2.163877,0.609,0.136,0.2544
1694638514539062,-9.50579,1.218175,2.168877,0.577,0.466,0.4244
1694638514546875,-9.50379,1.218175,2.179877,0.613,0.116,0.4144
1694638514554687,-9.50779,1.214175,2.195877,0.631,0.54,0.2544
1694638514562500,-9.50779,1.218175,2.202877,0.614,0.116,0.944
1694638514570312,-9.51079,1.223175,2.204877,0.663,0.54,0.2444
1694638514578125,-9.51079,1.225175,2.213877,0.726,0.106,0.856
1694638514585937,-9.49479,1.222175,2.222877,0.665,0.64,0.4044
1694638514593750,-9.48379,1.226175,2.231877,0.571,0.96,0.2544
1694638514601562,-9.46579,1.229175,2.240877,0.656,0.24,0.844
1694638514609375,-9.44779,1.249175,2.235877,0.76,0.1146,0.4044
1694638514617187,-9.43679,1.253175,2.231877,0.786,0.446,0.744
1694638514625000,-9.43279,1.263175,2.224877,0.819,0.1416,0.2344
1694638514632812,-9.41179,1.266175,2.213877,0.797,0.1776,0.2356
1694638514640625,-9.42079,1.268175,2.183877,0.983,0.1466,0.4256
1694638514648437,-9.42379,1.272175,2.188877,0.1071,0.1266,0.2756
1694638514656250,-9.42379,1.270175,2.188877,0.1016,0.966,0.3744
1694638514664062,-9.42379,1.268175,2.179877,0.1034,0.296,0.2044
1694638514671875,-9.42379,1.263175,2.184877,0.1057,0.384,0.3644
1694638514679687,-9.43679,1.261175,2.188877,0.1028,0.724,0.2044
1694638514687500,-9.45579,1.264175,2.217877,0.981,0.1214,0.3644
1694638514695312,-9.47479,1.265175,2.224877,0.1,0.1484,0.1944
1694638514703125,-9.50679,1.274175,2.249877,0.99,0.1354,0.3644
1694638514710937,-9.52479,1.265175,2.229877,0.944,0.874,0.8544
1694638514718750,-9.51779,1.265175,2.208877,0.899,0.266,0.7044
1694638514726562,-9.51079,1.260175,2.201877,0.83,0.126,0.7144
1694638514734375,-9.51779,1.258175,2.197877,0.78,0.194,0.10344
1694638514742187,-9.50679,1.258175,2.206877,0.764,0.24,0.8744
1694638514750000,-9.49579,1.264175,2.269877,0.79,0.96,0.2344
1694638514757812,-9.50679,1.276175,2.339877,0.722,0.214,0.7244
1694638514765625,-9.47679,1.267175,2.215877,0.522,0.824,0.13744
1694638514773437,-9.44979,1.257175,2.183877,0.496,0.1024,0.20244
1694638514781250,-9.42579,1.235175,2.325877,0.486,0.1874,0.29844
1694638514789062,-9.35279,1.196175,2.177877,0.454,0.2684,0.24944
1694638514796875,-9.27779,1.172175,1.816877,0.625,0.3324,0.21544
1694638514804687,-9.31279,1.259175,2.6877,0.1051,0.2484,0.5044
1694638514812500,-9.48779,1.355175,2.312877,0.1219,0.4494,0.1544
1694638514820312,-9.62079,1.409175,2.420877,0.1051,0.4934,0.3244
1694638514828125,-9.63879,1.373175,2.382877,0.824,0.3994,0.3544
1694638514835937,-9.54479,1.283175,2.258877,0.466,0.2164,0.20144
1694638514843750,-9.43179,1.203175,2.154877,0.331,0.1064,0.30044
1694638514851562,-9.39979,1.167175,2.105877,0.303,0.2384,0.29944
1694638514859375,-9.44079,1.183175,2.114877,0.496,0.2734,0.24944
1694638514867187,-9.47279,1.226175,2.141877,0.537,0.2534,0.21644
1694638514875000,-9.51779,1.249175,2.145877,0.527,0.2224,0.16944
1694638514882812,-9.53179,1.265175,2.141877,0.536,0.2194,0.13644
1694638514890625,-9.52879,1.265175,2.136877,0.518,0.1694,0.16944
1694638514898437,-9.52379,1.259175,2.152877,0.527,0.674,0.12244
1694638514906250,-9.49079,1.240175,2.186877,0.52,0.394,0.9044
1694638514914062,-9.47479,1.226175,2.211877,0.549,0.1364,0.13744
1694638514921875,-9.46079,1.226175,2.215877,0.537,0.1044,0.8944
1694638514929687,-9.45879,1.246175,2.186877,0.496,0.2154,0.12144
1694638514937500,-9.46179,1.257175,2.174877,0.611,0.1184,0.7244
1694638514945312,-9.46579,1.260175,2.174877,0.687,0.1994,0.10344
1694638514953125,-9.47279,1.258175,2.174877,0.705,0.2154,0.644
1694638514960937,-9.47979,1.260175,2.159877,0.691,0.1834,0.644
1694638514968750,-9.48379,1.242175,2.166877,0.743,0.1214,0.8744
1694638514976562,-9.49579,1.235175,2.159877,0.637,0.1064,0.844
1694638514984375,-9.50879,1.238175,2.163877,0.682,0.884,0.744
1694638514992187,-9.50579,1.236175,2.174877,0.69,0.1024,0.2344
1694638515000000,-9.50579,1.236175,2.174877,0.739,0.214,0.3944
1694638515007812,-9.51279,1.227175,2.177877,0.707,0.214,0.7244
1694638515015625,-9.50379,1.222175,2.170877,0.788,0.106,0.2344
1694638515023437,-9.49879,1.225175,2.147877,0.769,0.524,0.744
1694638515031250,-9.49679,1.218175,2.145877,0.761,0.86,0.3944
1694638515039062,-9.49279,1.216175,2.141877,0.784,0.34,0.2344
1694638515046875,-9.48079,1.231175,2.138877,0.766,0.136,0.856
1694638515054687,-9.48079,1.233175,2.143877,0.764,0.316,0.744
1694638515062500,-9.47979,1.235175,2.159877,0.772,0.54,0.3944
1694638515070312,-9.48179,1.222175,2.213877,0.619,0.1874,0.2344
1694638515078125,-9.47279,1.202175,2.89877,0.526,0.1224,0.7344
1694638515085937,-9.39779,1.194175,2.89877,0.621,0.796,0.8944
1694638515093750,-9.42479,1.224175,2.134877,0.767,0.354,0.2456
1694638515101562,-9.49279,1.254175,2.127877,0.814,0.1644,0.9056
1694638515109375,-9.51779,1.252175,2.134877,0.771,0.1344,0.8956
1694638515117187,-9.54079,1.285175,2.150877,0.795,0.564,0.7356
1694638515125000,-9.51379,1.276175,2.150877,0.791,0.276,0.10456
1694638515132812,-9.51079,1.263175,2.125877,0.69,0.354,0.7256
1694638515140625,-9.54679,1.261175,2.120877,0.686,0.994,0.856
1694638515148437,-9.55579,1.257175,2.120877,0.698,0.974,0.856
1694638515156250,-9.55779,1.246175,2.127877,0.752,0.524,0.5544
1694638515164062,-9.55179,1.247175,2.127877,0.746,0.86,0.856
1694638515171875,-9.53979,1.259175,2.116877,0.722,0.34,0.856
1694638515179687,-9.54679,1.236175,2.109877,0.723,0.116,0.844
1694638515187500,-9.52779,1.221175,2.114877,0.716,0.486,0.5556
1694638515195312,-9.51279,1.221175,2.127877,0.731,0.1146,0.5556
1694638515203125,-9.50979,1.219175,2.120877,0.773,0.836,0.856
1694638515210937,-9.48079,1.222175,2.138877,0.659,0.296,0.2356
1694638515218750,-9.46779,1.229175,2.136877,0.673,0.136,0.3956
1694638515226562,-9.45879,1.233175,2.152877,0.778,0.166,0.4056
1694638515234375,-9.45179,1.240175,2.170877,0.769,0.626,0.5656
1694638515242187,-9.45179,1.244175,2.186877,0.783,0.24,0.5656
1694638515250000,-9.45479,1.246175,2.190877,0.772,0.446,0.7256
1694638515257812,-9.45879,1.242175,2.172877,0.788,0.446,0.7256
1694638515265625,-9.47079,1.244175,2.156877,0.771,0.446,0.856
1694638515273437,-9.48179,1.240175,2.145877,0.79,0.554,0.3844
1694638515281250,-9.48379,1.233175,2.138877,0.755,0.214,0.2344
1694638515289062,-9.49879,1.231175,2.118877,0.687,0.796,0.2444
1694638515296875,-9.49879,1.223175,2.96877,0.747,0.14,0.5544
1694638515304687,-9.51779,1.238175,2.91877,0.717,0.136,0.8844
1694638515312500,-9.51779,1.229175,2.98877,0.737,0.1096,0.8844
1694638515320312,-9.51979,1.232175,2.98877,0.766,0.306,0.856
1694638515328125,-9.53079,1.236175,2.100877,0.781,0.354,0.5544
1694638515335937,-9.53079,1.239175,2.107877,0.686,0.34,0.10444
1694638515343750,-9.52179,1.228175,2.123877,0.761,0.174,0.5544
1694638515351562,-9.53079,1.230175,2.132877,0.665,0.14,0.13644
1694638515359375,-9.51979,1.238175,2.116877,0.627,0.214,0.15344
1694638515367187,-9.50679,1.231175,2.109877,0.606,0.254,0.7344
1694638515375000,-9.49079,1.222175,2.94877,0.665,0.86,0.10444
1694638515382812,-9.48779,1.231175,2.98877,0.736,0.126,0.4044
1694638515390625,-9.49079,1.231175,2.107877,0.721,0.34,0.4044
1694638515398437,-9.50179,1.234175,2.107877,0.746,0.146,0.12044
1694638515406250,-9.51279,1.245175,2.123877,0.785,0.266,0.18444
1694638515414062,-9.51079,1.245175,2.150877,0.785,0.1256,0.13644
1694638515421875,-9.51079,1.231175,2.129877,0.8,0.1756,0.4044
1694638515429687,-9.51079,1.227175,2.123877,0.782,0.1606,0.7244
1694638515437500,-9.49979,1.222175,2.116877,0.961,0.2066,0.5444
1694638515445312,-9.48979,1.220175,2.129877,0.1018,0.2096,0.2556
1694638515453125,-9.48179,1.220175,2.125877,0.1024,0.1576,0.3744
1694638515460937,-9.47479,1.213175,2.107877,0.978,0.926,0.2144
1694638515468750,-9.46979,1.217175,2.98877,0.1038,0.1426,0.3744
1694638515476562,-9.47679,1.204175,2.105877,0.937,0.796,0.5444
1694638515484375,-9.49879,1.200175,2.118877,0.906,0.466,0.3844
1694638515492187,-9.51079,1.205175,2.150877,0.962,0.426,0.6944
1694638515500000,-9.52379,1.214175,2.163877,0.881,0.54,0.10244
1694638515507812,-9.53079,1.214175,2.159877,0.859,0.286,0.18344
1694638515515625,-9.53279,1.203175,2.159877,0.812,0.1106,0.15244
1694638515523437,-9.52379,1.192175,2.154877,0.784,0.1586,0.8844
1694638515531250,-9.50979,1.190175,2.141877,0.744,0.1636,0.4144
1694638515539062,-9.50579,1.192175,2.136877,0.765,0.1776,0.844
1694638515546875,-9.51679,1.205175,2.206877,0.762,0.956,0.15244
1694638515554687,-9.52579,1.210175,2.258877,0.72,0.276,0.18444
1694638515562500,-9.50579,1.198175,2.125877,0.455,0.64,0.20344
1694638515570312,-9.48279,1.193175,2.118877,0.372,0.44,0.20444
1694638515578125,-9.48779,1.173175,2.285877,0.455,0.884,0.23544
1694638515585937,-9.39679,1.123175,2.100877,0.385,0.2224,0.18644
1694638515593750,-9.34879,1.100175,1.760877,0.598,0.1864,0.20044
1694638515601562,-9.38479,1.191175,1.981877,0.998,0.884,0.1156
1694638515609375,-9.54079,1.285175,2.310877,0.1113,0.2144,0.144
1694638515617187,-9.66779,1.334175,2.402877,0.992,0.2824,0.244
1694638515625000,-9.64879,1.289175,2.339877,0.698,0.1704,0.956
1694638515632812,-9.54979,1.210175,2.224877,0.445,0.166,0.5944
1694638515640625,-9.43679,1.128175,2.125877,0.265,0.756,0.17444
1694638515648437,-9.38279,1.99175,2.57877,0.373,0.276,0.17244
1694638515656250,-9.40079,1.114175,2.82877,0.47,0.1204,0.18644
1694638515664062,-9.46179,1.148175,2.100877,0.518,0.724,0.20244
1694638515671875,-9.48279,1.193175,2.89877,0.532,0.224,0.18644
1694638515679687,-9.51079,1.202175,2.94877,0.524,0.244,0.13844
1694638515687500,-9.50979,1.205175,2.82877,0.516,0.1194,0.12144
1694638515695312,-9.50779,1.183175,2.98877,0.528,0.364,0.15444
1694638515703125,-9.50479,1.158175,2.114877,0.519,0.224,0.13844
1694638515710937,-9.49979,1.152175,2.141877,0.526,0.354,0.13844
1694638515718750,-9.49779,1.158175,2.150877,0.518,0.544,0.12244
1694638515726562,-9.50279,1.183175,2.149877,0.616,0.654,0.12144
1694638515734375,-9.51479,1.189175,2.134877,0.785,0.44,0.8744
1694638515742187,-9.52779,1.187175,2.125877,0.766,0.844,0.5544
1694638515750000,-9.53679,1.192175,2.120877,0.786,0.204,0.2344
1694638515757812,-9.54179,1.189175,2.123877,0.793,0.86,0.2344
1694638515765625,-9.53679,1.185175,2.127877,0.768,0.194,0.744
1694638515773437,-9.52279,1.174175,2.123877,0.765,0.24,0.3944
1694638515781250,-9.52379,1.165175,2.134877,0.696,0.64,0.2444
1694638515789062,-9.52579,1.172175,2.136877,0.678,0.106,0.4044
1694638515796875,-9.51879,1.180175,2.145877,0.696,0.266,0.2444
1694638515804687,-9.50779,1.182175,2.143877,0.714,0.576,0.844
1694638515812500,-9.50079,1.173175,2.141877,0.741,0.1256,0.844
1694638515820312,-9.49179,1.185175,2.125877,0.781,0.1616,0.2356
1694638515828125,-9.48979,1.182175,2.125877,0.77,0.2086,0.5556
1694638515835937,-9.49179,1.185175,2.132877,0.846,0.1766,0.856
1694638515843750,-9.48979,1.180175,2.121877,0.839,0.1406,0.744
1694638515851562,-9.49379,1.178175,2.116877,0.753,0.2086,0.2544
1694638515859375,-9.48079,1.193175,2.148877,0.793,0.906,0.856
1694638515867187,-9.49779,1.163175,2.172877,0.637,0.14,0.5744
1694638515875000,-9.45779,1.149175,2.78877,0.533,0.126,0.556
1694638515882812,-9.42879,1.157175,2.112877,0.777,0.1236,0.756
1694638515890625,-9.48279,1.193175,2.166877,0.821,0.116,0.5756
1694638515898437,-9.51079,1.223175,2.168877,0.819,0.204,0.4156
1694638515906250,-9.54679,1.230175,2.177877,0.768,0.194,0.744
1694638515914062,-9.55079,1.234175,2.220877,0.758,0.436,0.4056
1694638515921875,-9.51979,1.214175,2.211877,0.632,0.926,0.3856
1694638515929687,-9.50979,1.196175,2.184877,0.631,0.106,0.2544
1694638515937500,-9.52079,1.185175,2.163877,0.694,0.926,0.844
1694638515945312,-9.52079,1.194175,2.152877,0.607,0.136,0.10544
1694638515953125,-9.51679,1.189175,2.141877,0.665,0.1396,0.7344
1694638515960937,-9.50979,1.189175,2.132877,0.628,0.1266,0.5844
1694638515968750,-9.50479,1.183175,2.118877,0.699,0.1946,0.4144
1694638515976562,-9.49879,1.169175,2.136877,0.773,0.2066,0.5744
1694638515984375,-9.49479,1.171175,2.145877,0.776,0.1566,0.4044
1694638515992187,-9.49179,1.171175,2.145877,0.775,0.2386,0.2544
1694638516000000,-9.50279,1.165175,2.161877,0.764,0.1616,0.4044
1694638516007812,-9.49179,1.173175,2.184877,0.771,0.1746,0.4044
1694638516015625,-9.47879,1.175175,2.181877,0.769,0.2416,0.2544
1694638516023437,-9.47879,1.184175,2.199877,0.787,0.2076,0.844
1694638516031250,-9.47479,1.184175,2.199877,0.775,0.2056,0.4044
1694638516039062,-9.47379,1.175175,2.202877,0.79,0.916,0.2344
1694638516046875,-9.47379,1.175175,2.195877,0.775,0.96,0.744
1694638516054687,-9.47579,1.178175,2.201877,0.767,0.1276,0.2444
1694638516062500,-9.48079,1.171175,2.202877,0.713,0.64,0.856
1694638516070312,-9.48779,1.180175,2.195877,0.704,0.1436,0.4144
1694638516078125,-9.49879,1.182175,2.183877,0.644,0.1096,0.2544
1694638516085937,-9.49379,1.189175,2.181877,0.766,0.616,0.8844
1694638516093750,-9.49879,1.196175,2.177877,0.706,0.1096,0.5744
1694638516101562,-9.49679,1.182175,2.179877,0.737,0.1426,0.5644
1694638516109375,-9.49679,1.189175,2.172877,0.78,0.1776,0.2444
1694638516117187,-9.48979,1.195175,2.170877,0.68,0.1076,0.2544
1694638516125000,-9.47379,1.189175,2.159877,0.664,0.1076,0.4144
1694638516132812,-9.45879,1.179175,2.159877,0.603,0.1726,0.5844
1694638516140625,-9.45179,1.177175,2.166877,0.638,0.1046,0.8944
1694638516148437,-9.45179,1.188175,2.170877,0.673,0.104,0.5644
1694638516156250,-9.46979,1.182175,2.179877,0.618,0.96,0.2544
1694638516164062,-9.46679,1.173175,2.168877,0.689,0.34,0.4044
1694638516171875,-9.46679,1.184175,2.156877,0.676,0.116,0.4044
1694638516179687,-9.47679,1.188175,2.159877,0.701,0.406,0.756
1694638516187500,-9.47179,1.177175,2.163877,0.73,0.426,0.8856
1694638516195312,-9.48979,1.176175,2.172877,0.804,0.926,0.2456
1694638516203125,-9.50579,1.178175,2.170877,0.728,0.1086,0.2356
1694638516210937,-9.50979,1.176175,2.190877,0.689,0.296,0.2444
1694638516218750,-9.50979,1.172175,2.199877,0.721,0.786,0.2356
1694638516226562,-9.51679,1.171175,2.199877,0.759,0.586,0.2444
1694638516234375,-9.52079,1.172175,2.197877,0.774,0.1086,0.4044
1694638516242187,-9.50779,1.171175,2.193877,0.772,0.1746,0.756
1694638516250000,-9.51179,1.160175,2.179877,0.822,0.1576,0.4056
1694638516257812,-9.50479,1.156175,2.168877,0.843,0.1626,0.10456
1694638516265625,-9.49179,1.162175,2.159877,0.901,0.1086,0.4156
1694638516273437,-9.48079,1.167175,2.152877,0.94,0.456,0.544
1694638516281250,-9.47179,1.164175,2.143877,0.98,0.766,0.9056
1694638516289062,-9.48079,1.164175,2.143877,0.865,0.1266,0.5656
1694638516296875,-9.48679,1.169175,2.172877,0.768,0.456,0.856
1694638516304687,-9.50279,1.185175,2.217877,0.785,0.34,0.4056
1694638516312500,-9.51179,1.185175,2.253877,0.763,0.166,0.7256
1694638516320312,-9.52779,1.188175,2.269877,0.781,0.156,0.5656
1694638516328125,-9.52179,1.191175,2.249877,0.778,0.586,0.4056
1694638516335937,-9.49279,1.189175,2.238877,0.686,0.1556,0.7056
1694638516343750,-9.48779,1.196175,2.229877,0.708,0.1596,0.5456
1694638516351562,-9.46479,1.193175,2.215877,0.641,0.1616,0.7056
1694638516359375,-9.44279,1.184175,2.220877,0.599,0.1596,0.8556
1694638516367187,-9.43779,1.211175,2.312877,0.61,0.136,0.3856
1694638516375000,-9.44279,1.199175,2.276877,0.412,0.714,0.2644
1694638516382812,-9.40379,1.163175,2.154877,0.262,0.1174,0.4444
1694638516390625,-9.41279,1.148175,2.231877,0.26,0.2144,0.5944
1694638516398437,-9.40079,1.128175,2.316877,0.283,0.2504,0.4344
1694638516406250,-9.33679,1.80175,1.990877,0.259,0.3294,0.13944
1694638516414062,-9.34479,1.116175,1.879877,0.647,0.2504,0.644
1694638516421875,-9.44979,1.211175,2.204877,0.1026,0.2824,0.10956
1694638516429687,-9.64179,1.300175,2.420877,0.979,0.4934,0.19156
1694638516437500,-9.70879,1.299175,2.438877,0.705,0.3454,0.9056
1694638516445312,-9.65179,1.223175,2.332877,0.442,0.1034,0.556
1694638516453125,-9.53779,1.139175,2.185877,0.146,0.0,0.7844
1694638516460937,-9.44079,1.80175,2.114877,0.155,0.116,0.11044
1694638516468750,-9.43179,1.68175,2.114877,0.335,0.584,0.17244
1694638516476562,-9.47079,1.104175,2.156877,0.428,0.1704,0.7444
1694638516484375,-9.50679,1.147175,2.181877,0.504,0.704,0.2544
1694638516492187,-9.51179,1.163175,2.179877,0.403,0.674,0.4344
1694638516500000,-9.50979,1.180175,2.186877,0.517,0.694,0.4144
1694638516507812,-9.49479,1.187175,2.181877,0.538,0.554,0.2544
1694638516515625,-9.47279,1.158175,2.185877,0.507,0.166,0.5844
1694638516523437,-9.45779,1.133175,2.208877,0.52,0.1034,0.4144
1694638516531250,-9.44179,1.146175,2.215877,0.555,0.256,0.2644
1694638516539062,-9.45179,1.162175,2.215877,0.759,0.1044,0.3844
1694638516546875,-9.46279,1.189175,2.226877,0.755,0.1194,0.2244
1694638516554687,-9.45379,1.186175,2.226877,0.773,0.874,0.3844
1694638516562500,-9.45579,1.177175,2.219877,0.784,0.524,0.2244
1694638516570312,-9.46779,1.179175,2.204877,0.794,0.894,0.644
1694638516578125,-9.47579,1.160175,2.175877,0.772,0.384,0.3944
1694638516585937,-9.48679,1.145175,2.161877,0.786,0.286,0.2344
1694638516593750,-9.49579,1.149175,2.165877,0.739,0.524,0.5656
1694638516601562,-9.51379,1.145175,2.181877,0.732,0.316,0.844
1694638516609375,-9.52779,1.147175,2.192877,0.786,0.214,0.3944
1694638516617187,-9.53179,1.147175,2.208877,0.779,0.76,0.3944
1694638516625000,-9.53679,1.154175,2.213877,0.772,0.106,0.2344
1694638516632812,-9.53679,1.154175,2.213877,0.801,0.936,0.3944
1694638516640625,-9.52279,1.167175,2.199877,0.831,0.1116,0.856
1694638516648437,-9.52579,1.163175,2.195877,0.774,0.2226,0.2356
1694638516656250,-9.52979,1.163175,2.190877,0.774,0.2396,0.656
1694638516664062,-9.52979,1.165175,2.213877,0.811,0.2046,0.7156
1694638516671875,-9.54179,1.176175,2.242877,0.838,0.1576,0.5656
1694638516679687,-9.52579,1.170175,2.294877,0.71,0.1416,0.3856
1694638516687500,-9.50979,1.145175,2.217877,0.553,0.106,0.2644
1694638516695312,-9.41879,1.137175,2.156877,0.531,0.1116,0.2156
1694638516703125,-9.41979,1.170175,2.242877,0.779,0.256,0.8856
1694638516710937,-9.47679,1.226175,2.267877,0.796,0.96,0.16956
1694638516718750,-9.50379,1.238175,2.269877,0.777,0.446,0.23356
1694638516726562,-9.49979,1.247175,2.289877,0.792,0.936,0.21656
1694638516734375,-9.44779,1.226175,2.287877,0.645,0.76,0.19956
1694638516742187,-9.42279,1.192175,2.240877,0.748,0.436,0.21656
1694638516750000,-9.41279,1.181175,2.224877,0.789,0.306,0.23356
1694638516757812,-9.41379,1.179175,2.226877,0.795,0.436,0.23356
1694638516765625,-9.42879,1.168175,2.193877,0.846,0.256,0.20156
1694638516773437,-9.43779,1.170175,2.174877,0.818,0.34,0.10556
1694638516781250,-9.44079,1.168175,2.163877,0.967,0.64,0.9156
1694638516789062,-9.46079,1.166175,2.161877,0.892,0.1064,0.9156
1694638516796875,-9.46679,1.159175,2.150877,0.908,0.244,0.12256
1694638516804687,-9.47779,1.151175,2.163877,0.887,0.874,0.9056
1694638516812500,-9.48979,1.153175,2.186877,0.1002,0.1224,0.10856
1694638516820312,-9.49379,1.156175,2.163877,0.994,0.694,0.15656
1694638516828125,-9.49679,1.169175,2.154877,0.1046,0.884,0.9256
1694638516835937,-9.50979,1.180175,2.156877,0.1024,0.854,0.9256
1694638516843750,-9.50979,1.190175,2.179877,0.1015,0.484,0.12456
1694638516851562,-9.52579,1.214175,2.199877,0.1073,0.204,0.12456
1694638516859375,-9.53979,1.223175,2.213877,0.114,0.554,0.9356
1694638516867187,-9.51979,1.227175,2.204877,0.1052,0.24,0.7656
1694638516875000,-9.51479,1.225175,2.186877,0.1038,0.34,0.5956
1694638516882812,-9.51079,1.227175,2.181877,0.1023,0.524,0.7656
1694638516890625,-9.51279,1.229175,2.184877,0.1043,0.106,0.5956
1694638516898437,-9.50579,1.240175,2.179877,0.927,0.1116,0.10556
1694638516906250,-9.50279,1.260175,2.181877,0.982,0.96,0.5956
1694638516914062,-9.49179,1.262175,2.188877,0.1001,0.726,0.1056
1694638516921875,-9.48379,1.262175,2.195877,0.991,0.436,0.3744
1694638516929687,-9.46679,1.259175,2.206877,0.901,0.64,0.4256
1694638516937500,-9.45679,1.253175,2.206877,0.814,0.466,0.7256
1694638516945312,-9.45279,1.252175,2.199877,0.905,0.256,0.10656
1694638516953125,-9.44379,1.244175,2.197877,0.823,0.756,0.8856
1694638516960937,-9.44379,1.243175,2.188877,0.845,0.246,0.12156
1694638516968750,-9.44779,1.255175,2.202877,0.854,0.116,0.13756
1694638516976562,-9.44579,1.250175,2.211877,0.852,0.694,0.12256
1694638516984375,-9.45279,1.257175,2.217877,0.874,0.1874,0.7556
1694638516992187,-9.45279,1.264175,2.199877,0.794,0.2194,0.7456
1694638517000000,-9.45979,1.266175,2.193877,0.794,0.1374,0.12256
1694638517007812,-9.47379,1.259175,2.193877,0.782,0.1554,0.7456
1694638517015625,-9.47479,1.257175,2.195877,0.791,0.1364,0.5856
1694638517023437,-9.48679,1.255175,2.197877,0.801,0.1894,0.9056
1694638517031250,-9.49079,1.244175,2.190877,0.773,0.864,0.7356
1694638517039062,-9.50879,1.256175,2.186877,0.79,0.1204,0.2556
1694638517046875,-9.49479,1.247175,2.150877,0.832,0.524,0.956
1694638517054687,-9.49279,1.224175,2.141877,0.994,0.704,0.7556
1694638517062500,-9.49079,1.235175,2.118877,0.1045,0.214,0.14056
1694638517070312,-9.49279,1.236175,2.114877,0.1019,0.184,0.7556
1694638517078125,-9.49779,1.227175,2.123877,0.1045,0.1364,0.10956
1694638517085937,-9.48779,1.227175,2.127877,0.1024,0.1514,0.9256
1694638517093750,-9.49279,1.229175,2.136877,0.1029,0.1204,0.12456
1694638517101562,-9.48379,1.213175,2.125877,0.1052,0.1884,0.10956
1694638517109375,-9.47479,1.233175,2.150877,0.1027,0.1844,0.9356
1694638517117187,-9.48879,1.251175,2.181877,0.1053,0.2704,0.12656
1694638517125000,-9.50179,1.249175,2.184877,0.1014,0.2514,0.10956
1694638517132812,-9.51279,1.247175,2.161877,0.897,0.2154,0.9156
1694638517140625,-9.49779,1.229175,2.118877,0.871,0.1374,0.5856
1694638517148437,-9.47879,1.227175,2.136877,0.88,0.1344,0.5856
1694638517156250,-9.47079,1.237175,2.118877,0.893,0.1884,0.10756
1694638517164062,-9.44379,1.248175,2.80877,0.778,0.2194,0.5856
1694638517171875,-9.43079,1.270175,2.98877,0.789,0.1354,0.7456
1694638517179687,-9.44879,1.275175,2.188877,0.662,0.2494,0.7356
1694638517187500,-9.47779,1.271175,2.100877,0.445,0.4304,0.2456
1694638517195312,-9.45779,1.268175,2.10877,0.173,0.4694,0.4244
1694638517203125,-9.47479,1.262175,2.159877,0.144,0.5124,0.5844
1694638517210937,-9.46079,1.222175,2.157877,0.83,0.5644,0.17144
1694638517218750,-9.42279,1.181175,1.776877,0.151,0.5814,0.2644
1694638517226562,-9.40279,1.245175,1.870877,0.634,0.4464,0.5856
1694638517234375,-9.55479,1.347175,2.197877,0.985,0.5284,0.22356
1694638517242187,-9.71779,1.417175,2.305877,0.859,0.5124,0.20556
1694638517250000,-9.72179,1.370175,2.251877,0.539,0.3654,0.7256
1694638517257812,-9.61479,1.266175,2.118877,0.188,0.2894,0.1144
1694638517265625,-9.50079,1.180175,2.1877,0.23,0.2534,0.6244
1694638517273437,-9.43079,1.130175,1.972877,0.35,0.2694,0.15844
1694638517281250,-9.45079,1.142175,1.997877,0.221,0.3504,0.13944
1694638517289062,-9.48579,1.180175,2.37877,0.34,0.3684,0.4144
1694638517296875,-9.50879,1.229175,2.42877,0.336,0.3174,0.656
1694638517304687,-9.51279,1.258175,2.44877,0.316,0.3154,0.556
1694638517312500,-9.50879,1.269175,2.44877,0.429,0.2354,0.944
1694638517320312,-9.50679,1.271175,2.51877,0.422,0.1994,0.4144
1694638517328125,-9.49479,1.251175,2.75877,0.521,0.2344,0.2444
1694638517335937,-9.48579,1.231175,2.87877,0.507,0.2014,0.5556
1694638517343750,-9.48979,1.227175,2.116877,0.534,0.2174,0.4044
1694638517351562,-9.49779,1.251175,2.120877,0.519,0.2174,0.2444
1694638517359375,-9.50179,1.263175,2.109877,0.53,0.2144,0.756
1694638517367187,-9.50279,1.271175,2.82877,0.637,0.2044,0.744
1694638517375000,-9.50879,1.267175,2.66877,0.617,0.1364,0.844
1694638517382812,-9.51279,1.254175,2.46877,0.537,0.1684,0.3956
1694638517390625,-9.52479,1.254175,2.39877,0.518,0.1514,0.4144
1694638517398437,-9.53979,1.243175,2.44877,0.617,0.1364,0.2444
1694638517406250,-9.55779,1.245175,2.33877,0.709,0.1044,0.8744
1694638517414062,-9.56079,1.239175,2.51877,0.573,0.904,0.7344
1694638517421875,-9.55779,1.237175,2.69877,0.559,0.184,0.7344
1694638517429687,-9.55179,1.252175,2.57877,0.691,0.44,0.7244
1694638517437500,-9.53979,1.238175,2.42877,0.584,0.224,0.2544
1694638517445312,-9.52879,1.245175,2.17877,0.738,0.446,0.4044
1694638517453125,-9.51579,1.258175,2.30877,0.788,0.54,0.2344
1694638517460937,-9.53179,1.258175,2.44877,0.771,0.446,0.4056
1694638517468750,-9.52279,1.265175,2.60877,0.794,0.586,0.7256
1694638517476562,-9.53579,1.265175,2.55877,0.768,0.1276,0.3956
1694638517484375,-9.52279,1.265175,2.91877,0.794,0.1226,0.844
1694638517492187,-9.51079,1.240175,2.118877,0.696,0.64,0.2444
1694638517500000,-9.44779,1.195175,1.956877,0.51,0.246,0.4244
1694638517507812,-9.38679,1.194175,1.974877,0.73,0.746,0.756
1694638517515625,-9.45979,1.253175,2.102877,0.868,0.1344,0.10756
1694638517523437,-9.52279,1.301175,2.132877,0.897,0.1834,0.9156
1694638517531250,-9.55179,1.317175,2.116877,0.766,0.994,0.8956
1694638517539062,-9.56579,1.312175,2.112877,0.791,0.116,0.13756
1694638517546875,-9.52279,1.301175,2.120877,0.736,0.354,0.2456
1694638517554687,-9.51079,1.274175,2.98877,0.69,0.34,0.844
1694638517562500,-9.51579,1.263175,2.78877,0.737,0.194,0.856
1694638517570312,-9.51079,1.254175,2.80877,0.769,0.34,0.2456
1694638517578125,-9.51079,1.243175,2.46877,0.785,0.136,0.4056
1694638517585937,-9.51079,1.260175,2.39877,0.757,0.54,0.744
1694638517593750,-9.51179,1.246175,2.35877,0.781,0.396,0.3944
1694638517601562,-9.51779,1.236175,2.33877,0.787,0.446,0.2456
1694638517609375,-9.50179,1.254175,2.46877,0.767,0.24,0.4056
1694638517617187,-9.51079,1.245175,2.60877,0.764,0.146,0.744
1694638517625000,-9.50579,1.254175,2.66877,0.777,0.0,0.7256
1694638517632812,-9.49279,1.262175,2.71877,0.798,0.146,0.2456
1694638517640625,-9.48179,1.266175,2.71877,0.776,0.266,0.7256
1694638517648437,-9.47979,1.269175,2.78877,0.82,0.44,0.8956
1694638517656250,-9.47479,1.280175,2.87877,0.879,0.146,0.13856
1694638517664062,-9.48179,1.282175,2.80877,0.835,0.44,0.8956
1694638517671875,-9.49179,1.291175,2.75877,0.774,0.116,0.5656
1694638517679687,-9.49079,1.271175,2.71877,0.79,0.214,0.7356
1694638517687500,-9.50779,1.273175,2.73877,0.783,0.584,0.5756
1694638517695312,-9.50479,1.273175,2.71877,0.857,0.234,0.5756
1694638517703125,-9.51379,1.271175,2.73877,0.817,0.204,0.3844
1694638517710937,-9.53179,1.287175,2.71877,0.829,0.354,0.644
1694638517718750,-9.52779,1.291175,2.71877,0.792,0.256,0.5544
1694638517726562,-9.52979,1.287175,2.48877,0.771,0.436,0.5544
1694638517734375,-9.52779,1.289175,2.40877,0.776,0.416,0.5544
1694638517742187,-9.52079,1.274175,2.24877,0.772,0.106,0.2344
1694638517750000,-9.51479,1.263175,2.32877,0.761,0.0,0.3944
1694638517757812,-9.49579,1.258175,2.44877,0.77,0.116,0.3944
1694638517765625,-9.50379,1.260175,2.42877,0.765,0.626,0.2344
1694638517773437,-9.49479,1.258175,2.46877,0.766,0.354,0.3944
1694638517781250,-9.48179,1.262175,2.57877,0.769,0.214,0.7144
1694638517789062,-9.47479,1.269175,2.53877,0.766,0.136,0.2344
1694638517796875,-9.47479,1.271175,2.35877,0.78,0.344,0.744
1694638517804687,-9.47979,1.276175,2.42877,0.763,0.184,0.3944
1694638517812500,-9.49079,1.294175,2.55877,0.779,0.344,0.3944
1694638517820312,-9.48879,1.293175,2.51877,0.767,0.684,0.956
1694638517828125,-9.50679,1.294175,2.69877,0.815,0.24,0.7356
1694638517835937,-9.52279,1.294175,2.53877,0.837,0.154,0.3844
1694638517843750,-9.52079,1.294175,2.48877,0.786,0.116,0.2344
1694638517851562,-9.51379,1.289175,2.64877,0.784,0.34,0.744
1694638517859375,-9.51079,1.285175,2.66877,0.808,0.156,0.3944
1694638517867187,-9.51179,1.289175,2.46877,0.866,0.606,0.2244
1694638517875000,-9.51179,1.287175,2.30877,0.1023,0.766,0.3744
1694638517882812,-9.50979,1.293175,2.24877,0.982,0.1226,0.2144
1694638517890625,-9.50679,1.302175,2.26877,0.1033,0.1116,0.6944
1694638517898437,-9.50979,1.304175,2.24877,0.1092,0.1066,0.444
1694638517906250,-9.50279,1.307175,2.24877,0.1037,0.1436,0.4256
1694638517914062,-9.49379,1.295175,2.15877,0.1021,0.946,0.2656
1694638517921875,-9.48879,1.298175,2.3877,0.1038,0.34,0.5956
1694638517929687,-9.49879,1.300175,2.28877,0.1009,0.116,0.5956
1694638517937500,-9.51879,1.300175,2.69877,0.1006,0.364,0.1156
1694638517945312,-9.53879,1.299175,2.107877,0.984,0.334,0.1156
1694638517953125,-9.54979,1.296175,2.91877,0.987,0.296,0.5344
1694638517960937,-9.54479,1.296175,2.78877,0.957,0.296,0.2656
1694638517968750,-9.52079,1.294175,2.71877,0.914,0.606,0.2556
1694638517976562,-9.52379,1.305175,2.73877,0.901,0.1406,0.3944
1694638517984375,-9.49879,1.307175,2.62877,0.77,0.616,0.856
1694638517992187,-9.47579,1.298175,2.37877,0.783,0.296,0.3944
1694638518000000,-9.46679,1.315175,2.100877,0.778,0.146,0.5544
1694638518007812,-9.47779,1.313175,2.147877,0.745,0.1154,0.7144
1694638518015625,-9.46679,1.288175,2.6877,0.486,0.1364,0.17044
1694638518023437,-9.46179,1.273175,2.3877,0.37,0.1504,0.13944
1694638518031250,-9.46679,1.253175,2.186877,0.336,0.2714,0.20244
1694638518039062,-9.39079,1.194175,1.897877,0.307,0.2484,0.18744
1694638518046875,-9.34879,1.224175,1.679877,0.658,0.2664,0.13544
1694638518054687,-9.42179,1.312175,1.974877,0.1124,0.2624,0.144
1694638518062500,-9.61379,1.418175,2.219877,0.1202,0.3574,0.14456
1694638518070312,-9.70679,1.428175,2.274877,0.885,0.3004,0.2856
1694638518078125,-9.67879,1.363175,2.208877,0.614,0.1194,0.4044
1694638518085937,-9.55779,1.261175,2.44877,0.356,0.204,0.10844
1694638518093750,-9.43479,1.180175,1.949877,0.206,0.806,0.19044
1694638518101562,-9.43579,1.170175,1.918877,0.312,0.1684,0.15544
1694638518109375,-9.48379,1.204175,1.949877,0.414,0.1074,0.18744
1694638518117187,-9.53379,1.259175,1.985877,0.527,0.1024,0.21844
1694638518125000,-9.56979,1.274175,1.988877,0.481,0.1254,0.20244
1694638518132812,-9.56579,1.294175,1.970877,0.503,0.544,0.9044
1694638518140625,-9.55179,1.285175,1.981877,0.442,0.96,0.9144
1694638518148437,-9.53379,1.265175,2.8877,0.377,0.54,0.10844
1694638518156250,-9.51579,1.253175,2.17877,0.491,0.586,0.9144
1694638518164062,-9.50379,1.240175,2.30877,0.503,0.276,0.4244
1694638518171875,-9.48679,1.246175,2.35877,0.587,0.84,0.8944
1694638518179687,-9.49579,1.262175,2.35877,0.601,0.96,0.7344
1694638518187500,-9.49379,1.273175,2.10877,0.662,0.266,0.5644
1694638518195312,-9.49979,1.273175,1.997877,0.678,0.54,0.5644
1694638518203125,-9.51979,1.267175,2.10877,0.626,0.126,0.4144
1694638518210937,-9.53779,1.256175,1.999877,0.631,0.54,0.2544
1694638518218750,-9.54679,1.254175,2.8877,0.752,0.126,0.3944
1694638518226562,-9.56079,1.254175,2.22877,0.683,0.74,0.2444
1694638518234375,-9.57179,1.259175,2.26877,0.633,0.1076,0.944
1694638518242187,-9.56679,1.239175,2.39877,0.613,0.936,0.2544
1694638518250000,-9.56679,1.255175,2.26877,0.607,0.1606,0.9044
1694638518257812,-9.57379,1.243175,2.28877,0.631,0.2056,0.5844
1694638518265625,-9.55379,1.234175,2.35877,0.729,0.1566,0.2544
1694638518273437,-9.53779,1.231175,2.22877,0.699,0.2046,0.2544
1694638518281250,-9.53079,1.218175,2.19877,0.717,0.3016,0.1044
1694638518289062,-9.52579,1.216175,2.24877,0.771,0.2236,0.4144
1694638518296875,-9.51279,1.207175,2.15877,0.788,0.2886,0.2544
1694638518304687,-9.51979,1.222175,2.12877,0.773,0.1736,0.4044
1694638518312500,-9.52879,1.218175,2.37877,0.784,0.2246,0.2444
1694638518320312,-9.51079,1.209175,2.87877,0.632,0.746,0.5744
1694638518328125,-9.48979,1.177175,1.983877,0.514,0.536,0.17144
1694638518335937,-9.41579,1.192175,1.965877,0.597,0.2066,0.9144
1694638518343750,-9.44979,1.221175,2.57877,0.789,0.766,0.2456
1694638518351562,-9.50679,1.265175,2.78877,0.785,0.34,0.4056
1694638518359375,-9.55579,1.286175,2.69877,0.75,0.956,0.844
1694638518367187,-9.56579,1.301175,2.80877,0.743,0.1246,0.2356
1694638518375000,-9.54279,1.285175,2.69877,0.631,0.1906,0.2156
1694638518382812,-9.52679,1.247175,2.48877,0.612,0.786,0.2256
1694638518390625,-9.52879,1.239175,2.41877,0.699,0.1456,0.4144
1694638518398437,-9.53579,1.252175,2.33877,0.751,0.1926,0.2544
1694638518406250,-9.53779,1.249175,2.42877,0.729,0.1726,0.2544
1694638518414062,-9.54679,1.238175,2.10877,0.716,0.2686,0.5844
1694638518421875,-9.53779,1.223175,2.6877,0.804,0.2226,0.5644
1694638518429687,-9.54879,1.216175,2.3877,0.805,0.2376,0.8944
1694638518437500,-9.52879,1.202175,2.28877,0.776,0.3026,0.7344
1694638518445312,-9.52379,1.196175,2.35877,0.799,0.3226,0.5744
1694638518453125,-9.52779,1.187175,2.35877,0.835,0.3376,0.4144
1694638518460937,-9.51079,1.189175,2.40877,0.825,0.2706,0.844
1694638518468750,-9.51179,1.198175,2.57877,0.885,0.3256,0.10444
1694638518476562,-9.51079,1.202175,2.78877,0.823,0.3186,0.8944
1694638518484375,-9.49979,1.204175,2.94877,0.995,0.2546,0.2244
1694638518492187,-9.48879,1.215175,2.114877,0.824,0.2046,0.5644
1694638518500000,-9.48779,1.211175,2.118877,0.927,0.1916,0.5544
1694638518507812,-9.48779,1.193175,2.116877,0.922,0.1606,0.11944
1694638518515625,-9.50079,1.187175,2.118877,0.817,0.1736,0.18444
1694638518523437,-9.50979,1.187175,2.116877,0.81,0.2416,0.20144
1694638518531250,-9.51179,1.181175,2.98877,0.824,0.2756,0.16944
1694638518539062,-9.52379,1.187175,2.96877,0.849,0.2556,0.15244
1694638518546875,-9.52379,1.187175,2.107877,0.853,0.2696,0.15244
1694638518554687,-9.52379,1.191175,2.112877,0.884,0.2536,0.20044
1694638518562500,-9.52379,1.194175,2.118877,0.939,0.3056,0.21644
1694638518570312,-9.52179,1.200175,2.118877,0.83,0.2886,0.20144
1694638518578125,-9.49679,1.196175,2.120877,0.765,0.2736,0.18644
1694638518585937,-9.48279,1.196175,2.123877,0.807,0.3246,0.20144
1694638518593750,-9.47879,1.198175,2.143877,0.763,0.2576,0.20144
1694638518601562,-9.48579,1.206175,2.136877,0.785,0.2716,0.18544
1694638518609375,-9.48079,1.209175,2.120877,0.765,0.2736,0.20244
1694638518617187,-9.47179,1.215175,2.118877,0.783,0.1586,0.13644
1694638518625000,-9.46479,1.220175,2.114877,0.761,0.1616,0.8844
1694638518632812,-9.46779,1.215175,2.116877,0.766,0.2746,0.2544
1694638518640625,-9.47679,1.224175,2.132877,0.765,0.2416,0.7344
1694638518648437,-9.47479,1.222175,2.134877,0.779,0.1776,0.7244
1694638518656250,-9.46979,1.220175,2.139877,0.771,0.2726,0.2544
1694638518664062,-9.46279,1.215175,2.136877,0.763,0.3246,0.4144
1694638518671875,-9.47479,1.226175,2.132877,0.784,0.2416,0.2544
1694638518679687,-9.47279,1.229175,2.120877,0.766,0.2096,0.4144
1694638518687500,-9.48379,1.222175,2.132877,0.8,0.2576,0.2544
1694638518695312,-9.48779,1.231175,2.139877,0.849,0.1586,0.3944
1694638518703125,-9.49479,1.222175,2.127877,0.825,0.2206,0.2444
1694638518710937,-9.50779,1.216175,2.120877,0.831,0.2416,0.4044
1694638518718750,-9.51279,1.220175,2.107877,0.1002,0.3246,0.856
1694638518726562,-9.51079,1.216175,2.120877,0.974,0.2746,0.8956
1694638518734375,-9.51679,1.212175,2.134877,0.102,0.2906,0.2556
1694638518742187,-9.51479,1.210175,2.138877,0.965,0.2786,0.4056
1694638518750000,-9.51079,1.193175,2.148877,0.1043,0.2386,0.4256
1694638518757812,-9.49479,1.187175,2.141877,0.947,0.2566,0.5656
1694638518765625,-9.50379,1.187175,2.193877,0.1028,0.1736,0.4256
1694638518773437,-9.50979,1.194175,2.226877,0.1006,0.1756,0.2244
1694638518781250,-9.51279,1.203175,2.242877,0.908,0.2916,0.856
1694638518789062,-9.50379,1.196175,2.224877,0.93,0.2556,0.856
1694638518796875,-9.48779,1.202175,2.195877,0.804,0.2716,0.4144
1694638518804687,-9.48379,1.200175,2.202877,0.792,0.4016,0.1044
1694638518812500,-9.48079,1.211175,2.199877,0.815,0.3726,0.2544
1694638518820312,-9.45679,1.211175,2.208877,0.771,0.4206,0.2156
1694638518828125,-9.45179,1.226175,2.269877,0.803,0.3876,0.7056
1694638518835937,-9.46579,1.240175,2.334877,0.672,0.2586,0.1044
1694638518843750,-9.43879,1.232175,2.220877,0.504,0.2066,0.4444
1694638518851562,-9.40679,1.221175,2.186877,0.425,0.1246,0.12444
1694638518859375,-9.41679,1.228175,2.346877,0.289,0.76,0.12544
1694638518867187,-9.35679,1.182175,2.213877,0.33,0.724,0.20444
1694638518875000,-9.30079,1.164175,1.852877,0.497,0.694,0.13844
1694638518882812,-9.34979,1.260175,2.51877,0.866,0.44,0.4156
1694638518890625,-9.52179,1.358175,2.350877,0.1071,0.1184,0.7756
1694638518898437,-9.67779,1.407175,2.447877,0.93,0.2174,0.4456
1694638518906250,-9.65679,1.356175,2.420877,0.601,0.714,0.844
1694638518914062,-9.56479,1.264175,2.287877,0.417,0.636,0.6044
1694638518921875,-9.44079,1.177175,2.195877,0.237,0.1066,0.19044
1694638518929687,-9.37679,1.127175,2.150877,0.269,0.576,0.20644
1694638518937500,-9.40579,1.141175,2.152877,0.312,0.106,0.18944
1694638518945312,-9.43579,1.179175,2.186877,0.471,0.64,0.20344
1694638518953125,-9.45179,1.210175,2.188877,0.361,0.96,0.18844
1694638518960937,-9.46379,1.224175,2.166877,0.477,0.76,0.13944
1694638518968750,-9.46779,1.217175,2.181877,0.46,0.74,0.7544
1694638518976562,-9.46279,1.193175,2.186877,0.553,0.106,0.944
1694638518984375,-9.44679,1.164175,2.202877,0.426,0.64,0.10744
1694638518992187,-9.44279,1.159175,2.215877,0.405,0.66,0.4344
1694638519000000,-9.45779,1.158175,2.215877,0.546,0.446,0.10644
1694638519007812,-9.47379,1.166175,2.217877,0.523,0.256,0.5844
1694638519015625,-9.50579,1.185175,2.224877,0.597,0.276,0.5744
1694638519023437,-9.52379,1.203175,2.206877,0.666,0.736,0.5744
1694638519031250,-9.53779,1.203175,2.215877,0.585,0.1406,0.4244
1694638519039062,-9.53279,1.190175,2.217877,0.628,0.1096,0.2544
1694638519046875,-9.53279,1.187175,2.229877,0.536,0.756,0.4244
1694638519054687,-9.53879,1.190175,2.233877,0.561,0.1776,0.2744
1694638519062500,-9.54379,1.192175,2.222877,0.566,0.1096,0.1044
1694638519070312,-9.52179,1.212175,2.222877,0.608,0.956,0.2644
1694638519078125,-9.50779,1.207175,2.238877,0.552,0.2236,0.456
1694638519085937,-9.49279,1.218175,2.233877,0.578,0.2086,0.4344
1694638519093750,-9.47479,1.220175,2.240877,0.58,0.2246,0.2744
1694638519101562,-9.44379,1.215175,2.247877,0.618,0.2376,0.4244
1694638519109375,-9.43179,1.217175,2.237877,0.61,0.2426,0.2156
1694638519117187,-9.42679,1.217175,2.231877,0.561,0.2596,0.2056
1694638519125000,-9.43179,1.199175,2.237877,0.622,0.2596,0.4344
1694638519132812,-9.43979,1.182175,2.253877,0.626,0.1926,0.556
1694638519140625,-9.44079,1.181175,2.247877,0.708,0.1746,0.4144
1694638519148437,-9.44279,1.186175,2.280877,0.64,0.796,0.2544
1694638519156250,-9.45379,1.157175,2.305877,0.538,0.234,0.10644
1694638519164062,-9.42379,1.140175,2.192877,0.429,0.654,0.7444
1694638519171875,-9.38379,1.156175,2.192877,0.535,0.936,0.1044
1694638519179687,-9.46079,1.191175,2.231877,0.766,0.184,0.744
1694638519187500,-9.50979,1.218175,2.240877,0.765,0.14,0.4056
1694638519195312,-9.55079,1.226175,2.267877,0.787,0.466,0.13656
1694638519203125,-9.56679,1.237175,2.283877,0.757,0.926,0.756
1694638519210937,-9.52579,1.223175,2.269877,0.685,0.1456,0.656
1694638519218750,-9.50979,1.201175,2.228877,0.603,0.1956,0.1044
1694638519226562,-9.50979,1.191175,2.211877,0.71,0.2226,0.2544
1694638519234375,-9.51179,1.187175,2.197877,0.674,0.1916,0.5844
1694638519242187,-9.50579,1.191175,2.186877,0.798,0.2246,0.12144
1694638519250000,-9.49479,1.189175,2.188877,0.599,0.1896,0.12344
1694638519257812,-9.48479,1.187175,2.186877,0.748,0.2746,0.13844
1694638519265625,-9.48979,1.187175,2.204877,0.777,0.2426,0.13744
1694638519273437,-9.47979,1.169175,2.215877,0.762,0.1946,0.5744
1694638519281250,-9.46979,1.171175,2.222877,0.786,0.1746,0.7244
1694638519289062,-9.45179,1.171175,2.240877,0.769,0.1416,0.13644
1694638519296875,-9.43779,1.164175,2.231877,0.788,0.2066,0.5644
1694638519304687,-9.43079,1.166175,2.226877,0.765,0.1106,0.12044
1694638519312500,-9.43579,1.175175,2.229877,0.879,0.776,0.3844
1694638519320312,-9.43579,1.193175,2.256877,0.882,0.106,0.2244
1694638519328125,-9.43779,1.186175,2.251877,0.883,0.596,0.5444
1694638519335937,-9.44279,1.190175,2.258877,0.888,0.736,0.3844
1694638519343750,-9.45879,1.188175,2.247877,0.886,0.746,0.2244
1694638519351562,-9.47179,1.193175,2.240877,0.873,0.244,0.2244
1694638519359375,-9.48079,1.202175,2.229877,0.772,0.1076,0.12044
1694638519367187,-9.48979,1.200175,2.235877,0.787,0.596,0.7144
1694638519375000,-9.50179,1.195175,2.226877,0.792,0.1056,0.13644
1694638519382812,-9.51079,1.196175,2.215877,0.777,0.1386,0.8844
1694638519390625,-9.50979,1.198175,2.217877,0.8,0.1596,0.7244
1694638519398437,-9.50979,1.203175,2.222877,0.779,0.1776,0.10444
1694638519406250,-9.51979,1.191175,2.229877,0.776,0.1716,0.12044
1694638519414062,-9.50579,1.189175,2.235877,0.788,0.1576,0.7244
1694638519421875,-9.50179,1.193175,2.247877,0.775,0.1396,0.7244
1694638519429687,-9.50579,1.187175,2.256877,0.777,0.1716,0.5644
1694638519437500,-9.48779,1.200175,2.265877,0.789,0.1406,0.2444
1694638519445312,-9.48779,1.196175,2.258877,0.772,0.436,0.3944
1694638519453125,-9.47679,1.198175,2.258877,0.641,0.1596,0.2644
1694638519460937,-9.45679,1.208175,2.262877,0.614,0.1416,0.5844
1694638519468750,-9.43879,1.199175,2.260877,0.731,0.566,0.5644
1694638519476562,-9.44279,1.204175,2.258877,0.8,0.626,0.856
1694638519484375,-9.44979,1.210175,2.267877,0.776,0.596,0.4056
1694638519492187,-9.44479,1.206175,2.285877,0.754,0.1266,0.2444
1694638519500000,-9.45179,1.208175,2.274877,0.783,0.1606,0.2444
1694638519507812,-9.46479,1.204175,2.269877,0.767,0.1606,0.4044
1694638519515625,-9.46779,1.206175,2.262877,0.791,0.2056,0.2444
1694638519523437,-9.47479,1.197175,2.260877,0.777,0.2046,0.4044
1694638519531250,-9.47479,1.204175,2.265877,0.794,0.1886,0.2444
1694638519539062,-9.47479,1.197175,2.254877,0.781,0.1546,0.756
1694638519546875,-9.47879,1.197175,2.249877,0.777,0.1076,0.844
1694638519554687,-9.48779,1.198175,2.251877,0.776,0.1236,0.4044
1694638519562500,-9.49279,1.197175,2.242877,0.796,0.1706,0.844
1694638519570312,-9.48079,1.189175,2.253877,0.776,0.2056,0.756
1694638519578125,-9.48579,1.182175,2.242877,0.798,0.2186,0.844
1694638519585937,-9.49279,1.187175,2.244877,0.777,0.1896,0.2356
1694638519593750,-9.46479,1.189175,2.251877,0.799,0.2606,0.13556
1694638519601562,-9.46079,1.177175,2.231877,0.787,0.1436,0.5556
1694638519609375,-9.44479,1.188175,2.195877,0.772,0.1426,0.2356
1694638519617187,-9.42279,1.181175,2.193877,0.789,0.1096,0.5656
1694638519625000,-9.43379,1.188175,2.217877,0.79,0.276,0.5656
1694638519632812,-9.44679,1.200175,2.244877,0.766,0.24,0.856
1694638519640625,-9.47279,1.218175,2.294877,0.789,0.106,0.2456
1694638519648437,-9.49879,1.212175,2.300877,0.748,0.14,0.744
1694638519656250,-9.50379,1.205175,2.273877,0.703,0.466,0.2444
1694638519664062,-9.49079,1.202175,2.258877,0.635,0.416,0.4144
1694638519671875,-9.48579,1.204175,2.269877,0.537,0.106,0.2644
1694638519679687,-9.47679,1.222175,2.294877,0.539,0.746,0.4244
1694638519695312,-9.45179,1.215175,2.274877,0.517,0.456,0.2644
1694638519703125,-9.47879,1.220175,2.361877,0.532,0.456,0.2644
1694638519710937,-9.48579,1.204175,2.312877,0.384,0.84,0.7544
1694638519718750,-9.45379,1.179175,2.229877,0.223,0.394,0.9344
1694638519726562,-9.47379,1.182175,2.341877,0.283,0.714,0.9244
1694638519734375,-9.43779,1.141175,2.373877,0.224,0.1884,0.17244
1694638519742187,-9.36279,1.82175,1.999877,0.287,0.2534,0.18744
1694638519750000,-9.35179,1.127175,2.21877,0.689,0.534,0.8844
1694638519757812,-9.47279,1.218175,2.364877,0.1056,0.1854,0.244
1694638519765625,-9.63479,1.296175,2.517877,0.931,0.2664,0.7656
1694638519773437,-9.64579,1.276175,2.503877,0.709,0.1524,0.744
1694638519781250,-9.57979,1.184175,2.384877,0.397,0.404,0.10744
1694638519789062,-9.45479,1.93175,2.253877,0.191,0.406,0.17444
1694638519796875,-9.36879,1.52175,2.186877,0.173,0.96,0.19044
1694638519804687,-9.38279,1.47175,2.188877,0.292,0.274,0.22144
1694638519812500,-9.41479,1.99175,2.222877,0.397,0.1894,0.25044
1694638519820312,-9.44879,1.146175,2.253877,0.504,0.1374,0.13744
