time,Acceleration X (m/s^2),Acceleration Y (m/s^2),Acceleration Z (m/s^2),Angular Velocity X (rad/s),Angular Velocity Y (rad/s),Angular Velocity Z (rad/s)
1694639412125000,-7.503859,-1.216604,-0.169138,1.076165,,
1694639412132812,-7.250859,0.737505,-1.288604,0.148238,1.82765,0.164766
1694639412140625,-7.148859,0.855505,-1.385604,0.119938,1.139665,0.165766
1694639412148437,-7.271859,0.781505,-1.660604,0.60838,1.196265,0.161166
1694639412156250,-7.237859,0.784505,-1.843604,0.5862,1.165465,0.152966
1694639412164062,-7.73859,0.667505,-1.811604,0.2462,1.128465,0.169166
1694639412179687,-7.471859,0.783505,-1.806604,0.127538,1.178865,0.140966
1694639412187500,-7.491859,0.746505,-2.7604,0.190538,1.176765,0.133866
1694639412195312,-7.551859,0.685505,-2.227604,0.240338,1.139265,0.113766
1694639412203125,-7.720859,0.613505,-2.327604,0.274638,1.70965,0.118266
1694639412226562,-7.537859,0.432505,-2.507604,0.200338,1.115665,0.121766
1694639412234375,-7.470859,0.370505,-2.574604,0.76738,1.154265,0.110066
1694639412242187,-7.709859,0.494505,-2.532604,0.46562,1.146565,0.102566
1694639412250000,-7.803859,0.625505,-2.559604,0.144962,1.133065,0.109666
1694639412257812,-7.884859,0.746505,-2.498604,0.207462,1.88765,0.106066
1694639412265625,-7.947859,0.895505,-2.437604,0.177662,1.41865,0.108166
1694639412273437,-7.819859,0.882505,-2.360604,0.75762,1.7665,0.99966
1694639412281250,-7.915859,0.897505,-2.482604,0.69638,1.57965,0.75666
1694639412289062,-7.966859,0.809505,-2.923604,0.155138,1.142065,0.82366
1694639412296875,-7.889859,0.675505,-3.324604,0.128238,1.177165,0.56366
1694639412304687,-7.850859,0.585505,-3.333604,0.126138,1.129765,0.16466
1694639412312500,-7.845859,0.579505,-3.322604,0.230838,1.73865,0.25334
1694639412320312,-8.132859,0.672505,-3.383604,0.411238,0.972465,0.51434
1694639412328125,-8.159859,0.701505,-3.410604,0.587338,0.851965,0.53534
1694639412335937,-7.978859,0.602505,-3.475604,0.692238,0.785065,0.77634
1694639412343750,-7.863859,0.711505,-3.513604,0.734238,0.747665,0.99434
1694639412351562,-7.530859,0.791505,-3.392604,0.782438,0.750965,0.116534
1694639412359375,-7.751859,0.881505,-3.669604,0.821938,0.840965,0.148934
1694639412367187,-8.70859,1.152505,-3.986604,0.766738,0.961765,0.137434
1694639412375000,-8.220859,1.371505,-4.231604,0.673738,1.34565,0.115234
1694639412382812,-8.149859,1.301505,-4.398604,0.537438,1.52765,0.91334
1694639412390625,-8.109859,1.101505,-4.556604,0.437338,1.54865,0.109734
1694639412398437,-8.175859,0.982505,-4.815604,0.452038,0.974865,0.99434
1694639412406250,-8.989859,0.999505,-4.893604,0.492938,0.930765,0.174334
1694639412414062,-8.652859,1.144505,-5.170604,0.463238,0.966365,0.171534
1694639412421875,-8.261859,0.994505,-5.495604,0.572938,0.824165,0.140334
1694639412429687,-8.583859,1.59505,-5.391604,0.692238,0.685265,0.171834
1694639412437500,-8.620859,1.243505,-5.537604,0.717738,0.727665,0.215234
1694639412445312,-8.570859,1.373505,-5.337604,0.772138,0.786965,0.282634
1694639412453125,-8.562859,1.600505,-5.497604,0.891038,0.944265,0.322634
1694639412460937,-8.500859,1.812505,-5.643604,0.883938,0.960265,0.364534
1694639412468750,-8.366859,2.5505,-5.452604,0.845538,0.935265,0.416134
1694639412476562,-8.253859,1.975505,-5.262604,0.870338,0.913465,0.452434
1694639412484375,-8.211859,2.138505,-5.123604,0.891938,0.961665,0.433534
1694639412492187,-8.227859,2.290505,-4.927604,0.889638,1.40265,0.373034
1694639412500000,-7.844859,1.945505,-4.648604,0.873838,1.106865,0.302734
1694639412507812,-7.633859,1.857505,-4.612604,0.834138,1.205565,0.286334
1694639412515625,-7.602859,1.834505,-4.668604,0.823038,1.213765,0.288134
1694639412523437,-7.473859,1.659505,-4.954604,0.780238,1.212165,0.304734
1694639412531250,-7.737859,1.734505,-5.260604,0.715738,1.160965,0.337134
1694639412539062,-8.69859,1.945505,-5.539604,0.658038,1.112165,0.326334
1694639412546875,-8.228859,2.119505,-5.909604,0.651438,1.26165,0.319034
1694639412554687,-8.292859,2.279505,-5.927604,0.659038,0.943165,0.339434
1694639412562500,-8.242859,2.585505,-5.992604,0.736238,0.911565,0.351034
1694639412570312,-8.233859,2.667505,-5.942604,0.856338,0.915565,0.359534
1694639412578125,-8.208859,2.986505,-6.75604,0.963938,0.986365,0.360534
1694639412585937,-8.228859,3.58505,-6.426604,-1.77638,0.934665,0.394434
1694639412593750,-8.452859,2.332505,-7.395604,0.933738,1.5965,0.372234
1694639412601562,-8.546859,1.999505,-7.478604,0.737938,1.25165,0.292534
1694639412609375,-8.559859,2.243505,-6.440604,0.839138,1.1165,0.254334
1694639412617187,-8.223859,2.371505,-6.415604,0.992238,1.98065,0.250134
1694639412625000,-7.797859,2.227505,-5.909604,0.977538,1.47065,0.293234
1694639412632812,-7.495859,2.239505,-5.571604,0.888138,1.182665,0.263034
1694639412640625,-7.444859,2.402505,-5.483604,0.838638,1.261365,0.275434
1694639412648437,-7.528859,2.714505,-5.521604,0.793938,1.333465,0.286234
1694639412656250,-7.575859,2.861505,-6.1604,0.707138,1.422965,0.295734
1694639412664062,-7.847859,3.190505,-6.190604,0.621538,1.408765,0.302634
1694639412671875,-8.28859,3.303505,-6.636604,0.596938,1.338665,0.286534
1694639412679687,-7.947859,3.404505,-7.102604,0.508538,1.189465,0.288034
1694639412687500,-7.760859,3.500505,-7.219604,0.398938,1.24765,0.304434
1694639412695312,-7.570859,3.429505,-7.163604,0.321338,0.843665,0.343934
1694639412703125,-7.267859,3.310505,-7.122604,0.217138,0.778665,0.378634
1694639412710937,-7.367859,3.519505,-7.52604,0.85138,0.882665,0.375834
1694639412718750,-7.364859,3.592505,-6.910604,0.30938,0.976365,0.304934
1694639412726562,-7.127859,3.393505,-6.723604,0.92638,0.994665,0.273834
1694639412734375,-7.25859,3.327505,-6.708604,0.164838,1.96465,0.236834
1694639412742187,-6.761859,3.124505,-6.811604,0.207538,1.236665,0.224834
1694639412750000,-7.6859,3.304505,-7.174604,0.243038,1.340665,0.239334
1694639412757812,-6.845859,3.350505,-7.325604,0.333038,1.303665,0.209334
1694639412765625,-6.614859,3.374505,-7.501604,0.401838,1.243865,0.191634
1694639412773437,-6.334859,3.528505,-7.500604,0.388738,1.209265,0.187234
1694639412781250,-6.387859,3.820505,-7.773604,0.341538,1.280865,0.184934
1694639412789062,-6.708859,4.210505,-8.164604,0.284838,1.320465,0.171534
1694639412796875,-6.756859,4.418505,-8.511604,0.277738,1.296965,0.163234
1694639412804687,-6.874859,4.673505,-8.754604,0.304038,1.227765,0.142934
1694639412812500,-6.561859,4.434505,-9.193604,0.290238,1.194165,0.114234
1694639412820312,-6.623859,4.506505,-9.376604,0.232838,1.149665,0.106434
1694639412828125,-6.767859,4.695505,-9.211604,0.249638,1.120665,0.54634
1694639412835937,-6.516859,4.537505,-9.126604,0.228438,1.104965,0.3534
1694639412843750,-6.308859,4.371505,-8.912604,0.174038,1.214265,0.35366
1694639412851562,-6.217859,4.145505,-8.793604,0.162738,1.312765,0.58566
1694639412859375,-6.159859,3.993505,-8.705604,0.133138,1.391265,0.88266
1694639412867187,-6.10859,3.872505,-8.642604,0.68738,1.500565,0.107666
1694639412875000,-5.808859,3.699505,-8.608604,0.20638,1.573165,0.98366
1694639412882812,-5.713859,3.668505,-8.473604,0.1762,1.590165,0.54866
1694639412890625,-5.748859,3.770505,-8.426604,0.56162,1.574165,0.15666
1694639412898437,-5.752859,3.996505,-8.279604,0.89362,1.518265,0.19634
1694639412906250,-5.827859,4.216505,-8.205604,0.35962,1.437365,0.60034
1694639412914062,-5.951859,4.228505,-8.608604,0.19262,1.403265,0.82234
1694639412921875,-6.97859,4.245505,-9.31604,0.50162,1.328265,0.74134
1694639412929687,-6.77859,4.141505,-9.396604,0.114762,1.253665,0.62734
1694639412937500,-5.792859,3.992505,-9.628604,0.167162,1.157265,0.43434
1694639412945312,-5.559859,4.52505,-9.680604,0.145162,1.75765,0.55534
1694639412953125,-5.665859,4.338505,-9.878604,0.144962,1.48065,0.47434
1694639412960937,-5.286859,4.243505,-9.952604,0.146862,0.989065,0.9934
1694639412968750,-5.39859,4.138505,-9.890604,0.133562,1.4965,0.11166
1694639412976562,-4.806859,4.20505,-9.961604,0.100562,1.2865,0.44966
1694639412984375,-4.579859,4.126505,-9.718604,0.81062,0.962065,0.67966
1694639412992187,-4.289859,4.110505,-9.468604,0.65462,0.957365,0.66466
1694639413000000,-4.217859,4.119505,-9.340604,0.68862,0.959665,0.29766
1694639413007812,-4.271859,4.177505,-9.462604,0.38962,0.931665,0.20666
1694639413015625,-4.297859,4.249505,-9.865604,0.13462,0.887265,0.21366
1694639413023437,-4.294859,4.335505,-10.146604,0.55462,0.849465,0.22766
1694639413031250,-4.429859,4.217505,-10.374604,0.102662,0.838165,0.15866
1694639413039062,-4.531859,4.81505,-10.538604,0.165662,0.826765,0.7166
1694639413046875,-4.212859,3.981505,-10.351604,0.162662,0.816665,0.8734
1694639413054687,-4.262859,3.983505,-10.426604,0.118062,0.789065,0.49934
1694639413062500,-4.597859,3.896505,-10.538604,0.171562,0.806865,0.12066
1694639413070312,-4.409859,3.667505,-10.390604,0.186562,0.801865,0.110066
1694639413078125,-4.186859,3.628505,-9.939604,0.135362,0.743165,0.138366
1694639413085937,-4.101859,3.669505,-9.629604,0.70862,0.738165,0.140866
1694639413093750,-3.755859,3.614505,-9.451604,0.45162,0.664165,0.117166
1694639413101562,-3.553859,3.776505,-9.90604,0.65562,0.592465,0.59866
1694639413109375,-3.618859,4.54505,-8.865604,0.41362,0.584565,0.23166
1694639413117187,-3.475859,4.125505,-8.746604,0.20338,0.535765,0.45066
1694639413125000,-3.333859,4.96505,-8.547604,0.67338,0.503065,0.32966
1694639413132812,-3.542859,4.113505,-8.532604,0.112938,0.528965,0.31766
1694639413140625,-3.574859,4.21505,-8.770604,0.147538,0.510765,0.25966
1694639413148437,-3.505859,4.37505,-8.784604,0.188038,0.434365,0.5866
1694639413156250,-3.343859,3.985505,-8.933604,0.209638,0.380065,0.35134
1694639413164062,-3.200859,3.951505,-9.43604,0.185538,0.279165,0.113234
1694639413171875,-3.380859,3.912505,-9.83604,0.96638,0.206365,0.154234
1694639413179687,-3.450859,3.767505,-9.174604,0.10738,0.227365,0.136034
1694639413187500,-3.260859,3.593505,-9.230604,0.19762,0.151765,0.126134
1694639413195312,-3.303859,3.434505,-9.174604,0.8662,0.59965,0.151034
1694639413203125,-3.671859,3.386505,-9.475604,0.50262,0.73565,0.97034
1694639413210937,-3.526859,3.250505,-9.629604,0.95862,0.51165,0.2134
1694639413218750,-3.400859,3.189505,-9.541604,0.84062,0.59235,0.27466
1694639413226562,-3.426859,3.263505,-9.539604,0.68962,0.130035,0.39466
1694639413234375,-3.429859,3.339505,-9.440604,0.25962,0.177235,0.62766
1694639413242187,-3.446859,3.423505,-9.394604,0.15338,0.263435,0.76566
1694639413250000,-3.506859,3.565505,-9.390604,0.51338,0.349535,0.87566
1694639413257812,-3.706859,3.764505,-9.550604,0.84338,0.439935,0.102666
1694639413265625,-3.921859,3.935505,-9.948604,0.98738,0.541035,0.121666
1694639413273437,-4.111859,4.137505,-10.372604,0.79038,0.634235,0.130066
1694639413281250,-4.210859,4.285505,-10.651604,0.45338,0.727335,0.147966
1694639413289062,-4.328859,4.351505,-10.842604,0.21638,0.755135,0.133366
1694639413296875,-4.534859,4.498505,-11.13604,0.64262,0.781835,0.129566
1694639413304687,-4.545859,4.605505,-10.966604,0.106662,0.789735,0.135466
1694639413312500,-4.512859,4.618505,-10.896604,0.86962,0.726035,0.115966
1694639413320312,-4.602859,4.775505,-10.984604,0.23762,0.654235,0.80866
1694639413328125,-4.569859,4.971505,-11.94604,0.21038,0.640935,0.58666
1694639413335937,-4.461859,4.958505,-10.925604,0.1838,0.678535,0.34566
1694639413343750,-4.498859,4.861505,-10.774604,0.53862,0.735235,0.1234
1694639413351562,-4.714859,4.752505,-10.734604,0.121062,0.782135,0.30234
1694639413359375,-4.923859,4.611505,-10.671604,0.200862,0.856035,0.45134
1694639413367187,-5.109859,4.561505,-10.504604,0.273562,0.913635,0.26134
1694639413375000,-5.259859,4.441505,-10.342604,0.324562,0.946635,0.5534
1694639413382812,-5.337859,4.326505,-10.256604,0.355662,0.965635,0.18166
1694639413390625,-5.402859,4.199505,-10.196604,0.361762,0.977135,0.22966
1694639413398437,-5.484859,4.116505,-10.245604,0.345962,0.972635,0.20066
1694639413406250,-5.613859,4.43505,-10.315604,0.315862,0.984635,0.11066
1694639413414062,-5.708859,3.940505,-10.428604,0.284962,-1.2035,0.1666
1694639413421875,-5.707859,3.880505,-10.466604,0.279962,-1.28635,0.1134
1694639413429687,-5.635859,3.847505,-10.392604,0.302762,-1.39435,0.24034
1694639413437500,-5.631859,3.876505,-10.290604,0.315862,-1.24835,0.45234
1694639413445312,-5.682859,4.17505,-10.173604,0.332762,-1.51435,0.49934
1694639413453125,-5.649859,4.81505,-10.11604,0.327862,-1.74335,0.48034
1694639413460937,-5.598859,4.89505,-9.993604,0.318662,-1.64735,0.59234
1694639413468750,-5.627859,4.107505,-10.604,0.337762,-1.82735,0.73834
1694639413476562,-5.582859,4.87505,-9.854604,0.360062,-1.86035,0.91734
1694639413484375,-5.757859,4.169505,-9.813604,0.382362,-1.79435,0.101734
1694639413492187,-5.831859,4.170505,-9.835604,0.399062,-1.125035,0.82334
1694639413500000,-5.930859,4.171505,-9.853604,0.494062,-1.132635,0.38634
1694639413507812,-6.112859,4.177505,-9.896604,0.608762,-1.141635,0.566
1694639413515625,-6.208859,4.159505,-9.714604,0.706562,-1.191035,0.25666
1694639413523437,-6.215859,4.156505,-9.502604,0.763162,-1.177635,0.32766
1694639413531250,-6.364859,4.87505,-9.707604,0.828062,-1.126835,0.25166
1694639413539062,-6.393859,4.59505,-9.432604,0.885462,-1.186035,0.33066
1694639413546875,-6.166859,4.4505,-8.921604,0.842662,-1.250635,0.14434
1694639413554687,-6.155859,4.35505,-8.917604,0.806162,-1.225435,0.86234
1694639413562500,-6.67859,4.36505,-8.916604,0.808762,-1.189335,0.118734
1694639413570312,-6.297859,3.999505,-8.924604,0.897062,-1.140135,0.163134
1694639413578125,-6.421859,3.858505,-8.737604,0.936762,-1.164235,0.178034
1694639413585937,-6.408859,3.838505,-8.793604,0.933962,-1.156235,0.198834
1694639413593750,-6.813859,3.893505,-9.63604,0.935962,-1.166235,0.222934
1694639413601562,-6.945859,3.861505,-9.410604,0.997262,-1.268935,0.173234
1694639413609375,-7.144859,3.769505,-9.604604,1.139962,-1.379035,0.138534
1694639413617187,-7.268859,3.655505,-9.568604,1.283862,-1.478735,0.75234
1694639413625000,-7.197859,3.295505,-9.633604,1.420262,-1.557635,0.29534
1694639413632812,-7.248859,2.954505,-9.190604,1.579862,-1.599035,0.31034
1694639413640625,-6.901859,2.709505,-8.541604,1.616062,-1.564335,0.84934
1694639413648437,-6.700859,2.398505,-7.814604,1.558562,-1.455835,0.70634
1694639413656250,-7.91859,2.404505,-7.377604,1.440962,-1.291835,0.22234
1694639413664062,-6.757859,2.7505,-7.116604,1.430762,-1.156235,0.42966
1694639413671875,-6.613859,1.678505,-6.571604,1.395862,-1.50935,0.31166
1694639413679687,-6.794859,1.772505,-6.238604,1.255162,0.890335,0.57366
1694639413687500,-7.88859,1.919505,-6.265604,1.48562,0.799735,0.142566
1694639413695312,-7.146859,1.824505,-6.573604,0.860662,0.844135,0.218666
1694639413703125,-7.391859,1.848505,-6.938604,0.783162,0.952335,0.279966
1694639413710937,-7.417859,1.672505,-7.89604,0.796062,-1.58235,0.391366
1694639413718750,-7.215859,1.631505,-7.57604,0.790762,-1.198435,0.463066
1694639413726562,-7.109859,1.650505,-6.904604,0.781362,-1.312135,0.475466
1694639413734375,-7.184859,1.673505,-6.949604,0.849662,-1.352535,0.514966
1694639413742187,-6.952859,1.523505,-6.571604,0.939562,-1.401635,0.549666
1694639413750000,-6.737859,1.373505,-6.103604,0.981262,-1.406335,0.516966
1694639413757812,-6.555859,1.440505,-5.686604,1.32462,-1.344535,0.477466
1694639413765625,-6.482859,1.476505,-5.578604,1.107762,-1.285935,0.419966
1694639413773437,-6.335859,1.322505,-5.628604,1.195062,-1.246135,0.356266
1694639413781250,-6.318859,1.172505,-5.542604,1.225062,-1.255535,0.289866
1694639413789062,-6.291859,1.70505,-5.369604,1.145262,-1.258635,0.279566
1694639413796875,-6.132859,0.932505,-5.346604,0.952462,-1.261635,0.275266
1694639413804687,-5.993859,0.828505,-5.378604,0.696762,-1.278235,0.260866
1694639413812500,-5.700859,0.678505,-5.547604,0.510462,-1.237635,0.241866
1694639413820312,-5.543859,0.667505,-5.702604,0.349062,-1.210235,0.199866
1694639413828125,-5.529859,0.774505,-5.770604,0.187862,-1.171635,0.172666
1694639413835937,-5.412859,0.921505,-5.662604,0.22362,-1.154535,0.158266
1694639413843750,-5.269859,1.92505,-5.522604,0.130738,-1.104935,0.153166
1694639413851562,-5.314859,1.514505,-5.294604,0.232638,-1.38935,0.179466
1694639413859375,-5.188859,1.534505,-5.65604,0.325638,-1.12435,0.214066
1694639413867187,-5.181859,1.496505,-5.85604,0.337438,0.961535,0.199266
1694639413875000,-5.317859,1.649505,-4.961604,0.312238,0.941735,0.231466
1694639413882812,-5.461859,1.770505,-4.914604,0.263138,0.886435,0.262266
1694639413890625,-5.716859,1.831505,-4.945604,0.260438,0.891135,0.286366
1694639413898437,-5.510859,1.436505,-5.42604,0.276538,0.914635,0.282066
1694639413906250,-5.760859,1.623505,-5.236604,0.260038,0.868735,0.189766
1694639413914062,-6.107859,1.799505,-5.292604,0.160138,0.911735,0.123166
1694639413921875,-6.540859,1.769505,-5.211604,0.100262,-1.27535,0.61766
1694639413929687,-6.803859,1.780505,-4.434604,0.374762,-1.166935,0.25766
1694639413937500,-6.991859,1.573505,-3.596604,0.528262,-1.276335,0.27834
1694639413945312,-7.170859,1.407505,-3.241604,0.586462,-1.353835,0.71234
1694639413953125,-7.459859,1.322505,-3.135604,0.710062,-1.476035,0.73634
1694639413960937,-7.478859,1.214505,-2.362604,0.801762,-1.588335,0.46834
1694639413968750,-7.300859,1.25505,-2.60604,0.629562,-1.553635,0.45134
1694639413976562,-7.331859,0.873505,-2.613604,0.441862,-1.409035,0.62834
1694639413984375,-7.341859,0.806505,-3.7604,0.362862,-1.328235,0.70734
1694639413992187,-7.371859,0.713505,-3.245604,0.345662,-1.267535,0.54934
1694639414000000,-7.434859,0.673505,-3.367604,0.299162,-1.230335,0.40534
1694639414007812,-7.483859,0.663505,-3.475604,0.222162,-1.233435,0.30034
1694639414015625,-7.488859,0.426505,-3.414604,0.183862,-1.255235,0.24434
1694639414023437,-7.603859,0.430505,-3.128604,0.186962,-1.300735,0.22634
1694639414031250,-7.860859,0.792505,-2.664604,0.186962,-1.377035,0.4034
1694639414039062,-7.696859,0.634505,-2.444604,0.156462,-1.466135,0.27166
1694639414046875,-7.582859,0.549505,-2.545604,0.161162,-1.508335,0.25666
1694639414054687,-7.501859,0.528505,-2.759604,0.215762,-1.564635,0.9566
1694639414062500,-7.509859,0.601505,-3.13604,0.247062,-1.605135,0.12566
1694639414070312,-7.470859,0.437505,-3.441604,0.264662,-1.653935,0.17966
1694639414078125,-7.166859,0.393505,-3.561604,0.276962,-1.753035,0.23034
1694639414085937,-7.36859,0.577505,-3.381604,0.259162,-1.793235,0.59734
1694639414093750,-6.897859,0.597505,-3.137604,0.267162,-1.778735,0.71134
1694639414101562,-6.786859,0.578505,-2.847604,0.253262,-1.749935,0.91834
1694639414109375,-6.934859,0.644505,-2.752604,0.298962,-1.659235,0.125434
1694639414117187,-7.233859,0.514505,-2.552604,0.391762,-1.609235,0.139534
1694639414125000,-7.539859,0.390505,-2.311604,0.466762,-1.567735,0.165034
1694639414132812,-7.865859,0.575505,-2.68604,0.539362,-1.530935,0.198034
1694639414140625,-8.49859,0.681505,-1.856604,0.566262,-1.500335,0.212834
1694639414148437,-8.148859,0.841505,-1.741604,0.568762,-1.445435,0.211934
1694639414156250,-8.187859,0.862505,-1.583604,0.554562,-1.408135,0.210334
1694639414164062,-8.254859,0.859505,-1.417604,0.556162,-1.357235,0.193034
1694639414171875,-8.432859,1.38505,-1.324604,0.528962,-1.313535,0.172034
1694639414179687,-8.445859,0.977505,-1.250604,0.506562,-1.304535,0.130234
1694639414187500,-8.672859,1.5505,-1.65604,0.483162,-1.287435,0.111034
1694639414195312,-8.672859,0.848505,0.770604,0.446262,-1.286035,0.81534
1694639414203125,-8.731859,0.753505,0.653604,0.398062,-1.233035,0.68734
1694639414210937,-8.822859,0.950505,0.637604,0.379362,-1.196935,0.62334
1694639414218750,-8.767859,1.34505,0.604604,0.363262,-1.176235,0.57234
1694639414226562,-8.752859,0.938505,0.660604,0.357262,-1.144835,0.51134
1694639414234375,-8.734859,0.949505,0.529604,0.352662,-1.125035,0.43234
1694639414242187,-8.843859,0.976505,0.227604,0.332762,-1.135635,0.44834
1694639414250000,-8.800859,0.938505,0.128396,0.310762,-1.147335,0.55634
1694639414257812,-8.744859,0.849505,0.436396,0.307762,-1.116635,0.65334
1694639414265625,-8.752859,0.787505,0.573396,0.311262,-1.75935,0.75234
1694639414273437,-8.732859,0.825505,0.485396,0.292762,-1.38235,0.78534
1694639414281250,-8.712859,0.798505,0.377396,0.278762,-1.27135,0.91134
1694639414289062,-8.647859,0.832505,0.371396,0.279462,-1.24935,0.107434
1694639414296875,-8.648859,0.883505,0.407396,0.281662,-1.8235,0.117334
1694639414304687,-8.625859,0.947505,0.486396,0.307262,0.978835,0.137134
1694639414312500,-8.664859,1.45505,0.600396,0.310762,0.947735,0.142234
1694639414320312,-8.687859,0.985505,0.670396,0.308662,0.898435,0.143734
1694639414328125,-8.696859,0.953505,0.648396,0.310962,0.843535,0.136434
1694639414335937,-8.829859,1.4505,0.675396,0.305962,0.793035,0.120534
1694639414343750,-8.975859,0.964505,0.729396,0.321962,0.752135,0.120934
1694639414351562,-9.164859,0.947505,0.823396,0.333262,0.715735,0.115134
1694639414359375,-9.288859,0.969505,0.938396,0.335362,0.674335,0.112334
1694639414367187,-9.381859,1.34505,0.916396,0.325162,0.610035,0.119234
1694639414375000,-9.480859,1.110505,0.758396,0.307262,0.567135,0.114034
1694639414382812,-9.533859,1.148505,0.677396,0.313962,0.547135,0.116034
1694639414390625,-9.586859,1.244505,0.693396,0.325162,0.527335,0.113134
1694639414398437,-9.611859,1.257505,0.677396,0.319162,0.506935,0.103834
1694639414406250,-9.602859,1.231505,0.704396,0.309762,0.485835,0.100534
1694639414414062,-9.611859,1.242505,0.729396,0.297262,0.462635,0.91034
1694639414421875,-9.572859,1.213505,0.740396,0.284562,0.436635,0.79734
1694639414429687,-9.541859,1.126505,0.778396,0.286862,0.424235,0.58734
1694639414437500,-9.508859,1.87505,0.887396,0.272962,0.416735,0.44434
1694639414445312,-9.434859,1.14505,0.988396,0.256862,0.392735,0.33034
1694639414453125,-9.397859,0.931505,0.965396,0.244562,0.351535,0.28434
1694639414460937,-9.406859,0.888505,0.772396,0.231062,0.337835,0.33334
1694639414468750,-9.369859,0.809505,0.729396,0.231462,0.358535,0.39834
1694639414476562,-9.328859,0.790505,0.850396,0.235662,0.353035,0.44434
1694639414484375,-9.360859,0.724505,0.918396,0.233962,0.338735,0.47634
1694639414492187,-9.374859,0.710505,0.922396,0.242262,0.333435,0.52634
1694639414500000,-9.399859,0.773505,0.972396,0.245662,0.318735,0.64034
1694639414507812,-9.346859,0.824505,1.42396,0.217162,0.310835,0.58834
1694639414515625,-9.324859,0.883505,0.931396,0.209362,0.261835,0.49434
1694639414523437,-9.375859,0.984505,0.776396,0.209462,0.234235,0.52734
1694639414531250,-9.414859,1.40505,0.821396,0.213962,0.234435,0.47934
1694639414539062,-9.477859,1.77505,0.911396,0.226562,0.210135,0.49834
1694639414546875,-9.552859,1.80505,0.920396,0.222262,0.178335,0.42134
1694639414554687,-9.629859,1.108505,0.938396,0.212862,0.173135,0.32534
1694639414562500,-9.658859,1.110505,1.28396,0.210962,0.178235,0.24334
1694639414570312,-9.645859,1.94505,1.107396,0.205062,0.165435,0.3934
1694639414578125,-9.603859,1.154505,1.195396,0.201362,0.153135,0.5966
1694639414585937,-9.560859,1.169505,1.170396,0.196962,0.125335,0.966
1694639414593750,-9.571859,1.154505,1.121396,0.201262,0.117735,0.4266
1694639414601562,-9.476859,1.258505,1.251396,0.184362,0.123635,0.2766
1694639414609375,-9.450859,1.282505,1.204396,0.184362,0.107435,0.2666
1694639414617187,-9.382859,1.284505,1.242396,0.185562,0.104835,0.334
1694639414625000,-9.343859,1.236505,1.296396,0.192762,0.89035,0.5734
1694639414632812,-9.367859,1.209505,1.361396,0.186062,0.68835,0.10234
1694639414640625,-9.397859,1.186505,1.362396,0.177562,0.46235,0.10734
1694639414648437,-9.459859,1.172505,1.346396,0.163162,0.38935,0.20034
1694639414656250,-9.513859,1.143505,1.360396,0.162562,0.41035,0.31634
1694639414664062,-9.589859,1.115505,1.368396,0.156162,0.47935,0.36234
1694639414671875,-9.654859,1.101505,1.368396,0.135762,0.64535,0.51834
1694639414679687,-9.647859,1.110505,1.350396,0.127862,0.71535,0.59634
1694639414687500,-9.645859,1.126505,1.335396,0.132662,0.76535,0.66034
1694639414695312,-9.627859,1.134505,1.308396,0.135662,0.81435,0.61234
1694639414703125,-9.655859,1.204505,1.298396,0.118262,0.78535,0.65734
1694639414710937,-9.658859,1.257505,1.305396,0.110262,0.88335,0.60734
1694639414718750,-9.647859,1.272505,1.305396,0.111662,0.86435,0.46434
1694639414726562,-9.652859,1.291505,1.274396,0.109762,0.80235,0.41434
1694639414734375,-9.638859,1.299505,1.193396,0.111262,0.65735,0.41534
1694639414742187,-9.647859,1.317505,1.157396,0.109662,0.55835,0.33534
1694639414750000,-9.681859,1.327505,1.184396,0.109762,0.50735,0.32034
1694639414757812,-9.729859,1.311505,1.211396,0.111962,0.48335,0.38734
1694639414765625,-9.742859,1.325505,1.249396,0.110162,0.50135,0.33834
1694639414773437,-9.740859,1.329505,1.262396,0.111562,0.48935,0.33734
1694639414781250,-9.704859,1.327505,1.303396,0.113062,0.66735,0.32134
1694639414789062,-9.691859,1.326505,1.341396,0.110062,0.69735,0.33734
1694639414796875,-9.697859,1.302505,1.359396,0.111662,0.68135,0.32134
1694639414804687,-9.675859,1.308505,1.360396,0.115062,0.72435,0.32334
1694639414812500,-9.657859,1.323505,1.283396,0.103962,0.64635,0.33734
1694639414820312,-9.632859,1.300505,1.301396,0.88462,0.59535,0.33634
1694639414828125,-9.667859,1.252505,1.305396,0.85462,0.57635,0.32134
1694639414835937,-9.669859,1.241505,1.386396,0.86762,0.63035,0.33534
1694639414843750,-9.661859,1.245505,1.459396,0.92162,0.70435,0.45034
1694639414851562,-9.604859,1.213505,1.474396,0.82662,0.69035,0.48134
1694639414859375,-9.602859,1.220505,1.364396,0.85762,0.59635,0.56134
1694639414867187,-9.667859,1.252505,1.418396,0.85662,0.93835,0.57534
1694639414875000,-9.575859,1.233505,1.571396,0.69662,0.107235,0.55534
1694639414882812,-9.600859,1.252505,1.375396,0.42862,0.77935,0.45734
1694639414890625,-9.620859,1.253505,1.348396,0.39962,0.83635,0.36334
1694639414898437,-9.443859,1.269505,1.301396,0.50462,0.58135,0.26734
1694639414906250,-9.491859,1.336505,1.26396,0.48662,0.38435,0.10734
1694639414914062,-9.531859,1.304505,1.258396,0.81462,0.69635,0.12534
1694639414921875,-9.628859,1.323505,1.567396,0.96062,0.70735,0.22534
1694639414929687,-9.679859,1.270505,1.688396,0.88362,0.67735,0.33634
1694639414937500,-9.647859,1.225505,1.589396,0.71562,0.69135,0.47934
1694639414945312,-9.646859,1.208505,1.445396,0.47662,0.68135,0.49134
1694639414953125,-9.673859,1.197505,1.251396,0.18062,0.90535,0.50334
1694639414960937,-9.678859,1.209505,1.220396,0.10862,0.102935,0.61634
1694639414968750,-9.738859,1.297505,1.233396,0.12062,0.115035,0.67834
1694639414976562,-9.698859,1.312505,1.249396,0.10462,0.126435,0.70934
1694639414984375,-9.632859,1.320505,1.335396,0.21462,0.120135,0.75834
1694639414992187,-9.619859,1.356505,1.344396,0.32362,0.118735,0.75934
1694639415000000,-9.608859,1.318505,1.378396,0.37362,0.106935,0.76234
1694639415007812,-9.555859,1.350505,1.497396,0.50662,0.99835,0.89434
1694639415015625,-9.500859,1.348505,1.495396,0.45562,0.95935,0.103534
1694639415023437,-9.473859,1.354505,1.443396,0.56662,0.89635,0.110034
1694639415031250,-9.456859,1.395505,1.465396,0.75562,0.90835,0.102334
1694639415039062,-9.418859,1.404505,1.555396,0.85162,0.96035,0.120034
1694639415046875,-9.411859,1.397505,1.630396,0.86962,0.73135,0.126634
1694639415054687,-9.445859,1.422505,1.675396,0.87562,0.56235,0.130234
1694639415062500,-9.466859,1.471505,1.679396,0.84462,0.49835,0.138234
1694639415070312,-9.502859,1.474505,1.670396,0.72262,0.48035,0.146134
1694639415078125,-9.522859,1.459505,1.655396,0.62462,0.51935,0.149034
1694639415085937,-9.470859,1.453505,1.668396,0.48562,0.50035,0.152134
1694639415093750,-9.583859,1.469505,1.562396,0.32862,0.48635,0.153534
1694639415101562,-9.599859,1.493505,1.486396,0.21662,0.61835,0.153234
1694639415109375,-9.568859,1.501505,1.459396,0.3162,0.69235,0.146834
1694639415117187,-9.656859,1.518505,1.328396,0.25138,0.67735,0.148034
1694639415125000,-9.716859,1.513505,1.281396,0.35138,0.73035,0.136534
1694639415132812,-9.707859,1.538505,1.308396,0.38638,0.80135,0.136234
1694639415140625,-9.672859,1.572505,1.454396,0.43138,0.79735,0.134734
1694639415148437,-9.666859,1.600505,1.481396,0.52038,0.67435,0.131734
1694639415156250,-9.655859,1.625505,1.513396,0.47538,0.62735,0.126934
1694639415164062,-9.640859,1.689505,1.605396,0.37938,0.61135,0.133534
1694639415171875,-9.595859,1.761505,1.626396,0.35738,0.49035,0.145134
1694639415179687,-9.546859,1.800505,1.628396,0.39038,0.47835,0.149734
1694639415187500,-9.525859,1.814505,1.684396,0.48538,0.48235,0.154334
1694639415195312,-9.392859,1.888505,1.749396,0.70838,0.27335,0.144434
1694639415203125,-9.290859,1.823505,1.445396,0.84638,0.3935,0.138134
1694639415210937,-9.313859,1.821505,1.403396,0.59038,0.6235,0.135534
1694639415218750,-9.325859,1.793505,1.526396,0.57938,0.18535,0.140034
1694639415226562,-9.365859,1.745505,1.459396,0.62638,0.2165,0.151134
1694639415234375,-9.410859,1.734505,1.430396,0.65538,0.7235,0.152834
1694639415242187,-9.409859,1.713505,1.450396,0.87938,0.11135,0.153934
1694639415250000,-9.427859,1.744505,1.513396,0.84538,0.9535,0.163634
1694639415257812,-9.475859,1.762505,1.493396,0.101038,0.535,0.173434
1694639415265625,-9.550859,1.792505,1.468396,0.110738,0.3965,0.171634
1694639415273437,-9.577859,1.819505,1.421396,0.112438,0.965,0.160334
1694639415281250,-9.595859,1.788505,1.364396,0.108038,0.2435,0.149134
1694639415289062,-9.649859,1.807505,1.373396,0.92538,0.2735,0.145934
1694639415296875,-9.627859,1.827505,1.400396,0.86338,0.2435,0.136434
1694639415304687,-9.624859,1.831505,1.423396,0.88538,0.7065,0.115534
1694639415312500,-9.616859,1.840505,1.466396,0.77438,0.4365,0.102934
1694639415320312,-9.568859,1.837505,1.497396,0.66838,0.8965,0.98134
1694639415328125,-9.534859,1.810505,1.533396,0.57638,0.11765,0.98134
1694639415335937,-9.514859,1.812505,1.607396,0.37138,0.18465,0.95334
1694639415343750,-9.491859,1.803505,1.702396,0.38938,0.27965,0.93634
1694639415351562,-9.439859,1.798505,1.695396,0.48338,0.29565,0.93534
1694639415359375,-9.410859,1.788505,1.628396,0.57638,0.26565,0.96634
1694639415367187,-9.405859,1.780505,1.580396,0.59438,0.27965,0.86934
1694639415375000,-9.424859,1.804505,1.540396,0.51738,0.18365,0.80634
1694639415382812,-9.457859,1.791505,1.499396,0.40838,0.15065,0.74234
1694639415390625,-9.486859,1.785505,1.515396,0.37638,0.10365,0.74334
1694639415398437,-9.504859,1.772505,1.565396,0.39338,0.5465,0.67834
1694639415406250,-9.525859,1.799505,1.522396,0.37838,0.16765,0.67934
1694639415414062,-9.561859,1.817505,1.457396,0.39038,0.18965,0.69734
1694639415421875,-9.580859,1.850505,1.400396,0.37638,0.17165,0.66434
1694639415429687,-9.582859,1.858505,1.357396,0.33438,0.24765,0.58334
1694639415437500,-9.577859,1.854505,1.319396,0.18238,0.25865,0.53434
1694639415445312,-9.615859,1.847505,1.310396,0.538,0.29865,0.49134
1694639415453125,-9.624859,1.827505,1.353396,0.6962,0.24565,0.45834
1694639415460937,-9.637859,1.795505,1.422396,0.22462,0.30665,0.47534
1694639415468750,-9.656859,1.742505,1.463396,0.25362,0.33965,0.33134
1694639415476562,-9.660859,1.675505,1.450396,0.31862,0.26365,0.31734
1694639415484375,-9.696859,1.673505,1.519396,0.49562,0.25165,0.38434
1694639415492187,-9.685859,1.680505,1.591396,0.50562,0.11365,0.38234
1694639415500000,-9.661859,1.712505,1.511396,0.42062,0.12365,0.49634
1694639415507812,-9.643859,1.752505,1.427396,0.35362,0.10165,0.47734
1694639415515625,-9.610859,1.769505,1.391396,0.41862,0.3965,0.49534
1694639415523437,-9.588859,1.814505,1.398396,0.49062,0.4665,0.49334
1694639415531250,-9.533859,1.827505,1.461396,0.45362,0.4565,0.46534
1694639415539062,-9.465859,1.847505,1.517396,0.38562,0.4065,0.38234
1694639415546875,-9.391859,1.856505,1.445396,0.35662,0.3065,0.32034
1694639415554687,-9.423859,1.860505,1.558396,0.35962,0.6665,0.35334
1694639415562500,-9.440859,1.813505,1.781396,0.35462,0.7365,0.39834
1694639415570312,-9.383859,1.758505,1.691396,0.1362,0.32565,0.33434
1694639415578125,-9.382859,1.809505,1.524396,0.6038,0.44165,0.46334
1694639415585937,-9.290859,1.865505,1.450396,0.13062,0.52365,0.53034
1694639415593750,-9.186859,1.914505,1.69396,0.15062,0.55965,0.61234
1694639415601562,-9.313859,2.41505,1.168396,0.61662,0.35365,0.71034
1694639415609375,-9.453859,2.97505,1.558396,0.88362,0.31865,0.80834
1694639415617187,-9.548859,2.51505,1.639396,0.81162,0.36165,0.81134
1694639415625000,-9.596859,2.37505,1.517396,0.64262,0.38065,0.62834
1694639415632812,-9.535859,2.505,1.353396,0.36162,0.25865,0.48234
1694639415640625,-9.482859,1.953505,1.288396,0.18062,0.22165,0.26934
1694639415648437,-9.482859,1.940505,1.326396,0.25662,0.27065,0.14234
1694639415656250,-9.516859,1.942505,1.351396,0.35162,0.34265,0.1466
1694639415664062,-9.502859,1.927505,1.344396,0.39562,0.30565,0.1666
1694639415671875,-9.444859,1.928505,1.321396,0.44162,0.35365,0.4766
1694639415679687,-9.395859,1.918505,1.299396,0.58462,0.30965,0.9266
1694639415687500,-9.412859,1.930505,1.285396,0.61462,0.31965,0.1734
1694639415695312,-9.448859,1.930505,1.234396,0.61762,0.30265,0.17834
1694639415703125,-9.484859,1.925505,1.193396,0.79062,0.31665,0.22834
1694639415710937,-9.523859,1.929505,1.189396,0.85762,0.11165,0.24634
1694639415718750,-9.584859,1.965505,1.209396,0.87262,0.1065,0.32534
1694639415726562,-9.676859,2.5505,1.258396,0.89662,0.6235,0.25834
1694639415734375,-9.708859,2.42505,1.276396,0.79862,0.18035,0.20634
1694639415742187,-9.729859,2.81505,1.292396,0.65862,0.30535,0.10934
1694639415750000,-9.687859,2.93505,1.281396,0.63062,0.36235,0.4734
1694639415757812,-9.642859,2.62505,1.265396,0.64362,0.44435,0.3366
1694639415765625,-9.675859,2.49505,1.218396,0.56662,0.47435,0.3366
1694639415773437,-9.677859,1.993505,1.236396,0.54962,0.57235,0.6766
1694639415781250,-9.669859,1.942505,1.268396,0.59462,0.65435,0.13166
1694639415789062,-9.664859,1.904505,1.265396,0.57662,0.70335,0.22866
1694639415796875,-9.647859,1.851505,1.256396,0.58862,0.85235,0.29466
1694639415804687,-9.649859,1.813505,1.299396,0.52662,0.96535,0.27966
1694639415812500,-9.642859,1.804505,1.353396,0.53962,0.106735,0.29666
1694639415820312,-9.622859,1.811505,1.402396,0.52262,0.110235,0.28266
1694639415828125,-9.579859,1.799505,1.421396,0.55762,0.107935,0.27966
1694639415835937,-9.541859,1.765505,1.452396,0.50862,0.113035,0.29766
1694639415843750,-9.519859,1.727505,1.465396,0.56762,0.116935,0.28266
1694639415851562,-9.508859,1.687505,1.497396,0.61562,0.118435,0.28166
1694639415859375,-9.455859,1.609505,1.535396,0.64662,0.128435,0.21866
1694639415867187,-9.450859,1.557505,1.598396,0.79062,0.129735,0.18366
1694639415875000,-9.428859,1.500505,1.717396,0.85062,0.137135,0.5766
1694639415882812,-9.390859,1.496505,1.718396,0.87662,0.122835,0.1234
1694639415890625,-9.343859,1.525505,1.445396,0.105862,0.119035,0.4334
1694639415898437,-9.417859,1.615505,1.490396,0.155062,0.125335,0.24234
1694639415906250,-9.541859,1.648505,1.610396,0.188562,0.125235,0.45534
1694639415914062,-9.636859,1.700505,1.544396,0.209562,0.126335,0.57234
1694639415921875,-9.698859,1.765505,1.490396,0.212262,0.141535,0.52234
1694639415929687,-9.696859,1.833505,1.571396,0.231462,0.150835,0.35934
1694639415937500,-9.648859,1.880505,1.639396,0.237662,0.153235,0.5734
1694639415945312,-9.550859,1.941505,1.675396,0.232562,0.148035,0.19966
1694639415953125,-9.540859,1.905505,1.632396,0.244562,0.128235,0.51866
1694639415960937,-9.508859,1.849505,1.619396,0.246862,0.125035,0.88766
1694639415968750,-9.434859,1.852505,1.650396,0.262662,0.121135,0.104466
1694639415976562,-9.319859,1.855505,1.704396,0.266962,0.95035,0.125166
1694639415984375,-9.287859,1.808505,1.628396,0.275962,0.89135,0.126766
1694639415992187,-9.255859,1.904505,1.709396,0.289562,0.76235,0.126166
1694639416000000,-9.239859,1.898505,1.722396,0.303762,0.65335,0.111566
1694639416007812,-9.251859,1.923505,1.747396,0.313162,0.52635,0.101866
1694639416015625,-9.225859,1.975505,1.799396,0.319862,0.47535,0.90466
1694639416023437,-9.261859,1.985505,1.866396,0.332462,0.31835,0.75866
1694639416031250,-9.335859,1.907505,1.783396,0.344862,0.26035,0.63066
1694639416039062,-9.386859,1.945505,1.851396,0.353362,0.33235,0.57866
1694639416046875,-9.356859,2.81505,1.896396,0.313362,0.30835,0.69866
1694639416054687,-9.450859,2.26505,1.815396,0.300962,0.17535,0.71466
1694639416062500,-9.495859,2.4505,1.732396,0.287262,0.18035,0.82566
1694639416070312,-9.494859,1.953505,1.774396,0.280362,0.31535,0.97266
1694639416078125,-9.528859,1.983505,1.810396,0.270462,0.18535,0.118266
1694639416085937,-9.572859,2.67505,1.781396,0.262862,0.24235,0.130966
1694639416093750,-9.490859,2.16505,1.803396,0.271462,0.21935,0.142466
1694639416101562,-9.450859,2.8505,1.812396,0.283962,0.12035,0.145466
1694639416109375,-9.395859,2.4505,1.796396,0.288362,0.4735,0.137566
1694639416117187,-9.382859,2.21505,1.738396,0.306562,0.7465,0.120966
1694639416125000,-9.342859,2.21505,1.686396,0.294862,0.16365,0.104666
1694639416132812,-9.276859,1.979505,1.686396,0.294362,0.29965,0.100166
1694639416140625,-9.194859,1.870505,1.720396,0.292462,0.36165,0.83666
1694639416148437,-9.292859,1.854505,1.716396,0.284562,0.37365,0.72566
1694639416156250,-9.352859,1.810505,1.670396,0.268462,0.41565,0.71366
1694639416164062,-9.392859,1.783505,1.639396,0.276762,0.38865,0.67866
1694639416171875,-9.413859,1.814505,1.792396,0.286462,0.30765,0.54966
1694639416179687,-9.349859,1.749505,1.844396,0.280462,0.32565,0.50066
1694639416187500,-9.319859,1.704505,1.839396,0.281762,0.27065,0.42266
1694639416195312,-9.296859,1.654505,1.853396,0.281062,0.27765,0.24366
1694639416203125,-9.230859,1.637505,1.837396,0.271262,0.39865,0.16666
1694639416210937,-9.346859,1.836505,1.826396,0.251162,0.41265,0.3934
1694639416218750,-9.416859,1.852505,1.686396,0.232662,0.59765,0.2466
1694639416226562,-9.455859,1.780505,1.583396,0.229462,0.64465,0.866
1694639416234375,-9.533859,1.895505,1.695396,0.195862,0.54165,0.9566
1694639416242187,-9.535859,1.892505,1.772396,0.181862,0.57865,0.15966
1694639416250000,-9.596859,1.862505,1.918396,0.161462,0.54665,0.19466
1694639416257812,-9.603859,1.891505,1.880396,0.111362,0.60065,0.27866
1694639416265625,-9.546859,1.872505,1.729396,0.84362,0.66765,0.45866
1694639416273437,-9.495859,1.886505,1.720396,0.86162,0.67165,0.50466
1694639416281250,-9.386859,1.811505,1.394396,0.87862,0.109765,0.54966
1694639416289062,-9.493859,1.936505,1.375396,0.98062,0.98665,0.53766
1694639416296875,-9.377859,1.805505,1.668396,0.133062,0.74365,0.32466
1694639416304687,-9.488859,1.854505,1.889396,0.159062,0.80765,0.11234
1694639416312500,-9.555859,1.870505,1.993396,0.156662,0.72865,0.36934
1694639416320312,-9.469859,1.780505,1.995396,0.130962,0.62665,0.91134
1694639416328125,-9.740859,1.868505,1.853396,0.112562,0.56265,0.108634
1694639416335937,-9.796859,1.854505,1.725396,0.106062,0.54665,0.97334
1694639416343750,-9.818859,1.990505,1.869396,0.102462,0.26865,0.82634
1694639416351562,-9.876859,2.81505,1.894396,0.98862,0.38665,0.52234
1694639416359375,-9.847859,2.94505,1.788396,0.85462,0.48465,0.13534
1694639416367187,-9.752859,2.91505,1.815396,0.76962,0.45365,0.20366
1694639416375000,-9.720859,2.39505,1.736396,0.64362,0.57265,0.37966
1694639416382812,-9.687859,1.967505,1.707396,0.76462,0.37265,0.39666
1694639416390625,-9.626859,1.948505,1.841396,0.69262,0.22765,0.40366
1694639416398437,-9.582859,1.871505,1.878396,0.60462,0.15565,0.38566
1694639416406250,-9.576859,1.780505,1.823396,0.58862,0.3865,0.30666
1694639416414062,-9.539859,1.697505,1.835396,0.61062,0.235,0.22466
1694639416421875,-9.496859,1.663505,1.878396,0.56362,0.4165,0.9766
1694639416429687,-9.491859,1.619505,1.880396,0.53262,0.5835,0.266
1694639416437500,-9.506859,1.590505,1.810396,0.59962,0.2265,0.20734
1694639416445312,-9.488859,1.572505,1.772396,0.61862,0.3765,0.35234
1694639416453125,-9.512859,1.568505,1.749396,0.63762,0.4235,0.49734
1694639416460937,-9.569859,1.568505,1.693396,0.73662,0.5965,0.54834
1694639416468750,-9.614859,1.564505,1.664396,0.84862,0.4465,0.59834
1694639416476562,-9.640859,1.629505,1.666396,0.95662,0.8635,0.58334
1694639416484375,-9.674859,1.683505,1.684396,0.113162,0.1935,0.60234
1694639416492187,-9.699859,1.730505,1.632396,0.111062,0.15365,0.55234
1694639416500000,-9.664859,1.756505,1.621396,0.130162,0.15665,0.53934
1694639416507812,-9.583859,1.775505,1.725396,0.140862,0.10565,0.49134
1694639416515625,-9.532859,1.772505,1.707396,0.148862,0.22265,0.49434
1694639416523437,-9.500859,1.762505,1.659396,0.141162,0.15865,0.50934
1694639416531250,-9.395859,1.787505,1.646396,0.126862,0.14265,0.41134
1694639416539062,-9.305859,1.806505,1.621396,0.112862,0.21065,0.37934
1694639416546875,-9.228859,1.801505,1.583396,0.109262,0.30165,0.36034
1694639416554687,-9.176859,1.825505,1.572396,0.107162,0.46265,0.39834
1694639416562500,-9.119859,1.814505,1.659396,0.104762,0.49965,0.37834
1694639416570312,-9.43859,1.828505,1.486396,0.97462,0.70265,0.34834
1694639416578125,-8.975859,1.845505,1.288396,0.109562,0.80965,0.36434
1694639416585937,-8.967859,1.882505,1.380396,0.132562,0.82265,0.41934
1694639416593750,-9.25859,1.850505,1.461396,0.133562,0.107465,0.38634
1694639416601562,-9.151859,1.890505,1.436396,0.130262,0.130065,0.35434
1694639416609375,-9.247859,1.960505,1.376396,0.119462,0.144965,0.32234
1694639416617187,-9.239859,1.865505,1.270396,0.110062,0.148565,0.24234
1694639416625000,-9.337859,1.815505,1.211396,0.124162,0.148465,0.25934
1694639416632812,-9.455859,1.757505,1.186396,0.130262,0.154865,0.19634
1694639416640625,-9.596859,1.739505,1.157396,0.136862,0.149165,0.13434
1694639416648437,-9.756859,1.764505,1.175396,0.132762,0.144665,0.4934
1694639416656250,-9.830859,1.767505,1.139396,0.132862,0.140165,0.234
1694639416664062,-9.877859,1.746505,1.76396,0.132662,0.125465,0.6266
1694639416671875,-9.881859,1.726505,1.78396,0.137362,0.112365,0.3166
1694639416679687,-9.920859,1.767505,1.98396,0.160562,0.92465,0.4666
1694639416695312,-9.857859,1.758505,1.166396,0.180262,0.57365,0.4966
1694639416703125,-9.803859,1.772505,1.229396,0.188462,0.48165,0.3066
1694639416710937,-9.733859,1.769505,1.274396,0.175662,0.36365,0.3466
1694639416718750,-9.667859,1.793505,1.295396,0.163962,0.19665,0.3134
1694639416726562,-9.597859,1.808505,1.290396,0.143362,0.16265,0.366
1694639416734375,-9.553859,1.827505,1.283396,0.135462,0.11165,0.5834
1694639416742187,-9.515859,1.893505,1.310396,0.119662,0.10965,0.4034
1694639416750000,-9.509859,1.898505,1.283396,0.105662,0.9565,0.3934
1694639416757812,-9.503859,1.955505,1.306396,0.91562,0.2135,0.13234
1694639416765625,-9.476859,1.986505,1.335396,0.74162,0.6935,0.9834
1694639416773437,-9.459859,1.981505,1.286396,0.52662,0.1665,0.14534
1694639416781250,-9.442859,1.977505,1.236396,0.33262,0.865,0.12434
1694639416789062,-9.454859,1.999505,1.241396,0.29062,0.3065,0.17434
1694639416796875,-9.441859,2.14505,1.222396,0.16262,0.17465,0.10834
1694639416804687,-9.450859,2.4505,1.166396,0.462,0.25465,0.9034
1694639416812500,-9.457859,1.996505,1.108396,0.5238,0.29765,0.6134
1694639416820312,-9.488859,1.977505,1.121396,0.10238,0.31065,0.1134
