time,Acceleration X (m/s^2),Acceleration Y (m/s^2),Acceleration Z (m/s^2),Angular Velocity X (rad/s),Angular Velocity Y (rad/s),Angular Velocity Z (rad/s)
1694788024726562,-8.784314,4.587942,-1.587029,,,
1694788024734375,-8.802314,4.609942,0.604238,-1.636629,0.452768,0.145514
1694788024742187,-8.832314,4.654942,0.622238,-1.685229,0.461268,0.164414
1694788024750000,-8.819314,4.701942,0.638238,-1.741229,0.484968,0.180014
1694788024757812,-8.770314,4.754942,0.631238,-1.806629,0.490568,0.202214
1694788024765625,-8.766314,4.787942,0.628238,-1.857829,0.499168,0.222814
1694788024781250,-8.801314,4.819942,0.590238,-1.978829,0.520368,0.270314
1694788024789062,-8.814314,4.806942,0.587238,-2.42529,0.540568,0.279714
1694788024796875,-8.784314,4.802942,0.590238,-2.103829,0.551168,0.300114
1694788024804687,-8.760314,4.814942,0.583238,-2.157729,0.573368,0.317114
1694788024828125,-8.876314,4.903942,0.590238,-2.331629,0.611568,0.342714
1694788024835937,-8.862314,4.890942,0.542238,-2.397029,0.624868,0.346014
1694788024843750,-8.805314,4.833942,0.492238,-2.447329,0.630968,0.346214
1694788024851562,-8.818314,4.816942,0.460238,-2.480629,0.648468,0.347714
1694788024859375,-8.883314,4.774942,0.476238,-2.527729,0.664668,0.349214
1694788024867187,-8.900314,4.703942,0.494238,-2.562829,0.667368,0.355614
1694788024875000,-8.849314,4.602942,0.495238,-2.597529,0.677068,0.369814
1694788024882812,-8.772314,4.511942,0.456238,-2.625929,0.679768,0.374414
1694788024890625,-8.738314,4.429942,0.436238,-2.630729,0.688768,0.391714
1694788024898437,-8.778314,4.352942,0.441238,-2.647529,0.699968,0.410314
1694788024906250,-8.890314,4.285942,0.475238,-2.650629,0.713668,0.413114
1694788024914062,-8.990314,4.199942,0.487238,-2.647529,0.709068,0.425714
1694788024921875,-9.50314,4.108942,0.489238,-2.633729,0.703668,0.424214
1694788024929687,-9.93314,4.55942,0.491238,-2.624229,0.699968,0.422814
1694788024937500,-9.118314,4.1942,0.507238,-2.598229,0.690368,0.408814
1694788024945312,-9.148314,3.935942,0.521238,-2.571629,0.687668,0.394414
1694788024953125,-9.193314,3.909942,0.521238,-2.536929,0.661468,0.388414
1694788024960937,-9.214314,3.859942,0.537238,-2.503829,0.647068,0.380614
1694788024968750,-9.228314,3.811942,0.567238,-2.473129,0.619268,0.377914
1694788024976562,-9.237314,3.778942,0.601238,-2.432129,0.590968,0.365814
1694788024984375,-9.225314,3.728942,0.658238,-2.396829,0.571768,0.367614
1694788024992187,-9.247314,3.693942,0.697238,-2.362229,0.549168,0.366214
1694788025000000,-9.230314,3.651942,0.745238,-2.312629,0.519568,0.366414
1694788025007812,-9.203314,3.616942,0.775238,-2.258729,0.494968,0.371414
1694788025015625,-9.164314,3.575942,0.834238,-2.217529,0.470468,0.370114
1694788025023437,-9.180314,3.564942,0.895238,-2.148729,0.437168,0.375114
1694788025031250,-9.186314,3.600942,0.955238,-2.102229,0.425968,0.370214
1694788025039062,-9.200314,3.609942,1.43238,-2.50529,0.398068,0.373614
1694788025046875,-9.175314,3.611942,1.109238,-2.6429,0.369768,0.362914
1694788025054687,-9.119314,3.603942,1.175238,-1.953029,0.347968,0.352214
1694788025062500,-9.60314,3.602942,1.230238,-1.910629,0.325168,0.350814
1694788025070312,-8.999314,3.583942,1.301238,-1.855829,0.318868,0.347414
1694788025078125,-8.919314,3.585942,1.353238,-1.816729,0.311068,0.339414
1694788025085937,-8.844314,3.613942,1.424238,-1.760529,0.299768,0.339214
1694788025093750,-8.772314,3.647942,1.517238,-1.720829,0.285368,0.336114
1694788025101562,-8.748314,3.725942,1.597238,-1.679929,0.281468,0.343714
1694788025109375,-8.749314,3.803942,1.672238,-1.652029,0.285968,0.346614
1694788025117187,-8.712314,3.826942,1.772238,-1.628529,0.292068,0.346514
1694788025125000,-8.604314,3.834942,1.849238,-1.606429,0.305268,0.347414
1694788025132812,-8.510314,3.857942,1.890238,-1.586429,0.314968,0.348714
1694788025140625,-8.495314,3.904942,1.958238,-1.569529,0.334768,0.348114
1694788025148437,-8.530314,3.984942,2.65238,-1.553929,0.362568,0.336614
1694788025156250,-8.583314,4.75942,2.145238,-1.555329,0.365868,0.335014
1694788025164062,-8.568314,4.138942,2.179238,-1.555529,0.382868,0.337714
1694788025171875,-8.476314,4.136942,2.195238,-1.565929,0.406068,0.323214
1694788025179687,-8.413314,4.164942,2.210238,-1.579129,0.421268,0.319914
1694788025187500,-8.465314,4.235942,2.199238,-1.585629,0.438768,0.330414
1694788025195312,-8.546314,4.345942,2.203238,-1.612729,0.459868,0.339614
1694788025203125,-8.561314,4.430942,2.205238,-1.641729,0.472068,0.334814
1694788025210937,-8.517314,4.432942,2.164238,-1.681429,0.478368,0.344314
1694788025218750,-8.444314,4.348942,2.185238,-1.717529,0.506368,0.351814
1694788025226562,-8.396314,4.242942,2.183238,-1.741329,0.528668,0.351614
1694788025234375,-8.421314,4.158942,2.167238,-1.749129,0.562368,0.346214
1694788025242187,-8.487314,4.76942,2.170238,-1.746929,0.582368,0.347414
1694788025250000,-8.608314,4.45942,2.140238,-1.749029,0.605768,0.339014
1694788025257812,-8.739314,4.42942,2.156238,-1.752129,0.633868,0.322714
1694788025265625,-8.881314,4.72942,2.124238,-1.747529,0.622968,0.307314
1694788025273437,-8.962314,4.96942,2.62238,-1.767529,0.609768,0.301414
1694788025281250,-9.20314,4.50942,2.44238,-1.774429,0.585768,0.286214
1694788025289062,-9.18314,3.907942,2.24238,-1.776329,0.568468,0.272514
1694788025296875,-8.998314,3.695942,1.970238,-1.771529,0.554768,0.269714
1694788025304687,-9.16314,3.521942,1.927238,-1.744429,0.543368,0.250914
1694788025312500,-9.93314,3.405942,1.905238,-1.710429,0.526568,0.225814
1694788025320312,-9.218314,3.350942,1.925238,-1.661429,0.508068,0.210314
1694788025328125,-9.295314,3.358942,1.952238,-1.611729,0.476068,0.193314
1694788025335937,-9.275314,3.355942,1.957238,-1.567729,0.434068,0.178314
1694788025343750,-9.213314,3.313942,1.980238,-1.529429,0.401068,0.174214
1694788025351562,-9.101314,3.244942,2.7238,-1.486229,0.363168,0.172914
1694788025359375,-8.996314,3.179942,2.66238,-1.435329,0.343668,0.177914
1694788025367187,-8.923314,3.142942,2.114238,-1.381929,0.322368,0.179614
1694788025375000,-8.856314,3.200942,2.171238,-1.325529,0.303668,0.204614
1694788025382812,-8.882314,3.370942,2.228238,-1.281429,0.298168,0.215414
1694788025390625,-8.969314,3.529942,2.314238,-1.261029,0.283268,0.232914
1694788025398437,-8.981314,3.649942,2.419238,-1.241429,0.263068,0.242614
1694788025406250,-8.938314,3.666942,2.498238,-1.239829,0.251468,0.250614
1694788025414062,-8.829314,3.620942,2.542238,-1.235029,0.241368,0.254014
1694788025421875,-8.791314,3.613942,2.576238,-1.218629,0.244068,0.244414
1694788025429687,-8.826314,3.578942,2.624238,-1.204929,0.245668,0.247414
1694788025437500,-8.861314,3.616942,2.617238,-1.168229,0.238168,0.250514
1694788025445312,-8.880314,3.690942,2.582238,-1.165529,0.231168,0.242714
1694788025453125,-8.892314,3.773942,2.564238,-1.167229,0.209568,0.247814
1694788025460937,-8.879314,3.790942,2.626238,-1.156329,0.199468,0.254314
1694788025468750,-8.836314,3.685942,2.674238,-1.142929,0.170968,0.264214
1694788025476562,-8.778314,3.562942,2.654238,-1.132429,0.177568,0.263914
1694788025484375,-8.743314,3.492942,2.599238,-1.101529,0.186468,0.252614
1694788025492187,-8.748314,3.415942,2.583238,-1.59929,0.189668,0.232114
1694788025500000,-8.767314,3.444942,2.587238,-1.14029,0.182968,0.217914
1694788025507812,-8.836314,3.563942,2.592238,0.982329,0.176768,0.205214
1694788025515625,-8.886314,3.699942,2.635238,0.961129,0.152368,0.188114
1694788025523437,-8.894314,3.802942,2.632238,0.944829,0.131468,0.184014
1694788025531250,-8.857314,3.803942,2.648238,0.948729,0.108168,0.185914
1694788025539062,-8.775314,3.698942,2.671238,0.947729,0.91568,0.189314
1694788025546875,-8.716314,3.576942,2.662238,0.945829,0.89468,0.183114
1694788025554687,-8.672314,3.502942,2.658238,0.923129,0.88668,0.175214
1694788025562500,-8.632314,3.468942,2.676238,0.897529,0.87668,0.162414
1694788025570312,-8.612314,3.506942,2.724238,0.879829,0.93468,0.146414
1694788025578125,-8.627314,3.575942,2.792238,0.856729,0.102668,0.136714
1694788025585937,-8.661314,3.602942,2.813238,0.841929,0.103768,0.128714
1694788025593750,-8.693314,3.647942,2.815238,0.834229,0.101668,0.122414
1694788025601562,-8.736314,3.632942,2.851238,0.828529,0.91568,0.122514
1694788025609375,-8.803314,3.598942,2.886238,0.830229,0.91168,0.111614
1694788025617187,-8.848314,3.510942,2.927238,0.820529,0.92268,0.105314
1694788025625000,-8.797314,3.418942,2.886238,0.796729,0.80868,0.85014
1694788025632812,-8.753314,3.365942,2.850238,0.781729,0.85368,0.76914
1694788025640625,-8.775314,3.366942,2.882238,0.759929,0.76268,0.67314
1694788025648437,-8.800314,3.404942,2.884238,0.748929,0.67768,0.72214
1694788025656250,-8.842314,3.480942,2.884238,0.732329,0.47468,0.77214
1694788025664062,-8.855314,3.508942,2.888238,0.707129,0.35368,0.88514
1694788025671875,-8.806314,3.489942,2.888238,0.707729,0.29468,0.104114
1694788025679687,-8.742314,3.414942,2.891238,0.700929,0.15868,0.109214
1694788025687500,-8.680314,3.339942,2.925238,0.679029,0.24268,0.121514
1694788025695312,-8.684314,3.297942,2.962238,0.661329,0.29068,0.121114
1694788025703125,-8.788314,3.420942,2.963238,0.640929,0.35468,0.125714
1694788025710937,-8.891314,3.549942,2.993238,0.633129,0.25168,0.127514
1694788025718750,-8.857314,3.542942,3.16238,0.644329,0.4432,0.134314
1694788025726562,-8.781314,3.513942,3.13238,0.640029,0.19232,0.145514
1694788025734375,-8.671314,3.415942,3.238,0.638229,0.10732,0.148514
1694788025742187,-8.610314,3.320942,3.34238,0.622429,0.14432,0.151714
1694788025750000,-8.595314,3.305942,3.75238,0.583129,0.14832,0.160814
1694788025757812,-8.612314,3.358942,3.100238,0.561429,0.5332,0.158914
1694788025765625,-8.615314,3.447942,3.84238,0.550929,0.3932,0.157214
1694788025773437,-8.614314,3.553942,3.82238,0.530029,0.12832,0.154114
1694788025781250,-8.620314,3.637942,3.107238,0.513229,0.20132,0.149514
1694788025789062,-8.616314,3.646942,3.138238,0.511529,0.20332,0.146314
1694788025796875,-8.592314,3.590942,3.180238,0.510529,0.23432,0.151014
1694788025804687,-8.524314,3.534942,3.180238,0.491429,0.27932,0.137114
1694788025812500,-8.519314,3.533942,3.223238,0.479729,0.11732,0.124014
1694788025820312,-8.542314,3.517942,3.316238,0.461229,0.668,0.109614
1694788025828125,-8.542314,3.521942,3.314238,0.438529,0.4368,0.87414
1694788025835937,-8.567314,3.540942,3.262238,0.425529,0.10468,0.74514
1694788025843750,-8.627314,3.580942,3.232238,0.414229,0.19768,0.65014
1694788025851562,-8.686314,3.574942,3.209238,0.410129,0.3968,0.49614
1694788025859375,-8.657314,3.501942,3.191238,0.394429,0.1932,0.32214
1694788025867187,-8.631314,3.434942,3.155238,0.383929,0.1032,0.18014
1694788025875000,-8.656314,3.414942,3.173238,0.364029,0.6268,0.514
1694788025882812,-8.683314,3.376942,3.198238,0.341629,0.8032,0.10386
1694788025890625,-8.680314,3.320942,3.214238,0.317029,0.5732,0.21486
1694788025898437,-8.677314,3.321942,3.196238,0.305629,0.7732,0.27986
1694788025906250,-8.673314,3.325942,3.164238,0.286729,0.13432,0.30986
1694788025914062,-8.670314,3.303942,3.182238,0.270229,0.10332,0.29586
1694788025921875,-8.724314,3.338942,3.187238,0.258929,0.10432,0.23286
1694788025929687,-8.789314,3.342942,3.198238,0.250329,0.8732,0.21986
1694788025937500,-8.749314,3.273942,3.173238,0.248829,0.10032,0.12586
1694788025945312,-8.706314,3.272942,3.155238,0.231829,0.5532,0.15886
1694788025953125,-8.717314,3.235942,3.176238,0.222729,0.2032,0.8186
1694788025960937,-8.751314,3.212942,3.171238,0.222529,0.8532,0.1686
1694788025968750,-8.796314,3.220942,3.123238,0.219229,0.1632,0.5914
1694788025976562,-8.802314,3.180942,3.108238,0.221029,0.10368,0.7214
1694788025984375,-8.780314,3.145942,3.82238,0.201929,0.6368,0.5714
1694788025992187,-8.793314,3.149942,3.39238,0.194829,0.8468,0.16514
1694788026000000,-8.856314,3.199942,3.44238,0.172229,0.8068,0.16314
1694788026007812,-8.887314,3.275942,3.238,0.176429,0.10132,0.24614
1694788026015625,-8.894314,3.415942,2.938238,0.173229,0.30132,0.32914
1694788026023437,-8.891314,3.502942,2.981238,0.189529,0.31132,0.44114
1694788026031250,-8.865314,3.484942,3.41238,0.211229,0.46832,0.58614
1694788026039062,-8.830314,3.419942,3.34238,0.220029,0.49632,0.69714
1694788026046875,-8.809314,3.327942,3.36238,0.218029,0.46232,0.72914
1694788026054687,-8.793314,3.212942,3.73238,0.216129,0.38432,0.61814
1694788026062500,-8.800314,3.188942,3.101238,0.204929,0.29232,0.41014
1694788026070312,-8.789314,3.175942,3.135238,0.191429,0.15032,0.23314
1694788026078125,-8.737314,3.189942,3.130238,0.170029,0.7832,0.4314
1694788026085937,-8.677314,3.292942,3.98238,0.161329,0.4932,0.3786
1694788026093750,-8.676314,3.430942,3.121238,0.170529,0.868,0.8714
1694788026101562,-8.705314,3.483942,3.177238,0.174329,0.8432,0.31014
1694788026109375,-8.724314,3.467942,3.187238,0.194329,0.3932,0.46614
1694788026117187,-8.683314,3.431942,3.139238,0.212529,0.7732,0.67214
1694788026125000,-8.648314,3.362942,3.116238,0.224829,0.16368,0.72914
1694788026132812,-8.632314,3.305942,3.105238,0.226929,0.28468,0.82214
1694788026140625,-8.698314,3.332942,3.84238,0.228429,0.51868,0.78614
1694788026148437,-8.749314,3.387942,3.43238,0.234329,0.62368,0.84714
1694788026156250,-8.735314,3.406942,3.238,0.244629,0.46368,0.100814
1694788026164062,-8.766314,3.476942,2.963238,0.248829,0.50268,0.113414
1694788026171875,-8.853314,3.524942,3.9238,0.262429,0.39168,0.124714
1694788026179687,-8.894314,3.480942,3.27238,0.279429,0.30368,0.145314
1694788026187500,-8.850314,3.382942,2.966238,0.291629,0.22268,0.147114
1694788026195312,-8.784314,3.321942,2.918238,0.265729,0.20468,0.157914
1694788026203125,-8.792314,3.304942,2.918238,0.269129,0.28868,0.153014
1694788026210937,-8.854314,3.346942,2.923238,0.256329,0.26468,0.146814
1694788026218750,-8.874314,3.404942,2.922238,0.239529,0.14168,0.143914
1694788026226562,-8.820314,3.482942,2.902238,0.238329,0.7568,0.145514
1694788026234375,-8.777314,3.513942,2.900238,0.242029,0.10832,0.144214
1694788026242187,-8.757314,3.500942,2.950238,0.239729,0.24332,0.149414
1694788026250000,-8.745314,3.480942,2.966238,0.236829,0.30932,0.152614
1694788026257812,-8.725314,3.498942,2.977238,0.216929,0.31732,0.143114
1694788026265625,-8.743314,3.523942,3.63238,0.220329,0.29832,0.146214
1694788026273437,-8.746314,3.536942,3.100238,0.211329,0.43632,0.141714
1694788026281250,-8.676314,3.510942,3.56238,0.206129,0.47432,0.137214
1694788026289062,-8.633314,3.505942,3.34238,0.197329,0.52532,0.140314
1694788026296875,-8.692314,3.507942,3.77238,0.186229,0.53132,0.132514
1694788026304687,-8.746314,3.486942,3.86238,0.169529,0.60632,0.123214
1694788026312500,-8.732314,3.418942,3.50238,0.145029,0.59632,0.118314
1694788026320312,-8.687314,3.336942,3.36238,0.117029,0.70832,0.101014
1694788026328125,-8.630314,3.269942,3.12238,0.82329,0.65632,0.80214
1694788026335937,-8.593314,3.400942,2.941238,0.44129,0.70032,0.77014
1694788026343750,-8.605314,3.569942,2.954238,0.24129,0.79332,0.66114
1694788026351562,-8.642314,3.746942,3.11238,0.18829,0.99432,0.69514
1694788026359375,-8.683314,3.893942,3.12238,0.21529,0.116132,0.71514
1694788026367187,-8.665314,3.954942,3.31238,0.28429,0.124332,0.70014
1694788026375000,-8.618314,3.940942,3.40238,0.47729,0.123932,0.71814
1694788026382812,-8.560314,3.852942,3.74238,0.54329,0.119432,0.52914
1694788026390625,-8.529314,3.751942,3.97238,0.48129,0.109932,0.41714
1694788026398437,-8.534314,3.668942,3.108238,0.44829,0.104032,0.26014
1694788026406250,-8.548314,3.679942,3.81238,0.23629,0.96932,0.5314
1694788026414062,-8.575314,3.738942,3.70238,0.18429,0.89132,0.13886
1694788026421875,-8.590314,3.782942,3.72238,0.2829,0.87032,0.32686
1694788026429687,-8.556314,3.826942,3.44238,0.2729,0.86932,0.29586
1694788026437500,-8.542314,3.863942,3.42238,0.7729,0.98032,0.18386
1694788026445312,-8.566314,3.882942,3.69238,0.12929,0.95932,0.7286
1694788026453125,-8.565314,3.890942,3.70238,0.20129,0.108432,0.6914
1694788026460937,-8.559314,3.859942,3.71238,0.24729,0.110032,0.15114
1694788026468750,-8.551314,3.839942,3.51238,0.24229,0.107832,0.21114
1694788026476562,-8.519314,3.827942,3.29238,0.28629,0.101032,0.21014
1694788026484375,-8.492314,3.813942,3.40238,0.25329,0.105932,0.28914
1694788026492187,-8.495314,3.839942,3.65238,0.23329,0.102932,0.24314
1694788026500000,-8.516314,3.875942,3.72238,0.25229,0.99632,0.19414
1694788026507812,-8.564314,3.949942,3.65238,0.23529,0.102932,0.21114
1694788026515625,-8.598314,3.950942,3.71238,0.28429,0.98132,0.13114
1694788026523437,-8.604314,3.876942,3.49238,0.28129,0.93032,0.14614
1694788026531250,-8.605314,3.811942,3.6238,0.23129,0.96732,0.3514
1694788026539062,-8.591314,3.802942,2.970238,0.5229,0.97532,0.7586
1694788026546875,-8.580314,3.826942,2.969238,0.3529,0.99832,0.20086
1694788026554687,-8.653314,3.908942,3.40238,0.1671,0.107332,0.41986
1694788026562500,-8.706314,3.939942,3.69238,0.5071,0.113132,0.54286
1694788026570312,-8.616314,3.892942,3.31238,0.771,0.126632,0.55486
1694788026578125,-8.527314,3.884942,2.992238,0.871,0.133532,0.59986
1694788026585937,-8.502314,3.869942,3.56238,0.9271,0.137332,0.69486
1694788026593750,-8.450314,3.840942,3.90238,0.23871,0.139832,0.75586
1694788026601562,-8.414314,3.875942,3.69238,0.22171,0.134832,0.80486
1694788026609375,-8.487314,3.937942,3.101238,0.23571,0.123032,0.79186
1694788026617187,-8.535314,3.962942,3.144238,0.12871,0.119232,0.74486
1694788026625000,-8.539314,3.940942,3.124238,0.2629,0.112332,0.80886
1694788026632812,-8.548314,3.883942,3.108238,0.1829,0.99032,0.76286
1694788026640625,-8.571314,3.818942,3.117238,0.7229,0.95432,0.81286
1694788026648437,-8.576314,3.802942,3.58238,0.9929,0.93632,0.79586
1694788026656250,-8.589314,3.816942,3.44238,0.19429,0.91732,0.79686
1694788026664062,-8.604314,3.874942,3.44238,0.24929,0.99732,0.69986
1694788026671875,-8.596314,3.903942,3.51238,0.40229,0.110832,0.61786
1694788026679687,-8.580314,3.857942,3.62238,0.56629,0.118832,0.58286
1694788026687500,-8.556314,3.797942,3.60238,0.68929,0.115132,0.55186
1694788026695312,-8.557314,3.769942,3.67238,0.76929,0.113132,0.53686
1694788026703125,-8.617314,3.767942,3.97238,0.73529,0.104932,0.55386
1694788026710937,-8.650314,3.766942,3.74238,0.78429,0.106432,0.55386
1694788026718750,-8.647314,3.759942,3.40238,0.84829,0.106232,0.55386
1694788026726562,-8.620314,3.717942,3.40238,0.89329,0.94332,0.55686
1694788026734375,-8.597314,3.673942,3.72238,0.101329,0.109332,0.55186
1694788026742187,-8.606314,3.668942,3.104238,0.97729,0.112732,0.53486
1694788026750000,-8.620314,3.643942,3.147238,0.100429,0.110832,0.55286
1694788026757812,-8.616314,3.616942,3.145238,0.98229,0.107632,0.53686
1694788026765625,-8.615314,3.565942,3.120238,0.101729,0.102432,0.55386
1694788026773437,-8.644314,3.509942,3.125238,0.92329,0.92532,0.54086
1694788026781250,-8.680314,3.492942,3.109238,0.75529,0.89932,0.63686
1694788026789062,-8.690314,3.487942,3.77238,0.74029,0.75232,0.74886
1694788026796875,-8.681314,3.493942,3.70238,0.73629,0.82032,0.74686
1694788026804687,-8.722314,3.548942,3.70238,0.68129,0.87232,0.77886
1694788026812500,-8.716314,3.617942,3.77238,0.73929,0.92232,0.76086
1694788026820312,-8.633314,3.606942,3.111238,0.73429,0.108532,0.59986
1694788026828125,-8.595314,3.582942,3.145238,0.83229,0.100932,0.49286
1694788026835937,-8.621314,3.571942,3.150238,0.97629,0.103432,0.30186
1694788026843750,-8.697314,3.556942,3.147238,0.97629,0.97932,0.20886
1694788026851562,-8.745314,3.521942,3.122238,0.98629,0.95632,0.3686
1694788026859375,-8.758314,3.492942,3.100238,0.97329,0.87732,0.16386
1694788026867187,-8.800314,3.471942,3.86238,0.102229,0.87632,0.17986
1694788026875000,-8.807314,3.453942,3.68238,0.105229,0.96132,0.22486
1694788026882812,-8.744314,3.456942,3.2238,0.98929,0.106532,0.25386
1694788026890625,-8.694314,3.520942,2.988238,0.99829,0.116432,0.25286
1694788026898437,-8.684314,3.561942,3.52238,0.99229,0.126432,0.17186
1694788026906250,-8.595314,3.548942,3.122238,0.108029,0.139132,0.1086
1694788026914062,-8.548314,3.581942,3.177238,0.108029,0.135432,0.6614
1694788026921875,-8.541314,3.615942,3.218238,0.120129,0.129532,0.20714
1694788026929687,-8.515314,3.636942,3.252238,0.121229,0.117732,0.22114
1694788026937500,-8.526314,3.616942,3.252238,0.122929,0.107632,0.20314
1694788026945312,-8.564314,3.569942,3.263238,0.120929,0.94232,0.21614
1694788026953125,-8.602314,3.546942,3.264238,0.123029,0.74632,0.2314
1694788026960937,-8.607314,3.539942,3.225238,0.116729,0.61432,0.414
1694788026968750,-8.636314,3.563942,3.218238,0.103729,0.63832,0.13786
1694788026976562,-8.628314,3.550942,3.205238,0.99629,0.64132,0.21786
1694788026984375,-8.557314,3.573942,3.157238,0.96029,0.69332,0.19986
1694788026992187,-8.580314,3.629942,3.147238,0.91329,0.77332,0.8886
1694788027000000,-8.641314,3.643942,3.184238,0.89729,0.92032,0.4014
1694788027007812,-8.664314,3.629942,3.161238,0.93729,0.96532,0.18314
1694788027015625,-8.671314,3.627942,3.140238,0.98229,0.98332,0.15314
1694788027023437,-8.639314,3.604942,3.154238,0.95529,0.105432,0.5914
1694788027031250,-8.611314,3.552942,3.182238,0.81629,0.100832,0.2614
1694788027039062,-8.593314,3.528942,3.209238,0.74429,0.102632,0.1014
1694788027046875,-8.593314,3.562942,3.198238,0.73329,0.94532,0.8686
1694788027054687,-8.598314,3.600942,3.213238,0.71529,0.89832,0.14986
1694788027062500,-8.594314,3.619942,3.222238,0.68229,0.81432,0.11986
1694788027070312,-8.612314,3.660942,3.220238,0.68629,0.88232,0.16686
1694788027078125,-8.626314,3.671942,3.190238,0.74429,0.91532,0.14886
1694788027085937,-8.617314,3.671942,3.147238,0.73129,0.98232,0.14786
1694788027093750,-8.639314,3.663942,3.147238,0.74529,0.99332,0.686
1694788027101562,-8.638314,3.626942,3.150238,0.73829,0.95732,0.614
1694788027109375,-8.595314,3.610942,3.145238,0.75029,0.105632,0.5614
1694788027117187,-8.581314,3.578942,3.182238,0.70329,0.110832,0.5714
1694788027125000,-8.584314,3.584942,3.218238,0.65529,0.94332,0.2314
1694788027132812,-8.602314,3.636942,3.216238,0.62829,0.92732,0.2586
1694788027140625,-8.608314,3.658942,3.222238,0.51729,0.94932,0.5586
1694788027148437,-8.621314,3.687942,3.232238,0.64129,0.97932,0.3986
1694788027156250,-8.682314,3.661942,3.247238,0.68629,0.93132,0.13386
1694788027164062,-8.696314,3.632942,3.236238,0.64129,0.111732,0.11486
1694788027171875,-8.646314,3.609942,3.188238,0.65829,0.112132,0.22386
1694788027179687,-8.602314,3.580942,3.179238,0.49329,0.107232,0.21186
1694788027187500,-8.586314,3.573942,3.182238,0.50729,0.113932,0.19386
1694788027195312,-8.562314,3.595942,3.179238,0.43029,0.112632,0.24186
1694788027203125,-8.566314,3.606942,3.213238,0.42829,0.109332,0.24186
1694788027210937,-8.548314,3.606942,3.255238,0.44829,0.95832,0.26086
1694788027218750,-8.543314,3.588942,3.252238,0.41829,0.97732,0.32386
1694788027226562,-8.564314,3.572942,3.268238,0.26129,0.98232,0.33986
1694788027234375,-8.566314,3.583942,3.238238,0.27829,0.93532,0.43486
1694788027242187,-8.610314,3.620942,3.202238,0.26429,0.88932,0.54586
1694788027250000,-8.672314,3.640942,3.191238,0.27029,0.90232,0.46786
1694788027257812,-8.685314,3.668942,3.165238,0.34529,0.100532,0.55886
1694788027265625,-8.646314,3.668942,3.143238,0.45429,0.96832,0.54386
1694788027273437,-8.637314,3.631942,3.186238,0.47629,0.106932,0.50886
1694788027281250,-8.604314,3.612942,3.188238,0.54829,0.115132,0.45786
1694788027289062,-8.580314,3.606942,3.207238,0.58229,0.115932,0.30186
1694788027296875,-8.600314,3.593942,3.254238,0.59729,0.110532,0.22486
1694788027304687,-8.632314,3.591942,3.257238,0.63929,0.112132,0.19186
1694788027312500,-8.660314,3.575942,3.236238,0.68029,0.111832,0.20986
1694788027320312,-8.654314,3.536942,3.232238,0.71829,0.95132,0.21186
1694788027328125,-8.590314,3.524942,3.193238,0.55529,0.102332,0.25886
1694788027335937,-8.581314,3.535942,3.198238,0.50529,0.109032,0.20986
1694788027343750,-8.617314,3.549942,3.246238,0.46329,0.107332,0.19586
1694788027351562,-8.590314,3.563942,3.202238,0.51029,0.108332,0.7086
1694788027359375,-8.577314,3.594942,3.177238,0.49229,0.108232,0.2286
1694788027367187,-8.609314,3.610942,3.198238,0.47529,0.101332,0.2214
1694788027375000,-8.650314,3.654942,3.204238,0.50329,0.106332,0.4014
1694788027382812,-8.635314,3.690942,3.181238,0.48929,0.114632,0.5714
1694788027390625,-8.592314,3.691942,3.179238,0.52929,0.111232,0.8914
1694788027398437,-8.595314,3.709942,3.197238,0.63729,0.107532,0.8814
1694788027406250,-8.574314,3.708942,3.220238,0.68929,0.113832,0.15114
1694788027414062,-8.510314,3.697942,3.209238,0.74629,0.106932,0.16714
1694788027421875,-8.515314,3.729942,3.238238,0.82629,0.101432,0.21214
1694788027429687,-8.613314,3.763942,3.288238,0.92929,0.99832,0.18214
1694788027437500,-8.667314,3.730942,3.277238,0.98929,0.91632,0.8714
1694788027445312,-8.603314,3.668942,3.225238,0.113029,0.94732,0.5614
1694788027453125,-8.562314,3.612942,3.209238,0.118629,0.90132,0.5286
1694788027460937,-8.559314,3.568942,3.220238,0.120529,0.90032,0.3786
1694788027468750,-8.570314,3.582942,3.211238,0.102029,0.97132,0.3686
1694788027476562,-8.583314,3.655942,3.211238,0.97429,0.102132,0.486
1694788027484375,-8.561314,3.709942,3.245238,0.114429,0.105032,0.1214
1694788027492187,-8.529314,3.739942,3.291238,0.118729,0.103232,0.4414
1694788027500000,-8.484314,3.714942,3.313238,0.123129,0.96132,0.10614
1694788027507812,-8.449314,3.681942,3.330238,0.129529,0.84232,0.8714
1694788027515625,-8.465314,3.647942,3.350238,0.130629,0.62432,0.8314
1694788027523437,-8.524314,3.627942,3.355238,0.124429,0.57732,0.3514
1694788027531250,-8.571314,3.610942,3.341238,0.131829,0.47532,0.3414
1694788027539062,-8.601314,3.606942,3.323238,0.142629,0.47532,0.4386
1694788027546875,-8.648314,3.600942,3.318238,0.147429,0.47232,0.314
1694788027554687,-8.681314,3.556942,3.275238,0.145629,0.52132,0.6714
1694788027562500,-8.710314,3.494942,3.225238,0.147229,0.50532,0.3514
1694788027570312,-8.706314,3.435942,3.157238,0.135529,0.57232,0.6614
1694788027578125,-8.715314,3.402942,3.118238,0.119229,0.74432,0.3614
1694788027585937,-8.719314,3.399942,3.105238,0.112829,0.79332,0.13214
1694788027593750,-8.713314,3.406942,3.116238,0.97129,0.91132,0.22814
1694788027601562,-8.691314,3.427942,3.123238,0.80029,0.106832,0.20014
1694788027609375,-8.673314,3.472942,3.136238,0.72729,0.118632,0.21714
1694788027617187,-8.673314,3.512942,3.177238,0.71829,0.120332,0.20014
1694788027625000,-8.660314,3.530942,3.221238,0.53529,0.119032,0.19914
1694788027632812,-8.597314,3.538942,3.246238,0.48729,0.121232,0.10614
1694788027640625,-8.538314,3.546942,3.257238,0.49029,0.112732,0.10314
1694788027648437,-8.511314,3.584942,3.287238,0.38829,0.109832,0.2314
1694788027656250,-8.494314,3.655942,3.291238,0.41629,0.106732,0.2386
1694788027664062,-8.492314,3.726942,3.282238,0.40029,0.91332,0.3514
1694788027671875,-8.496314,3.791942,3.300238,0.52129,0.91232,0.514
1694788027679687,-8.529314,3.810942,3.302238,0.66229,0.87532,0.5414
1694788027687500,-8.559314,3.798942,3.268238,0.82129,0.68732,0.1814
1694788027695312,-8.603314,3.780942,3.258238,0.100029,0.77032,0.2486
1694788027703125,-8.640314,3.741942,3.225238,0.115829,0.69932,0.4186
1694788027710937,-8.680314,3.681942,3.209238,0.124829,0.68232,0.7286
1694788027718750,-8.682314,3.615942,3.191238,0.120529,0.81932,0.11786
1694788027726562,-8.674314,3.561942,3.182238,0.135629,0.88232,0.9886
1694788027734375,-8.675314,3.485942,3.207238,0.138729,0.87732,0.1014
1694788027742187,-8.681314,3.430942,3.196238,0.122029,0.97832,0.8914
1694788027750000,-8.674314,3.403942,3.177238,0.123429,0.111232,0.10814
1694788027757812,-8.645314,3.384942,3.200238,0.109129,0.119932,0.15714
1694788027765625,-8.618314,3.388942,3.228238,0.98829,0.119632,0.26614
1694788027773437,-8.648314,3.422942,3.252238,0.80029,0.114832,0.31114
1694788027781250,-8.648314,3.458942,3.259238,0.74229,0.128132,0.37614
1694788027789062,-8.614314,3.486942,3.250238,0.74029,0.131432,0.39214
1694788027796875,-8.587314,3.508942,3.252238,0.74329,0.131532,0.36114
1694788027804687,-8.573314,3.522942,3.289238,0.66929,0.121132,0.45114
1694788027812500,-8.552314,3.537942,3.307238,0.52529,0.121532,0.46714
1694788027820312,-8.554314,3.548942,3.316238,0.51429,0.116332,0.48114
1694788027828125,-8.552314,3.568942,3.332238,0.51229,0.107932,0.47914
1694788027835937,-8.541314,3.597942,3.330238,0.60329,0.114132,0.56014
1694788027843750,-8.562314,3.603942,3.329238,0.67129,0.103932,0.59114
1694788027851562,-8.564314,3.615942,3.343238,0.59829,0.105632,0.62114
1694788027859375,-8.539314,3.631942,3.332238,0.57429,0.99232,0.52514
1694788027867187,-8.535314,3.650942,3.327238,0.64529,0.90932,0.47714
1694788027875000,-8.541314,3.672942,3.329238,0.58029,0.92932,0.44714
1694788027882812,-8.547314,3.679942,3.325238,0.58629,0.87732,0.46014
1694788027890625,-8.539314,3.700942,3.302238,0.63829,0.94332,0.42914
1694788027898437,-8.531314,3.719942,3.275238,0.67829,0.96032,0.43114
1694788027906250,-8.505314,3.729942,3.279238,0.72129,0.94732,0.33814
1694788027914062,-8.513314,3.721942,3.304238,0.72629,0.89732,0.28914
1694788027921875,-8.534314,3.726942,3.297238,0.71229,0.90032,0.22614
1694788027929687,-8.550314,3.724942,3.277238,0.74129,0.87132,0.11614
1694788027937500,-8.577314,3.762942,3.263238,0.73029,0.80632,0.2014
1694788027945312,-8.623314,3.800942,3.258238,0.77329,0.84032,0.614
1694788027953125,-8.655314,3.810942,3.272238,0.88429,0.94232,0.8586
1694788027960937,-8.593314,3.765942,3.261238,0.96129,0.106032,0.11386
1694788027968750,-8.530314,3.712942,3.256238,0.109429,0.110632,0.6386
1694788027976562,-8.520314,3.672942,3.286238,0.98829,0.95732,0.6786
1694788027984375,-8.535314,3.662942,3.289238,0.108329,0.100432,0.5186
1694788027992187,-8.542314,3.653942,3.291238,0.114429,0.100232,0.3586
1694788028000000,-8.566314,3.633942,3.325238,0.111629,0.91732,0.2286
1694788028007812,-8.590314,3.619942,3.362238,0.110729,0.105032,0.486
1694788028015625,-8.575314,3.624942,3.336238,0.109929,0.110032,0.6014
1694788028023437,-8.592314,3.671942,3.334238,0.97829,0.110532,0.1886
1694788028031250,-8.640314,3.707942,3.366238,0.108229,0.115032,0.7714
1694788028039062,-8.609314,3.669942,3.400238,0.123729,0.132632,0.20714
1694788028046875,-8.475314,3.589942,3.371238,0.120429,0.139332,0.25514
1694788028054687,-8.376314,3.533942,3.382238,0.119029,0.126832,0.42414
1694788028062500,-8.378314,3.529942,3.435238,0.93129,0.115732,0.37314
1694788028070312,-8.423314,3.591942,3.471238,0.77429,0.103032,0.30714
1694788028078125,-8.458314,3.656942,3.471238,0.74129,0.91332,0.30514
1694788028085937,-8.456314,3.709942,3.473238,0.74229,0.89732,0.27314
1694788028093750,-8.434314,3.718942,3.464238,0.74029,0.78232,0.22414
1694788028101562,-8.440314,3.716942,3.439238,0.75929,0.71532,0.19114
1694788028109375,-8.463314,3.716942,3.418238,0.77329,0.63032,0.20514
1694788028117187,-8.463314,3.700942,3.393238,0.74229,0.56732,0.10914
1694788028125000,-8.460314,3.685942,3.361238,0.72929,0.55032,0.10814
1694788028132812,-8.476314,3.672942,3.334238,0.74129,0.53632,0.6214
1694788028140625,-8.509314,3.671942,3.320238,0.73629,0.60732,0.214
1694788028148437,-8.511314,3.670942,3.300238,0.74129,0.55532,0.0
1694788028156250,-8.513314,3.678942,3.266238,0.72529,0.62432,0.1386
1694788028164062,-8.542314,3.690942,3.261238,0.74429,0.62432,0.6186
1694788028171875,-8.554314,3.704942,3.263238,0.73229,0.64532,0.15586
1694788028179687,-8.552314,3.722942,3.275238,0.68629,0.54932,0.26786
1694788028187500,-8.545314,3.697942,3.279238,0.76329,0.61632,0.29686
1694788028195312,-8.531314,3.686942,3.293238,0.72129,0.58432,0.32986
1694788028203125,-8.562314,3.669942,3.298238,0.69029,0.53732,0.39386
1694788028210937,-8.569314,3.671942,3.275238,0.75329,0.55632,0.48686
1694788028218750,-8.603314,3.662942,3.266238,0.73829,0.50832,0.53586
1694788028226562,-8.609314,3.652942,3.261238,0.75929,0.59232,0.56586
1694788028234375,-8.582314,3.643942,3.236238,0.74329,0.64332,0.56486
1694788028242187,-8.572314,3.612942,3.234238,0.74629,0.64532,0.54686
1694788028250000,-8.604314,3.611942,3.257238,0.75629,0.66032,0.56386
1694788028257812,-8.638314,3.614942,3.257238,0.75529,0.57532,0.54986
1694788028265625,-8.629314,3.605942,3.225238,0.75429,0.67532,0.51586
1694788028273437,-8.599314,3.594942,3.216238,0.76129,0.70732,0.51686
1694788028281250,-8.608314,3.576942,3.221238,0.75929,0.64032,0.51786
1694788028289062,-8.629314,3.598942,3.225238,0.75229,0.65532,0.43786
1694788028296875,-8.636314,3.619942,3.195238,0.77129,0.65132,0.36086
1694788028304687,-8.614314,3.603942,3.154238,0.93429,0.63232,0.37486
1694788028312500,-8.664314,3.657942,3.166238,0.96829,0.71532,0.37286
1694788028320312,-8.776314,3.698942,3.215238,0.105629,0.72932,0.32486
1694788028328125,-8.746314,3.641942,3.206238,0.123529,0.86232,0.35086
1694788028335937,-8.650314,3.553942,3.179238,0.122229,0.94532,0.33386
1694788028343750,-8.594314,3.490942,3.207238,0.122129,0.99332,0.25386
1694788028351562,-8.590314,3.488942,3.243238,0.99029,0.98132,0.25586
1694788028359375,-8.602314,3.532942,3.261238,0.98929,0.99532,0.17686
1694788028367187,-8.603314,3.597942,3.259238,0.95829,0.97832,0.16186
1694788028375000,-8.560314,3.628942,3.284238,0.92929,0.104132,0.5186
1694788028382812,-8.457314,3.621942,3.291238,0.99429,0.102232,0.5186
1694788028390625,-8.374314,3.619942,3.332238,0.100029,0.89932,0.11914
1694788028398437,-8.374314,3.637942,3.402238,0.99929,0.69332,0.19214
1694788028406250,-8.431314,3.671942,3.441238,0.96729,0.57532,0.23714
1694788028414062,-8.454314,3.696942,3.427238,0.103029,0.38632,0.28014
1694788028421875,-8.461314,3.718942,3.402238,0.116729,0.30332,0.16914
1694788028429687,-8.513314,3.703942,3.393238,0.125629,0.18832,0.7414
1694788028437500,-8.567314,3.688942,3.359238,0.122829,0.20732,0.1114
1694788028445312,-8.571314,3.654942,3.309238,0.122029,0.21132,0.9986
1694788028453125,-8.557314,3.633942,3.270238,0.123229,0.24532,0.11386
1694788028460937,-8.588314,3.682942,3.250238,0.121629,0.28132,0.14486
1694788028468750,-8.661314,3.738942,3.254238,0.125729,0.41532,0.10886
1694788028476562,-8.715314,3.780942,3.256238,0.140529,0.59432,0.9086
1694788028484375,-8.713314,3.767942,3.225238,0.157229,0.79232,0.6886
1694788028492187,-8.697314,3.713942,3.215238,0.163329,0.84332,0.11386
1694788028500000,-8.645314,3.628942,3.209238,0.173029,0.90832,0.14486
1694788028507812,-8.630314,3.604942,3.186238,0.164429,0.89732,0.19086
1694788028515625,-8.646314,3.613942,3.209238,0.158229,0.91632,0.20586
1694788028523437,-8.671314,3.616942,3.238238,0.146329,0.90132,0.19186
1694788028531250,-8.678314,3.614942,3.257238,0.155429,0.100132,0.21986
1694788028539062,-8.670314,3.585942,3.270238,0.159029,0.118332,0.16986
1694788028546875,-8.639314,3.595942,3.270238,0.152429,0.118232,0.10686
1694788028554687,-8.603314,3.568942,3.280238,0.158029,0.126232,0.7586
1694788028562500,-8.554314,3.530942,3.323238,0.154229,0.132932,0.986
1694788028570312,-8.495314,3.520942,3.359238,0.147929,0.133032,0.514
1694788028578125,-8.430314,3.552942,3.400238,0.142629,0.136132,0.13214
1694788028585937,-8.424314,3.601942,3.434238,0.138229,0.119032,0.20614
1694788028593750,-8.433314,3.630942,3.475238,0.147329,0.110432,0.22014
1694788028601562,-8.403314,3.615942,3.505238,0.147529,0.98432,0.23314
1694788028609375,-8.364314,3.563942,3.503238,0.143129,0.85232,0.19814
1694788028617187,-8.388314,3.528942,3.512238,0.139729,0.65032,0.21014
1694788028625000,-8.422314,3.503942,3.523238,0.124129,0.58832,0.17614
1694788028632812,-8.456314,3.526942,3.496238,0.121429,0.41032,0.1514
1694788028640625,-8.493314,3.551942,3.473238,0.123129,0.35932,0.186
1694788028648437,-8.529314,3.586942,3.450238,0.121829,0.37732,0.3286
1694788028656250,-8.567314,3.610942,3.414238,0.112129,0.39832,0.6286
1694788028664062,-8.544314,3.580942,3.396238,0.112129,0.44832,0.4686
1694788028671875,-8.529314,3.523942,3.403238,0.104929,0.46832,0.9486
1694788028679687,-8.528314,3.467942,3.387238,0.102129,0.43232,0.4886
1694788028687500,-8.531314,3.430942,3.371238,0.88729,0.50232,0.4886
1694788028695312,-8.546314,3.420942,3.357238,0.74229,0.42532,0.12886
1694788028703125,-8.562314,3.472942,3.341238,0.63829,0.34632,0.20986
1694788028710937,-8.619314,3.565942,3.346238,0.44429,0.36532,0.17986
1694788028718750,-8.675314,3.644942,3.323238,0.61529,0.42932,0.19386
1694788028726562,-8.710314,3.697942,3.282238,0.73229,0.52832,0.18986
1694788028734375,-8.699314,3.697942,3.236238,0.80829,0.59232,0.14086
1694788028742187,-8.666314,3.650942,3.216238,0.84029,0.72332,0.7486
1694788028750000,-8.665314,3.608942,3.232238,0.87229,0.82232,0.4186
1694788028757812,-8.672314,3.585942,3.254238,0.100529,0.80132,0.2214
1694788028765625,-8.672314,3.572942,3.248238,0.93329,0.83732,0.2586
1694788028773437,-8.656314,3.580942,3.243238,0.92829,0.90632,0.3886
1694788028781250,-8.638314,3.605942,3.254238,0.97629,0.92132,0.2286
1694788028789062,-8.612314,3.615942,3.266238,0.91429,0.109032,0.386
1694788028796875,-8.602314,3.618942,3.300238,0.100629,0.111932,0.6014
1694788028804687,-8.602314,3.614942,3.327238,0.105329,0.105032,0.7414
1694788028812500,-8.602314,3.602942,3.343238,0.111229,0.104532,0.15314
1694788028820312,-8.602314,3.593942,3.355238,0.99129,0.103232,0.13614
1694788028828125,-8.604314,3.593942,3.357238,0.102329,0.111832,0.6014
1694788028835937,-8.576314,3.587942,3.350238,0.102629,0.106832,0.4214
1694788028843750,-8.540314,3.600942,3.359238,0.101129,0.110132,0.5914
1694788028851562,-8.516314,3.612942,3.368238,0.102329,0.116932,0.4514
1694788028859375,-8.491314,3.614942,3.368238,0.110029,0.115132,0.3014
1694788028867187,-8.494314,3.612942,3.371238,0.106729,0.116832,0.6114
1694788028875000,-8.448314,3.582942,3.389238,0.105429,0.113532,0.4514
1694788028882812,-8.427314,3.559942,3.407238,0.103529,0.101932,0.2714
1694788028890625,-8.455314,3.557942,3.453238,0.103429,0.95132,0.4114
1694788028898437,-8.461314,3.562942,3.453238,0.100429,0.90332,0.686
1694788028906250,-8.484314,3.596942,3.446238,0.100429,0.78332,0.5314
1694788028914062,-8.525314,3.637942,3.418238,0.96229,0.78332,0.5214
1694788028921875,-8.581314,3.698942,3.400238,0.108229,0.73132,0.2014
1694788028929687,-8.608314,3.707942,3.398238,0.120129,0.84732,0.2414
1694788028937500,-8.591314,3.671942,3.377238,0.117629,0.94632,0.7214
1694788028945312,-8.525314,3.617942,3.339238,0.124829,0.89432,0.7314
1694788028953125,-8.468314,3.556942,3.323238,0.112629,0.84632,0.8614
1694788028960937,-8.483314,3.514942,3.353238,0.102229,0.78032,0.8414
1694788028968750,-8.538314,3.525942,3.373238,0.98329,0.61632,0.3414
1694788028976562,-8.578314,3.565942,3.366238,0.93229,0.63232,0.4814
1694788028984375,-8.573314,3.593942,3.362238,0.95829,0.63432,0.214
1694788028992187,-8.570314,3.602942,3.362238,0.77729,0.62532,0.10886
1694788029000000,-8.582314,3.622942,3.362238,0.88629,0.69032,0.10686
1694788029007812,-8.591314,3.633942,3.339238,0.90129,0.63932,0.10786
1694788029015625,-8.580314,3.637942,3.327238,0.93029,0.82232,0.5686
1694788029023437,-8.564314,3.647942,3.341238,0.99829,0.92432,0.14886
1694788029031250,-8.569314,3.642942,3.359238,0.97629,0.88832,0.3886
1694788029039062,-8.566314,3.628942,3.366238,0.99129,0.95432,0.2186
1694788029046875,-8.557314,3.613942,3.359238,0.97729,0.100632,0.5186
1694788029054687,-8.568314,3.608942,3.359238,0.100729,0.98832,0.3686
1694788029062500,-8.555314,3.588942,3.355238,0.98929,0.100632,0.5186
1694788029070312,-8.532314,3.578942,3.391238,0.97529,0.90732,0.10086
1694788029078125,-8.527314,3.572942,3.400238,0.99229,0.91132,0.21086
1694788029085937,-8.516314,3.569942,3.412238,0.97429,0.95832,0.9986
1694788029093750,-8.527314,3.554942,3.446238,0.99129,0.90532,0.5486
1694788029101562,-8.506314,3.557942,3.435238,0.98129,0.97132,0.3886
1694788029109375,-8.490314,3.552942,3.444238,0.96429,0.85432,0.5686
1694788029117187,-8.501314,3.591942,3.455238,0.98829,0.87332,0.8586
1694788029125000,-8.550314,3.619942,3.459238,0.97529,0.100632,0.3586
1694788029132812,-8.553314,3.621942,3.457238,0.100729,0.83832,0.8686
1694788029140625,-8.528314,3.607942,3.437238,0.102229,0.82532,0.16586
1694788029148437,-8.532314,3.570942,3.421238,0.117629,0.75532,0.21286
1694788029156250,-8.525314,3.545942,3.405238,0.97729,0.69632,0.30986
1694788029164062,-8.532314,3.540942,3.412238,0.111429,0.81232,0.30586
1694788029171875,-8.557314,3.536942,3.443238,0.106429,0.86332,0.27286
1694788029179687,-8.581314,3.539942,3.435238,0.105529,0.82332,0.16586
1694788029187500,-8.601314,3.526942,3.409238,0.119229,0.90632,0.19386
1694788029195312,-8.608314,3.504942,3.384238,0.122329,0.90632,0.22586
1694788029203125,-8.598314,3.480942,3.387238,0.113629,0.96032,0.27286
1694788029210937,-8.651314,3.502942,3.409238,0.103929,0.111332,0.22186
1694788029218750,-8.664314,3.503942,3.446238,0.103229,0.114732,0.26986
1694788029226562,-8.564314,3.443942,3.435238,0.101329,0.116332,0.22186
1694788029234375,-8.475314,3.404942,3.430238,0.102829,0.113032,0.23786
1694788029242187,-8.455314,3.408942,3.480238,0.82729,0.108532,0.27086
1694788029250000,-8.468314,3.444942,3.515238,0.79829,0.108232,0.17786
1694788029257812,-8.510314,3.504942,3.523238,0.76229,0.89532,0.10286
1694788029265625,-8.545314,3.543942,3.517238,0.77829,0.89332,0.7186
1694788029273437,-8.550314,3.529942,3.494238,0.90629,0.85532,0.5786
1694788029281250,-8.548314,3.479942,3.476238,0.88629,0.72432,0.12186
1694788029289062,-8.584314,3.448942,3.467238,0.81429,0.74232,0.13886
1694788029296875,-8.595314,3.453942,3.446238,0.80129,0.72732,0.18686
1694788029304687,-8.599314,3.460942,3.437238,0.74229,0.76132,0.17086
1694788029312500,-8.590314,3.449942,3.455238,0.75829,0.84232,0.9086
1694788029320312,-8.597314,3.433942,3.449238,0.76629,0.86032,0.8886
1694788029328125,-8.583314,3.442942,3.417238,0.81729,0.85632,0.5786
1694788029335937,-8.586314,3.462942,3.405238,0.79829,0.88832,0.2114
1694788029343750,-8.609314,3.475942,3.421238,0.84029,0.95332,0.7014
1694788029351562,-8.610314,3.477942,3.426238,0.75929,0.98532,0.16514
1694788029359375,-8.575314,3.468942,3.421238,0.77429,0.101732,0.21314
1694788029367187,-8.532314,3.452942,3.417238,0.77729,0.101632,0.22814
1694788029375000,-8.516314,3.464942,3.426238,0.76429,0.96332,0.27314
1694788029382812,-8.508314,3.471942,3.441238,0.73829,0.88032,0.30514
1694788029390625,-8.512314,3.480942,3.451238,0.72429,0.79632,0.30314
1694788029398437,-8.551314,3.539942,3.451238,0.72729,0.57832,0.25014
1694788029406250,-8.582314,3.588942,3.443238,0.73929,0.64632,0.25314
1694788029414062,-8.582314,3.615942,3.423238,0.72629,0.76332,0.27014
1694788029421875,-8.582314,3.640942,3.396238,0.92829,0.71032,0.20714
1694788029429687,-8.610314,3.664942,3.364238,0.96829,0.64332,0.20714
1694788029437500,-8.617314,3.719942,3.339238,0.112829,0.85832,0.18014
1694788029445312,-8.622314,3.752942,3.306238,0.122929,0.100732,0.23214
1694788029453125,-8.620314,3.727942,3.327238,0.133829,0.105532,0.23314
1694788029460937,-8.635314,3.665942,3.352238,0.152129,0.113432,0.26814
1694788029468750,-8.615314,3.596942,3.355238,0.150829,0.113532,0.22014
1694788029476562,-8.604314,3.549942,3.380238,0.157029,0.123632,0.19114
1694788029484375,-8.590314,3.531942,3.412238,0.148029,0.123932,0.16014
1694788029492187,-8.542314,3.523942,3.435238,0.141929,0.120832,0.14314
1694788029500000,-8.531314,3.505942,3.457238,0.141729,0.124232,0.12814
1694788029507812,-8.529314,3.514942,3.487238,0.138629,0.127432,0.19114
1694788029515625,-8.488314,3.524942,3.507238,0.135429,0.135932,0.20914
1694788029523437,-8.455314,3.536942,3.530238,0.125929,0.142732,0.25814
1694788029531250,-8.457314,3.539942,3.569238,0.122729,0.137132,0.41314
1694788029539062,-8.427314,3.528942,3.583238,0.121229,0.130232,0.45814
1694788029546875,-8.404314,3.534942,3.580238,0.122729,0.130132,0.47414
1694788029554687,-8.393314,3.528942,3.594238,0.118429,0.116732,0.45414
1694788029562500,-8.376314,3.521942,3.626238,0.101829,0.110232,0.46714
1694788029570312,-8.391314,3.540942,3.646238,0.96429,0.107332,0.43614
1694788029578125,-8.425314,3.563942,3.667238,0.98329,0.102032,0.45014
1694788029585937,-8.432314,3.579942,3.644238,0.93729,0.97432,0.37114
1694788029593750,-8.410314,3.598942,3.614238,0.84529,0.91232,0.29114
1694788029601562,-8.367314,3.600942,3.612238,0.73829,0.84732,0.28914
1694788029609375,-8.337314,3.597942,3.612238,0.74029,0.90132,0.19614
1694788029617187,-8.354314,3.652942,3.626238,0.74129,0.84632,0.28814
1694788029625000,-8.384314,3.714942,3.614238,0.75329,0.78132,0.25614
1694788029632812,-8.385314,3.750942,3.589238,0.84429,0.67832,0.25414
1694788029640625,-8.389314,3.755942,3.564238,0.86229,0.58032,0.15814
1694788029648437,-8.416314,3.760942,3.546238,0.92829,0.63132,0.8014
1694788029656250,-8.468314,3.740942,3.550238,0.98929,0.66832,0.2786
1694788029664062,-8.490314,3.712942,3.555238,0.97629,0.65232,0.5986
1694788029671875,-8.461314,3.671942,3.523238,0.106529,0.73732,0.8886
1694788029679687,-8.426314,3.626942,3.512238,0.102129,0.62432,0.20086
1694788029687500,-8.448314,3.622942,3.539238,0.105829,0.62632,0.29586
1694788029695312,-8.475314,3.618942,3.541238,0.97829,0.57832,0.31286
1694788029703125,-8.471314,3.647942,3.512238,0.99829,0.63332,0.43686
1694788029710937,-8.485314,3.683942,3.493238,0.101229,0.63432,0.46786
1694788029718750,-8.529314,3.692942,3.518238,0.108929,0.68332,0.48186
1694788029726562,-8.532314,3.655942,3.516238,0.115229,0.76232,0.38686
1694788029734375,-8.511314,3.607942,3.496238,0.116729,0.71632,0.49686
1694788029742187,-8.477314,3.544942,3.507238,0.114929,0.75032,0.49586
1694788029750000,-8.498314,3.501942,3.553238,0.109529,0.73532,0.54486
1694788029757812,-8.533314,3.487942,3.587238,0.107529,0.77032,0.54286
1694788029765625,-8.505314,3.499942,3.578238,0.100729,0.80332,0.52886
1694788029773437,-8.473314,3.516942,3.599238,0.100629,0.72032,0.56186
1694788029781250,-8.467314,3.506942,3.583238,0.99629,0.62132,0.54686
1694788029789062,-8.483314,3.512942,3.551238,0.98829,0.68832,0.56186
1694788029796875,-8.508314,3.529942,3.519238,0.99929,0.68532,0.48286
1694788029804687,-8.501314,3.534942,3.507238,0.102929,0.71732,0.45086
1694788029812500,-8.464314,3.512942,3.549238,0.111129,0.61132,0.40686
1694788029820312,-8.455314,3.498942,3.565238,0.113629,0.65732,0.29486
1694788029828125,-8.487314,3.462942,3.574238,0.117929,0.63632,0.20086
1694788029835937,-8.525314,3.456942,3.576238,0.123729,0.58732,0.24786
1694788029843750,-8.566314,3.450942,3.601238,0.120629,0.56732,0.15486
1694788029851562,-8.586314,3.437942,3.594238,0.108629,0.68632,0.13786
1694788029859375,-8.581314,3.406942,3.549238,0.105529,0.65232,0.9186
1694788029867187,-8.559314,3.405942,3.517238,0.109929,0.66732,0.7486
1694788029875000,-8.562314,3.404942,3.506238,0.105929,0.68232,0.4486
1694788029882812,-8.587314,3.418942,3.467238,0.99829,0.63432,0.6186
1694788029890625,-8.661314,3.456942,3.469238,0.99329,0.63432,0.4486
1694788029898437,-8.665314,3.432942,3.446238,0.96729,0.71632,0.214
1694788029906250,-8.608314,3.403942,3.433238,0.92129,0.78332,0.5014
1694788029914062,-8.599314,3.397942,3.451238,0.88529,0.82032,0.514
1694788029921875,-8.599314,3.397942,3.474238,0.75229,0.82532,0.5886
1694788029929687,-8.601314,3.406942,3.476238,0.75029,0.92432,0.886
1694788029937500,-8.568314,3.426942,3.471238,0.72029,0.87732,0.7286
1694788029945312,-8.516314,3.458942,3.471238,0.64329,0.98032,0.7086
1694788029953125,-8.512314,3.499942,3.487238,0.67529,0.96132,0.3986
1694788029960937,-8.528314,3.532942,3.533238,0.75129,0.102632,0.3886
1694788029968750,-8.489314,3.537942,3.540238,0.74029,0.97332,0.2214
1694788029976562,-8.430314,3.504942,3.544238,0.75129,0.95532,0.5414
1694788029984375,-8.423314,3.484942,3.590238,0.76829,0.95532,0.3814
1694788029992187,-8.455314,3.490942,3.644238,0.73129,0.85432,0.8414
1694788030000000,-8.456314,3.488942,3.656238,0.74429,0.73732,0.6614
1694788030007812,-8.458314,3.475942,3.631238,0.76029,0.58532,0.6214
1694788030015625,-8.494314,3.507942,3.601238,0.76429,0.51532,0.10714
1694788030023437,-8.559314,3.554942,3.562238,0.70929,0.53132,0.18714
1694788030031250,-8.586314,3.563942,3.526238,0.81529,0.59432,0.25214
1694788030039062,-8.573314,3.538942,3.492238,0.100729,0.65632,0.23714
1694788030046875,-8.546314,3.510942,3.455238,0.92529,0.67132,0.34714
1694788030054687,-8.566314,3.502942,3.469238,0.97629,0.71832,0.37914
1694788030062500,-8.587314,3.517942,3.473238,0.99829,0.75232,0.41314
1694788030070312,-8.546314,3.546942,3.471238,0.97429,0.81732,0.46014
1694788030078125,-8.521314,3.559942,3.478238,0.99029,0.88532,0.41414
1694788030085937,-8.485314,3.563942,3.485238,0.97329,0.87032,0.39914
1694788030093750,-8.484314,3.596942,3.494238,0.100029,0.88732,0.40014
1694788030101562,-8.497314,3.613942,3.510238,0.100929,0.87232,0.28814
1694788030109375,-8.496314,3.625942,3.516238,0.100429,0.82332,0.28814
1694788030117187,-8.479314,3.615942,3.514238,0.104129,0.85932,0.19414
1694788030125000,-8.425314,3.568942,3.507238,0.104929,0.84232,0.21114
1694788030132812,-8.427314,3.560942,3.521238,0.99129,0.68032,0.8114
1694788030140625,-8.527314,3.628942,3.560238,0.99529,0.71732,0.2786
1694788030148437,-8.538314,3.624942,3.560238,0.104129,0.80032,0.986
1694788030156250,-8.465314,3.603942,3.521238,0.101529,0.82032,0.8886
1694788030164062,-8.424314,3.550942,3.542238,0.101829,0.72232,0.20186
1694788030171875,-8.435314,3.529942,3.583238,0.95629,0.77532,0.21586
1694788030179687,-8.501314,3.561942,3.569238,0.95229,0.70832,0.20086
1694788030187500,-8.545314,3.608942,3.539238,0.99629,0.72532,0.21586
1694788030195312,-8.514314,3.612942,3.512238,0.98129,0.87532,0.18086
1694788030203125,-8.483314,3.563942,3.533238,0.107229,0.87232,0.14986
1694788030210937,-8.460314,3.500942,3.537238,0.105529,0.85632,0.13386
1694788030218750,-8.472314,3.502942,3.544238,0.100529,0.75132,0.1086
1694788030226562,-8.523314,3.510942,3.594238,0.99429,0.73332,0.414
1694788030234375,-8.524314,3.511942,3.608238,0.103529,0.78232,0.5314
1694788030242187,-8.517314,3.518942,3.592238,0.96029,0.68332,0.1914
1694788030250000,-8.491314,3.514942,3.555238,0.99629,0.69932,0.214
1694788030257812,-8.485314,3.552942,3.537238,0.99529,0.68532,0.5986
1694788030265625,-8.506314,3.583942,3.530238,0.100929,0.63232,0.1386
1694788030273437,-8.485314,3.561942,3.501238,0.104029,0.68132,0.1814
1694788030281250,-8.493314,3.565942,3.505238,0.114229,0.63232,0.5886
1694788030289062,-8.525314,3.551942,3.510238,0.118529,0.61332,0.1186
1694788030296875,-8.558314,3.541942,3.546238,0.114629,0.66532,0.5886
1694788030304687,-8.576314,3.522942,3.523238,0.117829,0.65132,0.13786
1694788030312500,-8.557314,3.489942,3.510238,0.117029,0.75632,0.26186
1694788030320312,-8.556314,3.449942,3.508238,0.114329,0.85832,0.29186
1694788030328125,-8.588314,3.419942,3.515238,0.100229,0.83332,0.40186
1694788030335937,-8.587314,3.409942,3.519238,0.99329,0.93032,0.33886
1694788030343750,-8.513314,3.367942,3.503238,0.99729,0.94732,0.28886
1694788030351562,-8.502314,3.375942,3.535238,0.88629,0.94832,0.24186
1694788030359375,-8.507314,3.409942,3.560238,0.75029,0.101232,0.8586
1694788030367187,-8.475314,3.424942,3.562238,0.74829,0.106132,0.3686
1694788030375000,-8.460314,3.434942,3.560238,0.74529,0.94232,0.814
1694788030382812,-8.455314,3.464942,3.592238,0.73129,0.90532,0.8514
1694788030390625,-8.512314,3.510942,3.610238,0.76529,0.82032,0.5114
1694788030398437,-8.552314,3.526942,3.589238,0.77029,0.73832,0.5114
1694788030406250,-8.536314,3.531942,3.571238,0.78829,0.82032,0.8414
1694788030414062,-8.563314,3.527942,3.573238,0.83329,0.78832,0.2114
1694788030421875,-8.589314,3.504942,3.551238,0.97729,0.80332,0.4086
1694788030429687,-8.582314,3.493942,3.530238,0.87129,0.85332,0.2114
1694788030437500,-8.577314,3.461942,3.535238,0.79429,0.84032,0.1086
1694788030445312,-8.571314,3.447942,3.542238,0.81929,0.97732,0.5286
1694788030453125,-8.562314,3.449942,3.530238,0.76129,0.89332,0.3986
1694788030460937,-8.518314,3.458942,3.530238,0.73529,0.107832,0.5286
1694788030468750,-8.500314,3.478942,3.540238,0.75229,0.105832,0.686
1694788030476562,-8.507314,3.486942,3.572238,0.73929,0.108732,0.11914
1694788030484375,-8.515314,3.495942,3.571238,0.75929,0.107232,0.10514
1694788030492187,-8.494314,3.518942,3.564238,0.77829,0.111832,0.19914
1694788030500000,-8.452314,3.522942,3.571238,0.88229,0.110132,0.16914
1694788030507812,-8.396314,3.510942,3.585238,0.87129,0.103232,0.18214
1694788030515625,-8.396314,3.529942,3.613238,0.90629,0.89532,0.19414
1694788030523437,-8.423314,3.557942,3.655238,0.74229,0.86632,0.22514
1694788030531250,-8.438314,3.589942,3.642238,0.85429,0.82832,0.24014
1694788030539062,-8.426314,3.572942,3.640238,0.96729,0.90832,0.25714
1694788030546875,-8.428314,3.547942,3.651238,0.96329,0.72332,0.25414
1694788030554687,-8.461314,3.553942,3.644238,0.92329,0.70532,0.28314
1694788030562500,-8.496314,3.553942,3.628238,0.92029,0.77632,0.22314
1694788030570312,-8.490314,3.541942,3.617238,0.79329,0.76432,0.19114
1694788030578125,-8.500314,3.539942,3.599238,0.72229,0.79832,0.17514
1694788030585937,-8.516314,3.544942,3.619238,0.72229,0.75232,0.6414
1694788030593750,-8.511314,3.551942,3.601238,0.71229,0.78532,0.7914
1694788030601562,-8.503314,3.533942,3.599238,0.57429,0.87732,0.2886
1694788030609375,-8.501314,3.518942,3.619238,0.50929,0.98132,0.4086
1694788030617187,-8.507314,3.499942,3.617238,0.44029,0.98632,0.16786
1694788030625000,-8.534314,3.470942,3.606238,0.26529,0.100832,0.18286
1694788030632812,-8.560314,3.419942,3.606238,0.9029,0.96632,0.32786
1694788030640625,-8.564314,3.341942,3.597238,0.2829,0.105732,0.43486
1694788030648437,-8.586314,3.250942,3.617238,0.10871,0.106232,0.49886
1694788030656250,-8.628314,3.172942,3.622238,0.36971,0.117132,0.55986
1694788030664062,-8.647314,3.108942,3.620238,0.68471,0.123032,0.60886
1694788030671875,-8.668314,3.51942,3.602238,0.102571,0.127232,0.69086
1694788030679687,-8.681314,2.986942,3.618238,0.151671,0.140532,0.78386
1694788030687500,-8.650314,2.916942,3.609238,0.190371,0.146632,0.79986
1694788030695312,-8.598314,2.815942,3.593238,0.248971,0.148532,0.100786
1694788030703125,-8.565314,2.730942,3.632238,0.311371,0.148932,0.119986
1694788030710937,-8.501314,2.646942,3.673238,0.386071,0.143932,0.123786
1694788030718750,-8.468314,2.613942,3.671238,0.467871,0.134532,0.143386
1694788030726562,-8.469314,2.621942,3.644238,0.551571,0.127532,0.175386
1694788030734375,-8.547314,2.745942,3.609238,0.641171,0.125332,0.199586
1694788030742187,-8.654314,2.918942,3.570238,0.707871,0.131032,0.223486
1694788030750000,-8.701314,3.23942,3.543238,0.773471,0.146532,0.239186
1694788030757812,-8.700314,3.49942,3.525238,0.830571,0.166632,0.253386
1694788030765625,-8.697314,3.57942,3.440238,0.873271,0.178132,0.264386
1694788030773437,-8.726314,3.82942,3.329238,0.912671,0.186432,0.281686
1694788030781250,-8.795314,3.139942,3.246238,0.962971,0.208332,0.295586
1694788030789062,-8.852314,3.191942,3.180238,1.9271,0.225332,0.322286
1694788030796875,-8.886314,3.186942,3.107238,1.49871,0.247032,0.339386
1694788030804687,-8.859314,3.186942,3.44238,1.84371,0.273632,0.356386
1694788030812500,-8.780314,3.148942,2.962238,1.133471,0.290532,0.371886
1694788030820312,-8.718314,3.119942,2.882238,1.174071,0.305232,0.382886
1694788030828125,-8.705314,3.143942,2.857238,1.222671,0.301632,0.394286
1694788030835937,-8.717314,3.172942,2.866238,1.271571,0.309732,0.400686
1694788030843750,-8.742314,3.273942,2.864238,1.312171,0.320932,0.408586
1694788030851562,-8.744314,3.420942,2.884238,1.356371,0.327332,0.419786
1694788030859375,-8.754314,3.551942,2.890238,1.376871,0.336432,0.429186
1694788030867187,-8.753314,3.608942,2.883238,1.381571,0.345232,0.433686
1694788030875000,-8.744314,3.615942,2.852238,1.402871,0.355832,0.436786
1694788030882812,-8.762314,3.598942,2.786238,1.414871,0.354432,0.438486
1694788030890625,-8.819314,3.551942,2.742238,1.428971,0.362132,0.452386
1694788030898437,-8.846314,3.504942,2.690238,1.445871,0.378032,0.459986
1694788030906250,-8.858314,3.461942,2.624238,1.464471,0.381932,0.469586
1694788030914062,-8.887314,3.435942,2.570238,1.511371,0.398432,0.478986
1694788030921875,-8.888314,3.423942,2.549238,1.525871,0.412332,0.478686
1694788030929687,-8.853314,3.416942,2.524238,1.560271,0.431532,0.478586
1694788030937500,-8.794314,3.429942,2.513238,1.590971,0.442132,0.475386
1694788030945312,-8.770314,3.469942,2.503238,1.618471,0.460632,0.459486
1694788030953125,-8.753314,3.492942,2.521238,1.649471,0.471132,0.451586
1694788030960937,-8.771314,3.569942,2.526238,1.672171,0.485932,0.431086
1694788030968750,-8.820314,3.661942,2.514238,1.672371,0.500232,0.410386
1694788030976562,-8.839314,3.712942,2.516238,1.683471,0.522032,0.398886
1694788030984375,-8.806314,3.695942,2.493238,1.682871,0.536732,0.384386
1694788030992187,-8.757314,3.668942,2.437238,1.696271,0.538232,0.375086
1694788031000000,-8.757314,3.664942,2.364238,1.720671,0.543432,0.364186
1694788031007812,-8.791314,3.685942,2.325238,1.739071,0.550332,0.359386
1694788031015625,-8.819314,3.730942,2.268238,1.760471,0.567632,0.359186
1694788031023437,-8.822314,3.771942,2.245238,1.775471,0.574432,0.354486
1694788031031250,-8.784314,3.786942,2.216238,1.803071,0.581632,0.349786
1694788031039062,-8.714314,3.818942,2.172238,1.818371,0.581832,0.348286
1694788031046875,-8.653314,3.862942,2.143238,1.831971,0.588732,0.345086
1694788031054687,-8.618314,3.912942,2.111238,1.847971,0.585532,0.337386
1694788031062500,-8.600314,3.936942,2.86238,1.853371,0.577032,0.337686
1694788031070312,-8.599314,3.974942,2.63238,1.871071,0.560632,0.333286
1694788031078125,-8.642314,4.52942,2.26238,1.869271,0.550132,0.327286
1694788031085937,-8.724314,4.95942,2.24238,1.869371,0.556632,0.319386
1694788031093750,-8.779314,4.101942,1.999238,1.870871,0.569532,0.304986
1694788031101562,-8.797314,4.99942,1.944238,1.864871,0.579032,0.293786
1694788031109375,-8.809314,4.89942,1.896238,1.868671,0.587132,0.279386
1694788031117187,-8.831314,4.77942,1.851238,1.871371,0.605232,0.269686
1694788031125000,-8.866314,4.79942,1.794238,1.876771,0.616832,0.258386
1694788031132812,-8.826314,4.65942,1.766238,1.891871,0.644832,0.235986
1694788031140625,-8.748314,4.120942,1.732238,1.896771,0.660032,0.232486
1694788031148437,-8.692314,4.229942,1.702238,1.897871,0.669832,0.226086
1694788031156250,-8.660314,4.309942,1.688238,1.894771,0.669732,0.226086
1694788031164062,-8.636314,4.386942,1.677238,1.901371,0.663032,0.221486
1694788031171875,-8.609314,4.467942,1.654238,1.896371,0.651032,0.221786
1694788031179687,-8.590314,4.511942,1.649238,1.881271,0.637532,0.228186
1694788031187500,-8.561314,4.569942,1.636238,1.873671,0.622332,0.231586
1694788031195312,-8.579314,4.621942,1.608238,1.862671,0.606932,0.233486
1694788031203125,-8.627314,4.666942,1.590238,1.830571,0.602832,0.231886
1694788031210937,-8.710314,4.730942,1.590238,1.810771,0.604132,0.231686
1694788031218750,-8.768314,4.772942,1.583238,1.787071,0.617232,0.232686
1694788031226562,-8.795314,4.815942,1.574238,1.754571,0.621432,0.230886
1694788031234375,-8.834314,4.829942,1.551238,1.716271,0.640932,0.231786
1694788031242187,-8.796314,4.792942,1.519238,1.683571,0.653332,0.226686
1694788031250000,-8.735314,4.746942,1.503238,1.656671,0.669332,0.216686
1694788031257812,-8.703314,4.718942,1.474238,1.634271,0.675232,0.205386
1694788031265625,-8.662314,4.684942,1.469238,1.597671,0.684532,0.204886
1694788031273437,-8.603314,4.670942,1.485238,1.567171,0.676832,0.197086
1694788031281250,-8.553314,4.674942,1.497238,1.548571,0.664532,0.195686
1694788031289062,-8.542314,4.658942,1.517238,1.520371,0.645132,0.186386
1694788031296875,-8.562314,4.658942,1.535238,1.488071,0.636332,0.195786
1694788031304687,-8.591314,4.648942,1.522238,1.457371,0.618832,0.196086
1694788031312500,-8.667314,4.686942,1.512238,1.430571,0.612932,0.186486
1694788031320312,-8.760314,4.707942,1.526238,1.406271,0.610532,0.180086
1694788031328125,-8.782314,4.670942,1.526238,1.369871,0.611132,0.171986
1694788031335937,-8.752314,4.623942,1.474238,1.346971,0.615532,0.168586
1694788031343750,-8.731314,4.574942,1.415238,1.322571,0.628332,0.165086
1694788031351562,-8.749314,4.526942,1.387238,1.294071,0.632932,0.166286
1694788031359375,-8.764314,4.487942,1.367238,1.286171,0.637532,0.159886
1694788031367187,-8.738314,4.415942,1.344238,1.278471,0.650432,0.151686
1694788031375000,-8.649314,4.372942,1.320238,1.263071,0.658432,0.148386
1694788031382812,-8.542314,4.372942,1.311238,1.270071,0.669732,0.137286
1694788031390625,-8.504314,4.395942,1.317238,1.272271,0.648032,0.137686
1694788031398437,-8.519314,4.423942,1.356238,1.279171,0.622732,0.128786
1694788031406250,-8.556314,4.475942,1.374238,1.268671,0.612432,0.128886
1694788031414062,-8.583314,4.496942,1.397238,1.271571,0.603832,0.124386
1694788031421875,-8.587314,4.503942,1.404238,1.254571,0.593032,0.118286
1694788031429687,-8.569314,4.509942,1.374238,1.242871,0.577532,0.113786
1694788031437500,-8.565314,4.503942,1.365238,1.247371,0.565832,0.114086
1694788031445312,-8.591314,4.479942,1.354238,1.238271,0.556832,0.103286
1694788031453125,-8.621314,4.449942,1.360238,1.231371,0.558032,0.93686
1694788031460937,-8.668314,4.421942,1.342238,1.225071,0.559232,0.85886
1694788031468750,-8.725314,4.408942,1.306238,1.227071,0.567532,0.79286
1694788031476562,-8.754314,4.402942,1.285238,1.230071,0.570732,0.74586
1694788031484375,-8.760314,4.392942,1.251238,1.235871,0.584032,0.68186
1694788031492187,-8.767314,4.343942,1.210238,1.239271,0.582032,0.57186
1694788031500000,-8.775314,4.318942,1.165238,1.245171,0.595832,0.61686
1694788031507812,-8.775314,4.315942,1.108238,1.266071,0.606132,0.60086
1694788031515625,-8.765314,4.320942,1.76238,1.286771,0.608232,0.53786
1694788031523437,-8.746314,4.290942,1.60238,1.293071,0.610032,0.52186
1694788031531250,-8.673314,4.276942,1.49238,1.309571,0.622132,0.53586
1694788031539062,-8.624314,4.295942,1.39238,1.320571,0.622432,0.51986
1694788031546875,-8.608314,4.316942,1.28238,1.335371,0.623932,0.42786
1694788031554687,-8.629314,4.354942,1.30238,1.358271,0.612532,0.41586
1694788031562500,-8.656314,4.390942,1.48238,1.364571,0.610632,0.30686
1694788031570312,-8.652314,4.447942,1.58238,1.383971,0.609232,0.30986
1694788031578125,-8.674314,4.536942,1.50238,1.384071,0.606432,0.43586
1694788031585937,-8.739314,4.637942,1.64238,1.385971,0.598032,0.42086
1694788031593750,-8.792314,4.729942,1.102238,1.380871,0.601732,0.54586
1694788031601562,-8.795314,4.811942,1.104238,1.359671,0.607932,0.52686
1694788031609375,-8.769314,4.860942,1.86238,1.350671,0.612932,0.54086
1694788031617187,-8.738314,4.889942,1.70238,1.323271,0.608932,0.52386
1694788031625000,-8.704314,4.888942,1.63238,1.308071,0.615432,0.53686
1694788031632812,-8.654314,4.894942,1.63238,1.286671,0.626632,0.51786
1694788031640625,-8.574314,4.894942,1.45238,1.270771,0.627932,0.53386
1694788031648437,-8.509314,4.886942,1.50238,1.254271,0.625732,0.48586
1694788031656250,-8.479314,4.905942,1.39238,1.233971,0.621432,0.37686
1694788031664062,-8.498314,4.942942,1.63238,1.211771,0.610932,0.37586
1694788031671875,-8.489314,4.964942,1.63238,1.189271,0.598532,0.31386
1694788031679687,-8.435314,4.997942,1.70238,1.172271,0.588232,0.37786
1694788031687500,-8.395314,5.32942,1.70238,1.152171,0.572732,0.39686
1694788031695312,-8.375314,5.59942,1.81238,1.131071,0.545232,0.36986
1694788031703125,-8.384314,5.81942,1.100238,1.100871,0.516032,0.37386
1694788031710937,-8.391314,5.105942,1.106238,1.74971,0.504032,0.46786
1694788031718750,-8.373314,5.116942,1.111238,1.58371,0.488432,0.42286
1694788031726562,-8.362314,5.134942,1.122238,1.24771,0.469232,0.44086
1694788031734375,-8.369314,5.172942,1.120238,0.997271,0.445032,0.46086
1694788031742187,-8.397314,5.206942,1.117238,0.962671,0.424032,0.41486
1694788031750000,-8.384314,5.230942,1.113238,0.924471,0.409732,0.41586
1694788031757812,-8.338314,5.219942,1.83238,0.889471,0.392332,0.46386
1694788031765625,-8.300314,5.218942,1.38238,0.857671,0.383332,0.46386
1694788031773437,-8.277314,5.220942,1.15238,0.819771,0.360232,0.35586
1694788031781250,-8.300314,5.205942,0.997238,0.783171,0.347532,0.32586
1694788031789062,-8.329314,5.183942,0.990238,0.756071,0.329832,0.26486
1694788031796875,-8.325314,5.148942,0.952238,0.722071,0.323232,0.7686
1694788031804687,-8.303314,5.116942,0.913238,0.695271,0.305832,0.4686
1694788031812500,-8.283314,5.101942,0.883238,0.659771,0.289732,0.3314
1694788031820312,-8.290314,5.93942,0.840238,0.655271,0.280732,0.17214
1694788031828125,-8.331314,5.105942,0.819238,0.640271,0.263232,0.26314
1694788031835937,-8.389314,5.119942,0.815238,0.614171,0.253432,0.43414
1694788031843750,-8.469314,5.156942,0.819238,0.608471,0.243332,0.43314
1694788031851562,-8.512314,5.189942,0.808238,0.581971,0.240832,0.44914
1694788031859375,-8.569314,5.214942,0.806238,0.552771,0.245332,0.43614
1694788031867187,-8.618314,5.229942,0.798238,0.527671,0.251632,0.45614
1694788031875000,-8.625314,5.247942,0.778238,0.498471,0.249632,0.36414
1694788031882812,-8.600314,5.233942,0.776238,0.475371,0.249632,0.24014
1694788031890625,-8.561314,5.217942,0.769238,0.446571,0.244232,0.19414
1694788031898437,-8.529314,5.208942,0.757238,0.418971,0.252232,0.15014
1694788031906250,-8.497314,5.185942,0.753238,0.395671,0.241932,0.3914
1694788031914062,-8.465314,5.153942,0.748238,0.374471,0.238532,0.3786
1694788031921875,-8.430314,5.131942,0.735238,0.355671,0.229832,0.10286
1694788031929687,-8.423314,5.116942,0.737238,0.336871,0.216032,0.13686
1694788031937500,-8.411314,5.91942,0.738238,0.321771,0.205832,0.19986
1694788031945312,-8.406314,5.83942,0.740238,0.311071,0.192332,0.24986
1694788031953125,-8.404314,5.74942,0.735238,0.297571,0.183232,0.12486
1694788031960937,-8.410314,5.40942,0.735238,0.282271,0.175932,0.7886
1694788031968750,-8.381314,5.2942,0.719238,0.265971,0.163632,0.3286
1694788031976562,-8.364314,4.966942,0.720238,0.265971,0.163432,0.3014
1694788031984375,-8.371314,4.958942,0.708238,0.266171,0.159232,0.23214
1694788031992187,-8.391314,4.960942,0.699238,0.265071,0.146932,0.35614
1694788032000000,-8.409314,4.946942,0.710238,0.262371,0.153232,0.46714
1694788032007812,-8.414314,4.944942,0.715238,0.255171,0.149132,0.64014
1694788032015625,-8.435314,4.948942,0.708238,0.249571,0.147032,0.71914
1694788032023437,-8.439314,4.958942,0.699238,0.247871,0.148232,0.82914
1694788032031250,-8.448314,4.965942,0.699238,0.237171,0.142832,0.85914
1694788032039062,-8.479314,4.975942,0.694238,0.240971,0.139432,0.90714
1694788032046875,-8.473314,4.977942,0.688238,0.224571,0.130832,0.82514
1694788032054687,-8.448314,4.964942,0.672238,0.218971,0.125932,0.77914
1694788032062500,-8.421314,4.964942,0.656238,0.214471,0.117832,0.68314
1694788032070312,-8.427314,4.990942,0.635238,0.198071,0.100732,0.66614
1694788032078125,-8.477314,5.36942,0.626238,0.193071,0.84132,0.56814
1694788032085937,-8.561314,5.67942,0.633238,0.177471,0.68832,0.51814
1694788032093750,-8.618314,5.78942,0.612238,0.163771,0.72232,0.44114
1694788032101562,-8.640314,5.46942,0.571238,0.149871,0.65232,0.40914
1694788032109375,-8.662314,5.21942,0.537238,0.140871,0.61832,0.37814
1694788032117187,-8.695314,4.993942,0.503238,0.134271,0.65432,0.26814
1694788032125000,-8.697314,4.982942,0.476238,0.137071,0.74232,0.17614
1694788032132812,-8.686314,4.973942,0.462238,0.120471,0.77332,0.16214
1694788032140625,-8.642314,4.951942,0.437238,0.121271,0.64332,0.1714
1694788032148437,-8.620314,4.952942,0.410238,0.120071,0.66032,0.3414
1694788032156250,-8.613314,4.957942,0.380238,0.118471,0.67932,0.4386
1694788032164062,-8.623314,4.965942,0.378238,0.107771,0.71532,0.15186
1694788032171875,-8.625314,4.976942,0.387238,0.98671,0.66532,0.19886
1694788032179687,-8.639314,4.970942,0.380238,0.96971,0.68632,0.30786
1694788032187500,-8.631314,4.962942,0.371238,0.97871,0.70432,0.35586
1694788032195312,-8.618314,4.956942,0.362238,0.94871,0.84432,0.49386
1694788032203125,-8.634314,4.943942,0.353238,0.96271,0.84632,0.54086
1694788032210937,-8.650314,4.939942,0.357238,0.99471,0.89732,0.53886
1694788032218750,-8.640314,4.941942,0.353238,0.99071,0.104732,0.52086
1694788032226562,-8.635314,4.911942,0.339238,0.101671,0.113332,0.56686
1694788032234375,-8.649314,4.872942,0.328238,0.94771,0.120032,0.54786
1694788032242187,-8.639314,4.810942,0.308238,0.120471,0.123932,0.56486
1694788032250000,-8.633314,4.757942,0.271238,0.117071,0.138732,0.51486
1694788032257812,-8.624314,4.730942,0.242238,0.127971,0.138932,0.48386
1694788032265625,-8.617314,4.718942,0.235238,0.155871,0.146032,0.40586
1694788032273437,-8.620314,4.718942,0.228238,0.164771,0.157832,0.38786
1694788032281250,-8.617314,4.745942,0.228238,0.181471,0.167932,0.30886
1694788032289062,-8.635314,4.757942,0.235238,0.193571,0.172932,0.23086
1694788032296875,-8.634314,4.774942,0.226238,0.201571,0.179832,0.19786
1694788032304687,-8.627314,4.819942,0.233238,0.219471,0.179932,0.15286
1694788032312500,-8.623314,4.848942,0.237238,0.213871,0.189832,0.11786
1694788032320312,-8.629314,4.888942,0.244238,0.213871,0.201332,0.3686
1694788032328125,-8.616314,4.934942,0.225238,0.203471,0.194232,0.586
1694788032335937,-8.607314,4.968942,0.228238,0.195571,0.207632,0.1886
1694788032343750,-8.596314,4.987942,0.225238,0.191171,0.202632,0.5086
1694788032351562,-8.548314,4.999942,0.223238,0.175371,0.197232,0.8286
1694788032359375,-8.513314,5.33942,0.211238,0.162371,0.190432,0.9786
1694788032367187,-8.486314,5.68942,0.209238,0.137871,0.178532,0.19286
1694788032375000,-8.472314,5.109942,0.232238,0.118871,0.167932,0.21086
1694788032382812,-8.450314,5.120942,0.246238,0.102271,0.150932,0.25986
1694788032390625,-8.441314,5.131942,0.245238,0.82571,0.139132,0.35486
1694788032398437,-8.443314,5.161942,0.257238,0.49871,0.121732,0.40486
1694788032406250,-8.442314,5.182942,0.261238,0.27371,0.118332,0.49786
1694788032414062,-8.447314,5.191942,0.273238,0.2829,0.94232,0.51586
1694788032421875,-8.463314,5.213942,0.268238,0.31429,0.75232,0.53386
1694788032429687,-8.459314,5.208942,0.273238,0.61829,0.69432,0.50086
1694788032437500,-8.465314,5.202942,0.263238,0.86329,0.58832,0.51786
1694788032445312,-8.479314,5.200942,0.264238,0.117029,0.46532,0.56586
1694788032453125,-8.495314,5.187942,0.236238,0.145729,0.35832,0.54986
1694788032460937,-8.483314,5.174942,0.220238,0.173529,0.25132,0.56686
1694788032468750,-8.480314,5.138942,0.207238,0.188429,0.21532,0.58186
1694788032476562,-8.501314,5.111942,0.204238,0.206429,0.11032,0.55086
1694788032484375,-8.511314,5.80942,0.191238,0.224929,0.12332,0.56586
1694788032492187,-8.529314,5.46942,0.182238,0.239829,0.13632,0.54786
1694788032500000,-8.554314,5.13942,0.164238,0.255129,0.15132,0.56286
1694788032507812,-8.583314,4.996942,0.152238,0.267029,0.1968,0.54886
1694788032515625,-8.594314,4.983942,0.150238,0.271929,0.268,0.59586
1694788032523437,-8.599314,4.967942,0.143238,0.279629,0.268,0.64286
1694788032531250,-8.604314,4.939942,0.150238,0.286429,0.4432,0.56086
1694788032539062,-8.594314,4.938942,0.159238,0.294629,0.7732,0.59286
1694788032546875,-8.580314,4.929942,0.159238,0.300829,0.14232,0.59086
1694788032554687,-8.564314,4.934942,0.180238,0.299729,0.20732,0.54286
1694788032562500,-8.562314,4.929942,0.191238,0.314729,0.23932,0.55686
1694788032570312,-8.552314,4.909942,0.200238,0.319529,0.30132,0.47686
1694788032578125,-8.543314,4.909942,0.205238,0.317929,0.33432,0.44486
1694788032585937,-8.520314,4.897942,0.223238,0.328429,0.37732,0.30186
1694788032593750,-8.506314,4.904942,0.232238,0.342229,0.32132,0.25586
1694788032601562,-8.511314,4.904942,0.244238,0.343629,0.23532,0.21086
1694788032609375,-8.543314,4.897942,0.271238,0.341729,0.24932,0.11586
1694788032617187,-8.567314,4.883942,0.308238,0.352629,0.24432,0.6886
1694788032625000,-8.563314,4.853942,0.323238,0.347629,0.19432,0.3786
1694788032632812,-8.576314,4.835942,0.319238,0.344429,0.25032,0.13086
1694788032640625,-8.573314,4.802942,0.317238,0.346029,0.6432,0.11886
1694788032648437,-8.585314,4.766942,0.308238,0.341329,0.11932,0.21186
1694788032656250,-8.600314,4.737942,0.287238,0.341429,0.6932,0.22886
1694788032664062,-8.620314,4.736942,0.294238,0.319229,0.3832,0.20086
1694788032671875,-8.645314,4.716942,0.299238,0.318929,0.4032,0.24686
1694788032679687,-8.657314,4.733942,0.305238,0.317129,0.12532,0.24486
1694788032687500,-8.667314,4.741942,0.317238,0.310029,0.9232,0.24686
1694788032695312,-8.668314,4.733942,0.330238,0.297329,0.19732,0.26086
1694788032703125,-8.663314,4.744942,0.337238,0.294329,0.26532,0.24386
1694788032710937,-8.627314,4.722942,0.335238,0.290029,0.34932,0.24186
1694788032718750,-8.617314,4.704942,0.337238,0.282629,0.45232,0.25686
1694788032726562,-8.622314,4.691942,0.331238,0.273229,0.50332,0.19286
1694788032734375,-8.696314,4.654942,0.326238,0.268629,0.49932,0.8386
1694788032742187,-8.762314,4.618942,0.335238,0.257129,0.48832,0.11486
1694788032750000,-8.802314,4.586942,0.340238,0.230129,0.64132,0.3586
1694788032757812,-8.840314,4.546942,0.381238,0.210529,0.88132,0.4786
1694788032765625,-8.869314,4.528942,0.401238,0.196829,0.100232,0.4586
1694788032773437,-8.904314,4.483942,0.406238,0.170429,0.129532,0.13686
1694788032781250,-8.935314,4.398942,0.415238,0.142629,0.148532,0.7086
1694788032789062,-8.981314,4.312942,0.427238,0.103029,0.179532,0.3586
1694788032796875,-9.10314,4.212942,0.416238,0.54229,0.217532,0.1486
1694788032804687,-9.7314,4.155942,0.411238,0.3729,0.255532,0.3814
1694788032812500,-9.38314,4.67942,0.384238,0.52471,0.293732,0.2614
1694788032820312,-9.6314,3.928942,0.373238,0.120671,0.325532,0.1214
1694788032828125,-8.962314,3.804942,0.341238,0.204971,0.362432,0.9414
1694788032835937,-8.912314,3.684942,0.292238,0.285171,0.391032,0.7814
1694788032843750,-8.918314,3.600942,0.260238,0.389771,0.417032,0.186
1694788032851562,-8.959314,3.528942,0.237238,0.490871,0.436732,0.14386
1694788032859375,-9.16314,3.481942,0.208238,0.599471,0.466732,0.36586
1694788032867187,-9.45314,3.421942,0.183238,0.711871,0.493532,0.60286
1694788032875000,-9.83314,3.423942,0.167238,0.827271,0.504032,0.93786
1694788032882812,-9.113314,3.449942,0.117238,0.939071,0.529232,0.120786
1694788032890625,-9.107314,3.518942,0.101238,1.58871,0.557032,0.163286
1694788032898437,-9.109314,3.611942,0.60238,1.168771,0.579132,0.199786
1694788032906250,-9.95314,3.688942,0.23238,1.273571,0.607632,0.226486
1694788032914062,-9.76314,3.780942,0.11238,1.363071,0.645432,0.241986
1694788032921875,-9.75314,3.841942,0.8762,1.451871,0.671432,0.251386
1694788032929687,-9.70314,3.884942,0.20762,1.527171,0.702032,0.265386
1694788032937500,-9.58314,3.969942,0.31762,1.609171,0.746132,0.271286
1694788032945312,-9.54314,4.88942,0.47762,1.674171,0.771032,0.272786
1694788032953125,-9.45314,4.180942,0.52762,1.731171,0.804432,0.275486
1694788032960937,-8.997314,4.281942,0.53762,1.770871,0.834132,0.278186
1694788032968750,-8.946314,4.374942,0.87762,1.807471,0.851532,0.274886
1694788032976562,-8.910314,4.449942,0.96762,1.834171,0.873732,0.271586
1694788032984375,-8.873314,4.503942,0.92762,1.857271,0.893132,0.279086
1694788032992187,-8.844314,4.534942,0.108762,1.870871,0.900132,0.279086
1694788033000000,-8.830314,4.584942,0.117762,1.868471,0.900232,0.278986
1694788033007812,-8.854314,4.598942,0.101762,1.869771,0.895332,0.283786
1694788033015625,-8.909314,4.567942,0.74762,1.874271,0.909232,0.291386
1694788033023437,-8.922314,4.545942,0.46762,1.873971,0.916232,0.299086
1694788033031250,-8.944314,4.515942,0.65762,1.872271,0.916632,0.310086
1694788033039062,-8.946314,4.495942,0.67762,1.871771,0.921732,0.314686
1694788033046875,-8.943314,4.466942,0.83762,1.867271,0.918732,0.324086
1694788033054687,-8.957314,4.443942,0.58762,1.867271,0.924032,0.330286
1694788033062500,-8.960314,4.442942,0.35762,1.866671,0.910832,0.339986
1694788033070312,-8.943314,4.445942,0.71762,1.850371,0.912732,0.350786
1694788033078125,-8.949314,4.442942,0.94762,1.834371,0.905432,0.350986
1694788033085937,-8.977314,4.410942,0.94762,1.817971,0.904232,0.366486
1694788033093750,-8.967314,4.366942,0.89762,1.819271,0.894432,0.374586
1694788033101562,-8.895314,4.315942,0.100762,1.804871,0.894032,0.376086
1694788033109375,-8.841314,4.259942,0.98762,1.794871,0.895532,0.372786
1694788033117187,-8.824314,4.228942,0.128762,1.793571,0.868332,0.368686
1694788033125000,-8.842314,4.195942,0.130762,1.790571,0.869332,0.352986
1694788033132812,-8.871314,4.176942,0.111762,1.781271,0.848932,0.353386
1694788033140625,-8.882314,4.178942,0.107762,1.770871,0.845132,0.348686
1694788033148437,-8.906314,4.195942,0.125762,1.760871,0.837932,0.339286
1694788033156250,-8.929314,4.193942,0.139762,1.744671,0.822532,0.339386
1694788033164062,-8.938314,4.186942,0.146762,1.728271,0.816832,0.328386
1694788033171875,-8.948314,4.220942,0.153762,1.703871,0.805932,0.323786
1694788033179687,-8.981314,4.245942,0.144762,1.679471,0.792932,0.306686
1694788033187500,-8.991314,4.244942,0.126762,1.654371,0.785132,0.289286
1694788033195312,-8.977314,4.245942,0.110762,1.617671,0.780332,0.275086
1694788033203125,-8.936314,4.227942,0.98762,1.584371,0.775432,0.253086
1694788033210937,-8.893314,4.217942,0.100762,1.559271,0.777232,0.224486
1694788033218750,-8.884314,4.206942,0.107762,1.521371,0.763832,0.205786
1694788033226562,-8.899314,4.184942,0.100762,1.487971,0.750432,0.183886
1694788033234375,-8.932314,4.138942,0.98762,1.457871,0.727232,0.165386
1694788033242187,-8.931314,4.89942,0.100762,1.419871,0.722432,0.149586
1694788033250000,-8.916314,4.89942,0.109762,1.398871,0.714532,0.132286
1694788033257812,-8.913314,4.87942,0.123762,1.369571,0.703532,0.126186
1694788033265625,-8.938314,4.78942,0.150762,1.336571,0.689032,0.116786
1694788033273437,-8.976314,4.76942,0.145762,1.303271,0.667932,0.110786
1694788033281250,-9.10314,4.57942,0.141762,1.286771,0.657332,0.106086
1694788033289062,-8.983314,4.25942,0.134762,1.274971,0.641732,0.100086
1694788033296875,-8.947314,4.47942,0.164762,1.247471,0.635832,0.93786
1694788033304687,-8.965314,4.52942,0.184762,1.223271,0.629932,0.84286
1694788033312500,-9.26314,4.55942,0.166762,1.195671,0.622032,0.73386
1694788033320312,-9.50314,4.17942,0.154762,1.186771,0.618432,0.70186
1694788033328125,-9.11314,3.954942,0.177762,1.173271,0.621332,0.65286
1694788033335937,-8.972314,3.894942,0.204762,1.150471,0.610432,0.55986
1694788033343750,-9.14314,3.811942,0.231762,1.139971,0.600332,0.62386
1694788033351562,-9.63314,3.778942,0.220762,1.143171,0.592132,0.65686
1694788033359375,-9.126314,3.762942,0.227762,1.137971,0.582532,0.81686
1694788033367187,-9.170314,3.773942,0.241762,1.141571,0.571032,0.86486
1694788033375000,-9.198314,3.798942,0.243762,1.127571,0.569632,0.100586
1694788033382812,-9.198314,3.811942,0.245762,1.130671,0.568832,0.119386
1694788033390625,-9.170314,3.794942,0.241762,1.125171,0.563832,0.127486
1694788033398437,-9.125314,3.763942,0.259762,1.118371,0.560532,0.128886
1694788033406250,-9.75314,3.729942,0.307762,1.116971,0.558732,0.127386
1694788033414062,-9.14314,3.682942,0.341762,1.117671,0.555332,0.129186
1694788033421875,-9.3314,3.632942,0.338762,1.126371,0.536532,0.113786
1694788033429687,-9.3314,3.610942,0.338762,1.117071,0.534132,0.102886
1694788033437500,-9.14314,3.613942,0.365762,1.138271,0.530732,0.92186
1694788033445312,-9.39314,3.604942,0.377762,1.140671,0.510332,0.81486
1694788033453125,-9.79314,3.612942,0.390762,1.138471,0.508332,0.80086
1694788033460937,-9.120314,3.610942,0.404762,1.142171,0.505032,0.75386
1694788033468750,-9.159314,3.615942,0.393762,1.140371,0.496332,0.72486
1694788033476562,-9.204314,3.626942,0.386762,1.134471,0.493332,0.81886
1694788033484375,-9.250314,3.669942,0.384762,1.131471,0.494832,0.78686
1694788033492187,-9.259314,3.703942,0.373762,1.124971,0.493132,0.83486
1694788033500000,-9.249314,3.689942,0.359762,1.115171,0.499432,0.81786
1694788033507812,-9.220314,3.648942,0.347762,1.95571,0.495932,0.86386
1694788033515625,-9.192314,3.569942,0.365762,1.91671,0.487232,0.80186
1694788033523437,-9.168314,3.511942,0.388762,1.86971,0.475332,0.78886
1694788033531250,-9.175314,3.473942,0.417762,1.68571,0.469832,0.78886
1694788033539062,-9.206314,3.478942,0.436762,1.77571,0.466232,0.69686
1694788033546875,-9.253314,3.498942,0.420762,1.75471,0.466432,0.70986
1694788033554687,-9.294314,3.515942,0.402762,1.69871,0.464432,0.64686
1694788033562500,-9.320314,3.546942,0.390762,1.53771,0.460232,0.56986
1694788033570312,-9.350314,3.542942,0.390762,1.37171,0.463132,0.53686
1694788033578125,-9.377314,3.518942,0.384762,1.21871,0.462932,0.55186
1694788033585937,-9.402314,3.509942,0.370762,1.6971,0.460932,0.53486
1694788033593750,-9.429314,3.485942,0.356762,0.994471,0.465632,0.53386
1694788033601562,-9.419314,3.458942,0.329762,0.995871,0.455532,0.55186
1694788033609375,-9.389314,3.398942,0.340762,0.975971,0.471932,0.53086
1694788033617187,-9.381314,3.342942,0.363762,0.957671,0.468232,0.54686
1694788033625000,-9.415314,3.313942,0.369762,0.947071,0.469532,0.49886
1694788033632812,-9.485314,3.303942,0.392762,0.947371,0.479132,0.37086
1694788033640625,-9.528314,3.331942,0.399762,0.936571,0.483332,0.21286
1694788033648437,-9.576314,3.317942,0.385762,0.928071,0.505832,0.1314
1694788033656250,-9.616314,3.318942,0.390762,0.923571,0.516632,0.23514
1694788033664062,-9.660314,3.311942,0.383762,0.924371,0.544532,0.47714
1694788033671875,-9.668314,3.276942,0.401762,0.921071,0.589332,0.61214
1694788033679687,-9.656314,3.238942,0.422762,0.921071,0.612232,0.77414
1694788033687500,-9.599314,3.193942,0.447762,0.928971,0.637132,0.92014
1694788033695312,-9.530314,3.141942,0.474762,0.946871,0.662032,0.108014
1694788033703125,-9.450314,3.103942,0.483762,0.958671,0.689232,0.113514
1694788033710937,-9.376314,3.116942,0.494762,0.984071,0.694332,0.122714
1694788033718750,-9.332314,3.115942,0.476762,1.7171,0.716632,0.127814
1694788033726562,-9.318314,3.140942,0.433762,1.38971,0.722332,0.126114
1694788033734375,-9.290314,3.151942,0.383762,1.53571,0.732532,0.127714
1694788033742187,-9.288314,3.156942,0.355762,1.76571,0.741432,0.127714
1694788033750000,-9.302314,3.175942,0.310762,1.99771,0.750332,0.131014
1694788033757812,-9.323314,3.214942,0.303762,1.133071,0.762832,0.129414
1694788033765625,-9.340314,3.272942,0.317762,1.169671,0.778832,0.128014
1694788033773437,-9.348314,3.366942,0.313762,1.186171,0.786132,0.121714
1694788033781250,-9.336314,3.485942,0.281762,1.194171,0.801632,0.120614
1694788033789062,-9.285314,3.572942,0.247762,1.193371,0.817032,0.109814
1694788033796875,-9.181314,3.563942,0.176762,1.202571,0.821232,0.95814
1694788033804687,-9.9314,3.461942,0.87762,1.197271,0.819932,0.81514
1694788033812500,-8.856314,3.399942,0.12762,1.219971,0.804132,0.65414
1694788033820312,-8.738314,3.346942,0.40238,1.242971,0.778332,0.50614
1694788033828125,-8.651314,3.286942,0.83238,1.269171,0.740032,0.52714
1694788033835937,-8.655314,3.387942,0.121238,1.289071,0.705832,0.34614
1694788033843750,-8.755314,3.629942,0.183238,1.311771,0.664432,0.28814
1694788033851562,-8.875314,3.890942,0.296238,1.298771,0.627532,0.22014
1694788033859375,-8.884314,4.121942,0.418238,1.281171,0.590732,0.714
1694788033867187,-8.773314,4.237942,0.495238,1.232271,0.567732,0.36986
1694788033875000,-8.598314,4.287942,0.564238,1.173571,0.524932,0.54886
1694788033882812,-8.450314,4.231942,0.628238,1.120371,0.468932,0.72986
1694788033890625,-8.344314,4.200942,0.669238,1.84171,0.402932,0.81986
1694788033898437,-8.314314,4.186942,0.664238,1.39171,0.333032,0.83086
1694788033906250,-8.353314,4.204942,0.637238,0.995271,0.268232,0.85786
1694788033914062,-8.430314,4.264942,0.616238,0.946171,0.213132,0.83586
1694788033921875,-8.563314,4.326942,0.627238,0.887271,0.158132,0.85886
1694788033929687,-8.694314,4.317942,0.634238,0.824871,0.113032,0.86486
1694788033937500,-8.765314,4.213942,0.578238,0.762671,0.61132,0.82486
1694788033945312,-8.821314,4.106942,0.521238,0.703971,0.27732,0.76386
1694788033953125,-8.896314,3.980942,0.464238,0.656871,0.8568,0.78486
1694788033960937,-8.956314,3.908942,0.423238,0.624771,0.33068,0.72586
1694788033968750,-9.3314,3.847942,0.346238,0.592271,0.59268,0.61786
1694788033976562,-9.37314,3.747942,0.260238,0.556471,0.77068,0.62086
1694788033984375,-9.66314,3.633942,0.205238,0.529671,0.83268,0.44686
1694788033992187,-9.108314,3.535942,0.160238,0.508771,0.105968,0.34086
1694788034000000,-9.117314,3.477942,0.66238,0.495971,0.108668,0.11986
1694788034007812,-9.152314,3.458942,0.17762,0.488471,0.124968,0.11214
1694788034015625,-9.171314,3.439942,0.64762,0.471171,0.122868,0.30014
1694788034023437,-9.226314,3.440942,0.112762,0.462871,0.135768,0.56614
1694788034031250,-9.258314,3.456942,0.160762,0.464471,0.126368,0.75614
1694788034039062,-9.236314,3.475942,0.194762,0.446671,0.118668,0.86914
1694788034046875,-9.220314,3.511942,0.249762,0.440471,0.117668,0.97914
1694788034054687,-9.208314,3.507942,0.258762,0.426571,0.118568,0.112014
1694788034062500,-9.196314,3.506942,0.272762,0.416871,0.120368,0.115314
1694788034070312,-9.161314,3.480942,0.326762,0.418071,0.119168,0.126214
1694788034078125,-9.142314,3.446942,0.381762,0.416771,0.123068,0.138714
1694788034085937,-9.179314,3.480942,0.413762,0.416871,0.131668,0.143214
1694788034093750,-9.190314,3.512942,0.468762,0.418171,0.145368,0.147614
1694788034101562,-9.191314,3.532942,0.518762,0.412171,0.130268,0.146414
1694788034109375,-9.198314,3.518942,0.531762,0.404971,0.140868,0.155714
1694788034117187,-9.227314,3.542942,0.559762,0.406071,0.147868,0.161714
1694788034125000,-9.271314,3.629942,0.604762,0.409471,0.142668,0.161914
1694788034132812,-9.293314,3.698942,0.659762,0.400671,0.134468,0.163714
1694788034140625,-9.270314,3.768942,0.682762,0.378171,0.129568,0.159414
1694788034148437,-9.257314,3.831942,0.733762,0.366871,0.117668,0.148714
1694788034156250,-9.262314,3.874942,0.771762,0.344071,0.117868,0.141014
1694788034164062,-9.292314,3.917942,0.819762,0.319371,0.111568,0.138114
1694788034171875,-9.284314,3.896942,0.849762,0.301771,0.113768,0.136414
1694788034179687,-9.208314,3.819942,0.899762,0.272871,0.105868,0.135314
1694788034187500,-9.119314,3.717942,0.985762,0.257971,0.89068,0.131114
1694788034195312,-9.68314,3.657942,-1.42762,0.249771,0.94568,0.135614
1694788034203125,-9.96314,3.719942,-1.78762,0.242471,0.98068,0.135714
1694788034210937,-9.148314,3.713942,-1.99762,0.227471,0.96868,0.140514
1694788034218750,-9.183314,3.729942,-1.122762,0.224671,0.82068,0.148814
1694788034226562,-9.195314,3.776942,-1.158762,0.212471,0.80668,0.150414
1694788034234375,-9.234314,3.830942,-1.158762,0.193971,0.76068,0.152214
1694788034242187,-9.259314,3.893942,-1.154762,0.186171,0.57668,0.149514
1694788034250000,-9.246314,3.940942,-1.165762,0.162971,0.44468,0.143614
1694788034257812,-9.198314,3.978942,-1.188762,0.143771,0.46268,0.140714
1694788034265625,-9.129314,3.967942,-1.218762,0.126571,0.26468,0.139614
1694788034273437,-9.51314,3.877942,-1.254762,0.106371,0.17968,0.125814
1694788034281250,-9.39314,3.832942,-1.288762,0.92671,0.24768,0.119514
1694788034289062,-9.59314,3.842942,-1.302762,0.98371,0.32968,0.114514
1694788034296875,-9.155314,3.890942,-1.300762,0.90471,0.37568,0.100314
1694788034304687,-9.227314,3.971942,-1.298762,0.99671,0.30268,0.91014
1694788034312500,-9.273314,4.41942,-1.293762,0.84071,0.21568,0.75614
1694788034320312,-9.240314,4.82942,-1.302762,0.71871,0.9468,0.60314
1694788034328125,-9.180314,4.91942,-1.327762,0.54171,0.1168,0.51114
1694788034335937,-9.142314,4.104942,-1.339762,0.32871,0.12432,0.37414
1694788034343750,-9.85314,4.72942,-1.307762,0.6971,0.11932,0.36014
1694788034351562,-9.28314,4.19942,-1.302762,0.9829,0.17032,0.26914
1694788034359375,-9.6314,3.932942,-1.327762,0.28529,0.17032,0.16014
1694788034367187,-9.28314,3.855942,-1.327762,0.26829,0.11632,0.26814
1694788034375000,-9.71314,3.835942,-1.279762,0.39129,0.21632,0.20914
1694788034382812,-9.77314,3.834942,-1.251762,0.47329,0.34832,0.21114
1694788034390625,-9.54314,3.865942,-1.231762,0.40329,0.35332,0.18114
1694788034398437,-8.996314,3.839942,-1.222762,0.45529,0.33432,0.16414
1694788034406250,-8.918314,3.804942,-1.233762,0.36629,0.32432,0.3814
1694788034414062,-8.866314,3.820942,-1.210762,0.26229,0.12632,0.1486
1694788034421875,-8.869314,3.823942,-1.208762,0.24329,0.9632,0.7786
1694788034429687,-8.897314,3.843942,-1.190762,0.25229,0.10568,0.6486
1694788034437500,-8.940314,3.920942,-1.179762,0.24329,0.15568,0.9886
1694788034445312,-9.27314,3.995942,-1.195762,0.41229,0.20668,0.19286
1694788034453125,-9.95314,4.46942,-1.175762,0.52329,0.29168,0.24186
1694788034460937,-9.151314,4.112942,-1.198762,0.65529,0.24268,0.23886
1694788034468750,-9.161314,4.184942,-1.230762,0.90229,0.22968,0.28386
1694788034476562,-9.56314,4.114942,-1.238762,0.124129,0.18768,0.28186
1694788034484375,-8.921314,3.962942,-1.254762,0.151029,0.27268,0.35886
1694788034492187,-8.821314,3.823942,-1.277762,0.164829,0.36068,0.34486
1694788034500000,-8.836314,3.743942,-1.301762,0.156829,0.49568,0.28486
1694788034507812,-8.929314,3.719942,-1.308762,0.151829,0.60068,0.14586
1694788034515625,-9.20314,3.761942,-1.297762,0.150929,0.64868,0.22686
1694788034523437,-9.85314,3.803942,-1.336762,0.143729,0.71568,0.22986
1694788034531250,-9.157314,3.837942,-1.359762,0.147929,0.49668,0.23886
1694788034539062,-9.221314,3.860942,-1.393762,0.137229,0.39168,0.26886
1694788034546875,-9.247314,3.820942,-1.436762,0.152529,0.19068,0.30986
1694788034554687,-9.214314,3.731942,-1.484762,0.150329,0.3868,0.35586
1694788034562500,-9.163314,3.654942,-1.504762,0.136429,0.332,0.47986
1694788034570312,-9.111314,3.608942,-1.488762,0.119329,0.4432,0.54186
1694788034578125,-9.85314,3.559942,-1.476762,0.112129,0.19732,0.57186
1694788034585937,-9.64314,3.549942,-1.456762,0.99029,0.31632,0.55486
1694788034593750,-9.74314,3.577942,-1.433762,0.77029,0.49132,0.56686
1694788034601562,-9.120314,3.608942,-1.411762,0.63229,0.50932,0.52086
1694788034609375,-9.176314,3.619942,-1.360762,0.50029,0.57232,0.38086
1694788034617187,-9.172314,3.670942,-1.329762,0.51429,0.77032,0.26586
1694788034625000,-9.73314,3.711942,-1.311762,0.55829,0.92132,0.26186
1694788034632812,-8.955314,3.685942,-1.315762,0.54429,0.95332,0.23086
1694788034640625,-8.909314,3.590942,-1.324762,0.60229,0.81832,0.23286
1694788034648437,-8.927314,3.486942,-1.289762,0.48429,0.66732,0.22186
1694788034656250,-8.985314,3.443942,-1.249762,0.27429,0.60432,0.15986
1694788034664062,-9.18314,3.471942,-1.212762,0.13929,0.53532,0.6886
1694788034671875,-9.21314,3.525942,-1.214762,0.329,0.45432,0.8686
1694788034679687,-9.34314,3.578942,-1.237762,0.2829,0.38732,0.7186
1694788034687500,-9.68314,3.596942,-1.231762,0.4771,0.33732,0.5786
1694788034695312,-9.114314,3.567942,-1.251762,0.17571,0.33932,0.7586
1694788034703125,-9.149314,3.561942,-1.292762,0.21971,0.32232,0.414
1694788034710937,-9.181314,3.564942,-1.329762,0.24671,0.40632,0.2014
1694788034718750,-9.211314,3.523942,-1.351762,0.22671,0.45632,0.986
1694788034726562,-9.188314,3.473942,-1.374762,0.27371,0.50932,0.2486
1694788034734375,-9.118314,3.421942,-1.385762,0.35271,0.56032,0.7386
1694788034742187,-9.82314,3.395942,-1.380762,0.46371,0.57832,0.2686
1694788034750000,-9.97314,3.423942,-1.394762,0.55171,0.57732,0.10114
1694788034757812,-9.123314,3.474942,-1.392762,0.65771,0.63132,0.8514
1694788034765625,-9.165314,3.576942,-1.392762,0.70371,0.66132,0.17914
1694788034773437,-9.190314,3.668942,-1.411762,0.56471,0.63832,0.25814
1694788034781250,-9.198314,3.717942,-1.377762,0.33471,0.76832,0.26214
1694788034789062,-9.75314,3.678942,-1.367762,0.21071,0.91432,0.31314
1694788034796875,-8.915314,3.564942,-1.403762,0.0,0.86032,0.31314
1694788034804687,-8.855314,3.454942,-1.424762,0.0,0.67132,0.40314
1694788034812500,-8.924314,3.422942,-1.410762,0.21471,0.55732,0.39914
1694788034820312,-9.21314,3.426942,-1.365762,0.28571,0.35832,0.42814
1694788034828125,-9.75314,3.501942,-1.335762,0.45071,0.37732,0.44214
1694788034835937,-9.79314,3.606942,-1.326762,0.40371,0.32432,0.45614
1694788034843750,-9.75314,3.657942,-1.361762,0.45071,0.22632,0.42314
1694788034851562,-9.119314,3.670942,-1.363762,0.43971,0.14332,0.40614
1694788034859375,-9.152314,3.668942,-1.360762,0.44571,0.12532,0.38814
1694788034867187,-9.107314,3.669942,-1.402762,0.34171,0.16232,0.28114
1694788034875000,-9.30314,3.670942,-1.438762,0.26271,0.10932,0.26414
1694788034882812,-9.8314,3.676942,-1.454762,0.25171,0.9532,0.21814
1694788034890625,-9.17314,3.706942,-1.484762,0.17271,0.10832,0.26514
1694788034898437,-9.11314,3.775942,-1.511762,0.929,0.5332,0.28114
1694788034906250,-9.13314,3.759942,-1.547762,0.11529,0.1632,0.31214
1694788034914062,-8.985314,3.692942,-1.554762,0.25329,0.5268,0.28014
1694788034921875,-8.942314,3.628942,-1.582762,0.22929,0.8468,0.29714
1694788034929687,-8.931314,3.585942,-1.629762,0.25429,0.12068,0.27814
1694788034937500,-8.967314,3.531942,-1.629762,0.28229,0.25668,0.30714
1694788034945312,-9.25314,3.492942,-1.622762,0.23429,0.29268,0.40014
1694788034953125,-9.57314,3.511942,-1.606762,0.26729,0.41268,0.41314
1694788034960937,-9.103314,3.553942,-1.634762,0.17129,0.34568,0.49314
1694788034968750,-9.145314,3.603942,-1.693762,0.17029,0.24868,0.60514
1694788034976562,-9.184314,3.679942,-1.702762,0.19929,0.21568,0.60614
1694788034984375,-9.182314,3.742942,-1.716762,0.23529,0.16668,0.60614
1694788034992187,-9.145314,3.766942,-1.718762,0.27829,0.8268,0.59314
1694788035000000,-9.64314,3.712942,-1.716762,0.46729,0.3132,0.56514
1694788035007812,-8.980314,3.679942,-1.709762,0.49329,0.8232,0.56714
1694788035015625,-8.965314,3.692942,-1.704762,0.49029,0.11868,0.56314
1694788035023437,-8.993314,3.753942,-1.716762,0.45929,0.20168,0.54514
1694788035031250,-8.994314,3.853942,-1.725762,0.58229,0.18568,0.48414
1694788035039062,-8.977314,3.937942,-1.757762,0.73529,0.21768,0.39014
1694788035046875,-8.957314,3.936942,-1.780762,0.80929,0.23168,0.29714
1694788035054687,-8.896314,3.871942,-1.792762,0.109829,0.25268,0.25214
1694788035062500,-8.862314,3.793942,-1.844762,0.125529,0.35868,0.24914
1694788035070312,-8.862314,3.758942,-1.882762,0.139329,0.47868,0.23214
1694788035078125,-8.942314,3.776942,-1.907762,0.141929,0.46468,0.31114
1694788035085937,-9.18314,3.785942,-1.878762,0.149929,0.48868,0.42014
1694788035093750,-9.32314,3.788942,-1.841762,0.154129,0.30268,0.41014
1694788035101562,-9.24314,3.765942,-1.848762,0.159329,0.15568,0.44314
1694788035109375,-8.986314,3.708942,-1.848762,0.161829,0.10368,0.43014
1694788035117187,-8.967314,3.667942,-1.859762,0.154329,0.8568,0.44614
1694788035125000,-8.987314,3.638942,-1.839762,0.148029,0.11668,0.42914
1694788035132812,-8.994314,3.667942,-1.809762,0.138929,0.9868,0.44514
1694788035140625,-8.986314,3.714942,-1.807762,0.126929,0.17868,0.39514
1694788035148437,-8.958314,3.722942,-1.827762,0.127729,0.2768,0.34914
1694788035156250,-8.942314,3.679942,-1.834762,0.122829,0.2668,0.36614
1694788035164062,-8.911314,3.633942,-1.831762,0.116029,0.4368,0.37914
1694788035171875,-8.917314,3.613942,-1.816762,0.96629,0.1632,0.30314
1694788035179687,-8.958314,3.635942,-1.809762,0.73229,0.2868,0.30114
1694788035187500,-9.10314,3.692942,-1.807762,0.72229,0.5432,0.31814
1694788035195312,-9.40314,3.756942,-1.800762,0.48229,0.18032,0.24014
1694788035203125,-9.55314,3.825942,-1.800762,0.37629,0.23432,0.19314
1694788035210937,-9.12314,3.813942,-1.800762,0.31329,0.27232,0.13114
1694788035218750,-8.946314,3.761942,-1.793762,0.25629,0.22732,0.2014
1694788035226562,-8.910314,3.730942,-1.814762,0.26429,0.26132,0.4286
1694788035234375,-8.950314,3.757942,-1.814762,0.24429,0.31432,0.7286
1694788035242187,-9.22314,3.814942,-1.805762,0.11429,0.33632,0.8686
1694788035250000,-9.38314,3.875942,-1.778762,0.16629,0.38832,0.16486
1694788035257812,-9.5314,3.953942,-1.782762,0.24529,0.43832,0.21086
1694788035265625,-8.963314,4.14942,-1.817762,0.33229,0.42132,0.22586
1694788035273437,-8.926314,3.997942,-1.810762,0.69129,0.38232,0.31986
1694788035281250,-8.903314,3.948942,-1.771762,0.76729,0.37932,0.28786
1694788035289062,-8.879314,3.899942,-1.741762,0.93829,0.40732,0.25486
1694788035296875,-8.829314,3.815942,-1.741762,0.100729,0.32032,0.17686
1694788035304687,-8.819314,3.786942,-1.755762,0.103929,0.21932,0.22686
1694788035312500,-8.830314,3.782942,-1.748762,0.105329,0.16632,0.14886
1694788035320312,-8.861314,3.790942,-1.757762,0.121229,0.13232,0.25986
1694788035328125,-8.889314,3.824942,-1.802762,0.122729,0.4832,0.29286
1694788035335937,-8.899314,3.807942,-1.812762,0.137329,0.6632,0.35186
1694788035343750,-8.896314,3.803942,-1.825762,0.148629,0.6132,0.32186
1694788035351562,-8.896314,3.782942,-1.844762,0.157329,0.1332,0.39986
1694788035359375,-8.954314,3.758942,-1.834762,0.173229,0.10968,0.38686
1694788035367187,-9.13314,3.735942,-1.832762,0.172629,0.9168,0.38586
1694788035375000,-9.54314,3.746942,-1.816762,0.170929,0.7168,0.43186
1694788035382812,-9.81314,3.740942,-1.837762,0.183129,0.5832,0.38086
1694788035390625,-9.70314,3.722942,-1.843762,0.190729,0.8632,0.30186
1694788035398437,-9.48314,3.667942,-1.859762,0.192829,0.13632,0.31686
1694788035406250,-9.29314,3.599942,-1.889762,0.198529,0.8332,0.26986
1694788035414062,-9.43314,3.539942,-1.886762,0.193429,0.8132,0.15986
1694788035421875,-9.65314,3.515942,-1.875762,0.193229,0.7632,0.3486
1694788035429687,-9.77314,3.505942,-1.873762,0.183529,0.15932,0.7714
1694788035437500,-9.69314,3.506942,-1.875762,0.170129,0.24332,0.14014
1694788035445312,-9.70314,3.534942,-1.877762,0.163329,0.22432,0.25014
1694788035453125,-9.91314,3.581942,-1.884762,0.151229,0.27632,0.28114
1694788035460937,-9.92314,3.599942,-1.878762,0.146529,0.34532,0.26714
1694788035468750,-9.63314,3.582942,-1.889762,0.150129,0.50532,0.41114
1694788035476562,-9.3314,3.540942,-1.900762,0.146429,0.50332,0.44014
1694788035484375,-8.927314,3.479942,-1.916762,0.136029,0.49032,0.45714
1694788035492187,-8.918314,3.456942,-1.909762,0.123329,0.49532,0.44214
1694788035500000,-8.960314,3.477942,-1.873762,0.99429,0.43232,0.42214
1694788035507812,-8.999314,3.586942,-1.814762,0.82229,0.48832,0.40814
1694788035515625,-9.13314,3.737942,-1.789762,0.73829,0.45332,0.43614
1694788035523437,-8.995314,3.863942,-1.782762,0.79729,0.49332,0.26614
1694788035531250,-8.966314,3.939942,-1.796762,0.100029,0.50732,0.22014
1694788035539062,-8.914314,3.952942,-1.830762,0.123329,0.47232,0.11014
1694788035546875,-8.858314,3.888942,-1.860762,0.146629,0.36732,0.6114
1694788035554687,-8.796314,3.750942,-1.907762,0.161329,0.29832,0.4614
1694788035562500,-8.758314,3.580942,-1.921762,0.167329,0.28332,0.1586
1694788035570312,-8.796314,3.473942,-1.904762,0.150029,0.6432,0.2314
1694788035578125,-8.894314,3.448942,-1.897762,0.132429,0.3532,0.2314
1694788035585937,-8.983314,3.490942,-1.911762,0.117129,0.6168,0.1914
1694788035593750,-9.50314,3.568942,-1.914762,0.100129,0.10868,0.3314
1694788035601562,-9.112314,3.652942,-1.941762,0.98829,0.4068,0.1914
1694788035609375,-9.149314,3.721942,-1.987762,0.97129,0.2632,0.3614
1694788035617187,-9.139314,3.781942,-2.33762,0.110729,0.4132,0.614
1694788035625000,-9.123314,3.815942,-2.67762,0.123029,0.15232,0.11914
1694788035632812,-9.100314,3.783942,-2.83762,0.128729,0.30032,0.20214
1694788035640625,-9.95314,3.752942,-2.108762,0.145529,0.41332,0.23714
1694788035648437,-9.118314,3.743942,-2.117762,0.147029,0.55732,0.39614
1694788035656250,-9.132314,3.750942,-2.99762,0.151229,0.59032,0.42914
1694788035664062,-9.127314,3.757942,-2.67762,0.154829,0.75532,0.46414
1694788035671875,-9.97314,3.791942,-2.28762,0.165929,0.87032,0.45014
1694788035679687,-9.96314,3.808942,-2.3762,0.171729,0.97032,0.46914
1694788035687500,-9.83314,3.827942,-1.980762,0.169829,0.102132,0.47114
1694788035695312,-9.53314,3.851942,-1.939762,0.170129,0.109032,0.44114
1694788035703125,-8.961314,3.843942,-1.917762,0.173129,0.124632,0.31914
1694788035710937,-8.856314,3.795942,-1.910762,0.179529,0.118032,0.22414
1694788035718750,-8.787314,3.732942,-1.866762,0.175429,0.113432,0.12814
1694788035726562,-8.752314,3.698942,-1.814762,0.172429,0.110332,0.8014
1694788035734375,-8.765314,3.651942,-1.789762,0.161629,0.100632,0.3014
1694788035742187,-8.797314,3.654942,-1.764762,0.148229,0.94532,0.6586
1694788035750000,-8.831314,3.684942,-1.786762,0.130229,0.93632,0.17786
1694788035757812,-8.786314,3.659942,-1.814762,0.122629,0.92132,0.19486
1694788035765625,-8.774314,3.604942,-1.834762,0.120829,0.84032,0.24286
1694788035773437,-8.834314,3.539942,-1.827762,0.96629,0.74232,0.21586
1694788035781250,-8.922314,3.531942,-1.822762,0.78129,0.60832,0.12586
1694788035789062,-9.16314,3.601942,-1.843762,0.74929,0.71032,0.10786
1694788035796875,-9.66314,3.672942,-1.820762,0.60129,0.64032,0.1686
1694788035804687,-9.72314,3.734942,-1.800762,0.47529,0.69232,0.4614
1694788035812500,-9.13314,3.765942,-1.827762,0.47629,0.79132,0.9514
1694788035820312,-8.935314,3.787942,-1.848762,0.53129,0.90332,0.22514
1694788035828125,-8.873314,3.807942,-1.866762,0.65529,0.84832,0.27114
1694788035835937,-8.855314,3.805942,-1.848762,0.72829,0.77232,0.44214
1694788035843750,-8.835314,3.777942,-1.837762,0.74129,0.70432,0.45714
1694788035851562,-8.814314,3.760942,-1.823762,0.71329,0.65332,0.47014
1694788035859375,-8.805314,3.772942,-1.837762,0.64629,0.65332,0.53414
1694788035867187,-8.844314,3.798942,-1.844762,0.61729,0.62032,0.53314
1694788035875000,-8.889314,3.873942,-1.846762,0.64329,0.52232,0.46914
1694788035882812,-8.903314,3.965942,-1.855762,0.70829,0.47132,0.42014
1694788035890625,-8.921314,3.984942,-1.899762,0.72829,0.39032,0.30814
1694788035898437,-8.916314,3.980942,-1.919762,0.90029,0.49132,0.21714
1694788035906250,-8.889314,3.909942,-1.942762,0.98229,0.49432,0.14114
1694788035914062,-8.869314,3.828942,-1.985762,0.103929,0.47632,0.7614
1694788035921875,-8.879314,3.811942,-1.992762,0.107229,0.47532,0.15814
1694788035929687,-8.917314,3.805942,-1.960762,0.101729,0.57732,0.14314
1694788035937500,-8.987314,3.829942,-1.951762,0.98729,0.54232,0.17314
1694788035945312,-9.24314,3.849942,-1.946762,0.98729,0.71232,0.14514
1694788035953125,-9.15314,3.880942,-1.949762,0.97629,0.69832,0.6614
1694788035960937,-8.998314,3.906942,-1.917762,0.101929,0.81832,0.714
1694788035968750,-8.985314,3.923942,-1.908762,0.104929,0.83832,0.8586
1694788035976562,-8.970314,3.900942,-1.885762,0.122329,0.85332,0.16386
1694788035984375,-8.941314,3.858942,-1.858762,0.123529,0.83732,0.17986
1694788035992187,-8.885314,3.838942,-1.876762,0.124129,0.90332,0.16286
1694788036000000,-8.844314,3.815942,-1.869762,0.134529,0.84932,0.13186
1694788036007812,-8.826314,3.790942,-1.834762,0.145029,0.67732,0.8786
1694788036015625,-8.811314,3.746942,-1.825762,0.143929,0.62432,0.4286
1694788036023437,-8.784314,3.687942,-1.846762,0.137029,0.57532,0.414
1694788036031250,-8.797314,3.663942,-1.871762,0.129529,0.54232,0.1814
1694788036039062,-8.851314,3.655942,-1.864762,0.123629,0.55632,0.9614
1694788036046875,-8.918314,3.650942,-1.857762,0.119229,0.45332,0.15514
1694788036054687,-8.946314,3.679942,-1.866762,0.119029,0.43632,0.15514
1694788036062500,-8.960314,3.717942,-1.905762,0.114529,0.50532,0.14114
1694788036070312,-8.968314,3.767942,-1.925762,0.97729,0.40532,0.20014
1694788036078125,-8.966314,3.771942,-1.916762,0.99229,0.39132,0.13714
1694788036085937,-8.923314,3.774942,-1.910762,0.98529,0.47532,0.17214
1694788036093750,-8.878314,3.807942,-1.905762,0.95929,0.45732,0.20114
1694788036101562,-8.851314,3.829942,-1.891762,0.88329,0.39232,0.18414
1694788036109375,-8.864314,3.889942,-1.905762,0.94129,0.39332,0.13814
1694788036117187,-8.893314,3.930942,-1.901762,0.95829,0.38932,0.20014
1694788036125000,-8.914314,3.954942,-1.894762,0.99729,0.36932,0.29514
1694788036132812,-8.909314,3.971942,-1.914762,0.115529,0.46532,0.32814
1694788036140625,-8.892314,3.995942,-1.919762,0.126129,0.46032,0.37614
1694788036148437,-8.878314,3.977942,-1.924762,0.138329,0.42532,0.34514
1694788036156250,-8.848314,3.973942,-1.901762,0.158529,0.32132,0.29614
1694788036164062,-8.809314,3.945942,-1.898762,0.171929,0.32032,0.28214
1694788036171875,-8.754314,3.859942,-1.919762,0.170029,0.23632,0.31214
1694788036179687,-8.726314,3.776942,-1.907762,0.171829,0.23432,0.31214
1694788036187500,-8.746314,3.745942,-1.907762,0.169729,0.3032,0.40214
1694788036195312,-8.805314,3.730942,-1.905762,0.153029,0.4832,0.44814
1694788036203125,-8.884314,3.723942,-1.900762,0.147129,0.3332,0.43114
1694788036210937,-8.927314,3.734942,-1.912762,0.137529,0.8268,0.44414
1694788036218750,-8.939314,3.751942,-1.910762,0.126629,0.3932,0.43114
1694788036226562,-8.969314,3.766942,-1.932762,0.123829,0.10832,0.38514
1694788036234375,-8.965314,3.762942,-1.925762,0.115629,0.15932,0.38414
1694788036242187,-8.952314,3.775942,-1.928762,0.97129,0.24632,0.40114
1694788036250000,-8.950314,3.781942,-1.939762,0.80129,0.25332,0.33814
1694788036257812,-8.949314,3.805942,-1.928762,0.72229,0.30632,0.33914
1694788036265625,-8.926314,3.835942,-1.932762,0.74129,0.32432,0.29214
1694788036273437,-8.906314,3.854942,-1.926762,0.72729,0.33032,0.15114
1694788036281250,-8.863314,3.870942,-1.935762,0.71729,0.35032,0.4114
1694788036289062,-8.827314,3.860942,-1.944762,0.68629,0.33432,0.4014
1694788036296875,-8.825314,3.867942,-1.923762,0.73129,0.33432,0.2514
1694788036304687,-8.848314,3.903942,-1.949762,0.74429,0.38332,0.7414
1694788036312500,-8.864314,3.943942,-1.942762,0.73129,0.21432,0.6914
1694788036320312,-8.849314,3.976942,-1.974762,0.80329,0.26232,0.11814
1694788036328125,-8.799314,4.7942,-2.3762,0.87829,0.24132,0.19714
1694788036335937,-8.787314,3.995942,-2.30762,0.99329,0.18632,0.17914
1694788036343750,-8.801314,3.958942,-2.24762,0.116729,0.13332,0.19714
1694788036351562,-8.837314,3.914942,-2.10762,0.122729,0.12932,0.27514
1694788036359375,-8.845314,3.874942,-2.37762,0.122629,0.11232,0.29114
1694788036367187,-8.876314,3.836942,-2.42762,0.121129,0.11332,0.27514
1694788036375000,-8.899314,3.799942,-2.26762,0.118229,0.8132,0.22714
1694788036382812,-8.899314,3.796942,-2.21762,0.99929,0.9132,0.10114
1694788036390625,-8.910314,3.846942,-2.33762,0.97529,0.19632,0.2286
1694788036398437,-8.927314,3.903942,-2.26762,0.98829,0.23332,0.8486
1694788036406250,-8.948314,3.915942,-2.19762,0.97629,0.27032,0.17786
1694788036414062,-8.952314,3.908942,-2.26762,0.102229,0.27432,0.30286
1694788036421875,-8.944314,3.926942,-2.51762,0.104129,0.41432,0.44086
1694788036429687,-8.973314,3.936942,-2.78762,0.115229,0.39632,0.50386
1694788036437500,-8.995314,3.950942,-2.69762,0.124629,0.49632,0.54886
1694788036445312,-8.995314,3.925942,-2.90762,0.128929,0.53032,0.56286
1694788036453125,-8.954314,3.859942,-2.124762,0.148629,0.54332,0.54586
1694788036460937,-8.921314,3.797942,-2.130762,0.147629,0.52632,0.56286
1694788036468750,-8.932314,3.768942,-2.119762,0.148729,0.57632,0.54486
1694788036476562,-8.977314,3.740942,-2.89762,0.147429,0.60532,0.43486
1694788036484375,-9.4314,3.738942,-2.62762,0.148929,0.61732,0.32586
1694788036492187,-9.18314,3.731942,-2.33762,0.154429,0.69832,0.24386
1694788036500000,-9.18314,3.740942,-2.37762,0.154029,0.81032,0.6886
1694788036507812,-9.314,3.733942,-2.23762,0.160029,0.77232,0.586
1694788036515625,-8.991314,3.692942,-2.12762,0.165729,0.84932,0.16914
1694788036523437,-8.951314,3.648942,-1.996762,0.152429,0.88232,0.21514
1694788036531250,-8.908314,3.640942,-1.969762,0.144329,0.88532,0.21514
1694788036539062,-8.900314,3.668942,-1.930762,0.125829,0.85332,0.29214
1694788036546875,-8.871314,3.719942,-1.912762,0.121229,0.83732,0.29114
1694788036554687,-8.828314,3.757942,-1.912762,0.124529,0.88332,0.35414
1694788036562500,-8.796314,3.763942,-1.916762,0.107729,0.79032,0.25714
1694788036570312,-8.762314,3.792942,-1.898762,0.102029,0.80832,0.24114
1694788036578125,-8.765314,3.821942,-1.901762,0.98629,0.65632,0.28514
1694788036585937,-8.786314,3.832942,-1.912762,0.95229,0.62832,0.17514
1694788036593750,-8.792314,3.826942,-1.926762,0.85229,0.66132,0.20514
1694788036601562,-8.798314,3.816942,-1.933762,0.90529,0.54432,0.18914
1694788036609375,-8.785314,3.807942,-1.960762,0.90229,0.52632,0.15514
1694788036617187,-8.776314,3.815942,-2.3762,0.89929,0.49732,0.7714
1694788036625000,-8.774314,3.828942,-2.28762,0.80629,0.48032,0.13814
1694788036632812,-8.808314,3.824942,-1.994762,0.75829,0.42732,0.23114
1694788036640625,-8.862314,3.887942,-1.994762,0.75229,0.50932,0.29714
1694788036648437,-8.866314,3.943942,-1.992762,0.71129,0.45832,0.31014
1694788036656250,-8.865314,4.4942,-2.10762,0.83629,0.50732,0.28014
1694788036664062,-8.843314,4.32942,-2.1762,0.95529,0.40332,0.29514
1694788036671875,-8.799314,4.21942,-1.976762,0.102029,0.46932,0.28014
1694788036679687,-8.777314,4.31942,-1.951762,0.98929,0.40532,0.21614
1694788036687500,-8.776314,4.52942,-1.976762,0.116229,0.33432,0.18314
1694788036695312,-8.797314,4.45942,-1.994762,0.125029,0.41732,0.20214
1694788036703125,-8.831314,4.46942,-1.992762,0.123629,0.33332,0.18414
1694788036710937,-8.860314,4.42942,-1.997762,0.137229,0.39732,0.20314
1694788036718750,-8.878314,4.20942,-2.15762,0.140629,0.31332,0.15314
1694788036726562,-8.866314,3.962942,-2.24762,0.146829,0.43332,0.7814
1694788036734375,-8.834314,3.914942,-2.35762,0.141529,0.45332,0.8014
1694788036742187,-8.825314,3.853942,-2.28762,0.143129,0.43732,0.3214
1694788036750000,-8.869314,3.828942,-2.19762,0.126929,0.50432,0.11014
1694788036757812,-8.915314,3.830942,-1.996762,0.123129,0.52532,0.6414
1694788036765625,-8.914314,3.833942,-1.992762,0.122329,0.50732,0.6314
1694788036773437,-8.877314,3.831942,-2.28762,0.120129,0.52532,0.6414
1694788036781250,-8.840314,3.812942,-2.48762,0.100729,0.61132,0.9514
1694788036789062,-8.813314,3.811942,-2.37762,0.99029,0.53232,0.0
1694788036796875,-8.797314,3.845942,-2.30762,0.85829,0.51832,0.3386
1694788036804687,-8.793314,3.894942,-2.28762,0.85829,0.56732,0.86
1694788036812500,-8.802314,3.911942,-2.8762,0.90329,0.53532,0.4786
1694788036820312,-8.802314,3.907942,-2.3762,0.85529,0.53532,0.1686
1694788036828125,-8.793314,3.887942,-2.10762,0.96229,0.43032,0.1314
1694788036835937,-8.811314,3.884942,-2.21762,0.99029,0.43232,0.1786
1694788036843750,-8.839314,3.941942,-2.24762,0.99229,0.37932,0.1214
1694788036851562,-8.884314,3.951942,-2.26762,0.100729,0.34532,0.2714
1694788036859375,-8.912314,3.937942,-2.38762,0.107929,0.51232,0.4814
1694788036867187,-8.922314,3.907942,-2.49762,0.110429,0.50832,0.7714
1694788036875000,-8.908314,3.873942,-2.53762,0.117729,0.52632,0.3114
1694788036882812,-8.883314,3.841942,-2.30762,0.110329,0.59732,0.2986
1694788036890625,-8.845314,3.827942,-2.10762,0.97629,0.55232,0.7786
1694788036898437,-8.797314,3.817942,-1.994762,0.99329,0.51832,0.7886
1694788036906250,-8.797314,3.801942,-1.985762,0.97629,0.54032,0.20386
1694788036914062,-8.772314,3.792942,-1.978762,0.97529,0.49232,0.25086
1694788036921875,-8.761314,3.799942,-1.996762,0.74929,0.41532,0.31786
1694788036929687,-8.777314,3.830942,-1.992762,0.74829,0.34732,0.30386
1694788036937500,-8.791314,3.853942,-1.994762,0.73529,0.33232,0.35086
1694788036945312,-8.811314,3.830942,-2.17762,0.74729,0.36532,0.31786
1694788036953125,-8.806314,3.806942,-2.39762,0.73429,0.16332,0.32386
1694788036960937,-8.829314,3.799942,-2.60762,0.77329,0.19332,0.24286
1694788036968750,-8.881314,3.825942,-2.83762,0.78929,0.12032,0.11986
1694788036976562,-8.958314,3.860942,-2.117762,0.91329,0.28232,0.3686
1694788036984375,-8.971314,3.838942,-2.158762,0.98829,0.42532,0.15414
1694788036992187,-8.976314,3.836942,-2.176762,0.100229,0.38832,0.23214
1694788037000000,-8.940314,3.821942,-2.169762,0.114629,0.38132,0.36014
1694788037007812,-8.877314,3.823942,-2.147762,0.119329,0.34632,0.35914
1694788037015625,-8.854314,3.848942,-2.165762,0.121529,0.39532,0.34314
1694788037023437,-8.859314,3.827942,-2.151762,0.124029,0.46032,0.42414
1694788037031250,-8.862314,3.806942,-2.133762,0.122929,0.39132,0.43714
1694788037039062,-8.840314,3.799942,-2.119762,0.120529,0.40932,0.47114
1694788037046875,-8.856314,3.822942,-2.99762,0.122229,0.43832,0.58114
1694788037054687,-8.860314,3.805942,-2.76762,0.121029,0.45332,0.59614
1694788037062500,-8.855314,3.783942,-2.89762,0.122929,0.47432,0.47014
1694788037070312,-8.869314,3.792942,-2.130762,0.110729,0.46132,0.43814
1694788037078125,-8.919314,3.811942,-2.133762,0.100229,0.46332,0.45314
1694788037085937,-8.966314,3.859942,-2.126762,0.99329,0.51332,0.43714
1694788037093750,-8.967314,3.910942,-2.112762,0.94429,0.56532,0.43814
1694788037101562,-8.941314,3.900942,-2.97762,0.90929,0.66932,0.41014
1694788037109375,-8.885314,3.903942,-2.78762,0.97829,0.63232,0.42414
1694788037117187,-8.837314,3.927942,-2.99762,0.95329,0.70532,0.34914
1694788037125000,-8.834314,3.943942,-2.92762,0.92829,0.68832,0.33214
1694788037132812,-8.824314,3.974942,-2.65762,0.100429,0.67032,0.31614
1694788037140625,-8.820314,4.39942,-2.74762,0.112429,0.61732,0.33214
1694788037148437,-8.817314,4.39942,-2.94762,0.125029,0.71632,0.30314
1694788037156250,-8.781314,4.11942,-2.95762,0.120029,0.76932,0.28914
1694788037164062,-8.747314,3.973942,-2.63762,0.127529,0.73632,0.22614
1694788037171875,-8.710314,3.932942,-2.37762,0.125029,0.64032,0.9814
1694788037179687,-8.665314,3.909942,-2.42762,0.121829,0.60832,0.8214
1694788037187500,-8.639314,3.870942,-2.53762,0.126829,0.42232,0.4514
1694788037195312,-8.637314,3.855942,-2.62762,0.127629,0.42232,0.7814
1694788037203125,-8.680314,3.890942,-2.55762,0.117029,0.25232,0.16714
1694788037210937,-8.776314,3.944942,-2.58762,0.120129,0.13632,0.10214
1694788037218750,-8.876314,4.6942,-2.67762,0.120229,0.15532,0.4014
1694788037226562,-8.920314,4.13942,-2.70762,0.118629,0.19132,0.1014
1694788037234375,-8.938314,4.18942,-2.92762,0.123329,0.14332,0.10086
1694788037242187,-8.976314,4.25942,-2.117762,0.128029,0.27832,0.11286
1694788037250000,-8.996314,3.969942,-2.138762,0.144729,0.44132,0.7686
1694788037257812,-8.979314,3.890942,-2.128762,0.148329,0.55832,0.9086
1694788037265625,-8.949314,3.842942,-2.142762,0.146329,0.64232,0.5686
1694788037273437,-8.917314,3.830942,-2.135762,0.148129,0.64132,0.4186
1694788037281250,-8.908314,3.817942,-2.124762,0.137429,0.70832,0.614
1694788037289062,-8.869314,3.819942,-2.83762,0.124329,0.72932,0.4286
1694788037296875,-8.825314,3.846942,-2.60762,0.123429,0.76432,0.3986
1694788037304687,-8.793314,3.850942,-2.60762,0.121729,0.69832,0.5686
1694788037312500,-8.781314,3.862942,-2.35762,0.124029,0.62832,0.4386
1694788037320312,-8.777314,3.862942,-2.28762,0.122229,0.63032,0.5986
1694788037328125,-8.766314,3.857942,-2.30762,0.118829,0.59832,0.5986
1694788037335937,-8.764314,3.880942,-2.26762,0.120729,0.54832,0.10886
1694788037343750,-8.782314,3.904942,-2.42762,0.123329,0.51232,0.4586
1694788037351562,-8.828314,3.913942,-2.62762,0.123229,0.52832,0.1386
1694788037359375,-8.861314,3.917942,-2.33762,0.122129,0.50732,0.6314
1694788037367187,-8.863314,3.929942,-2.37762,0.127329,0.52432,0.1614
1694788037375000,-8.843314,3.916942,-2.46762,0.126629,0.54132,0.3314
1694788037382812,-8.827314,3.896942,-2.56762,0.131129,0.50732,0.1714
1694788037390625,-8.836314,3.870942,-2.39762,0.131329,0.52432,0.1714
1694788037398437,-8.861314,3.856942,-2.26762,0.129229,0.47432,0.4814
1694788037406250,-8.860314,3.854942,-2.42762,0.137329,0.45432,0.4714
1694788037414062,-8.861314,3.847942,-2.31762,0.139829,0.57432,0.414
1694788037421875,-8.835314,3.863942,-2.23762,0.122629,0.51132,0.6286
1694788037429687,-8.804314,3.903942,-2.19762,0.126829,0.46032,0.4786
1694788037437500,-8.778314,3.935942,-1.994762,0.123329,0.46232,0.6186
1694788037445312,-8.760314,3.929942,-2.17762,0.143529,0.39232,0.10986
1694788037453125,-8.744314,3.901942,-2.26762,0.143129,0.30932,0.12686
1694788037460937,-8.747314,3.884942,-2.19762,0.150129,0.26032,0.17286
1694788037468750,-8.759314,3.879942,-2.24762,0.149429,0.15432,0.8386
1694788037476562,-8.770314,3.871942,-2.37762,0.150829,0.15032,0.486
1694788037484375,-8.777314,3.884942,-2.97762,0.155129,0.21432,0.7514
1694788037492187,-8.813314,3.885942,-2.133762,0.164429,0.15732,0.16814
1694788037500000,-8.903314,3.872942,-2.131762,0.160329,0.17132,0.31114
1694788037507812,-8.921314,3.892942,-2.126762,0.162029,0.20432,0.32714
1694788037515625,-8.923314,3.933942,-2.147762,0.147129,0.30732,0.32814
1694788037523437,-8.896314,3.951942,-2.142762,0.147829,0.34432,0.20214
1694788037531250,-8.857314,3.966942,-2.124762,0.146129,0.36132,0.21814
1694788037539062,-8.812314,3.943942,-2.99762,0.147729,0.36232,0.20314
1694788037546875,-8.814314,3.923942,-2.94762,0.146029,0.38032,0.18814
1694788037554687,-8.811314,3.892942,-2.90762,0.149329,0.46232,0.20514
1694788037562500,-8.790314,3.813942,-2.64762,0.139929,0.48032,0.23714
1694788037570312,-8.784314,3.720942,-2.44762,0.123529,0.51732,0.23614
1694788037578125,-8.776314,3.655942,-2.55762,0.91529,0.50732,0.21814
1694788037585937,-8.756314,3.646942,-2.50762,0.67029,0.53132,0.18514
1694788037593750,-8.749314,3.713942,-2.44762,0.35329,0.57132,0.16814
1694788037601562,-8.749314,3.847942,-2.28762,0.21829,0.42932,0.714
1694788037609375,-8.753314,3.933942,-2.24762,0.5129,0.42132,0.11986
1694788037617187,-8.751314,4.5942,-2.21762,0.2271,0.42332,0.15186
1694788037625000,-8.722314,4.47942,-2.69762,0.20629,0.33332,0.13686
1694788037632812,-8.718314,4.60942,-2.88762,0.24729,0.21432,0.10686
1694788037640625,-8.721314,4.51942,-2.101762,0.36429,0.24532,0.7286
1694788037648437,-8.755314,4.98942,-2.133762,0.48529,0.29032,0.886
1694788037656250,-8.798314,4.104942,-2.165762,0.67029,0.19932,0.5314
1694788037664062,-8.843314,4.57942,-2.195762,0.78829,0.22632,0.18014
1694788037671875,-8.886314,4.64942,-2.202762,0.93829,0.33732,0.29414
1694788037679687,-8.913314,4.48942,-2.240762,0.114029,0.36232,0.35714
1694788037687500,-8.938314,4.5942,-2.236762,0.122729,0.36232,0.34314
1694788037695312,-8.940314,3.982942,-2.220762,0.121129,0.49932,0.31514
1694788037703125,-8.925314,3.965942,-2.238762,0.123129,0.53032,0.34614
1694788037710937,-8.884314,3.951942,-2.235762,0.122129,0.56632,0.25214
1694788037718750,-8.831314,3.938942,-2.213762,0.123129,0.59132,0.8214
1694788037726562,-8.798314,3.898942,-2.213762,0.120529,0.65932,0.6614
1694788037734375,-8.773314,3.855942,-2.208762,0.114129,0.66232,0.3514
1694788037742187,-8.775314,3.839942,-2.194762,0.109529,0.68432,0.4286
1694788037750000,-8.789314,3.848942,-2.172762,0.94329,0.67132,0.7486
1694788037757812,-8.794314,3.884942,-2.138762,0.93129,0.62532,0.18586
1694788037765625,-8.787314,3.949942,-2.133762,0.85629,0.64332,0.18686
1694788037773437,-8.813314,4.8942,-2.160762,0.96629,0.68832,0.12286
1694788037781250,-8.823314,3.988942,-2.181762,0.101529,0.70432,0.13886
1694788037789062,-8.808314,3.950942,-2.181762,0.105529,0.66832,0.7586
1694788037796875,-8.796314,3.942942,-2.185762,0.111429,0.73432,0.7286
1694788037804687,-8.757314,3.931942,-2.197762,0.119429,0.73232,0.7386
1694788037812500,-8.741314,3.884942,-2.181762,0.123529,0.66332,0.4286
1694788037820312,-8.734314,3.832942,-2.140762,0.123229,0.63132,0.5786
1694788037828125,-8.734314,3.841942,-2.110762,0.114329,0.58132,0.4486
1694788037835937,-8.741314,3.850942,-2.83762,0.103429,0.53532,0.9286
1694788037843750,-8.729314,3.823942,-2.67762,0.99229,0.51732,0.4786
1694788037851562,-8.688314,3.802942,-2.64762,0.94229,0.36632,0.3486
1694788037859375,-8.672314,3.773942,-2.83762,0.74429,0.37232,0.6786
1694788037867187,-8.677314,3.789942,-2.99762,0.70029,0.20632,0.11886
1694788037875000,-8.736314,3.830942,-2.126762,0.57829,0.12432,0.12086
1694788037882812,-8.804314,3.858942,-2.131762,0.59329,0.9232,0.16886
1694788037890625,-8.848314,3.887942,-2.174762,0.59129,0.11232,0.21486
1694788037898437,-8.865314,3.927942,-2.229762,0.59129,0.17832,0.19786
1694788037906250,-8.860314,3.889942,-2.261762,0.65129,0.14232,0.15086
1694788037914062,-8.853314,3.851942,-2.294762,0.67529,0.18632,0.7386
1694788037921875,-8.881314,3.855942,-2.329762,0.71429,0.33532,0.2514
1694788037929687,-8.916314,3.844942,-2.343762,0.73929,0.36332,0.16814
1694788037937500,-8.934314,3.875942,-2.331762,0.73629,0.44532,0.24914
1694788037945312,-8.932314,3.952942,-2.324762,0.72729,0.47532,0.29514
1694788037953125,-8.903314,3.982942,-2.320762,0.84829,0.55832,0.26614
1694788037960937,-8.844314,3.977942,-2.336762,0.97029,0.62232,0.30014
1694788037968750,-8.802314,3.962942,-2.331762,0.96429,0.62432,0.28614
1694788037976562,-8.788314,3.947942,-2.322762,0.104529,0.63832,0.28514
1694788037984375,-8.756314,3.904942,-2.315762,0.108929,0.72032,0.33514
1694788037992187,-8.719314,3.847942,-2.303762,0.116129,0.69832,0.34814
1694788038000000,-8.700314,3.807942,-2.306762,0.103029,0.65532,0.30114
1694788038007812,-8.711314,3.825942,-2.295762,0.97029,0.69132,0.25514
1694788038015625,-8.743314,3.878942,-2.276762,0.86929,0.61132,0.18814
1694788038023437,-8.761314,3.914942,-2.288762,0.73529,0.58032,0.15514
1694788038031250,-8.765314,3.938942,-2.283762,0.79129,0.58432,0.6214
1694788038039062,-8.765314,3.952942,-2.302762,0.77729,0.60032,0.7814
1694788038046875,-8.753314,3.920942,-2.308762,0.80729,0.62032,0.0
1694788038054687,-8.729314,3.898942,-2.299762,0.77129,0.60832,0.6086
1694788038062500,-8.664314,3.865942,-2.320762,0.86829,0.53832,0.7886
1694788038070312,-8.619314,3.860942,-2.315762,0.81029,0.53832,0.7986
1694788038078125,-8.667314,3.861942,-2.347762,0.77529,0.47032,0.1786
1694788038085937,-8.748314,3.875942,-2.345762,0.72529,0.35132,0.5814
1694788038093750,-8.819314,3.898942,-2.333762,0.74329,0.43432,0.5914
1694788038101562,-8.863314,3.929942,-2.327762,0.69329,0.46832,0.9214
1694788038109375,-8.860314,3.962942,-2.343762,0.70029,0.48732,0.1314
1694788038117187,-8.840314,3.972942,-2.352762,0.74529,0.53932,0.3286
1694788038125000,-8.803314,3.941942,-2.338762,0.77729,0.53932,0.6386
1694788038132812,-8.774314,3.917942,-2.358762,0.92529,0.61832,0.6386
